"success","trial_type","trial_index","time_elapsed","internal_node_id","interactions","blur_events","focus_events","fullscreenenter_events","fullscreenexit_events","rt","stimulus","key_press","subject_id","participant_id","age","gender","prompt","phase","condition","lure_bin"
"true","fullscreen","0","3697","0.0-0.0","""event"",""trial"",""time""
""fullscreenenter"",""0"",""2741""
","
","
","""event"",""trial"",""time""
""fullscreenenter"",""0"",""2741""
","
","","","","","","","","","","",""
"","pavlovia","1","3707","0.0-1.0","""event"",""trial"",""time""
""fullscreenenter"",""0"",""2741""
","
","
","""event"",""trial"",""time""
""fullscreenenter"",""0"",""2741""
","
","","","","","","","","","","",""
"","welcome","2","38550","0.0-2.0","""event"",""trial"",""time""
""fullscreenenter"",""0"",""2741""
","
","
","""event"",""trial"",""time""
""fullscreenenter"",""0"",""2741""
","
","null","run_exp/static/audio/clip_1_welcome.m4a","null","486","784","21","Female","<div class='center'><p>Welcome to the third part of the study! First, you'll be shown pictures of items one at a time. For each picture, you have to decide if the item is typically found indoors or outdoors.</p><p>If you think it's usually found indoors, then press <b>v</b> key on your keyboard. If you think it's usually found outdoors, then press the <b>n</b> key.There will be reminders on the screen to help you remember which keys to press. </p><p>If you're not sure whether the item is an indoor item or an outdoor item, go ahead and take a guess but try your best not to skip that choice. </p></div>","","",""
"","html-keyboard-response","3","40202","0.0-3.0","""event"",""trial"",""time""
""fullscreenenter"",""0"",""2741""
","
","
","""event"",""trial"",""time""
""fullscreenenter"",""0"",""2741""
","
","1646.1999999955297","<div class='center'><p>Welcome to the third part of the study! First, you'll be shown pictures of items one at a time. For each picture, you have to decide if the item is typically found indoors or outdoors.</p><p>If you think it's usually found indoors, then press <b>v</b> key on your keyboard. If you think it's usually found outdoors, then press the <b>n</b> key.There will be reminders on the screen to help you remember which keys to press. </p><p>If you're not sure whether the item is an indoor item or an outdoor item, go ahead and take a guess but try your best not to skip that choice. </p><div><p><b>[Press the space bar to continue]</b></p></div>","32","","","","","","","",""
"","image","4","41221","0.0-4.0","""event"",""trial"",""time""
""fullscreenenter"",""0"",""2741""
","
","
","""event"",""trial"",""time""
""fullscreenenter"",""0"",""2741""
","
","1015","run_exp/static/images/Set 6_rs/010a.jpg","86","","","","","","learn","SR",""
"","show_choice","5","42212","0.0-5.0","""event"",""trial"",""time""
""fullscreenenter"",""0"",""2741""
","
","
","""event"",""trial"",""time""
""fullscreenenter"",""0"",""2741""
","
","null","run_exp/static/images/Set 6_rs/010a.jpg","null","","","","","","learn","SR",""
"","html-keyboard-response","6","42716","0.0-6.0","""event"",""trial"",""time""
""fullscreenenter"",""0"",""2741""
","
","
","""event"",""trial"",""time""
""fullscreenenter"",""0"",""2741""
","
","null","<p></p>","null","","","","","","","",""
"","image","7","43672","0.0-7.0","""event"",""trial"",""time""
""fullscreenenter"",""0"",""2741""
","
","
","""event"",""trial"",""time""
""fullscreenenter"",""0"",""2741""
","
","953.7000000029802","run_exp/static/images/Set 6_rs/024a.jpg","86","","","","","","learn","SR",""
"","show_choice","8","44724","0.0-8.0","""event"",""trial"",""time""
""fullscreenenter"",""0"",""2741""
","
","
","""event"",""trial"",""time""
""fullscreenenter"",""0"",""2741""
","
","null","run_exp/static/images/Set 6_rs/024a.jpg","null","","","","","","learn","SR",""
"","html-keyboard-response","9","45229","0.0-9.0","""event"",""trial"",""time""
""fullscreenenter"",""0"",""2741""
","
","
","""event"",""trial"",""time""
""fullscreenenter"",""0"",""2741""
","
","null","<p></p>","null","","","","","","","",""
"","image","10","46340","0.0-10.0","""event"",""trial"",""time""
""fullscreenenter"",""0"",""2741""
","
","
","""event"",""trial"",""time""
""fullscreenenter"",""0"",""2741""
","
","1108.3999999985099","run_exp/static/images/Set 6_rs/016a.jpg","86","","","","","","learn","SL",""
"","show_choice","11","47236","0.0-11.0","""event"",""trial"",""time""
""fullscreenenter"",""0"",""2741""
","
","
","""event"",""trial"",""time""
""fullscreenenter"",""0"",""2741""
","
","null","run_exp/static/images/Set 6_rs/016a.jpg","null","","","","","","learn","SL",""
"","html-keyboard-response","12","47739","0.0-12.0","""event"",""trial"",""time""
""fullscreenenter"",""0"",""2741""
","
","
","""event"",""trial"",""time""
""fullscreenenter"",""0"",""2741""
","
","null","<p></p>","null","","","","","","","",""
"","image","13","48838","0.0-13.0","""event"",""trial"",""time""
""fullscreenenter"",""0"",""2741""
","
","
","""event"",""trial"",""time""
""fullscreenenter"",""0"",""2741""
","
","1096.1999999955297","run_exp/static/images/Set 6_rs/012a.jpg","86","","","","","","learn","SR",""
"","show_choice","14","49750","0.0-14.0","""event"",""trial"",""time""
""fullscreenenter"",""0"",""2741""
","
","
","""event"",""trial"",""time""
""fullscreenenter"",""0"",""2741""
","
","null","run_exp/static/images/Set 6_rs/012a.jpg","null","","","","","","learn","SR",""
"","html-keyboard-response","15","50268","0.0-15.0","""event"",""trial"",""time""
""fullscreenenter"",""0"",""2741""
","
","
","""event"",""trial"",""time""
""fullscreenenter"",""0"",""2741""
","
","null","<p></p>","null","","","","","","","",""
"","image","16","51077","0.0-16.0","""event"",""trial"",""time""
""fullscreenenter"",""0"",""2741""
","
","
","""event"",""trial"",""time""
""fullscreenenter"",""0"",""2741""
","
","806.2000000029802","run_exp/static/images/Set 6_rs/055a.jpg","86","","","","","","learn","SL",""
"","show_choice","17","52285","0.0-17.0","""event"",""trial"",""time""
""fullscreenenter"",""0"",""2741""
","
","
","""event"",""trial"",""time""
""fullscreenenter"",""0"",""2741""
","
","null","run_exp/static/images/Set 6_rs/055a.jpg","null","","","","","","learn","SL",""
"","html-keyboard-response","18","52805","0.0-18.0","""event"",""trial"",""time""
""fullscreenenter"",""0"",""2741""
","
","
","""event"",""trial"",""time""
""fullscreenenter"",""0"",""2741""
","
","null","<p></p>","null","","","","","","","",""
"","image","19","53610","0.0-19.0","""event"",""trial"",""time""
""fullscreenenter"",""0"",""2741""
","
","
","""event"",""trial"",""time""
""fullscreenenter"",""0"",""2741""
","
","802.3000000044703","run_exp/static/images/Set 6_rs/062a.jpg","86","","","","","","learn","SL",""
"","show_choice","20","54822","0.0-20.0","""event"",""trial"",""time""
""fullscreenenter"",""0"",""2741""
","
","
","""event"",""trial"",""time""
""fullscreenenter"",""0"",""2741""
","
","null","run_exp/static/images/Set 6_rs/062a.jpg","null","","","","","","learn","SL",""
"","html-keyboard-response","21","55326","0.0-21.0","""event"",""trial"",""time""
""fullscreenenter"",""0"",""2741""
","
","
","""event"",""trial"",""time""
""fullscreenenter"",""0"",""2741""
","
","null","<p></p>","null","","","","","","","",""
"","image","22","56508","0.0-22.0","""event"",""trial"",""time""
""fullscreenenter"",""0"",""2741""
","
","
","""event"",""trial"",""time""
""fullscreenenter"",""0"",""2741""
","
","1179.3000000044703","run_exp/static/images/Set 6_rs/025a.jpg","78","","","","","","learn","SL",""
"","show_choice","23","57334","0.0-23.0","""event"",""trial"",""time""
""fullscreenenter"",""0"",""2741""
","
","
","""event"",""trial"",""time""
""fullscreenenter"",""0"",""2741""
","
","null","run_exp/static/images/Set 6_rs/025a.jpg","null","","","","","","learn","SL",""
"","html-keyboard-response","24","57839","0.0-24.0","""event"",""trial"",""time""
""fullscreenenter"",""0"",""2741""
","
","
","""event"",""trial"",""time""
""fullscreenenter"",""0"",""2741""
","
","null","<p></p>","null","","","","","","","",""
"","image","25","58583","0.0-25.0","""event"",""trial"",""time""
""fullscreenenter"",""0"",""2741""
","
","
","""event"",""trial"",""time""
""fullscreenenter"",""0"",""2741""
","
","741.6000000014901","run_exp/static/images/Set 6_rs/123a.jpg","78","","","","","","learn","SL",""
"","show_choice","26","59852","0.0-26.0","""event"",""trial"",""time""
""fullscreenenter"",""0"",""2741""
","
","
","""event"",""trial"",""time""
""fullscreenenter"",""0"",""2741""
","
","null","run_exp/static/images/Set 6_rs/123a.jpg","null","","","","","","learn","SL",""
"","html-keyboard-response","27","60357","0.0-27.0","""event"",""trial"",""time""
""fullscreenenter"",""0"",""2741""
","
","
","""event"",""trial"",""time""
""fullscreenenter"",""0"",""2741""
","
","null","<p></p>","null","","","","","","","",""
"","image","28","61013","0.0-28.0","""event"",""trial"",""time""
""fullscreenenter"",""0"",""2741""
","
","
","""event"",""trial"",""time""
""fullscreenenter"",""0"",""2741""
","
","653.7999999970198","run_exp/static/images/Set 6_rs/095a.jpg","86","","","","","","learn","SL",""
"","show_choice","29","62375","0.0-29.0","""event"",""trial"",""time""
""fullscreenenter"",""0"",""2741""
","
","
","""event"",""trial"",""time""
""fullscreenenter"",""0"",""2741""
","
","null","run_exp/static/images/Set 6_rs/095a.jpg","null","","","","","","learn","SL",""
"","html-keyboard-response","30","62891","0.0-30.0","""event"",""trial"",""time""
""fullscreenenter"",""0"",""2741""
","
","
","""event"",""trial"",""time""
""fullscreenenter"",""0"",""2741""
","
","null","<p></p>","null","","","","","","","",""
"","image","31","64353","0.0-31.0","""event"",""trial"",""time""
""fullscreenenter"",""0"",""2741""
","
","
","""event"",""trial"",""time""
""fullscreenenter"",""0"",""2741""
","
","1459.6999999955297","run_exp/static/images/Set 6_rs/075a.jpg","78","","","","","","learn","SR",""
"","show_choice","32","64922","0.0-32.0","""event"",""trial"",""time""
""fullscreenenter"",""0"",""2741""
","
","
","""event"",""trial"",""time""
""fullscreenenter"",""0"",""2741""
","
","null","run_exp/static/images/Set 6_rs/075a.jpg","null","","","","","","learn","SR",""
"","html-keyboard-response","33","65438","0.0-33.0","""event"",""trial"",""time""
""fullscreenenter"",""0"",""2741""
","
","
","""event"",""trial"",""time""
""fullscreenenter"",""0"",""2741""
","
","null","<p></p>","null","","","","","","","",""
"","image","34","66435","0.0-34.0","""event"",""trial"",""time""
""fullscreenenter"",""0"",""2741""
","
","
","""event"",""trial"",""time""
""fullscreenenter"",""0"",""2741""
","
","995.1000000014901","run_exp/static/images/Set 6_rs/168a.jpg","86","","","","","","learn","SL",""
"","show_choice","35","67447","0.0-35.0","""event"",""trial"",""time""
""fullscreenenter"",""0"",""2741""
","
","
","""event"",""trial"",""time""
""fullscreenenter"",""0"",""2741""
","
","null","run_exp/static/images/Set 6_rs/168a.jpg","null","","","","","","learn","SL",""
"","html-keyboard-response","36","67963","0.0-36.0","""event"",""trial"",""time""
""fullscreenenter"",""0"",""2741""
","
","
","""event"",""trial"",""time""
""fullscreenenter"",""0"",""2741""
","
","null","<p></p>","null","","","","","","","",""
"","image","37","68683","0.0-37.0","""event"",""trial"",""time""
""fullscreenenter"",""0"",""2741""
","
","
","""event"",""trial"",""time""
""fullscreenenter"",""0"",""2741""
","
","717.3000000044703","run_exp/static/images/Set 6_rs/070a.jpg","86","","","","","","learn","SR",""
"","show_choice","38","69972","0.0-38.0","""event"",""trial"",""time""
""fullscreenenter"",""0"",""2741""
","
","
","""event"",""trial"",""time""
""fullscreenenter"",""0"",""2741""
","
","null","run_exp/static/images/Set 6_rs/070a.jpg","null","","","","","","learn","SR",""
"","html-keyboard-response","39","70478","0.0-39.0","""event"",""trial"",""time""
""fullscreenenter"",""0"",""2741""
","
","
","""event"",""trial"",""time""
""fullscreenenter"",""0"",""2741""
","
","null","<p></p>","null","","","","","","","",""
"","image","40","71712","0.0-40.0","""event"",""trial"",""time""
""fullscreenenter"",""0"",""2741""
","
","
","""event"",""trial"",""time""
""fullscreenenter"",""0"",""2741""
","
","1231.8999999985099","run_exp/static/images/Set 6_rs/061a.jpg","78","","","","","","learn","SR",""
"","show_choice","41","72503","0.0-41.0","""event"",""trial"",""time""
""fullscreenenter"",""0"",""2741""
","
","
","""event"",""trial"",""time""
""fullscreenenter"",""0"",""2741""
","
","null","run_exp/static/images/Set 6_rs/061a.jpg","null","","","","","","learn","SR",""
"","html-keyboard-response","42","73017","0.0-42.0","""event"",""trial"",""time""
""fullscreenenter"",""0"",""2741""
","
","
","""event"",""trial"",""time""
""fullscreenenter"",""0"",""2741""
","
","null","<p></p>","null","","","","","","","",""
"","image","43","74149","0.0-43.0","""event"",""trial"",""time""
""fullscreenenter"",""0"",""2741""
","
","
","""event"",""trial"",""time""
""fullscreenenter"",""0"",""2741""
","
","1130.1000000014901","run_exp/static/images/Set 6_rs/050a.jpg","86","","","","","","learn","SL",""
"","show_choice","44","75027","0.0-44.0","""event"",""trial"",""time""
""fullscreenenter"",""0"",""2741""
","
","
","""event"",""trial"",""time""
""fullscreenenter"",""0"",""2741""
","
","null","run_exp/static/images/Set 6_rs/050a.jpg","null","","","","","","learn","SL",""
"","html-keyboard-response","45","75539","0.0-45.0","""event"",""trial"",""time""
""fullscreenenter"",""0"",""2741""
","
","
","""event"",""trial"",""time""
""fullscreenenter"",""0"",""2741""
","
","null","<p></p>","null","","","","","","","",""
"","image","46","76944","0.0-46.0","""event"",""trial"",""time""
""fullscreenenter"",""0"",""2741""
","
","
","""event"",""trial"",""time""
""fullscreenenter"",""0"",""2741""
","
","1403","run_exp/static/images/Set 6_rs/131a.jpg","86","","","","","","learn","SR",""
"","show_choice","47","77553","0.0-47.0","""event"",""trial"",""time""
""fullscreenenter"",""0"",""2741""
","
","
","""event"",""trial"",""time""
""fullscreenenter"",""0"",""2741""
","
","null","run_exp/static/images/Set 6_rs/131a.jpg","null","","","","","","learn","SR",""
"","html-keyboard-response","48","78070","0.0-48.0","""event"",""trial"",""time""
""fullscreenenter"",""0"",""2741""
","
","
","""event"",""trial"",""time""
""fullscreenenter"",""0"",""2741""
","
","null","<p></p>","null","","","","","","","",""
"","image","49","78982","0.0-49.0","""event"",""trial"",""time""
""fullscreenenter"",""0"",""2741""
","
","
","""event"",""trial"",""time""
""fullscreenenter"",""0"",""2741""
","
","909.6000000014901","run_exp/static/images/Set 6_rs/074a.jpg","78","","","","","","learn","SL",""
"","show_choice","50","80083","0.0-50.0","""event"",""trial"",""time""
""fullscreenenter"",""0"",""2741""
","
","
","""event"",""trial"",""time""
""fullscreenenter"",""0"",""2741""
","
","null","run_exp/static/images/Set 6_rs/074a.jpg","null","","","","","","learn","SL",""
"","html-keyboard-response","51","80599","0.0-51.0","""event"",""trial"",""time""
""fullscreenenter"",""0"",""2741""
","
","
","""event"",""trial"",""time""
""fullscreenenter"",""0"",""2741""
","
","null","<p></p>","null","","","","","","","",""
"","image","52","81549","0.0-52.0","""event"",""trial"",""time""
""fullscreenenter"",""0"",""2741""
","
","
","""event"",""trial"",""time""
""fullscreenenter"",""0"",""2741""
","
","947.9000000059605","run_exp/static/images/Set 6_rs/166a.jpg","86","","","","","","learn","SR",""
"","show_choice","53","82609","0.0-53.0","""event"",""trial"",""time""
""fullscreenenter"",""0"",""2741""
","
","
","""event"",""trial"",""time""
""fullscreenenter"",""0"",""2741""
","
","null","run_exp/static/images/Set 6_rs/166a.jpg","null","","","","","","learn","SR",""
"","html-keyboard-response","54","83121","0.0-54.0","""event"",""trial"",""time""
""fullscreenenter"",""0"",""2741""
","
","
","""event"",""trial"",""time""
""fullscreenenter"",""0"",""2741""
","
","null","<p></p>","null","","","","","","","",""
"","image","55","84457","0.0-55.0","""event"",""trial"",""time""
""fullscreenenter"",""0"",""2741""
","
","
","""event"",""trial"",""time""
""fullscreenenter"",""0"",""2741""
","
","1333.5","run_exp/static/images/Set 6_rs/019a.jpg","86","","","","","","learn","SL",""
"","show_choice","56","85131","0.0-56.0","""event"",""trial"",""time""
""fullscreenenter"",""0"",""2741""
","
","
","""event"",""trial"",""time""
""fullscreenenter"",""0"",""2741""
","
","null","run_exp/static/images/Set 6_rs/019a.jpg","null","","","","","","learn","SL",""
"","html-keyboard-response","57","85636","0.0-57.0","""event"",""trial"",""time""
""fullscreenenter"",""0"",""2741""
","
","
","""event"",""trial"",""time""
""fullscreenenter"",""0"",""2741""
","
","null","<p></p>","null","","","","","","","",""
"","image","58","86670","0.0-58.0","""event"",""trial"",""time""
""fullscreenenter"",""0"",""2741""
","
","
","""event"",""trial"",""time""
""fullscreenenter"",""0"",""2741""
","
","1031.5","run_exp/static/images/Set 6_rs/045a.jpg","86","","","","","","learn","SR",""
"","show_choice","59","87662","0.0-59.0","""event"",""trial"",""time""
""fullscreenenter"",""0"",""2741""
","
","
","""event"",""trial"",""time""
""fullscreenenter"",""0"",""2741""
","
","null","run_exp/static/images/Set 6_rs/045a.jpg","null","","","","","","learn","SR",""
"","html-keyboard-response","60","88177","0.0-60.0","""event"",""trial"",""time""
""fullscreenenter"",""0"",""2741""
","
","
","""event"",""trial"",""time""
""fullscreenenter"",""0"",""2741""
","
","null","<p></p>","null","","","","","","","",""
"","image","61","89210","0.0-61.0","""event"",""trial"",""time""
""fullscreenenter"",""0"",""2741""
","
","
","""event"",""trial"",""time""
""fullscreenenter"",""0"",""2741""
","
","1030.3999999985099","run_exp/static/images/Set 6_rs/006a.jpg","78","","","","","","learn","SL",""
"","show_choice","62","90205","0.0-62.0","""event"",""trial"",""time""
""fullscreenenter"",""0"",""2741""
","
","
","""event"",""trial"",""time""
""fullscreenenter"",""0"",""2741""
","
","null","run_exp/static/images/Set 6_rs/006a.jpg","null","","","","","","learn","SL",""
"","html-keyboard-response","63","90720","0.0-63.0","""event"",""trial"",""time""
""fullscreenenter"",""0"",""2741""
","
","
","""event"",""trial"",""time""
""fullscreenenter"",""0"",""2741""
","
","null","<p></p>","null","","","","","","","",""
"","image","64","91384","0.0-64.0","""event"",""trial"",""time""
""fullscreenenter"",""0"",""2741""
","
","
","""event"",""trial"",""time""
""fullscreenenter"",""0"",""2741""
","
","661.7999999970198","run_exp/static/images/Set 6_rs/064a.jpg","78","","","","","","learn","SR",""
"","show_choice","65","92731","0.0-65.0","""event"",""trial"",""time""
""fullscreenenter"",""0"",""2741""
","
","
","""event"",""trial"",""time""
""fullscreenenter"",""0"",""2741""
","
","null","run_exp/static/images/Set 6_rs/064a.jpg","null","","","","","","learn","SR",""
"","html-keyboard-response","66","93250","0.0-66.0","""event"",""trial"",""time""
""fullscreenenter"",""0"",""2741""
","
","
","""event"",""trial"",""time""
""fullscreenenter"",""0"",""2741""
","
","null","<p></p>","null","","","","","","","",""
"","image","67","93973","0.0-67.0","""event"",""trial"",""time""
""fullscreenenter"",""0"",""2741""
","
","
","""event"",""trial"",""time""
""fullscreenenter"",""0"",""2741""
","
","721","run_exp/static/images/Set 6_rs/108a.jpg","78","","","","","","learn","SR",""
"","show_choice","68","95260","0.0-68.0","""event"",""trial"",""time""
""fullscreenenter"",""0"",""2741""
","
","
","""event"",""trial"",""time""
""fullscreenenter"",""0"",""2741""
","
","null","run_exp/static/images/Set 6_rs/108a.jpg","null","","","","","","learn","SR",""
"","html-keyboard-response","69","95777","0.0-69.0","""event"",""trial"",""time""
""fullscreenenter"",""0"",""2741""
","
","
","""event"",""trial"",""time""
""fullscreenenter"",""0"",""2741""
","
","null","<p></p>","null","","","","","","","",""
"","image","70","96586","0.0-70.0","""event"",""trial"",""time""
""fullscreenenter"",""0"",""2741""
","
","
","""event"",""trial"",""time""
""fullscreenenter"",""0"",""2741""
","
","807.3999999985099","run_exp/static/images/Set 6_rs/023a.jpg","86","","","","","","learn","SR",""
"","show_choice","71","97792","0.0-71.0","""event"",""trial"",""time""
""fullscreenenter"",""0"",""2741""
","
","
","""event"",""trial"",""time""
""fullscreenenter"",""0"",""2741""
","
","null","run_exp/static/images/Set 6_rs/023a.jpg","null","","","","","","learn","SR",""
"","html-keyboard-response","72","98304","0.0-72.0","""event"",""trial"",""time""
""fullscreenenter"",""0"",""2741""
","
","
","""event"",""trial"",""time""
""fullscreenenter"",""0"",""2741""
","
","null","<p></p>","null","","","","","","","",""
"","image","73","99435","0.0-73.0","""event"",""trial"",""time""
""fullscreenenter"",""0"",""2741""
","
","
","""event"",""trial"",""time""
""fullscreenenter"",""0"",""2741""
","
","1128.8000000044703","run_exp/static/images/Set 6_rs/144a.jpg","86","","","","","","learn","SL",""
"","show_choice","74","100317","0.0-74.0","""event"",""trial"",""time""
""fullscreenenter"",""0"",""2741""
","
","
","""event"",""trial"",""time""
""fullscreenenter"",""0"",""2741""
","
","null","run_exp/static/images/Set 6_rs/144a.jpg","null","","","","","","learn","SL",""
"","html-keyboard-response","75","100833","0.0-75.0","""event"",""trial"",""time""
""fullscreenenter"",""0"",""2741""
","
","
","""event"",""trial"",""time""
""fullscreenenter"",""0"",""2741""
","
","null","<p></p>","null","","","","","","","",""
"","image","76","102248","0.0-76.0","""event"",""trial"",""time""
""fullscreenenter"",""0"",""2741""
","
","
","""event"",""trial"",""time""
""fullscreenenter"",""0"",""2741""
","
","1412.3000000044703","run_exp/static/images/Set 6_rs/057a.jpg","86","","","","","","learn","SL",""
"","show_choice","77","102848","0.0-77.0","""event"",""trial"",""time""
""fullscreenenter"",""0"",""2741""
","
","
","""event"",""trial"",""time""
""fullscreenenter"",""0"",""2741""
","
","null","run_exp/static/images/Set 6_rs/057a.jpg","null","","","","","","learn","SL",""
"","html-keyboard-response","78","103365","0.0-78.0","""event"",""trial"",""time""
""fullscreenenter"",""0"",""2741""
","
","
","""event"",""trial"",""time""
""fullscreenenter"",""0"",""2741""
","
","null","<p></p>","null","","","","","","","",""
"","image","79","104419","0.0-79.0","""event"",""trial"",""time""
""fullscreenenter"",""0"",""2741""
","
","
","""event"",""trial"",""time""
""fullscreenenter"",""0"",""2741""
","
","1051.6000000014901","run_exp/static/images/Set 6_rs/150a.jpg","86","","","","","","learn","SR",""
"","show_choice","80","105372","0.0-80.0","""event"",""trial"",""time""
""fullscreenenter"",""0"",""2741""
","
","
","""event"",""trial"",""time""
""fullscreenenter"",""0"",""2741""
","
","null","run_exp/static/images/Set 6_rs/150a.jpg","null","","","","","","learn","SR",""
"","html-keyboard-response","81","105886","0.0-81.0","""event"",""trial"",""time""
""fullscreenenter"",""0"",""2741""
","
","
","""event"",""trial"",""time""
""fullscreenenter"",""0"",""2741""
","
","null","<p></p>","null","","","","","","","",""
"","image","82","107338","0.0-82.0","""event"",""trial"",""time""
""fullscreenenter"",""0"",""2741""
","
","
","""event"",""trial"",""time""
""fullscreenenter"",""0"",""2741""
","
","1449","run_exp/static/images/Set 6_rs/141a.jpg","86","","","","","","learn","SR",""
"","show_choice","83","107903","0.0-83.0","""event"",""trial"",""time""
""fullscreenenter"",""0"",""2741""
","
","
","""event"",""trial"",""time""
""fullscreenenter"",""0"",""2741""
","
","null","run_exp/static/images/Set 6_rs/141a.jpg","null","","","","","","learn","SR",""
"","html-keyboard-response","84","108420","0.0-84.0","""event"",""trial"",""time""
""fullscreenenter"",""0"",""2741""
","
","
","""event"",""trial"",""time""
""fullscreenenter"",""0"",""2741""
","
","null","<p></p>","null","","","","","","","",""
"","image","85","109212","0.0-85.0","""event"",""trial"",""time""
""fullscreenenter"",""0"",""2741""
","
","
","""event"",""trial"",""time""
""fullscreenenter"",""0"",""2741""
","
","789.6999999955297","run_exp/static/images/Set 6_rs/167a.jpg","86","","","","","","learn","SL",""
"","show_choice","86","110435","0.0-86.0","""event"",""trial"",""time""
""fullscreenenter"",""0"",""2741""
","
","
","""event"",""trial"",""time""
""fullscreenenter"",""0"",""2741""
","
","null","run_exp/static/images/Set 6_rs/167a.jpg","null","","","","","","learn","SL",""
"","html-keyboard-response","87","110949","0.0-87.0","""event"",""trial"",""time""
""fullscreenenter"",""0"",""2741""
","
","
","""event"",""trial"",""time""
""fullscreenenter"",""0"",""2741""
","
","null","<p></p>","null","","","","","","","",""
"","image","88","112002","0.0-88.0","""event"",""trial"",""time""
""fullscreenenter"",""0"",""2741""
","
","
","""event"",""trial"",""time""
""fullscreenenter"",""0"",""2741""
","
","1050.2999999970198","run_exp/static/images/Set 6_rs/111a.jpg","78","","","","","","learn","SL",""
"","show_choice","89","112961","0.0-89.0","""event"",""trial"",""time""
""fullscreenenter"",""0"",""2741""
","
","
","""event"",""trial"",""time""
""fullscreenenter"",""0"",""2741""
","
","null","run_exp/static/images/Set 6_rs/111a.jpg","null","","","","","","learn","SL",""
"","html-keyboard-response","90","113486","0.0-90.0","""event"",""trial"",""time""
""fullscreenenter"",""0"",""2741""
","
","
","""event"",""trial"",""time""
""fullscreenenter"",""0"",""2741""
","
","null","<p></p>","null","","","","","","","",""
"","image","91","114478","0.0-91.0","""event"",""trial"",""time""
""fullscreenenter"",""0"",""2741""
","
","
","""event"",""trial"",""time""
""fullscreenenter"",""0"",""2741""
","
","989.5","run_exp/static/images/Set 6_rs/154a.jpg","86","","","","","","learn","SR",""
"","show_choice","92","115490","0.0-92.0","""event"",""trial"",""time""
""fullscreenenter"",""0"",""2741""
","
","
","""event"",""trial"",""time""
""fullscreenenter"",""0"",""2741""
","
","null","run_exp/static/images/Set 6_rs/154a.jpg","null","","","","","","learn","SR",""
"","html-keyboard-response","93","116006","0.0-93.0","""event"",""trial"",""time""
""fullscreenenter"",""0"",""2741""
","
","
","""event"",""trial"",""time""
""fullscreenenter"",""0"",""2741""
","
","null","<p></p>","null","","","","","","","",""
"","image","94","117465","0.0-94.0","""event"",""trial"",""time""
""fullscreenenter"",""0"",""2741""
","
","
","""event"",""trial"",""time""
""fullscreenenter"",""0"",""2741""
","
","1456.3000000044703","run_exp/static/images/Set 6_rs/134a.jpg","86","","","","","","learn","SR",""
"","show_choice","95","118022","0.0-95.0","""event"",""trial"",""time""
""fullscreenenter"",""0"",""2741""
","
","
","""event"",""trial"",""time""
""fullscreenenter"",""0"",""2741""
","
","null","run_exp/static/images/Set 6_rs/134a.jpg","null","","","","","","learn","SR",""
"","html-keyboard-response","96","118537","0.0-96.0","""event"",""trial"",""time""
""fullscreenenter"",""0"",""2741""
","
","
","""event"",""trial"",""time""
""fullscreenenter"",""0"",""2741""
","
","null","<p></p>","null","","","","","","","",""
"","image","97","119303","0.0-97.0","""event"",""trial"",""time""
""fullscreenenter"",""0"",""2741""
","
","
","""event"",""trial"",""time""
""fullscreenenter"",""0"",""2741""
","
","764.1000000014901","run_exp/static/images/Set 6_rs/132a.jpg","78","","","","","","learn","SR",""
"","show_choice","98","120554","0.0-98.0","""event"",""trial"",""time""
""fullscreenenter"",""0"",""2741""
","
","
","""event"",""trial"",""time""
""fullscreenenter"",""0"",""2741""
","
","null","run_exp/static/images/Set 6_rs/132a.jpg","null","","","","","","learn","SR",""
"","html-keyboard-response","99","121060","0.0-99.0","""event"",""trial"",""time""
""fullscreenenter"",""0"",""2741""
","
","
","""event"",""trial"",""time""
""fullscreenenter"",""0"",""2741""
","
","null","<p></p>","null","","","","","","","",""
"","image","100","122156","0.0-100.0","""event"",""trial"",""time""
""fullscreenenter"",""0"",""2741""
","
","
","""event"",""trial"",""time""
""fullscreenenter"",""0"",""2741""
","
","1093.6999999955297","run_exp/static/images/Set 6_rs/186a.jpg","86","","","","","","learn","SR",""
"","show_choice","101","123076","0.0-101.0","""event"",""trial"",""time""
""fullscreenenter"",""0"",""2741""
","
","
","""event"",""trial"",""time""
""fullscreenenter"",""0"",""2741""
","
","null","run_exp/static/images/Set 6_rs/186a.jpg","null","","","","","","learn","SR",""
"","html-keyboard-response","102","123593","0.0-102.0","""event"",""trial"",""time""
""fullscreenenter"",""0"",""2741""
","
","
","""event"",""trial"",""time""
""fullscreenenter"",""0"",""2741""
","
","null","<p></p>","null","","","","","","","",""
"","image","103","124244","0.0-103.0","""event"",""trial"",""time""
""fullscreenenter"",""0"",""2741""
","
","
","""event"",""trial"",""time""
""fullscreenenter"",""0"",""2741""
","
","649","run_exp/static/images/Set 6_rs/112a.jpg","86","","","","","","learn","SR",""
"","show_choice","104","125598","0.0-104.0","""event"",""trial"",""time""
""fullscreenenter"",""0"",""2741""
","
","
","""event"",""trial"",""time""
""fullscreenenter"",""0"",""2741""
","
","null","run_exp/static/images/Set 6_rs/112a.jpg","null","","","","","","learn","SR",""
"","html-keyboard-response","105","126105","0.0-105.0","""event"",""trial"",""time""
""fullscreenenter"",""0"",""2741""
","
","
","""event"",""trial"",""time""
""fullscreenenter"",""0"",""2741""
","
","null","<p></p>","null","","","","","","","",""
"","image","106","127627","0.0-106.0","""event"",""trial"",""time""
""fullscreenenter"",""0"",""2741""
","
","
","""event"",""trial"",""time""
""fullscreenenter"",""0"",""2741""
","
","1519.3999999985099","run_exp/static/images/Set 6_rs/008a.jpg","86","","","","","","learn","SL",""
"","show_choice","107","128118","0.0-107.0","""event"",""trial"",""time""
""fullscreenenter"",""0"",""2741""
","
","
","""event"",""trial"",""time""
""fullscreenenter"",""0"",""2741""
","
","null","run_exp/static/images/Set 6_rs/008a.jpg","null","","","","","","learn","SL",""
"","html-keyboard-response","108","128628","0.0-108.0","""event"",""trial"",""time""
""fullscreenenter"",""0"",""2741""
","
","
","""event"",""trial"",""time""
""fullscreenenter"",""0"",""2741""
","
","null","<p></p>","null","","","","","","","",""
"","image","109","129715","0.0-109.0","""event"",""trial"",""time""
""fullscreenenter"",""0"",""2741""
","
","
","""event"",""trial"",""time""
""fullscreenenter"",""0"",""2741""
","
","1084.6000000014901","run_exp/static/images/Set 6_rs/079a.jpg","86","","","","","","learn","SL",""
"","show_choice","110","130642","0.0-110.0","""event"",""trial"",""time""
""fullscreenenter"",""0"",""2741""
","
","
","""event"",""trial"",""time""
""fullscreenenter"",""0"",""2741""
","
","null","run_exp/static/images/Set 6_rs/079a.jpg","null","","","","","","learn","SL",""
"","html-keyboard-response","111","131148","0.0-111.0","""event"",""trial"",""time""
""fullscreenenter"",""0"",""2741""
","
","
","""event"",""trial"",""time""
""fullscreenenter"",""0"",""2741""
","
","null","<p></p>","null","","","","","","","",""
"","image","112","132621","0.0-112.0","""event"",""trial"",""time""
""fullscreenenter"",""0"",""2741""
","
","
","""event"",""trial"",""time""
""fullscreenenter"",""0"",""2741""
","
","1470.2999999970198","run_exp/static/images/Set 6_rs/091a.jpg","78","","","","","","learn","SL",""
"","show_choice","113","133176","0.0-113.0","""event"",""trial"",""time""
""fullscreenenter"",""0"",""2741""
","
","
","""event"",""trial"",""time""
""fullscreenenter"",""0"",""2741""
","
","null","run_exp/static/images/Set 6_rs/091a.jpg","null","","","","","","learn","SL",""
"","html-keyboard-response","114","133691","0.0-114.0","""event"",""trial"",""time""
""fullscreenenter"",""0"",""2741""
","
","
","""event"",""trial"",""time""
""fullscreenenter"",""0"",""2741""
","
","null","<p></p>","null","","","","","","","",""
"","image","115","134300","0.0-115.0","""event"",""trial"",""time""
""fullscreenenter"",""0"",""2741""
","
","
","""event"",""trial"",""time""
""fullscreenenter"",""0"",""2741""
","
","607.1000000014901","run_exp/static/images/Set 6_rs/014a.jpg","86","","","","","","learn","SL",""
"","show_choice","116","135705","0.0-116.0","""event"",""trial"",""time""
""fullscreenenter"",""0"",""2741""
","
","
","""event"",""trial"",""time""
""fullscreenenter"",""0"",""2741""
","
","null","run_exp/static/images/Set 6_rs/014a.jpg","null","","","","","","learn","SL",""
"","html-keyboard-response","117","136223","0.0-117.0","""event"",""trial"",""time""
""fullscreenenter"",""0"",""2741""
","
","
","""event"",""trial"",""time""
""fullscreenenter"",""0"",""2741""
","
","null","<p></p>","null","","","","","","","",""
"","image","118","137293","0.0-118.0","""event"",""trial"",""time""
""fullscreenenter"",""0"",""2741""
","
","
","""event"",""trial"",""time""
""fullscreenenter"",""0"",""2741""
","
","1067.7999999970198","run_exp/static/images/Set 6_rs/076a.jpg","78","","","","","","learn","SR",""
"","show_choice","119","138235","0.0-119.0","""event"",""trial"",""time""
""fullscreenenter"",""0"",""2741""
","
","
","""event"",""trial"",""time""
""fullscreenenter"",""0"",""2741""
","
","null","run_exp/static/images/Set 6_rs/076a.jpg","null","","","","","","learn","SR",""
"","html-keyboard-response","120","138748","0.0-120.0","""event"",""trial"",""time""
""fullscreenenter"",""0"",""2741""
","
","
","""event"",""trial"",""time""
""fullscreenenter"",""0"",""2741""
","
","null","<p></p>","null","","","","","","","",""
"","image","121","140587","0.0-121.0","""event"",""trial"",""time""
""fullscreenenter"",""0"",""2741""
","
","
","""event"",""trial"",""time""
""fullscreenenter"",""0"",""2741""
","
","1836.8999999985099","run_exp/static/images/Set 6_rs/191a.jpg","78","","","","","","learn","SL",""
"","show_choice","122","140762","0.0-122.0","""event"",""trial"",""time""
""fullscreenenter"",""0"",""2741""
","
","
","""event"",""trial"",""time""
""fullscreenenter"",""0"",""2741""
","
","null","run_exp/static/images/Set 6_rs/191a.jpg","null","","","","","","learn","SL",""
"","html-keyboard-response","123","141280","0.0-123.0","""event"",""trial"",""time""
""fullscreenenter"",""0"",""2741""
","
","
","""event"",""trial"",""time""
""fullscreenenter"",""0"",""2741""
","
","null","<p></p>","null","","","","","","","",""
"","image","124","142176","0.0-124.0","""event"",""trial"",""time""
""fullscreenenter"",""0"",""2741""
","
","
","""event"",""trial"",""time""
""fullscreenenter"",""0"",""2741""
","
","893.6000000014901","run_exp/static/images/Set 6_rs/089a.jpg","86","","","","","","learn","SL",""
"","show_choice","125","143285","0.0-125.0","""event"",""trial"",""time""
""fullscreenenter"",""0"",""2741""
","
","
","""event"",""trial"",""time""
""fullscreenenter"",""0"",""2741""
","
","null","run_exp/static/images/Set 6_rs/089a.jpg","null","","","","","","learn","SL",""
"","html-keyboard-response","126","143791","0.0-126.0","""event"",""trial"",""time""
""fullscreenenter"",""0"",""2741""
","
","
","""event"",""trial"",""time""
""fullscreenenter"",""0"",""2741""
","
","null","<p></p>","null","","","","","","","",""
"","image","127","144892","0.0-127.0","""event"",""trial"",""time""
""fullscreenenter"",""0"",""2741""
","
","
","""event"",""trial"",""time""
""fullscreenenter"",""0"",""2741""
","
","1099","run_exp/static/images/Set 6_rs/088a.jpg","86","","","","","","learn","SR",""
"","show_choice","128","145799","0.0-128.0","""event"",""trial"",""time""
""fullscreenenter"",""0"",""2741""
","
","
","""event"",""trial"",""time""
""fullscreenenter"",""0"",""2741""
","
","null","run_exp/static/images/Set 6_rs/088a.jpg","null","","","","","","learn","SR",""
"","html-keyboard-response","129","146316","0.0-129.0","""event"",""trial"",""time""
""fullscreenenter"",""0"",""2741""
","
","
","""event"",""trial"",""time""
""fullscreenenter"",""0"",""2741""
","
","null","<p></p>","null","","","","","","","",""
"","image","130","147001","0.0-130.0","""event"",""trial"",""time""
""fullscreenenter"",""0"",""2741""
","
","
","""event"",""trial"",""time""
""fullscreenenter"",""0"",""2741""
","
","682.0999999940395","run_exp/static/images/Set 6_rs/073a.jpg","86","","","","","","learn","SL",""
"","show_choice","131","148347","0.0-131.0","""event"",""trial"",""time""
""fullscreenenter"",""0"",""2741""
","
","
","""event"",""trial"",""time""
""fullscreenenter"",""0"",""2741""
","
","null","run_exp/static/images/Set 6_rs/073a.jpg","null","","","","","","learn","SL",""
"","html-keyboard-response","132","148864","0.0-132.0","""event"",""trial"",""time""
""fullscreenenter"",""0"",""2741""
","
","
","""event"",""trial"",""time""
""fullscreenenter"",""0"",""2741""
","
","null","<p></p>","null","","","","","","","",""
"","image","133","149633","0.0-133.0","""event"",""trial"",""time""
""fullscreenenter"",""0"",""2741""
","
","
","""event"",""trial"",""time""
""fullscreenenter"",""0"",""2741""
","
","766.7000000029802","run_exp/static/images/Set 6_rs/177a.jpg","78","","","","","","learn","SR",""
"","show_choice","134","150873","0.0-134.0","""event"",""trial"",""time""
""fullscreenenter"",""0"",""2741""
","
","
","""event"",""trial"",""time""
""fullscreenenter"",""0"",""2741""
","
","null","run_exp/static/images/Set 6_rs/177a.jpg","null","","","","","","learn","SR",""
"","html-keyboard-response","135","151391","0.0-135.0","""event"",""trial"",""time""
""fullscreenenter"",""0"",""2741""
","
","
","""event"",""trial"",""time""
""fullscreenenter"",""0"",""2741""
","
","null","<p></p>","null","","","","","","","",""
"","image","136","152192","0.0-136.0","""event"",""trial"",""time""
""fullscreenenter"",""0"",""2741""
","
","
","""event"",""trial"",""time""
""fullscreenenter"",""0"",""2741""
","
","798.7999999970198","run_exp/static/images/Set 6_rs/169a.jpg","78","","","","","","learn","SR",""
"","show_choice","137","153404","0.0-137.0","""event"",""trial"",""time""
""fullscreenenter"",""0"",""2741""
","
","
","""event"",""trial"",""time""
""fullscreenenter"",""0"",""2741""
","
","null","run_exp/static/images/Set 6_rs/169a.jpg","null","","","","","","learn","SR",""
"","html-keyboard-response","138","153910","0.0-138.0","""event"",""trial"",""time""
""fullscreenenter"",""0"",""2741""
","
","
","""event"",""trial"",""time""
""fullscreenenter"",""0"",""2741""
","
","null","<p></p>","null","","","","","","","",""
"","image","139","154664","0.0-139.0","""event"",""trial"",""time""
""fullscreenenter"",""0"",""2741""
","
","
","""event"",""trial"",""time""
""fullscreenenter"",""0"",""2741""
","
","752.2999999970198","run_exp/static/images/Set 6_rs/129a.jpg","86","","","","","","learn","SL",""
"","show_choice","140","155913","0.0-140.0","""event"",""trial"",""time""
""fullscreenenter"",""0"",""2741""
","
","
","""event"",""trial"",""time""
""fullscreenenter"",""0"",""2741""
","
","null","run_exp/static/images/Set 6_rs/129a.jpg","null","","","","","","learn","SL",""
"","html-keyboard-response","141","156430","0.0-141.0","""event"",""trial"",""time""
""fullscreenenter"",""0"",""2741""
","
","
","""event"",""trial"",""time""
""fullscreenenter"",""0"",""2741""
","
","null","<p></p>","null","","","","","","","",""
"","image","142","157159","0.0-142.0","""event"",""trial"",""time""
""fullscreenenter"",""0"",""2741""
","
","
","""event"",""trial"",""time""
""fullscreenenter"",""0"",""2741""
","
","726.8000000044703","run_exp/static/images/Set 6_rs/172a.jpg","86","","","","","","learn","SR",""
"","show_choice","143","158440","0.0-143.0","""event"",""trial"",""time""
""fullscreenenter"",""0"",""2741""
","
","
","""event"",""trial"",""time""
""fullscreenenter"",""0"",""2741""
","
","null","run_exp/static/images/Set 6_rs/172a.jpg","null","","","","","","learn","SR",""
"","html-keyboard-response","144","158957","0.0-144.0","""event"",""trial"",""time""
""fullscreenenter"",""0"",""2741""
","
","
","""event"",""trial"",""time""
""fullscreenenter"",""0"",""2741""
","
","null","<p></p>","null","","","","","","","",""
"","image","145","159749","0.0-145.0","""event"",""trial"",""time""
""fullscreenenter"",""0"",""2741""
","
","
","""event"",""trial"",""time""
""fullscreenenter"",""0"",""2741""
","
","789.4000000059605","run_exp/static/images/Set 6_rs/085a.jpg","78","","","","","","learn","SL",""
"","show_choice","146","160971","0.0-146.0","""event"",""trial"",""time""
""fullscreenenter"",""0"",""2741""
","
","
","""event"",""trial"",""time""
""fullscreenenter"",""0"",""2741""
","
","null","run_exp/static/images/Set 6_rs/085a.jpg","null","","","","","","learn","SL",""
"","html-keyboard-response","147","161475","0.0-147.0","""event"",""trial"",""time""
""fullscreenenter"",""0"",""2741""
","
","
","""event"",""trial"",""time""
""fullscreenenter"",""0"",""2741""
","
","null","<p></p>","null","","","","","","","",""
"","image","148","162365","0.0-148.0","""event"",""trial"",""time""
""fullscreenenter"",""0"",""2741""
","
","
","""event"",""trial"",""time""
""fullscreenenter"",""0"",""2741""
","
","887.5","run_exp/static/images/Set 6_rs/122a.jpg","86","","","","","","learn","SR",""
"","show_choice","149","163480","0.0-149.0","""event"",""trial"",""time""
""fullscreenenter"",""0"",""2741""
","
","
","""event"",""trial"",""time""
""fullscreenenter"",""0"",""2741""
","
","null","run_exp/static/images/Set 6_rs/122a.jpg","null","","","","","","learn","SR",""
"","html-keyboard-response","150","163996","0.0-150.0","""event"",""trial"",""time""
""fullscreenenter"",""0"",""2741""
","
","
","""event"",""trial"",""time""
""fullscreenenter"",""0"",""2741""
","
","null","<p></p>","null","","","","","","","",""
"","image","151","166018","0.0-151.0","""event"",""trial"",""time""
""fullscreenenter"",""0"",""2741""
","
","
","""event"",""trial"",""time""
""fullscreenenter"",""0"",""2741""
","
","null","run_exp/static/images/Set 6_rs/117a.jpg","null","","","","","","learn","SL",""
"","show_choice","152","168020","0.0-152.0","""event"",""trial"",""time""
""fullscreenenter"",""0"",""2741""
","
","
","""event"",""trial"",""time""
""fullscreenenter"",""0"",""2741""
","
","null","run_exp/static/images/blank.png","null","","","","","","learn","SL",""
"","html-keyboard-response","153","168536","0.0-153.0","""event"",""trial"",""time""
""fullscreenenter"",""0"",""2741""
","
","
","""event"",""trial"",""time""
""fullscreenenter"",""0"",""2741""
","
","null","<p></p>","null","","","","","","","",""
"","image","154","169294","0.0-154.0","""event"",""trial"",""time""
""fullscreenenter"",""0"",""2741""
","
","
","""event"",""trial"",""time""
""fullscreenenter"",""0"",""2741""
","
","756","run_exp/static/images/Set 6_rs/138a.jpg","78","","","","","","learn","SL",""
"","show_choice","155","170548","0.0-155.0","""event"",""trial"",""time""
""fullscreenenter"",""0"",""2741""
","
","
","""event"",""trial"",""time""
""fullscreenenter"",""0"",""2741""
","
","null","run_exp/static/images/Set 6_rs/138a.jpg","null","","","","","","learn","SL",""
"","html-keyboard-response","156","171065","0.0-156.0","""event"",""trial"",""time""
""fullscreenenter"",""0"",""2741""
","
","
","""event"",""trial"",""time""
""fullscreenenter"",""0"",""2741""
","
","null","<p></p>","null","","","","","","","",""
"","image","157","171922","0.0-157.0","""event"",""trial"",""time""
""fullscreenenter"",""0"",""2741""
","
","
","""event"",""trial"",""time""
""fullscreenenter"",""0"",""2741""
","
","853.8999999985099","run_exp/static/images/Set 6_rs/178a.jpg","78","","","","","","learn","SR",""
"","show_choice","158","173071","0.0-158.0","""event"",""trial"",""time""
""fullscreenenter"",""0"",""2741""
","
","
","""event"",""trial"",""time""
""fullscreenenter"",""0"",""2741""
","
","null","run_exp/static/images/Set 6_rs/178a.jpg","null","","","","","","learn","SR",""
"","html-keyboard-response","159","173591","0.0-159.0","""event"",""trial"",""time""
""fullscreenenter"",""0"",""2741""
","
","
","""event"",""trial"",""time""
""fullscreenenter"",""0"",""2741""
","
","null","<p></p>","null","","","","","","","",""
"","image","160","174309","0.0-160.0","""event"",""trial"",""time""
""fullscreenenter"",""0"",""2741""
","
","
","""event"",""trial"",""time""
""fullscreenenter"",""0"",""2741""
","
","715.7000000029802","run_exp/static/images/Set 6_rs/116a.jpg","86","","","","","","learn","SL",""
"","show_choice","161","175598","0.0-161.0","""event"",""trial"",""time""
""fullscreenenter"",""0"",""2741""
","
","
","""event"",""trial"",""time""
""fullscreenenter"",""0"",""2741""
","
","null","run_exp/static/images/Set 6_rs/116a.jpg","null","","","","","","learn","SL",""
"","html-keyboard-response","162","176103","0.0-162.0","""event"",""trial"",""time""
""fullscreenenter"",""0"",""2741""
","
","
","""event"",""trial"",""time""
""fullscreenenter"",""0"",""2741""
","
","null","<p></p>","null","","","","","","","",""
"","image","163","177722","0.0-163.0","""event"",""trial"",""time""
""fullscreenenter"",""0"",""2741""
","
","
","""event"",""trial"",""time""
""fullscreenenter"",""0"",""2741""
","
","1616.6000000014901","run_exp/static/images/Set 6_rs/066a.jpg","78","","","","","","learn","SL",""
"","show_choice","164","178114","0.0-164.0","""event"",""trial"",""time""
""fullscreenenter"",""0"",""2741""
","
","
","""event"",""trial"",""time""
""fullscreenenter"",""0"",""2741""
","
","null","run_exp/static/images/Set 6_rs/066a.jpg","null","","","","","","learn","SL",""
"","html-keyboard-response","165","178629","0.0-165.0","""event"",""trial"",""time""
""fullscreenenter"",""0"",""2741""
","
","
","""event"",""trial"",""time""
""fullscreenenter"",""0"",""2741""
","
","null","<p></p>","null","","","","","","","",""
"","image","166","179331","0.0-166.0","""event"",""trial"",""time""
""fullscreenenter"",""0"",""2741""
","
","
","""event"",""trial"",""time""
""fullscreenenter"",""0"",""2741""
","
","700.2000000029802","run_exp/static/images/Set 6_rs/063a.jpg","86","","","","","","learn","SR",""
"","show_choice","167","180636","0.0-167.0","""event"",""trial"",""time""
""fullscreenenter"",""0"",""2741""
","
","
","""event"",""trial"",""time""
""fullscreenenter"",""0"",""2741""
","
","null","run_exp/static/images/Set 6_rs/063a.jpg","null","","","","","","learn","SR",""
"","html-keyboard-response","168","181139","0.0-168.0","""event"",""trial"",""time""
""fullscreenenter"",""0"",""2741""
","
","
","""event"",""trial"",""time""
""fullscreenenter"",""0"",""2741""
","
","null","<p></p>","null","","","","","","","",""
"","image","169","181912","0.0-169.0","""event"",""trial"",""time""
""fullscreenenter"",""0"",""2741""
","
","
","""event"",""trial"",""time""
""fullscreenenter"",""0"",""2741""
","
","770.3999999985099","run_exp/static/images/Set 6_rs/036a.jpg","78","","","","","","learn","SL",""
"","show_choice","170","183149","0.0-170.0","""event"",""trial"",""time""
""fullscreenenter"",""0"",""2741""
","
","
","""event"",""trial"",""time""
""fullscreenenter"",""0"",""2741""
","
","null","run_exp/static/images/Set 6_rs/036a.jpg","null","","","","","","learn","SL",""
"","html-keyboard-response","171","183654","0.0-171.0","""event"",""trial"",""time""
""fullscreenenter"",""0"",""2741""
","
","
","""event"",""trial"",""time""
""fullscreenenter"",""0"",""2741""
","
","null","<p></p>","null","","","","","","","",""
"","image","172","184700","0.0-172.0","""event"",""trial"",""time""
""fullscreenenter"",""0"",""2741""
","
","
","""event"",""trial"",""time""
""fullscreenenter"",""0"",""2741""
","
","1043.3999999985099","run_exp/static/images/Set 6_rs/007a.jpg","86","","","","","","learn","SR",""
"","show_choice","173","185666","0.0-173.0","""event"",""trial"",""time""
""fullscreenenter"",""0"",""2741""
","
","
","""event"",""trial"",""time""
""fullscreenenter"",""0"",""2741""
","
","null","run_exp/static/images/Set 6_rs/007a.jpg","null","","","","","","learn","SR",""
"","html-keyboard-response","174","186181","0.0-174.0","""event"",""trial"",""time""
""fullscreenenter"",""0"",""2741""
","
","
","""event"",""trial"",""time""
""fullscreenenter"",""0"",""2741""
","
","null","<p></p>","null","","","","","","","",""
"","image","175","187698","0.0-175.0","""event"",""trial"",""time""
""fullscreenenter"",""0"",""2741""
","
","
","""event"",""trial"",""time""
""fullscreenenter"",""0"",""2741""
","
","1514.6000000014901","run_exp/static/images/Set 6_rs/121a.jpg","78","","","","","","learn","SR",""
"","show_choice","176","188198","0.0-176.0","""event"",""trial"",""time""
""fullscreenenter"",""0"",""2741""
","
","
","""event"",""trial"",""time""
""fullscreenenter"",""0"",""2741""
","
","null","run_exp/static/images/Set 6_rs/121a.jpg","null","","","","","","learn","SR",""
"","html-keyboard-response","177","188709","0.0-177.0","""event"",""trial"",""time""
""fullscreenenter"",""0"",""2741""
","
","
","""event"",""trial"",""time""
""fullscreenenter"",""0"",""2741""
","
","null","<p></p>","null","","","","","","","",""
"","image","178","189749","0.0-178.0","""event"",""trial"",""time""
""fullscreenenter"",""0"",""2741""
","
","
","""event"",""trial"",""time""
""fullscreenenter"",""0"",""2741""
","
","1037.3999999985099","run_exp/static/images/Set 6_rs/017a.jpg","78","","","","","","learn","SL",""
"","show_choice","179","190719","0.0-179.0","""event"",""trial"",""time""
""fullscreenenter"",""0"",""2741""
","
","
","""event"",""trial"",""time""
""fullscreenenter"",""0"",""2741""
","
","null","run_exp/static/images/Set 6_rs/017a.jpg","null","","","","","","learn","SL",""
"","html-keyboard-response","180","191224","0.0-180.0","""event"",""trial"",""time""
""fullscreenenter"",""0"",""2741""
","
","
","""event"",""trial"",""time""
""fullscreenenter"",""0"",""2741""
","
","null","<p></p>","null","","","","","","","",""
"","image","181","191925","0.0-181.0","""event"",""trial"",""time""
""fullscreenenter"",""0"",""2741""
","
","
","""event"",""trial"",""time""
""fullscreenenter"",""0"",""2741""
","
","699","run_exp/static/images/Set 6_rs/181a.jpg","78","","","","","","learn","SL",""
"","show_choice","182","193232","0.0-182.0","""event"",""trial"",""time""
""fullscreenenter"",""0"",""2741""
","
","
","""event"",""trial"",""time""
""fullscreenenter"",""0"",""2741""
","
","null","run_exp/static/images/Set 6_rs/181a.jpg","null","","","","","","learn","SL",""
"","html-keyboard-response","183","193748","0.0-183.0","""event"",""trial"",""time""
""fullscreenenter"",""0"",""2741""
","
","
","""event"",""trial"",""time""
""fullscreenenter"",""0"",""2741""
","
","null","<p></p>","null","","","","","","","",""
"","image","184","194467","0.0-184.0","""event"",""trial"",""time""
""fullscreenenter"",""0"",""2741""
","
","
","""event"",""trial"",""time""
""fullscreenenter"",""0"",""2741""
","
","716.6000000014901","run_exp/static/images/Set 6_rs/152a.jpg","86","","","","","","learn","SR",""
"","show_choice","185","195761","0.0-185.0","""event"",""trial"",""time""
""fullscreenenter"",""0"",""2741""
","
","
","""event"",""trial"",""time""
""fullscreenenter"",""0"",""2741""
","
","null","run_exp/static/images/Set 6_rs/152a.jpg","null","","","","","","learn","SR",""
"","html-keyboard-response","186","196274","0.0-186.0","""event"",""trial"",""time""
""fullscreenenter"",""0"",""2741""
","
","
","""event"",""trial"",""time""
""fullscreenenter"",""0"",""2741""
","
","null","<p></p>","null","","","","","","","",""
"","image","187","197516","0.0-187.0","""event"",""trial"",""time""
""fullscreenenter"",""0"",""2741""
","
","
","""event"",""trial"",""time""
""fullscreenenter"",""0"",""2741""
","
","1239.5","run_exp/static/images/Set 6_rs/071a.jpg","78","","","","","","learn","SL",""
"","show_choice","188","198288","0.0-188.0","""event"",""trial"",""time""
""fullscreenenter"",""0"",""2741""
","
","
","""event"",""trial"",""time""
""fullscreenenter"",""0"",""2741""
","
","null","run_exp/static/images/Set 6_rs/071a.jpg","null","","","","","","learn","SL",""
"","html-keyboard-response","189","198802","0.0-189.0","""event"",""trial"",""time""
""fullscreenenter"",""0"",""2741""
","
","
","""event"",""trial"",""time""
""fullscreenenter"",""0"",""2741""
","
","null","<p></p>","null","","","","","","","",""
"","image","190","199487","0.0-190.0","""event"",""trial"",""time""
""fullscreenenter"",""0"",""2741""
","
","
","""event"",""trial"",""time""
""fullscreenenter"",""0"",""2741""
","
","682.9000000059605","run_exp/static/images/Set 6_rs/187a.jpg","86","","","","","","learn","SR",""
"","show_choice","191","200814","0.0-191.0","""event"",""trial"",""time""
""fullscreenenter"",""0"",""2741""
","
","
","""event"",""trial"",""time""
""fullscreenenter"",""0"",""2741""
","
","null","run_exp/static/images/Set 6_rs/187a.jpg","null","","","","","","learn","SR",""
"","html-keyboard-response","192","201329","0.0-192.0","""event"",""trial"",""time""
""fullscreenenter"",""0"",""2741""
","
","
","""event"",""trial"",""time""
""fullscreenenter"",""0"",""2741""
","
","null","<p></p>","null","","","","","","","",""
"","image","193","202131","0.0-193.0","""event"",""trial"",""time""
""fullscreenenter"",""0"",""2741""
","
","
","""event"",""trial"",""time""
""fullscreenenter"",""0"",""2741""
","
","798.7999999970198","run_exp/static/images/Set 6_rs/126a.jpg","78","","","","","","learn","SR",""
"","show_choice","194","203344","0.0-194.0","""event"",""trial"",""time""
""fullscreenenter"",""0"",""2741""
","
","
","""event"",""trial"",""time""
""fullscreenenter"",""0"",""2741""
","
","null","run_exp/static/images/Set 6_rs/126a.jpg","null","","","","","","learn","SR",""
"","html-keyboard-response","195","203856","0.0-195.0","""event"",""trial"",""time""
""fullscreenenter"",""0"",""2741""
","
","
","""event"",""trial"",""time""
""fullscreenenter"",""0"",""2741""
","
","null","<p></p>","null","","","","","","","",""
"","test_intro","196","240890","0.0-196.0","""event"",""trial"",""time""
""fullscreenenter"",""0"",""2741""
","
","
","""event"",""trial"",""time""
""fullscreenenter"",""0"",""2741""
","
","null","run_exp/static/audio/clip_2_memory.m4a","null","","","","","<div class='center'><p>Now, lets see how much you remember about the items you just saw.  For each item, you need to indicate if it was <b>old</b> by pressing the <b>v</b> key, <b>similar</b> by pressing the <b>b</b> key, or <b>new</b> by pressing the <b>n</b> key.</p><p>Old refers to an item that you saw before in the indoor/outdoor game that you just played, new refers to an item you have <b>not</b> seen before within the indoor/outdoor game, and similar refers to an item that is similar to an item youve seen before but is not exactly the same. </p><p>Before we begin, lets go over some brief demonstrations to make sure you understand.</p></div>","","",""
"","html-keyboard-response","197","243505","0.0-197.0","""event"",""trial"",""time""
""fullscreenenter"",""0"",""2741""
","
","
","""event"",""trial"",""time""
""fullscreenenter"",""0"",""2741""
","
","2612.2000000029802","<div class='center'><p>Now, lets see how much you remember about the items you just saw.  For each item, you need to indicate if it was <b>old</b> by pressing the <b>v</b> key, <b>similar</b> by pressing the <b>b</b> key, or <b>new</b> by pressing the <b>n</b> key.</p><p>Old refers to an item that you saw before in the indoor/outdoor game that you just played, new refers to an item you have <b>not</b> seen before within the indoor/outdoor game, and similar refers to an item that is similar to an item youve seen before but is not exactly the same. </p><p>Before we begin, lets go over some brief demonstrations to make sure you understand.</p><div><p><b>[Press the space bar to continue]</b></p></div>","32","","","","","","","",""
"","items","198","251010","0.0-198.0","""event"",""trial"",""time""
""fullscreenenter"",""0"",""2741""
","
","
","""event"",""trial"",""time""
""fullscreenenter"",""0"",""2741""
","
","null","run_exp/static/audio/clip_3_items.m4a","null","","","","","","","",""
"","mop","199","255515","0.0-199.0","""event"",""trial"",""time""
""fullscreenenter"",""0"",""2741""
","
","
","""event"",""trial"",""time""
""fullscreenenter"",""0"",""2741""
","
","null","run_exp/static/audio/clip_4_mop.m4a","null","","","","","","","",""
"","baseball","200","259018","0.0-200.0","""event"",""trial"",""time""
""fullscreenenter"",""0"",""2741""
","
","
","""event"",""trial"",""time""
""fullscreenenter"",""0"",""2741""
","
","null","run_exp/static/audio/clip_5_baseball.m4a","null","","","","","","","",""
"","trumpet","201","262523","0.0-201.0","""event"",""trial"",""time""
""fullscreenenter"",""0"",""2741""
","
","
","""event"",""trial"",""time""
""fullscreenenter"",""0"",""2741""
","
","null","run_exp/static/audio/clip_6_trumpet.m4a","null","","","","","","","",""
"","gummies","202","266027","0.0-202.0","""event"",""trial"",""time""
""fullscreenenter"",""0"",""2741""
","
","
","""event"",""trial"",""time""
""fullscreenenter"",""0"",""2741""
","
","null","run_exp/static/audio/clip_7_gummies.m4a","null","","","","","","","",""
"","osn","203","270530","0.0-203.0","""event"",""trial"",""time""
""fullscreenenter"",""0"",""2741""
","
","
","""event"",""trial"",""time""
""fullscreenenter"",""0"",""2741""
","
","null","run_exp/static/audio/clip_8_osn.m4a","null","","","","","","","",""
"","old_1","204","277038","0.0-204.0","""event"",""trial"",""time""
""fullscreenenter"",""0"",""2741""
","
","
","""event"",""trial"",""time""
""fullscreenenter"",""0"",""2741""
","
","null","run_exp/static/audio/clip_9_old_trumpet.m4a","null","","","","","","","",""
"","new_1","205","284543","0.0-205.0","""event"",""trial"",""time""
""fullscreenenter"",""0"",""2741""
","
","
","""event"",""trial"",""time""
""fullscreenenter"",""0"",""2741""
","
","null","run_exp/static/audio/clip_10_new_balloon.m4a","null","","","","","","","",""
"","similar_1a","206","289048","0.0-206.0","""event"",""trial"",""time""
""fullscreenenter"",""0"",""2741""
","
","
","""event"",""trial"",""time""
""fullscreenenter"",""0"",""2741""
","
","null","run_exp/static/audio/clip_11a_similar_mop.m4a","null","","","","","","","",""
"","similar_1b","207","295553","0.0-207.0","""event"",""trial"",""time""
""fullscreenenter"",""0"",""2741""
","
","
","""event"",""trial"",""time""
""fullscreenenter"",""0"",""2741""
","
","null","run_exp/static/audio/clip_11b_similar_mop.m4a","null","","","","","","","",""
"","new_2","208","299057","0.0-208.0","""event"",""trial"",""time""
""fullscreenenter"",""0"",""2741""
","
","
","""event"",""trial"",""time""
""fullscreenenter"",""0"",""2741""
","
","null","run_exp/static/audio/clip_12_new_stoplight.m4a","null","","","","","","","",""
"","old_2","209","302561","0.0-209.0","""event"",""trial"",""time""
""fullscreenenter"",""0"",""2741""
","
","
","""event"",""trial"",""time""
""fullscreenenter"",""0"",""2741""
","
","null","run_exp/static/audio/clip_13_old_baseball.m4a","null","","","","","","","",""
"","similar_2a","210","306065","0.0-210.0","""event"",""trial"",""time""
""fullscreenenter"",""0"",""2741""
","
","
","""event"",""trial"",""time""
""fullscreenenter"",""0"",""2741""
","
","null","run_exp/static/audio/clip_14a_similar_gummies.m4a","null","","","","","","","",""
"","similar_2b","211","313571","0.0-211.0","""event"",""trial"",""time""
""fullscreenenter"",""0"",""2741""
","
","
","""event"",""trial"",""time""
""fullscreenenter"",""0"",""2741""
","
","null","run_exp/static/audio/clip_14b_similar_gummies.m4a","null","","","","","","","",""
"","practice","212","355730","0.0-212.0","""event"",""trial"",""time""
""fullscreenenter"",""0"",""2741""
","
","
","""event"",""trial"",""time""
""fullscreenenter"",""0"",""2741""
","
","null","run_exp/static/audio/clip_15_practice.m4a","null","","","","","<div class='center'><p>Lets practice a little to make sure you understand the difference between new, similar, and old. Lets say you saw these three items in the indoor/outdoor game.</p><p> Try your best to remember these images because youll soon be tested on them in a practice game. In the practice game, youll be shown images and youll have to say if they are old (one of the three images belows), similar (similar to one of the images below but not exactly the same), or new (are not one of the images below nor similar to them).</p><p>Once you press the space bar youll be shown these images again but one at time. Then youll begin the practice game.</p><p><img src='run_exp/static/images/tutorial/test/three_indoor_outdoor.png' height='300'></p></div>","","",""
"","html-keyboard-response","213","357209","0.0-213.0","""event"",""trial"",""time""
""fullscreenenter"",""0"",""2741""
","
","
","""event"",""trial"",""time""
""fullscreenenter"",""0"",""2741""
","
","1475.7999999970198","<div class='center'><p>Lets practice a little to make sure you understand the difference between new, similar, and old. Lets say you saw these three items in the indoor/outdoor game.</p><p> Try your best to remember these images because youll soon be tested on them in a practice game. In the practice game, youll be shown images and youll have to say if they are old (one of the three images belows), similar (similar to one of the images below but not exactly the same), or new (are not one of the images below nor similar to them).</p><p>Once you press the space bar youll be shown these images again but one at time. Then youll begin the practice game.</p><p><img src='run_exp/static/images/tutorial/test/three_indoor_outdoor.png' height='300'></p><div><p><b>[Press the space bar to continue]</b></p></div>","32","","","","","","","",""
"","planet","214","359211","0.0-214.0","""event"",""trial"",""time""
""fullscreenenter"",""0"",""2741""
","
","
","""event"",""trial"",""time""
""fullscreenenter"",""0"",""2741""
","
","null","run_exp/static/images/tutorial/test/008a.jpg","null","","","","","","","",""
"","boot","215","361215","0.0-215.0","""event"",""trial"",""time""
""fullscreenenter"",""0"",""2741""
","
","
","""event"",""trial"",""time""
""fullscreenenter"",""0"",""2741""
","
","null","run_exp/static/images/tutorial/test/011a.jpg","null","","","","","","","",""
"","lemon","216","363218","0.0-216.0","""event"",""trial"",""time""
""fullscreenenter"",""0"",""2741""
","
","
","""event"",""trial"",""time""
""fullscreenenter"",""0"",""2741""
","
","null","run_exp/static/images/tutorial/test/018a.jpg","null","","","","","","","",""
"","practice_q1","217","368551","0.0-217.0","""event"",""trial"",""time""
""fullscreenenter"",""0"",""2741""
","
","
","""event"",""trial"",""time""
""fullscreenenter"",""0"",""2741""
","
","5328.89999999851","run_exp/static/audio/clip_16_practice_question.m4a","78","","","","","","","",""
"","correct","218","370509","0.0-218.0-0.0","""event"",""trial"",""time""
""fullscreenenter"",""0"",""2741""
","
","
","""event"",""trial"",""time""
""fullscreenenter"",""0"",""2741""
","
","null","run_exp/static/audio/clip_17_correct.m4a","null","","","","","<div class='center'><p>That's correct!</p></div>","","",""
"","html-keyboard-response","219","371720","0.0-218.0-1.0","""event"",""trial"",""time""
""fullscreenenter"",""0"",""2741""
","
","
","""event"",""trial"",""time""
""fullscreenenter"",""0"",""2741""
","
","1208.8999999985099","<div class='center'><p>That's correct!</p><div><p><b>[Press the space bar to continue]</b></p></div>","32","","","","","","","",""
"","practice_q2","220","375210","0.0-218.0-2.0","""event"",""trial"",""time""
""fullscreenenter"",""0"",""2741""
","
","
","""event"",""trial"",""time""
""fullscreenenter"",""0"",""2741""
","
","3487.39999999851","run_exp/static/audio/clip_16_practice_question.m4a","86","","","","","","","",""
"","correct","221","377109","0.0-219.0-0.0","""event"",""trial"",""time""
""fullscreenenter"",""0"",""2741""
","
","
","""event"",""trial"",""time""
""fullscreenenter"",""0"",""2741""
","
","null","run_exp/static/audio/clip_17_correct.m4a","null","","","","","<div class='center'><p>That's correct!</p></div>","","",""
"","html-keyboard-response","222","377954","0.0-219.0-1.0","""event"",""trial"",""time""
""fullscreenenter"",""0"",""2741""
","
","
","""event"",""trial"",""time""
""fullscreenenter"",""0"",""2741""
","
","843.2000000029802","<div class='center'><p>That's correct!</p><div><p><b>[Press the space bar to continue]</b></p></div>","32","","","","","","","",""
"","practice_q3","223","382945","0.0-219.0-2.0","""event"",""trial"",""time""
""fullscreenenter"",""0"",""2741""
","
","
","""event"",""trial"",""time""
""fullscreenenter"",""0"",""2741""
","
","4988.29999999702","run_exp/static/audio/clip_16_practice_question.m4a","66","","","","","","","",""
"","correct","224","385130","0.0-220.0-0.0","""event"",""trial"",""time""
""fullscreenenter"",""0"",""2741""
","
","
","""event"",""trial"",""time""
""fullscreenenter"",""0"",""2741""
","
","null","run_exp/static/audio/clip_17_correct.m4a","null","","","","","<div class='center'><p>That's correct!</p></div>","","",""
"","html-keyboard-response","225","385788","0.0-220.0-1.0","""event"",""trial"",""time""
""fullscreenenter"",""0"",""2741""
","
","
","""event"",""trial"",""time""
""fullscreenenter"",""0"",""2741""
","
","655.8999999985099","<div class='center'><p>That's correct!</p><div><p><b>[Press the space bar to continue]</b></p></div>","32","","","","","","","",""
"","begin_text","226","404310","0.0-221.0-0.0","""event"",""trial"",""time""
""fullscreenenter"",""0"",""2741""
","
","
","""event"",""trial"",""time""
""fullscreenenter"",""0"",""2741""
","
","null","run_exp/static/audio/clip_22_begin_test.m4a","null","","","","","<div class='center'><p>On to the real game where well test your memory of items from the indoor/outdoor game. For each item, you need to indicate if the item is <b>old</b> by pressing the <b>v</b> key, <b>similar</b> by pressing the <b>b</b> key, or <b>new</b> by pressing the <b>n</b> key. </p></div>","","",""
"","html-keyboard-response","227","427599","0.0-221.0-1.0","""event"",""trial"",""time""
""fullscreenenter"",""0"",""2741""
","
","
","""event"",""trial"",""time""
""fullscreenenter"",""0"",""2741""
","
","23286","<div class='center'><p>On to the real game where well test your memory of items from the indoor/outdoor game. For each item, you need to indicate if the item is <b>old</b> by pressing the <b>v</b> key, <b>similar</b> by pressing the <b>b</b> key, or <b>new</b> by pressing the <b>n</b> key. </p><div><p><b>[Press the space bar to continue]</b></p></div>","32","","","","","","","",""
"","image","228","429010","0.0-222.0-0.0","""event"",""trial"",""time""
""fullscreenenter"",""0"",""2741""
","
","
","""event"",""trial"",""time""
""fullscreenenter"",""0"",""2741""
","
","1408.5","run_exp/static/images/Set 6_rs/171a.jpg","86","","","","","","test","TF","1"
"","show_choice","229","429523","0.0-222.0-1.0","""event"",""trial"",""time""
""fullscreenenter"",""0"",""2741""
","
","
","""event"",""trial"",""time""
""fullscreenenter"",""0"",""2741""
","
","null","run_exp/static/images/Set 6_rs/171a.jpg","null","","","","","","test","TF",""
"","html-keyboard-response","230","430037","0.0-222.0-2.0","""event"",""trial"",""time""
""fullscreenenter"",""0"",""2741""
","
","
","""event"",""trial"",""time""
""fullscreenenter"",""0"",""2741""
","
","null","<p></p>","null","","","","","","","",""
"","image","231","431563","0.0-223.0-0.0","""event"",""trial"",""time""
""fullscreenenter"",""0"",""2741""
","
","
","""event"",""trial"",""time""
""fullscreenenter"",""0"",""2741""
","
","1523.5","run_exp/static/images/Set 6_rs/088a.jpg","66","","","","","","test","TR","2"
"","show_choice","232","432081","0.0-223.0-1.0","""event"",""trial"",""time""
""fullscreenenter"",""0"",""2741""
","
","
","""event"",""trial"",""time""
""fullscreenenter"",""0"",""2741""
","
","null","run_exp/static/images/Set 6_rs/088a.jpg","null","","","","","","test","TR",""
"","html-keyboard-response","233","432598","0.0-223.0-2.0","""event"",""trial"",""time""
""fullscreenenter"",""0"",""2741""
","
","
","""event"",""trial"",""time""
""fullscreenenter"",""0"",""2741""
","
","null","<p></p>","null","","","","","","","",""
"","image","234","433769","0.0-224.0-0.0","""event"",""trial"",""time""
""fullscreenenter"",""0"",""2741""
","
","
","""event"",""trial"",""time""
""fullscreenenter"",""0"",""2741""
","
","1167.5","run_exp/static/images/Set 6_rs/063a.jpg","86","","","","","","test","TR","2"
"","show_choice","235","434277","0.0-224.0-1.0","""event"",""trial"",""time""
""fullscreenenter"",""0"",""2741""
","
","
","""event"",""trial"",""time""
""fullscreenenter"",""0"",""2741""
","
","null","run_exp/static/images/Set 6_rs/063a.jpg","null","","","","","","test","TR",""
"","html-keyboard-response","236","434793","0.0-224.0-2.0","""event"",""trial"",""time""
""fullscreenenter"",""0"",""2741""
","
","
","""event"",""trial"",""time""
""fullscreenenter"",""0"",""2741""
","
","null","<p></p>","null","","","","","","","",""
"","image","237","435975","0.0-225.0-0.0","""event"",""trial"",""time""
""fullscreenenter"",""0"",""2741""
","
","
","""event"",""trial"",""time""
""fullscreenenter"",""0"",""2741""
","
","1179.6000000014901","run_exp/static/images/Set 6_rs/144b.jpg","86","","","","","","test","TL","4"
"","show_choice","238","436490","0.0-225.0-1.0","""event"",""trial"",""time""
""fullscreenenter"",""0"",""2741""
","
","
","""event"",""trial"",""time""
""fullscreenenter"",""0"",""2741""
","
","null","run_exp/static/images/Set 6_rs/144b.jpg","null","","","","","","test","TL",""
"","html-keyboard-response","239","437004","0.0-225.0-2.0","""event"",""trial"",""time""
""fullscreenenter"",""0"",""2741""
","
","
","""event"",""trial"",""time""
""fullscreenenter"",""0"",""2741""
","
","null","<p></p>","null","","","","","","","",""
"","image","240","437752","0.0-226.0-0.0","""event"",""trial"",""time""
""fullscreenenter"",""0"",""2741""
","
","
","""event"",""trial"",""time""
""fullscreenenter"",""0"",""2741""
","
","745.1000000014901","run_exp/static/images/Set 6_rs/108a.jpg","86","","","","","","test","TR","5"
"","show_choice","241","438266","0.0-226.0-1.0","""event"",""trial"",""time""
""fullscreenenter"",""0"",""2741""
","
","
","""event"",""trial"",""time""
""fullscreenenter"",""0"",""2741""
","
","null","run_exp/static/images/Set 6_rs/108a.jpg","null","","","","","","test","TR",""
"","html-keyboard-response","242","438783","0.0-226.0-2.0","""event"",""trial"",""time""
""fullscreenenter"",""0"",""2741""
","
","
","""event"",""trial"",""time""
""fullscreenenter"",""0"",""2741""
","
","null","<p></p>","null","","","","","","","",""
"","image","243","439721","0.0-227.0-0.0","""event"",""trial"",""time""
""fullscreenenter"",""0"",""2741""
","
","
","""event"",""trial"",""time""
""fullscreenenter"",""0"",""2741""
","
","935.2000000029802","run_exp/static/images/Set 6_rs/005a.jpg","78","","","","","","test","TF","5"
"","show_choice","244","440231","0.0-227.0-1.0","""event"",""trial"",""time""
""fullscreenenter"",""0"",""2741""
","
","
","""event"",""trial"",""time""
""fullscreenenter"",""0"",""2741""
","
","null","run_exp/static/images/Set 6_rs/005a.jpg","null","","","","","","test","TF",""
"","html-keyboard-response","245","440746","0.0-227.0-2.0","""event"",""trial"",""time""
""fullscreenenter"",""0"",""2741""
","
","
","""event"",""trial"",""time""
""fullscreenenter"",""0"",""2741""
","
","null","<p></p>","null","","","","","","","",""
"","image","246","441877","0.0-228.0-0.0","""event"",""trial"",""time""
""fullscreenenter"",""0"",""2741""
","
","
","""event"",""trial"",""time""
""fullscreenenter"",""0"",""2741""
","
","1128.3999999985099","run_exp/static/images/Set 6_rs/117b.jpg","86","","","","","","test","TL","5"
"","show_choice","247","442389","0.0-228.0-1.0","""event"",""trial"",""time""
""fullscreenenter"",""0"",""2741""
","
","
","""event"",""trial"",""time""
""fullscreenenter"",""0"",""2741""
","
","null","run_exp/static/images/Set 6_rs/117b.jpg","null","","","","","","test","TL",""
"","html-keyboard-response","248","442906","0.0-228.0-2.0","""event"",""trial"",""time""
""fullscreenenter"",""0"",""2741""
","
","
","""event"",""trial"",""time""
""fullscreenenter"",""0"",""2741""
","
","null","<p></p>","null","","","","","","","",""
"","image","249","444076","0.0-229.0-0.0","""event"",""trial"",""time""
""fullscreenenter"",""0"",""2741""
","
","
","""event"",""trial"",""time""
""fullscreenenter"",""0"",""2741""
","
","1167.9000000059605","run_exp/static/images/Set 6_rs/071b.jpg","66","","","","","","test","TL","4"
"","show_choice","250","444581","0.0-229.0-1.0","""event"",""trial"",""time""
""fullscreenenter"",""0"",""2741""
","
","
","""event"",""trial"",""time""
""fullscreenenter"",""0"",""2741""
","
","null","run_exp/static/images/Set 6_rs/071b.jpg","null","","","","","","test","TL",""
"","html-keyboard-response","251","445101","0.0-229.0-2.0","""event"",""trial"",""time""
""fullscreenenter"",""0"",""2741""
","
","
","""event"",""trial"",""time""
""fullscreenenter"",""0"",""2741""
","
","null","<p></p>","null","","","","","","","",""
"","image","252","446620","0.0-230.0-0.0","""event"",""trial"",""time""
""fullscreenenter"",""0"",""2741""
","
","
","""event"",""trial"",""time""
""fullscreenenter"",""0"",""2741""
","
","1517","run_exp/static/images/Set 6_rs/090a.jpg","86","","","","","","test","TF","5"
"","show_choice","253","447129","0.0-230.0-1.0","""event"",""trial"",""time""
""fullscreenenter"",""0"",""2741""
","
","
","""event"",""trial"",""time""
""fullscreenenter"",""0"",""2741""
","
","null","run_exp/static/images/Set 6_rs/090a.jpg","null","","","","","","test","TF",""
"","html-keyboard-response","254","447644","0.0-230.0-2.0","""event"",""trial"",""time""
""fullscreenenter"",""0"",""2741""
","
","
","""event"",""trial"",""time""
""fullscreenenter"",""0"",""2741""
","
","null","<p></p>","null","","","","","","","",""
"","image","255","448687","0.0-231.0-0.0","""event"",""trial"",""time""
""fullscreenenter"",""0"",""2741""
","
","
","""event"",""trial"",""time""
""fullscreenenter"",""0"",""2741""
","
","1040.2999999970198","run_exp/static/images/Set 6_rs/132a.jpg","86","","","","","","test","TR","5"
"","show_choice","256","449190","0.0-231.0-1.0","""event"",""trial"",""time""
""fullscreenenter"",""0"",""2741""
","
","
","""event"",""trial"",""time""
""fullscreenenter"",""0"",""2741""
","
","null","run_exp/static/images/Set 6_rs/132a.jpg","null","","","","","","test","TR",""
"","html-keyboard-response","257","449692","0.0-231.0-2.0","""event"",""trial"",""time""
""fullscreenenter"",""0"",""2741""
","
","
","""event"",""trial"",""time""
""fullscreenenter"",""0"",""2741""
","
","null","<p></p>","null","","","","","","","",""
"","image","258","450437","0.0-232.0-0.0","""event"",""trial"",""time""
""fullscreenenter"",""0"",""2741""
","
","
","""event"",""trial"",""time""
""fullscreenenter"",""0"",""2741""
","
","742.5","run_exp/static/images/Set 6_rs/050b.jpg","86","","","","","","test","TL","3"
"","show_choice","259","450940","0.0-232.0-1.0","""event"",""trial"",""time""
""fullscreenenter"",""0"",""2741""
","
","
","""event"",""trial"",""time""
""fullscreenenter"",""0"",""2741""
","
","null","run_exp/static/images/Set 6_rs/050b.jpg","null","","","","","","test","TL",""
"","html-keyboard-response","260","451453","0.0-232.0-2.0","""event"",""trial"",""time""
""fullscreenenter"",""0"",""2741""
","
","
","""event"",""trial"",""time""
""fullscreenenter"",""0"",""2741""
","
","null","<p></p>","null","","","","","","","",""
"","image","261","452740","0.0-233.0-0.0","""event"",""trial"",""time""
""fullscreenenter"",""0"",""2741""
","
","
","""event"",""trial"",""time""
""fullscreenenter"",""0"",""2741""
","
","1283.6999999955297","run_exp/static/images/Set 6_rs/136a.jpg","78","","","","","","test","TF","4"
"","show_choice","262","453253","0.0-233.0-1.0","""event"",""trial"",""time""
""fullscreenenter"",""0"",""2741""
","
","
","""event"",""trial"",""time""
""fullscreenenter"",""0"",""2741""
","
","null","run_exp/static/images/Set 6_rs/136a.jpg","null","","","","","","test","TF",""
"","html-keyboard-response","263","453763","0.0-233.0-2.0","""event"",""trial"",""time""
""fullscreenenter"",""0"",""2741""
","
","
","""event"",""trial"",""time""
""fullscreenenter"",""0"",""2741""
","
","null","<p></p>","null","","","","","","","",""
"","image","264","454716","0.0-234.0-0.0","""event"",""trial"",""time""
""fullscreenenter"",""0"",""2741""
","
","
","""event"",""trial"",""time""
""fullscreenenter"",""0"",""2741""
","
","950.3999999985099","run_exp/static/images/Set 6_rs/166a.jpg","86","","","","","","test","TR","1"
"","show_choice","265","455228","0.0-234.0-1.0","""event"",""trial"",""time""
""fullscreenenter"",""0"",""2741""
","
","
","""event"",""trial"",""time""
""fullscreenenter"",""0"",""2741""
","
","null","run_exp/static/images/Set 6_rs/166a.jpg","null","","","","","","test","TR",""
"","html-keyboard-response","266","455744","0.0-234.0-2.0","""event"",""trial"",""time""
""fullscreenenter"",""0"",""2741""
","
","
","""event"",""trial"",""time""
""fullscreenenter"",""0"",""2741""
","
","null","<p></p>","null","","","","","","","",""
"","image","267","457634","0.0-235.0-0.0","""event"",""trial"",""time""
""fullscreenenter"",""0"",""2741""
","
","
","""event"",""trial"",""time""
""fullscreenenter"",""0"",""2741""
","
","1887.5","run_exp/static/images/Set 6_rs/035a.jpg","78","","","","","","test","TF","4"
"","show_choice","268","458140","0.0-235.0-1.0","""event"",""trial"",""time""
""fullscreenenter"",""0"",""2741""
","
","
","""event"",""trial"",""time""
""fullscreenenter"",""0"",""2741""
","
","null","run_exp/static/images/Set 6_rs/035a.jpg","null","","","","","","test","TF",""
"","html-keyboard-response","269","458656","0.0-235.0-2.0","""event"",""trial"",""time""
""fullscreenenter"",""0"",""2741""
","
","
","""event"",""trial"",""time""
""fullscreenenter"",""0"",""2741""
","
","null","<p></p>","null","","","","","","","",""
"","image","270","460317","0.0-236.0-0.0","""event"",""trial"",""time""
""fullscreenenter"",""0"",""2741""
","
","
","""event"",""trial"",""time""
""fullscreenenter"",""0"",""2741""
","
","1658","run_exp/static/images/Set 6_rs/073b.jpg","66","","","","","","test","TL","3"
"","show_choice","271","460821","0.0-236.0-1.0","""event"",""trial"",""time""
""fullscreenenter"",""0"",""2741""
","
","
","""event"",""trial"",""time""
""fullscreenenter"",""0"",""2741""
","
","null","run_exp/static/images/Set 6_rs/073b.jpg","null","","","","","","test","TL",""
"","html-keyboard-response","272","461323","0.0-236.0-2.0","""event"",""trial"",""time""
""fullscreenenter"",""0"",""2741""
","
","
","""event"",""trial"",""time""
""fullscreenenter"",""0"",""2741""
","
","null","<p></p>","null","","","","","","","",""
"","image","273","462347","0.0-237.0-0.0","""event"",""trial"",""time""
""fullscreenenter"",""0"",""2741""
","
","
","""event"",""trial"",""time""
""fullscreenenter"",""0"",""2741""
","
","1021.5","run_exp/static/images/Set 6_rs/126a.jpg","86","","","","","","test","TR","2"
"","show_choice","274","462866","0.0-237.0-1.0","""event"",""trial"",""time""
""fullscreenenter"",""0"",""2741""
","
","
","""event"",""trial"",""time""
""fullscreenenter"",""0"",""2741""
","
","null","run_exp/static/images/Set 6_rs/126a.jpg","null","","","","","","test","TR",""
"","html-keyboard-response","275","463394","0.0-237.0-2.0","""event"",""trial"",""time""
""fullscreenenter"",""0"",""2741""
","
","
","""event"",""trial"",""time""
""fullscreenenter"",""0"",""2741""
","
","null","<p></p>","null","","","","","","","",""
"","image","276","464847","0.0-238.0-0.0","""event"",""trial"",""time""
""fullscreenenter"",""0"",""2741""
","
","
","""event"",""trial"",""time""
""fullscreenenter"",""0"",""2741""
","
","1449.6000000014901","run_exp/static/images/Set 6_rs/149a.jpg","66","","","","","","test","TF","1"
"","show_choice","277","465362","0.0-238.0-1.0","""event"",""trial"",""time""
""fullscreenenter"",""0"",""2741""
","
","
","""event"",""trial"",""time""
""fullscreenenter"",""0"",""2741""
","
","null","run_exp/static/images/Set 6_rs/149a.jpg","null","","","","","","test","TF",""
"","html-keyboard-response","278","465879","0.0-238.0-2.0","""event"",""trial"",""time""
""fullscreenenter"",""0"",""2741""
","
","
","""event"",""trial"",""time""
""fullscreenenter"",""0"",""2741""
","
","null","<p></p>","null","","","","","","","",""
"","image","279","466905","0.0-239.0-0.0","""event"",""trial"",""time""
""fullscreenenter"",""0"",""2741""
","
","
","""event"",""trial"",""time""
""fullscreenenter"",""0"",""2741""
","
","1023.5","run_exp/static/images/Set 6_rs/006b.jpg","66","","","","","","test","TL","2"
"","show_choice","280","467422","0.0-239.0-1.0","""event"",""trial"",""time""
""fullscreenenter"",""0"",""2741""
","
","
","""event"",""trial"",""time""
""fullscreenenter"",""0"",""2741""
","
","null","run_exp/static/images/Set 6_rs/006b.jpg","null","","","","","","test","TL",""
"","html-keyboard-response","281","467926","0.0-239.0-2.0","""event"",""trial"",""time""
""fullscreenenter"",""0"",""2741""
","
","
","""event"",""trial"",""time""
""fullscreenenter"",""0"",""2741""
","
","null","<p></p>","null","","","","","","","",""
"","image","282","469283","0.0-240.0-0.0","""event"",""trial"",""time""
""fullscreenenter"",""0"",""2741""
","
","
","""event"",""trial"",""time""
""fullscreenenter"",""0"",""2741""
","
","1354.5","run_exp/static/images/Set 6_rs/056a.jpg","78","","","","","","test","TF","3"
"","show_choice","283","469787","0.0-240.0-1.0","""event"",""trial"",""time""
""fullscreenenter"",""0"",""2741""
","
","
","""event"",""trial"",""time""
""fullscreenenter"",""0"",""2741""
","
","null","run_exp/static/images/Set 6_rs/056a.jpg","null","","","","","","test","TF",""
"","html-keyboard-response","284","470301","0.0-240.0-2.0","""event"",""trial"",""time""
""fullscreenenter"",""0"",""2741""
","
","
","""event"",""trial"",""time""
""fullscreenenter"",""0"",""2741""
","
","null","<p></p>","null","","","","","","","",""
"","image","285","472295","0.0-241.0-0.0","""event"",""trial"",""time""
""fullscreenenter"",""0"",""2741""
","
","
","""event"",""trial"",""time""
""fullscreenenter"",""0"",""2741""
","
","1991.5","run_exp/static/images/Set 6_rs/086a.jpg","78","","","","","","test","TF","1"
"","show_choice","286","472801","0.0-241.0-1.0","""event"",""trial"",""time""
""fullscreenenter"",""0"",""2741""
","
","
","""event"",""trial"",""time""
""fullscreenenter"",""0"",""2741""
","
","null","run_exp/static/images/Set 6_rs/086a.jpg","null","","","","","","test","TF",""
"","html-keyboard-response","287","473318","0.0-241.0-2.0","""event"",""trial"",""time""
""fullscreenenter"",""0"",""2741""
","
","
","""event"",""trial"",""time""
""fullscreenenter"",""0"",""2741""
","
","null","<p></p>","null","","","","","","","",""
"","image","288","474176","0.0-242.0-0.0","""event"",""trial"",""time""
""fullscreenenter"",""0"",""2741""
","
","
","""event"",""trial"",""time""
""fullscreenenter"",""0"",""2741""
","
","855","run_exp/static/images/Set 6_rs/181b.jpg","86","","","","","","test","TL","1"
"","show_choice","289","474679","0.0-242.0-1.0","""event"",""trial"",""time""
""fullscreenenter"",""0"",""2741""
","
","
","""event"",""trial"",""time""
""fullscreenenter"",""0"",""2741""
","
","null","run_exp/static/images/Set 6_rs/181b.jpg","null","","","","","","test","TL",""
"","html-keyboard-response","290","475183","0.0-242.0-2.0","""event"",""trial"",""time""
""fullscreenenter"",""0"",""2741""
","
","
","""event"",""trial"",""time""
""fullscreenenter"",""0"",""2741""
","
","null","<p></p>","null","","","","","","","",""
"","image","291","476926","0.0-243.0-0.0","""event"",""trial"",""time""
""fullscreenenter"",""0"",""2741""
","
","
","""event"",""trial"",""time""
""fullscreenenter"",""0"",""2741""
","
","1740","run_exp/static/images/Set 6_rs/010a.jpg","66","","","","","","test","TR","5"
"","show_choice","292","477440","0.0-243.0-1.0","""event"",""trial"",""time""
""fullscreenenter"",""0"",""2741""
","
","
","""event"",""trial"",""time""
""fullscreenenter"",""0"",""2741""
","
","null","run_exp/static/images/Set 6_rs/010a.jpg","null","","","","","","test","TR",""
"","html-keyboard-response","293","477957","0.0-243.0-2.0","""event"",""trial"",""time""
""fullscreenenter"",""0"",""2741""
","
","
","""event"",""trial"",""time""
""fullscreenenter"",""0"",""2741""
","
","null","<p></p>","null","","","","","","","",""
"","image","294","478914","0.0-244.0-0.0","""event"",""trial"",""time""
""fullscreenenter"",""0"",""2741""
","
","
","""event"",""trial"",""time""
""fullscreenenter"",""0"",""2741""
","
","954.7000000029802","run_exp/static/images/Set 6_rs/129b.jpg","86","","","","","","test","TL","1"
"","show_choice","295","479422","0.0-244.0-1.0","""event"",""trial"",""time""
""fullscreenenter"",""0"",""2741""
","
","
","""event"",""trial"",""time""
""fullscreenenter"",""0"",""2741""
","
","null","run_exp/static/images/Set 6_rs/129b.jpg","null","","","","","","test","TL",""
"","html-keyboard-response","296","479937","0.0-244.0-2.0","""event"",""trial"",""time""
""fullscreenenter"",""0"",""2741""
","
","
","""event"",""trial"",""time""
""fullscreenenter"",""0"",""2741""
","
","null","<p></p>","null","","","","","","","",""
"","image","297","481076","0.0-245.0-0.0","""event"",""trial"",""time""
""fullscreenenter"",""0"",""2741""
","
","
","""event"",""trial"",""time""
""fullscreenenter"",""0"",""2741""
","
","1136.0999999940395","run_exp/static/images/Set 6_rs/188a.jpg","86","","","","","","test","TF","3"
"","show_choice","298","481598","0.0-245.0-1.0","""event"",""trial"",""time""
""fullscreenenter"",""0"",""2741""
","
","
","""event"",""trial"",""time""
""fullscreenenter"",""0"",""2741""
","
","null","run_exp/static/images/Set 6_rs/188a.jpg","null","","","","","","test","TF",""
"","html-keyboard-response","299","482105","0.0-245.0-2.0","""event"",""trial"",""time""
""fullscreenenter"",""0"",""2741""
","
","
","""event"",""trial"",""time""
""fullscreenenter"",""0"",""2741""
","
","null","<p></p>","null","","","","","","","",""
"","image","300","482926","0.0-246.0-0.0","""event"",""trial"",""time""
""fullscreenenter"",""0"",""2741""
","
","
","""event"",""trial"",""time""
""fullscreenenter"",""0"",""2741""
","
","819","run_exp/static/images/Set 6_rs/014b.jpg","86","","","","","","test","TL","5"
"","show_choice","301","483437","0.0-246.0-1.0","""event"",""trial"",""time""
""fullscreenenter"",""0"",""2741""
","
","
","""event"",""trial"",""time""
""fullscreenenter"",""0"",""2741""
","
","null","run_exp/static/images/Set 6_rs/014b.jpg","null","","","","","","test","TL",""
"","html-keyboard-response","302","483950","0.0-246.0-2.0","""event"",""trial"",""time""
""fullscreenenter"",""0"",""2741""
","
","
","""event"",""trial"",""time""
""fullscreenenter"",""0"",""2741""
","
","null","<p></p>","null","","","","","","","",""
"","image","303","485877","0.0-247.0-0.0","""event"",""trial"",""time""
""fullscreenenter"",""0"",""2741""
","
","
","""event"",""trial"",""time""
""fullscreenenter"",""0"",""2741""
","
","1923.2999999970198","run_exp/static/images/Set 6_rs/133a.jpg","78","","","","","","test","TF","4"
"","show_choice","304","486395","0.0-247.0-1.0","""event"",""trial"",""time""
""fullscreenenter"",""0"",""2741""
","
","
","""event"",""trial"",""time""
""fullscreenenter"",""0"",""2741""
","
","null","run_exp/static/images/Set 6_rs/133a.jpg","null","","","","","","test","TF",""
"","html-keyboard-response","305","486908","0.0-247.0-2.0","""event"",""trial"",""time""
""fullscreenenter"",""0"",""2741""
","
","
","""event"",""trial"",""time""
""fullscreenenter"",""0"",""2741""
","
","null","<p></p>","null","","","","","","","",""
"","image","306","487819","0.0-248.0-0.0","""event"",""trial"",""time""
""fullscreenenter"",""0"",""2741""
","
","
","""event"",""trial"",""time""
""fullscreenenter"",""0"",""2741""
","
","909.8000000044703","run_exp/static/images/Set 6_rs/138b.jpg","86","","","","","","test","TL","1"
"","show_choice","307","488321","0.0-248.0-1.0","""event"",""trial"",""time""
""fullscreenenter"",""0"",""2741""
","
","
","""event"",""trial"",""time""
""fullscreenenter"",""0"",""2741""
","
","null","run_exp/static/images/Set 6_rs/138b.jpg","null","","","","","","test","TL",""
"","html-keyboard-response","308","488838","0.0-248.0-2.0","""event"",""trial"",""time""
""fullscreenenter"",""0"",""2741""
","
","
","""event"",""trial"",""time""
""fullscreenenter"",""0"",""2741""
","
","null","<p></p>","null","","","","","","","",""
"","image","309","491847","0.0-249.0-0.0","""event"",""trial"",""time""
""fullscreenenter"",""0"",""2741""
","
","
","""event"",""trial"",""time""
""fullscreenenter"",""0"",""2741""
","
","null","run_exp/static/images/Set 6_rs/028a.jpg","null","","","","","","test","TF","1"
"","show_choice","310","492352","0.0-249.0-1.0","""event"",""trial"",""time""
""fullscreenenter"",""0"",""2741""
","
","
","""event"",""trial"",""time""
""fullscreenenter"",""0"",""2741""
","
","null","run_exp/static/images/Set 6_rs/028a.jpg","null","","","","","","test","TF",""
"","html-keyboard-response","311","492865","0.0-249.0-2.0","""event"",""trial"",""time""
""fullscreenenter"",""0"",""2741""
","
","
","""event"",""trial"",""time""
""fullscreenenter"",""0"",""2741""
","
","null","<p></p>","null","","","","","","","",""
"","image","312","494192","0.0-250.0-0.0","""event"",""trial"",""time""
""fullscreenenter"",""0"",""2741""
","
","
","""event"",""trial"",""time""
""fullscreenenter"",""0"",""2741""
","
","1324.2999999970198","run_exp/static/images/Set 6_rs/111b.jpg","66","","","","","","test","TL","3"
"","show_choice","313","494695","0.0-250.0-1.0","""event"",""trial"",""time""
""fullscreenenter"",""0"",""2741""
","
","
","""event"",""trial"",""time""
""fullscreenenter"",""0"",""2741""
","
","null","run_exp/static/images/Set 6_rs/111b.jpg","null","","","","","","test","TL",""
"","html-keyboard-response","314","495210","0.0-250.0-2.0","""event"",""trial"",""time""
""fullscreenenter"",""0"",""2741""
","
","
","""event"",""trial"",""time""
""fullscreenenter"",""0"",""2741""
","
","null","<p></p>","null","","","","","","","",""
"","image","315","496298","0.0-251.0-0.0","""event"",""trial"",""time""
""fullscreenenter"",""0"",""2741""
","
","
","""event"",""trial"",""time""
""fullscreenenter"",""0"",""2741""
","
","1085.3999999985099","run_exp/static/images/Set 6_rs/100a.jpg","66","","","","","","test","TF","2"
"","show_choice","316","496808","0.0-251.0-1.0","""event"",""trial"",""time""
""fullscreenenter"",""0"",""2741""
","
","
","""event"",""trial"",""time""
""fullscreenenter"",""0"",""2741""
","
","null","run_exp/static/images/Set 6_rs/100a.jpg","null","","","","","","test","TF",""
"","html-keyboard-response","317","497322","0.0-251.0-2.0","""event"",""trial"",""time""
""fullscreenenter"",""0"",""2741""
","
","
","""event"",""trial"",""time""
""fullscreenenter"",""0"",""2741""
","
","null","<p></p>","null","","","","","","","",""
"","image","318","498495","0.0-252.0-0.0","""event"",""trial"",""time""
""fullscreenenter"",""0"",""2741""
","
","
","""event"",""trial"",""time""
""fullscreenenter"",""0"",""2741""
","
","1170.3999999985099","run_exp/static/images/Set 6_rs/008b.jpg","66","","","","","","test","TL","2"
"","show_choice","319","499006","0.0-252.0-1.0","""event"",""trial"",""time""
""fullscreenenter"",""0"",""2741""
","
","
","""event"",""trial"",""time""
""fullscreenenter"",""0"",""2741""
","
","null","run_exp/static/images/Set 6_rs/008b.jpg","null","","","","","","test","TL",""
"","html-keyboard-response","320","499516","0.0-252.0-2.0","""event"",""trial"",""time""
""fullscreenenter"",""0"",""2741""
","
","
","""event"",""trial"",""time""
""fullscreenenter"",""0"",""2741""
","
","null","<p></p>","null","","","","","","","",""
"","image","321","500357","0.0-253.0-0.0","""event"",""trial"",""time""
""fullscreenenter"",""0"",""2741""
","
","
","""event"",""trial"",""time""
""fullscreenenter"",""0"",""2741""
","
","837.7999999970198","run_exp/static/images/Set 6_rs/123b.jpg","86","","","","","","test","TL","2"
"","show_choice","322","500870","0.0-253.0-1.0","""event"",""trial"",""time""
""fullscreenenter"",""0"",""2741""
","
","
","""event"",""trial"",""time""
""fullscreenenter"",""0"",""2741""
","
","null","run_exp/static/images/Set 6_rs/123b.jpg","null","","","","","","test","TL",""
"","html-keyboard-response","323","501387","0.0-253.0-2.0","""event"",""trial"",""time""
""fullscreenenter"",""0"",""2741""
","
","
","""event"",""trial"",""time""
""fullscreenenter"",""0"",""2741""
","
","null","<p></p>","null","","","","","","","",""
"","image","324","502898","0.0-254.0-0.0","""event"",""trial"",""time""
""fullscreenenter"",""0"",""2741""
","
","
","""event"",""trial"",""time""
""fullscreenenter"",""0"",""2741""
","
","1507.5","run_exp/static/images/Set 6_rs/052a.jpg","78","","","","","","test","TF","1"
"","show_choice","325","503417","0.0-254.0-1.0","""event"",""trial"",""time""
""fullscreenenter"",""0"",""2741""
","
","
","""event"",""trial"",""time""
""fullscreenenter"",""0"",""2741""
","
","null","run_exp/static/images/Set 6_rs/052a.jpg","null","","","","","","test","TF",""
"","html-keyboard-response","326","503931","0.0-254.0-2.0","""event"",""trial"",""time""
""fullscreenenter"",""0"",""2741""
","
","
","""event"",""trial"",""time""
""fullscreenenter"",""0"",""2741""
","
","null","<p></p>","null","","","","","","","",""
"","image","327","505484","0.0-255.0-0.0","""event"",""trial"",""time""
""fullscreenenter"",""0"",""2741""
","
","
","""event"",""trial"",""time""
""fullscreenenter"",""0"",""2741""
","
","1549.7999999970198","run_exp/static/images/Set 6_rs/168b.jpg","86","","","","","","test","TL","3"
"","show_choice","328","505995","0.0-255.0-1.0","""event"",""trial"",""time""
""fullscreenenter"",""0"",""2741""
","
","
","""event"",""trial"",""time""
""fullscreenenter"",""0"",""2741""
","
","null","run_exp/static/images/Set 6_rs/168b.jpg","null","","","","","","test","TL",""
"","html-keyboard-response","329","506508","0.0-255.0-2.0","""event"",""trial"",""time""
""fullscreenenter"",""0"",""2741""
","
","
","""event"",""trial"",""time""
""fullscreenenter"",""0"",""2741""
","
","null","<p></p>","null","","","","","","","",""
"","image","330","507562","0.0-256.0-0.0","""event"",""trial"",""time""
""fullscreenenter"",""0"",""2741""
","
","
","""event"",""trial"",""time""
""fullscreenenter"",""0"",""2741""
","
","1051.6000000014901","run_exp/static/images/Set 6_rs/011a.jpg","78","","","","","","test","TF","3"
"","show_choice","331","508074","0.0-256.0-1.0","""event"",""trial"",""time""
""fullscreenenter"",""0"",""2741""
","
","
","""event"",""trial"",""time""
""fullscreenenter"",""0"",""2741""
","
","null","run_exp/static/images/Set 6_rs/011a.jpg","null","","","","","","test","TF",""
"","html-keyboard-response","332","508589","0.0-256.0-2.0","""event"",""trial"",""time""
""fullscreenenter"",""0"",""2741""
","
","
","""event"",""trial"",""time""
""fullscreenenter"",""0"",""2741""
","
","null","<p></p>","null","","","","","","","",""
"","image","333","509783","0.0-257.0-0.0","""event"",""trial"",""time""
""fullscreenenter"",""0"",""2741""
","
","
","""event"",""trial"",""time""
""fullscreenenter"",""0"",""2741""
","
","1191.7999999970198","run_exp/static/images/Set 6_rs/001a.jpg","78","","","","","","test","TF","1"
"","show_choice","334","510291","0.0-257.0-1.0","""event"",""trial"",""time""
""fullscreenenter"",""0"",""2741""
","
","
","""event"",""trial"",""time""
""fullscreenenter"",""0"",""2741""
","
","null","run_exp/static/images/Set 6_rs/001a.jpg","null","","","","","","test","TF",""
"","html-keyboard-response","335","510801","0.0-257.0-2.0","""event"",""trial"",""time""
""fullscreenenter"",""0"",""2741""
","
","
","""event"",""trial"",""time""
""fullscreenenter"",""0"",""2741""
","
","null","<p></p>","null","","","","","","","",""
"","image","336","512083","0.0-258.0-0.0","""event"",""trial"",""time""
""fullscreenenter"",""0"",""2741""
","
","
","""event"",""trial"",""time""
""fullscreenenter"",""0"",""2741""
","
","1279.3000000044703","run_exp/static/images/Set 6_rs/064a.jpg","86","","","","","","test","TR","5"
"","show_choice","337","512587","0.0-258.0-1.0","""event"",""trial"",""time""
""fullscreenenter"",""0"",""2741""
","
","
","""event"",""trial"",""time""
""fullscreenenter"",""0"",""2741""
","
","null","run_exp/static/images/Set 6_rs/064a.jpg","null","","","","","","test","TR",""
"","html-keyboard-response","338","513102","0.0-258.0-2.0","""event"",""trial"",""time""
""fullscreenenter"",""0"",""2741""
","
","
","""event"",""trial"",""time""
""fullscreenenter"",""0"",""2741""
","
","null","<p></p>","null","","","","","","","",""
"","image","339","514440","0.0-259.0-0.0","""event"",""trial"",""time""
""fullscreenenter"",""0"",""2741""
","
","
","""event"",""trial"",""time""
""fullscreenenter"",""0"",""2741""
","
","1335.2000000029802","run_exp/static/images/Set 6_rs/079b.jpg","66","","","","","","test","TL","5"
"","show_choice","340","514949","0.0-259.0-1.0","""event"",""trial"",""time""
""fullscreenenter"",""0"",""2741""
","
","
","""event"",""trial"",""time""
""fullscreenenter"",""0"",""2741""
","
","null","run_exp/static/images/Set 6_rs/079b.jpg","null","","","","","","test","TL",""
"","html-keyboard-response","341","515463","0.0-259.0-2.0","""event"",""trial"",""time""
""fullscreenenter"",""0"",""2741""
","
","
","""event"",""trial"",""time""