"success","trial_type","trial_index","time_elapsed","internal_node_id","interactions","blur_events","focus_events","fullscreenenter_events","fullscreenexit_events","rt","stimulus","key_press","subject_id","participant_id","age","gender","prompt","phase","condition","lure_bin"
"true","fullscreen","0","153762","0.0-0.0","""event"",""trial"",""time""
""fullscreenenter"",""0"",""152774""
","
","
","""event"",""trial"",""time""
""fullscreenenter"",""0"",""152774""
","
","","","","","","","","","","",""
"","pavlovia","1","153790","0.0-1.0","""event"",""trial"",""time""
""fullscreenenter"",""0"",""152774""
","
","
","""event"",""trial"",""time""
""fullscreenenter"",""0"",""152774""
","
","","","","","","","","","","",""
"","welcome","2","188777","0.0-2.0","""event"",""trial"",""time""
""fullscreenenter"",""0"",""152774""
","
","
","""event"",""trial"",""time""
""fullscreenenter"",""0"",""152774""
","
","null","run_exp/static/audio/clip_1_welcome.m4a","null","558","191","9","Male","<div class='center'><p>Welcome to the third part of the study! First, you'll be shown pictures of items one at a time. For each picture, you have to decide if the item is typically found indoors or outdoors.</p><p>If you think it's usually found indoors, then press <b>v</b> key on your keyboard. If you think it's usually found outdoors, then press the <b>n</b> key.There will be reminders on the screen to help you remember which keys to press. </p><p>If you're not sure whether the item is an indoor item or an outdoor item, go ahead and take a guess but try your best not to skip that choice. </p></div>","","",""
"","html-keyboard-response","3","225664","0.0-3.0","""event"",""trial"",""time""
""fullscreenenter"",""0"",""152774""
","
","
","""event"",""trial"",""time""
""fullscreenenter"",""0"",""152774""
","
","36880.399999999965","<div class='center'><p>Welcome to the third part of the study! First, you'll be shown pictures of items one at a time. For each picture, you have to decide if the item is typically found indoors or outdoors.</p><p>If you think it's usually found indoors, then press <b>v</b> key on your keyboard. If you think it's usually found outdoors, then press the <b>n</b> key.There will be reminders on the screen to help you remember which keys to press. </p><p>If you're not sure whether the item is an indoor item or an outdoor item, go ahead and take a guess but try your best not to skip that choice. </p><div><p><b>[Press the space bar to continue]</b></p></div>","32","","","","","","","",""
"","image","4","227669","0.0-4.0","""event"",""trial"",""time""
""fullscreenenter"",""0"",""152774""
","
","
","""event"",""trial"",""time""
""fullscreenenter"",""0"",""152774""
","
","null","run_exp/static/images/Set 6_rs/166a.jpg","null","","","","","","learn","SR",""
"","show_choice","5","229674","0.0-5.0","""event"",""trial"",""time""
""fullscreenenter"",""0"",""152774""
","
","
","""event"",""trial"",""time""
""fullscreenenter"",""0"",""152774""
","
","null","run_exp/static/images/blank.png","null","","","","","","learn","SR",""
"","html-keyboard-response","6","230179","0.0-6.0","""event"",""trial"",""time""
""fullscreenenter"",""0"",""152774""
","
","
","""event"",""trial"",""time""
""fullscreenenter"",""0"",""152774""
","
","null","<p></p>","null","","","","","","","",""
"","image","7","232187","0.0-7.0","""event"",""trial"",""time""
""fullscreenenter"",""0"",""152774""
","
","
","""event"",""trial"",""time""
""fullscreenenter"",""0"",""152774""
","
","null","run_exp/static/images/Set 6_rs/123a.jpg","null","","","","","","learn","SL",""
"","show_choice","8","234195","0.0-8.0","""event"",""trial"",""time""
""fullscreenenter"",""0"",""152774""
","
","
","""event"",""trial"",""time""
""fullscreenenter"",""0"",""152774""
","
","null","run_exp/static/images/blank.png","null","","","","","","learn","SL",""
"","html-keyboard-response","9","234700","0.0-9.0","""event"",""trial"",""time""
""fullscreenenter"",""0"",""152774""
","
","
","""event"",""trial"",""time""
""fullscreenenter"",""0"",""152774""
","
","null","<p></p>","null","","","","","","","",""
"","image","10","236091","0.0-10.0","""event"",""trial"",""time""
""fullscreenenter"",""0"",""152774""
","
","
","""event"",""trial"",""time""
""fullscreenenter"",""0"",""152774""
","
","1384","run_exp/static/images/Set 6_rs/138a.jpg","86","","","","","","learn","SL",""
"","show_choice","11","236711","0.0-11.0","""event"",""trial"",""time""
""fullscreenenter"",""0"",""152774""
","
","
","""event"",""trial"",""time""
""fullscreenenter"",""0"",""152774""
","
","null","run_exp/static/images/Set 6_rs/138a.jpg","null","","","","","","learn","SL",""
"","html-keyboard-response","12","237215","0.0-12.0","""event"",""trial"",""time""
""fullscreenenter"",""0"",""152774""
","
","
","""event"",""trial"",""time""
""fullscreenenter"",""0"",""152774""
","
","null","<p></p>","null","","","","","","","",""
"","image","13","238722","0.0-13.0","""event"",""trial"",""time""
""fullscreenenter"",""0"",""152774""
","
","
","""event"",""trial"",""time""
""fullscreenenter"",""0"",""152774""
","
","1490.3000000000466","run_exp/static/images/Set 6_rs/144a.jpg","86","","","","","","learn","SL",""
"","show_choice","14","239236","0.0-14.0","""event"",""trial"",""time""
""fullscreenenter"",""0"",""152774""
","
","
","""event"",""trial"",""time""
""fullscreenenter"",""0"",""152774""
","
","null","run_exp/static/images/Set 6_rs/144a.jpg","null","","","","","","learn","SL",""
"","html-keyboard-response","15","239739","0.0-15.0","""event"",""trial"",""time""
""fullscreenenter"",""0"",""152774""
","
","
","""event"",""trial"",""time""
""fullscreenenter"",""0"",""152774""
","
","null","<p></p>","null","","","","","","","",""
"","image","16","241092","0.0-16.0","""event"",""trial"",""time""
""fullscreenenter"",""0"",""152774""
","
","
","""event"",""trial"",""time""
""fullscreenenter"",""0"",""152774""
","
","1350.1000000000931","run_exp/static/images/Set 6_rs/066a.jpg","78","","","","","","learn","SL",""
"","show_choice","17","241746","0.0-17.0","""event"",""trial"",""time""
""fullscreenenter"",""0"",""152774""
","
","
","""event"",""trial"",""time""
""fullscreenenter"",""0"",""152774""
","
","null","run_exp/static/images/Set 6_rs/066a.jpg","null","","","","","","learn","SL",""
"","html-keyboard-response","18","242251","0.0-18.0","""event"",""trial"",""time""
""fullscreenenter"",""0"",""152774""
","
","
","""event"",""trial"",""time""
""fullscreenenter"",""0"",""152774""
","
","null","<p></p>","null","","","","","","","",""
"","image","19","243320","0.0-19.0","""event"",""trial"",""time""
""fullscreenenter"",""0"",""152774""
","
","
","""event"",""trial"",""time""
""fullscreenenter"",""0"",""152774""
","
","1062.1999999999534","run_exp/static/images/Set 6_rs/129a.jpg","86","","","","","","learn","SL",""
"","show_choice","20","244264","0.0-20.0","""event"",""trial"",""time""
""fullscreenenter"",""0"",""152774""
","
","
","""event"",""trial"",""time""
""fullscreenenter"",""0"",""152774""
","
","null","run_exp/static/images/Set 6_rs/129a.jpg","null","","","","","","learn","SL",""
"","html-keyboard-response","21","244768","0.0-21.0","""event"",""trial"",""time""
""fullscreenenter"",""0"",""152774""
","
","
","""event"",""trial"",""time""
""fullscreenenter"",""0"",""152774""
","
","null","<p></p>","null","","","","","","","",""
"","image","22","246081","0.0-22.0","""event"",""trial"",""time""
""fullscreenenter"",""0"",""152774""
","
","
","""event"",""trial"",""time""
""fullscreenenter"",""0"",""152774""
","
","1308.2000000000698","run_exp/static/images/Set 6_rs/186a.jpg","78","","","","","","learn","SR",""
"","show_choice","23","246778","0.0-23.0","""event"",""trial"",""time""
""fullscreenenter"",""0"",""152774""
","
","
","""event"",""trial"",""time""
""fullscreenenter"",""0"",""152774""
","
","null","run_exp/static/images/Set 6_rs/186a.jpg","null","","","","","","learn","SR",""
"","html-keyboard-response","24","247282","0.0-24.0","""event"",""trial"",""time""
""fullscreenenter"",""0"",""152774""
","
","
","""event"",""trial"",""time""
""fullscreenenter"",""0"",""152774""
","
","null","<p></p>","null","","","","","","","",""
"","image","25","248515","0.0-25.0","""event"",""trial"",""time""
""fullscreenenter"",""0"",""152774""
","
","
","""event"",""trial"",""time""
""fullscreenenter"",""0"",""152774""
","
","1228","run_exp/static/images/Set 6_rs/169a.jpg","78","","","","","","learn","SR",""
"","show_choice","26","249292","0.0-26.0","""event"",""trial"",""time""
""fullscreenenter"",""0"",""152774""
","
","
","""event"",""trial"",""time""
""fullscreenenter"",""0"",""152774""
","
","null","run_exp/static/images/Set 6_rs/169a.jpg","null","","","","","","learn","SR",""
"","html-keyboard-response","27","249795","0.0-27.0","""event"",""trial"",""time""
""fullscreenenter"",""0"",""152774""
","
","
","""event"",""trial"",""time""
""fullscreenenter"",""0"",""152774""
","
","null","<p></p>","null","","","","","","","",""
"","image","28","250925","0.0-28.0","""event"",""trial"",""time""
""fullscreenenter"",""0"",""152774""
","
","
","""event"",""trial"",""time""
""fullscreenenter"",""0"",""152774""
","
","1125.3999999999069","run_exp/static/images/Set 6_rs/172a.jpg","78","","","","","","learn","SR",""
"","show_choice","29","251805","0.0-29.0","""event"",""trial"",""time""
""fullscreenenter"",""0"",""152774""
","
","
","""event"",""trial"",""time""
""fullscreenenter"",""0"",""152774""
","
","null","run_exp/static/images/Set 6_rs/172a.jpg","null","","","","","","learn","SR",""
"","html-keyboard-response","30","252310","0.0-30.0","""event"",""trial"",""time""
""fullscreenenter"",""0"",""152774""
","
","
","""event"",""trial"",""time""
""fullscreenenter"",""0"",""152774""
","
","null","<p></p>","null","","","","","","","",""
"","image","31","253668","0.0-31.0","""event"",""trial"",""time""
""fullscreenenter"",""0"",""152774""
","
","
","""event"",""trial"",""time""
""fullscreenenter"",""0"",""152774""
","
","1349","run_exp/static/images/Set 6_rs/017a.jpg","86","","","","","","learn","SL",""
"","show_choice","32","254325","0.0-32.0","""event"",""trial"",""time""
""fullscreenenter"",""0"",""152774""
","
","
","""event"",""trial"",""time""
""fullscreenenter"",""0"",""152774""
","
","null","run_exp/static/images/Set 6_rs/017a.jpg","null","","","","","","learn","SL",""
"","html-keyboard-response","33","254830","0.0-33.0","""event"",""trial"",""time""
""fullscreenenter"",""0"",""152774""
","
","
","""event"",""trial"",""time""
""fullscreenenter"",""0"",""152774""
","
","null","<p></p>","null","","","","","","","",""
"","image","34","256089","0.0-34.0","""event"",""trial"",""time""
""fullscreenenter"",""0"",""152774""
","
","
","""event"",""trial"",""time""
""fullscreenenter"",""0"",""152774""
","
","1253.7999999999302","run_exp/static/images/Set 6_rs/076a.jpg","86","","","","","","learn","SR",""
"","show_choice","35","256845","0.0-35.0","""event"",""trial"",""time""
""fullscreenenter"",""0"",""152774""
","
","
","""event"",""trial"",""time""
""fullscreenenter"",""0"",""152774""
","
","null","run_exp/static/images/Set 6_rs/076a.jpg","null","","","","","","learn","SR",""
"","html-keyboard-response","36","257347","0.0-36.0","""event"",""trial"",""time""
""fullscreenenter"",""0"",""152774""
","
","
","""event"",""trial"",""time""
""fullscreenenter"",""0"",""152774""
","
","null","<p></p>","null","","","","","","","",""
"","image","37","258948","0.0-37.0","""event"",""trial"",""time""
""fullscreenenter"",""0"",""152774""
","
","
","""event"",""trial"",""time""
""fullscreenenter"",""0"",""152774""
","
","1595.6000000000931","run_exp/static/images/Set 6_rs/126a.jpg","78","","","","","","learn","SR",""
"","show_choice","38","259358","0.0-38.0","""event"",""trial"",""time""
""fullscreenenter"",""0"",""152774""
","
","
","""event"",""trial"",""time""
""fullscreenenter"",""0"",""152774""
","
","null","run_exp/static/images/Set 6_rs/126a.jpg","null","","","","","","learn","SR",""
"","html-keyboard-response","39","259862","0.0-39.0","""event"",""trial"",""time""
""fullscreenenter"",""0"",""152774""
","
","
","""event"",""trial"",""time""
""fullscreenenter"",""0"",""152774""
","
","null","<p></p>","null","","","","","","","",""
"","image","40","260982","0.0-40.0","""event"",""trial"",""time""
""fullscreenenter"",""0"",""152774""
","
","
","""event"",""trial"",""time""
""fullscreenenter"",""0"",""152774""
","
","1113.0999999999767","run_exp/static/images/Set 6_rs/025a.jpg","78","","","","","","learn","SL",""
"","show_choice","41","261872","0.0-41.0","""event"",""trial"",""time""
""fullscreenenter"",""0"",""152774""
","
","
","""event"",""trial"",""time""
""fullscreenenter"",""0"",""152774""
","
","null","run_exp/static/images/Set 6_rs/025a.jpg","null","","","","","","learn","SL",""
"","html-keyboard-response","42","262376","0.0-42.0","""event"",""trial"",""time""
""fullscreenenter"",""0"",""152774""
","
","
","""event"",""trial"",""time""
""fullscreenenter"",""0"",""152774""
","
","null","<p></p>","null","","","","","","","",""
"","image","43","263485","0.0-43.0","""event"",""trial"",""time""
""fullscreenenter"",""0"",""152774""
","
","
","""event"",""trial"",""time""
""fullscreenenter"",""0"",""152774""
","
","1104.8000000000466","run_exp/static/images/Set 6_rs/014a.jpg","86","","","","","","learn","SL",""
"","show_choice","44","264383","0.0-44.0","""event"",""trial"",""time""
""fullscreenenter"",""0"",""152774""
","
","
","""event"",""trial"",""time""
""fullscreenenter"",""0"",""152774""
","
","null","run_exp/static/images/Set 6_rs/014a.jpg","null","","","","","","learn","SL",""
"","html-keyboard-response","45","264887","0.0-45.0","""event"",""trial"",""time""
""fullscreenenter"",""0"",""152774""
","
","
","""event"",""trial"",""time""
""fullscreenenter"",""0"",""152774""
","
","null","<p></p>","null","","","","","","","",""
"","image","46","266319","0.0-46.0","""event"",""trial"",""time""
""fullscreenenter"",""0"",""152774""
","
","
","""event"",""trial"",""time""
""fullscreenenter"",""0"",""152774""
","
","1427.3000000000466","run_exp/static/images/Set 6_rs/075a.jpg","86","","","","","","learn","SR",""
"","show_choice","47","266894","0.0-47.0","""event"",""trial"",""time""
""fullscreenenter"",""0"",""152774""
","
","
","""event"",""trial"",""time""
""fullscreenenter"",""0"",""152774""
","
","null","run_exp/static/images/Set 6_rs/075a.jpg","null","","","","","","learn","SR",""
"","html-keyboard-response","48","267398","0.0-48.0","""event"",""trial"",""time""
""fullscreenenter"",""0"",""152774""
","
","
","""event"",""trial"",""time""
""fullscreenenter"",""0"",""152774""
","
","null","<p></p>","null","","","","","","","",""
"","image","49","269019","0.0-49.0","""event"",""trial"",""time""
""fullscreenenter"",""0"",""152774""
","
","
","""event"",""trial"",""time""
""fullscreenenter"",""0"",""152774""
","
","1615.1999999999534","run_exp/static/images/Set 6_rs/141a.jpg","78","","","","","","learn","SR",""
"","show_choice","50","269408","0.0-50.0","""event"",""trial"",""time""
""fullscreenenter"",""0"",""152774""
","
","
","""event"",""trial"",""time""
""fullscreenenter"",""0"",""152774""
","
","null","run_exp/static/images/Set 6_rs/141a.jpg","null","","","","","","learn","SR",""
"","html-keyboard-response","51","269912","0.0-51.0","""event"",""trial"",""time""
""fullscreenenter"",""0"",""152774""
","
","
","""event"",""trial"",""time""
""fullscreenenter"",""0"",""152774""
","
","null","<p></p>","null","","","","","","","",""
"","image","52","271797","0.0-52.0","""event"",""trial"",""time""
""fullscreenenter"",""0"",""152774""
","
","
","""event"",""trial"",""time""
""fullscreenenter"",""0"",""152774""
","
","1880.8999999999069","run_exp/static/images/Set 6_rs/150a.jpg","86","","","","","","learn","SR",""
"","show_choice","53","271921","0.0-53.0","""event"",""trial"",""time""
""fullscreenenter"",""0"",""152774""
","
","
","""event"",""trial"",""time""
""fullscreenenter"",""0"",""152774""
","
","null","run_exp/static/images/Set 6_rs/150a.jpg","null","","","","","","learn","SR",""
"","html-keyboard-response","54","272423","0.0-54.0","""event"",""trial"",""time""
""fullscreenenter"",""0"",""152774""
","
","
","""event"",""trial"",""time""
""fullscreenenter"",""0"",""152774""
","
","null","<p></p>","null","","","","","","","",""
"","image","55","274053","0.0-55.0","""event"",""trial"",""time""
""fullscreenenter"",""0"",""152774""
","
","
","""event"",""trial"",""time""
""fullscreenenter"",""0"",""152774""
","
","1624.1999999999534","run_exp/static/images/Set 6_rs/117a.jpg","86","","","","","","learn","SL",""
"","show_choice","56","274433","0.0-56.0","""event"",""trial"",""time""
""fullscreenenter"",""0"",""152774""
","
","
","""event"",""trial"",""time""
""fullscreenenter"",""0"",""152774""
","
","null","run_exp/static/images/Set 6_rs/117a.jpg","null","","","","","","learn","SL",""
"","html-keyboard-response","57","274936","0.0-57.0","""event"",""trial"",""time""
""fullscreenenter"",""0"",""152774""
","
","
","""event"",""trial"",""time""
""fullscreenenter"",""0"",""152774""
","
","null","<p></p>","null","","","","","","","",""
"","image","58","276597","0.0-58.0","""event"",""trial"",""time""
""fullscreenenter"",""0"",""152774""
","
","
","""event"",""trial"",""time""
""fullscreenenter"",""0"",""152774""
","
","1654.5","run_exp/static/images/Set 6_rs/010a.jpg","86","","","","","","learn","SR",""
"","show_choice","59","276945","0.0-59.0","""event"",""trial"",""time""
""fullscreenenter"",""0"",""152774""
","
","
","""event"",""trial"",""time""
""fullscreenenter"",""0"",""152774""
","
","null","run_exp/static/images/Set 6_rs/010a.jpg","null","","","","","","learn","SR",""
"","html-keyboard-response","60","277449","0.0-60.0","""event"",""trial"",""time""
""fullscreenenter"",""0"",""152774""
","
","
","""event"",""trial"",""time""
""fullscreenenter"",""0"",""152774""
","
","null","<p></p>","null","","","","","","","",""
"","image","61","278935","0.0-61.0","""event"",""trial"",""time""
""fullscreenenter"",""0"",""152774""
","
","
","""event"",""trial"",""time""
""fullscreenenter"",""0"",""152774""
","
","1478.4000000000233","run_exp/static/images/Set 6_rs/134a.jpg","86","","","","","","learn","SR",""
"","show_choice","62","279462","0.0-62.0","""event"",""trial"",""time""
""fullscreenenter"",""0"",""152774""
","
","
","""event"",""trial"",""time""
""fullscreenenter"",""0"",""152774""
","
","null","run_exp/static/images/Set 6_rs/134a.jpg","null","","","","","","learn","SR",""
"","html-keyboard-response","63","279970","0.0-63.0","""event"",""trial"",""time""
""fullscreenenter"",""0"",""152774""
","
","
","""event"",""trial"",""time""
""fullscreenenter"",""0"",""152774""
","
","null","<p></p>","null","","","","","","","",""
"","image","64","281466","0.0-64.0","""event"",""trial"",""time""
""fullscreenenter"",""0"",""152774""
","
","
","""event"",""trial"",""time""
""fullscreenenter"",""0"",""152774""
","
","1491.5","run_exp/static/images/Set 6_rs/061a.jpg","78","","","","","","learn","SR",""
"","show_choice","65","281979","0.0-65.0","""event"",""trial"",""time""
""fullscreenenter"",""0"",""152774""
","
","
","""event"",""trial"",""time""
""fullscreenenter"",""0"",""152774""
","
","null","run_exp/static/images/Set 6_rs/061a.jpg","null","","","","","","learn","SR",""
"","html-keyboard-response","66","282481","0.0-66.0","""event"",""trial"",""time""
""fullscreenenter"",""0"",""152774""
","
","
","""event"",""trial"",""time""
""fullscreenenter"",""0"",""152774""
","
","null","<p></p>","null","","","","","","","",""
"","image","67","283796","0.0-67.0","""event"",""trial"",""time""
""fullscreenenter"",""0"",""152774""
","
","
","""event"",""trial"",""time""
""fullscreenenter"",""0"",""152774""
","
","1309","run_exp/static/images/Set 6_rs/178a.jpg","78","","","","","","learn","SR",""
"","show_choice","68","284493","0.0-68.0","""event"",""trial"",""time""
""fullscreenenter"",""0"",""152774""
","
","
","""event"",""trial"",""time""
""fullscreenenter"",""0"",""152774""
","
","null","run_exp/static/images/Set 6_rs/178a.jpg","null","","","","","","learn","SR",""
"","html-keyboard-response","69","284997","0.0-69.0","""event"",""trial"",""time""
""fullscreenenter"",""0"",""152774""
","
","
","""event"",""trial"",""time""
""fullscreenenter"",""0"",""152774""
","
","null","<p></p>","null","","","","","","","",""
"","image","70","285888","0.0-70.0","""event"",""trial"",""time""
""fullscreenenter"",""0"",""152774""
","
","
","""event"",""trial"",""time""
""fullscreenenter"",""0"",""152774""
","
","885.0999999999767","run_exp/static/images/Set 6_rs/070a.jpg","78","","","","","","learn","SR",""
"","show_choice","71","287007","0.0-71.0","""event"",""trial"",""time""
""fullscreenenter"",""0"",""152774""
","
","
","""event"",""trial"",""time""
""fullscreenenter"",""0"",""152774""
","
","null","run_exp/static/images/Set 6_rs/070a.jpg","null","","","","","","learn","SR",""
"","html-keyboard-response","72","287509","0.0-72.0","""event"",""trial"",""time""
""fullscreenenter"",""0"",""152774""
","
","
","""event"",""trial"",""time""
""fullscreenenter"",""0"",""152774""
","
","null","<p></p>","null","","","","","","","",""
"","image","73","288518","0.0-73.0","""event"",""trial"",""time""
""fullscreenenter"",""0"",""152774""
","
","
","""event"",""trial"",""time""
""fullscreenenter"",""0"",""152774""
","
","1004.9000000000233","run_exp/static/images/Set 6_rs/023a.jpg","86","","","","","","learn","SR",""
"","show_choice","74","289518","0.0-74.0","""event"",""trial"",""time""
""fullscreenenter"",""0"",""152774""
","
","
","""event"",""trial"",""time""
""fullscreenenter"",""0"",""152774""
","
","null","run_exp/static/images/Set 6_rs/023a.jpg","null","","","","","","learn","SR",""
"","html-keyboard-response","75","290022","0.0-75.0","""event"",""trial"",""time""
""fullscreenenter"",""0"",""152774""
","
","
","""event"",""trial"",""time""
""fullscreenenter"",""0"",""152774""
","
","null","<p></p>","null","","","","","","","",""
"","image","76","291224","0.0-76.0","""event"",""trial"",""time""
""fullscreenenter"",""0"",""152774""
","
","
","""event"",""trial"",""time""
""fullscreenenter"",""0"",""152774""
","
","1197.2000000000698","run_exp/static/images/Set 6_rs/019a.jpg","86","","","","","","learn","SL",""
"","show_choice","77","292032","0.0-77.0","""event"",""trial"",""time""
""fullscreenenter"",""0"",""152774""
","
","
","""event"",""trial"",""time""
""fullscreenenter"",""0"",""152774""
","
","null","run_exp/static/images/Set 6_rs/019a.jpg","null","","","","","","learn","SL",""
"","html-keyboard-response","78","292535","0.0-78.0","""event"",""trial"",""time""
""fullscreenenter"",""0"",""152774""
","
","
","""event"",""trial"",""time""
""fullscreenenter"",""0"",""152774""
","
","null","<p></p>","null","","","","","","","",""
"","image","79","293843","0.0-79.0","""event"",""trial"",""time""
""fullscreenenter"",""0"",""152774""
","
","
","""event"",""trial"",""time""
""fullscreenenter"",""0"",""152774""
","
","1300.4000000000233","run_exp/static/images/Set 6_rs/062a.jpg","86","","","","","","learn","SL",""
"","show_choice","80","294547","0.0-80.0","""event"",""trial"",""time""
""fullscreenenter"",""0"",""152774""
","
","
","""event"",""trial"",""time""
""fullscreenenter"",""0"",""152774""
","
","null","run_exp/static/images/Set 6_rs/062a.jpg","null","","","","","","learn","SL",""
"","html-keyboard-response","81","295050","0.0-81.0","""event"",""trial"",""time""
""fullscreenenter"",""0"",""152774""
","
","
","""event"",""trial"",""time""
""fullscreenenter"",""0"",""152774""
","
","null","<p></p>","null","","","","","","","",""
"","image","82","296368","0.0-82.0","""event"",""trial"",""time""
""fullscreenenter"",""0"",""152774""
","
","
","""event"",""trial"",""time""
""fullscreenenter"",""0"",""152774""
","
","1312.4000000000233","run_exp/static/images/Set 6_rs/187a.jpg","86","","","","","","learn","SR",""
"","show_choice","83","297060","0.0-83.0","""event"",""trial"",""time""
""fullscreenenter"",""0"",""152774""
","
","
","""event"",""trial"",""time""
""fullscreenenter"",""0"",""152774""
","
","null","run_exp/static/images/Set 6_rs/187a.jpg","null","","","","","","learn","SR",""
"","html-keyboard-response","84","297562","0.0-84.0","""event"",""trial"",""time""
""fullscreenenter"",""0"",""152774""
","
","
","""event"",""trial"",""time""
""fullscreenenter"",""0"",""152774""
","
","null","<p></p>","null","","","","","","","",""
"","image","85","299557","0.0-85.0","""event"",""trial"",""time""
""fullscreenenter"",""0"",""152774""
","
","
","""event"",""trial"",""time""
""fullscreenenter"",""0"",""152774""
","
","1989.3999999999069","run_exp/static/images/Set 6_rs/167a.jpg","78","","","","","","learn","SL",""
"","show_choice","86","299572","0.0-86.0","""event"",""trial"",""time""
""fullscreenenter"",""0"",""152774""
","
","
","""event"",""trial"",""time""
""fullscreenenter"",""0"",""152774""
","
","null","run_exp/static/images/Set 6_rs/167a.jpg","null","","","","","","learn","SL",""
"","html-keyboard-response","87","300075","0.0-87.0","""event"",""trial"",""time""
""fullscreenenter"",""0"",""152774""
","
","
","""event"",""trial"",""time""
""fullscreenenter"",""0"",""152774""
","
","null","<p></p>","null","","","","","","","",""
"","image","88","301897","0.0-88.0","""event"",""trial"",""time""
""fullscreenenter"",""0"",""152774""
","
","
","""event"",""trial"",""time""
""fullscreenenter"",""0"",""152774""
","
","1816.4000000000233","run_exp/static/images/Set 6_rs/006a.jpg","86","","","","","","learn","SL",""
"","show_choice","89","302086","0.0-89.0","""event"",""trial"",""time""
""fullscreenenter"",""0"",""152774""
","
","
","""event"",""trial"",""time""
""fullscreenenter"",""0"",""152774""
","
","null","run_exp/static/images/Set 6_rs/006a.jpg","null","","","","","","learn","SL",""
"","html-keyboard-response","90","302588","0.0-90.0","""event"",""trial"",""time""
""fullscreenenter"",""0"",""152774""
","
","
","""event"",""trial"",""time""
""fullscreenenter"",""0"",""152774""
","
","null","<p></p>","null","","","","","","","",""
"","image","91","303747","0.0-91.0","""event"",""trial"",""time""
""fullscreenenter"",""0"",""152774""
","
","
","""event"",""trial"",""time""
""fullscreenenter"",""0"",""152774""
","
","1155.5","run_exp/static/images/Set 6_rs/154a.jpg","86","","","","","","learn","SR",""
"","show_choice","92","304597","0.0-92.0","""event"",""trial"",""time""
""fullscreenenter"",""0"",""152774""
","
","
","""event"",""trial"",""time""
""fullscreenenter"",""0"",""152774""
","
","null","run_exp/static/images/Set 6_rs/154a.jpg","null","","","","","","learn","SR",""
"","html-keyboard-response","93","305100","0.0-93.0","""event"",""trial"",""time""
""fullscreenenter"",""0"",""152774""
","
","
","""event"",""trial"",""time""
""fullscreenenter"",""0"",""152774""
","
","null","<p></p>","null","","","","","","","",""
"","image","94","306195","0.0-94.0","""event"",""trial"",""time""
""fullscreenenter"",""0"",""152774""
","
","
","""event"",""trial"",""time""
""fullscreenenter"",""0"",""152774""
","
","1090.8000000000466","run_exp/static/images/Set 6_rs/088a.jpg","86","","","","","","learn","SR",""
"","show_choice","95","307108","0.0-95.0","""event"",""trial"",""time""
""fullscreenenter"",""0"",""152774""
","
","
","""event"",""trial"",""time""
""fullscreenenter"",""0"",""152774""
","
","null","run_exp/static/images/Set 6_rs/088a.jpg","null","","","","","","learn","SR",""
"","html-keyboard-response","96","307611","0.0-96.0","""event"",""trial"",""time""
""fullscreenenter"",""0"",""152774""
","
","
","""event"",""trial"",""time""
""fullscreenenter"",""0"",""152774""
","
","null","<p></p>","null","","","","","","","",""
"","image","97","308836","0.0-97.0","""event"",""trial"",""time""
""fullscreenenter"",""0"",""152774""
","
","
","""event"",""trial"",""time""
""fullscreenenter"",""0"",""152774""
","
","1218.8000000000466","run_exp/static/images/Set 6_rs/055a.jpg","86","","","","","","learn","SL",""
"","show_choice","98","309622","0.0-98.0","""event"",""trial"",""time""
""fullscreenenter"",""0"",""152774""
","
","
","""event"",""trial"",""time""
""fullscreenenter"",""0"",""152774""
","
","null","run_exp/static/images/Set 6_rs/055a.jpg","null","","","","","","learn","SL",""
"","html-keyboard-response","99","310127","0.0-99.0","""event"",""trial"",""time""
""fullscreenenter"",""0"",""152774""
","
","
","""event"",""trial"",""time""
""fullscreenenter"",""0"",""152774""
","
","null","<p></p>","null","","","","","","","",""
"","image","100","311309","0.0-100.0","""event"",""trial"",""time""
""fullscreenenter"",""0"",""152774""
","
","
","""event"",""trial"",""time""
""fullscreenenter"",""0"",""152774""
","
","1176.9000000000233","run_exp/static/images/Set 6_rs/057a.jpg","86","","","","","","learn","SL",""
"","show_choice","101","312137","0.0-101.0","""event"",""trial"",""time""
""fullscreenenter"",""0"",""152774""
","
","
","""event"",""trial"",""time""
""fullscreenenter"",""0"",""152774""
","
","null","run_exp/static/images/Set 6_rs/057a.jpg","null","","","","","","learn","SL",""
"","html-keyboard-response","102","312641","0.0-102.0","""event"",""trial"",""time""
""fullscreenenter"",""0"",""152774""
","
","
","""event"",""trial"",""time""
""fullscreenenter"",""0"",""152774""
","
","null","<p></p>","null","","","","","","","",""
"","image","103","313599","0.0-103.0","""event"",""trial"",""time""
""fullscreenenter"",""0"",""152774""
","
","
","""event"",""trial"",""time""
""fullscreenenter"",""0"",""152774""
","
","952.7999999999302","run_exp/static/images/Set 6_rs/095a.jpg","86","","","","","","learn","SL",""
"","show_choice","104","314650","0.0-104.0","""event"",""trial"",""time""
""fullscreenenter"",""0"",""152774""
","
","
","""event"",""trial"",""time""
""fullscreenenter"",""0"",""152774""
","
","null","run_exp/static/images/Set 6_rs/095a.jpg","null","","","","","","learn","SL",""
"","html-keyboard-response","105","315155","0.0-105.0","""event"",""trial"",""time""
""fullscreenenter"",""0"",""152774""
","
","
","""event"",""trial"",""time""
""fullscreenenter"",""0"",""152774""
","
","null","<p></p>","null","","","","","","","",""
"","image","106","316128","0.0-106.0","""event"",""trial"",""time""
""fullscreenenter"",""0"",""152774""
","
","
","""event"",""trial"",""time""
""fullscreenenter"",""0"",""152774""
","
","968.8000000000466","run_exp/static/images/Set 6_rs/177a.jpg","78","","","","","","learn","SR",""
"","show_choice","107","317163","0.0-107.0","""event"",""trial"",""time""
""fullscreenenter"",""0"",""152774""
","
","
","""event"",""trial"",""time""
""fullscreenenter"",""0"",""152774""
","
","null","run_exp/static/images/Set 6_rs/177a.jpg","null","","","","","","learn","SR",""
"","html-keyboard-response","108","317665","0.0-108.0","""event"",""trial"",""time""
""fullscreenenter"",""0"",""152774""
","
","
","""event"",""trial"",""time""
""fullscreenenter"",""0"",""152774""
","
","null","<p></p>","null","","","","","","","",""
"","image","109","319085","0.0-109.0","""event"",""trial"",""time""
""fullscreenenter"",""0"",""152774""
","
","
","""event"",""trial"",""time""
""fullscreenenter"",""0"",""152774""
","
","1414.5999999999767","run_exp/static/images/Set 6_rs/131a.jpg","86","","","","","","learn","SR",""
"","show_choice","110","319674","0.0-110.0","""event"",""trial"",""time""
""fullscreenenter"",""0"",""152774""
","
","
","""event"",""trial"",""time""
""fullscreenenter"",""0"",""152774""
","
","null","run_exp/static/images/Set 6_rs/131a.jpg","null","","","","","","learn","SR",""
"","html-keyboard-response","111","320177","0.0-111.0","""event"",""trial"",""time""
""fullscreenenter"",""0"",""152774""
","
","
","""event"",""trial"",""time""
""fullscreenenter"",""0"",""152774""
","
","null","<p></p>","null","","","","","","","",""
"","image","112","321195","0.0-112.0","""event"",""trial"",""time""
""fullscreenenter"",""0"",""152774""
","
","
","""event"",""trial"",""time""
""fullscreenenter"",""0"",""152774""
","
","1012.4000000000233","run_exp/static/images/Set 6_rs/007a.jpg","86","","","","","","learn","SR",""
"","show_choice","113","322186","0.0-113.0","""event"",""trial"",""time""
""fullscreenenter"",""0"",""152774""
","
","
","""event"",""trial"",""time""
""fullscreenenter"",""0"",""152774""
","
","null","run_exp/static/images/Set 6_rs/007a.jpg","null","","","","","","learn","SR",""
"","html-keyboard-response","114","322689","0.0-114.0","""event"",""trial"",""time""
""fullscreenenter"",""0"",""152774""
","
","
","""event"",""trial"",""time""
""fullscreenenter"",""0"",""152774""
","
","null","<p></p>","null","","","","","","","",""
"","image","115","323508","0.0-115.0","""event"",""trial"",""time""
""fullscreenenter"",""0"",""152774""
","
","
","""event"",""trial"",""time""
""fullscreenenter"",""0"",""152774""
","
","814.8000000000466","run_exp/static/images/Set 6_rs/108a.jpg","86","","","","","","learn","SR",""
"","show_choice","116","324696","0.0-116.0","""event"",""trial"",""time""
""fullscreenenter"",""0"",""152774""
","
","
","""event"",""trial"",""time""
""fullscreenenter"",""0"",""152774""
","
","null","run_exp/static/images/Set 6_rs/108a.jpg","null","","","","","","learn","SR",""
"","html-keyboard-response","117","325198","0.0-117.0","""event"",""trial"",""time""
""fullscreenenter"",""0"",""152774""
","
","
","""event"",""trial"",""time""
""fullscreenenter"",""0"",""152774""
","
","null","<p></p>","null","","","","","","","",""
"","image","118","326697","0.0-118.0","""event"",""trial"",""time""
""fullscreenenter"",""0"",""152774""
","
","
","""event"",""trial"",""time""
""fullscreenenter"",""0"",""152774""
","
","1492.2999999999302","run_exp/static/images/Set 6_rs/012a.jpg","86","","","","","","learn","SR",""
"","show_choice","119","327208","0.0-119.0","""event"",""trial"",""time""
""fullscreenenter"",""0"",""152774""
","
","
","""event"",""trial"",""time""
""fullscreenenter"",""0"",""152774""
","
","null","run_exp/static/images/Set 6_rs/012a.jpg","null","","","","","","learn","SR",""
"","html-keyboard-response","120","327710","0.0-120.0","""event"",""trial"",""time""
""fullscreenenter"",""0"",""152774""
","
","
","""event"",""trial"",""time""
""fullscreenenter"",""0"",""152774""
","
","null","<p></p>","null","","","","","","","",""
"","image","121","328845","0.0-121.0","""event"",""trial"",""time""
""fullscreenenter"",""0"",""152774""
","
","
","""event"",""trial"",""time""
""fullscreenenter"",""0"",""152774""
","
","1130","run_exp/static/images/Set 6_rs/091a.jpg","78","","","","","","learn","SL",""
"","show_choice","122","329720","0.0-122.0","""event"",""trial"",""time""
""fullscreenenter"",""0"",""152774""
","
","
","""event"",""trial"",""time""
""fullscreenenter"",""0"",""152774""
","
","null","run_exp/static/images/Set 6_rs/091a.jpg","null","","","","","","learn","SL",""
"","html-keyboard-response","123","330223","0.0-123.0","""event"",""trial"",""time""
""fullscreenenter"",""0"",""152774""
","
","
","""event"",""trial"",""time""
""fullscreenenter"",""0"",""152774""
","
","null","<p></p>","null","","","","","","","",""
"","image","124","331729","0.0-124.0","""event"",""trial"",""time""
""fullscreenenter"",""0"",""152774""
","
","
","""event"",""trial"",""time""
""fullscreenenter"",""0"",""152774""
","
","1499.5999999999767","run_exp/static/images/Set 6_rs/008a.jpg","86","","","","","","learn","SL",""
"","show_choice","125","332233","0.0-125.0","""event"",""trial"",""time""
""fullscreenenter"",""0"",""152774""
","
","
","""event"",""trial"",""time""
""fullscreenenter"",""0"",""152774""
","
","null","run_exp/static/images/Set 6_rs/008a.jpg","null","","","","","","learn","SL",""
"","html-keyboard-response","126","332735","0.0-126.0","""event"",""trial"",""time""
""fullscreenenter"",""0"",""152774""
","
","
","""event"",""trial"",""time""
""fullscreenenter"",""0"",""152774""
","
","null","<p></p>","null","","","","","","","",""
"","image","127","333633","0.0-127.0","""event"",""trial"",""time""
""fullscreenenter"",""0"",""152774""
","
","
","""event"",""trial"",""time""
""fullscreenenter"",""0"",""152774""
","
","894.6999999999534","run_exp/static/images/Set 6_rs/016a.jpg","86","","","","","","learn","SL",""
"","show_choice","128","334743","0.0-128.0","""event"",""trial"",""time""
""fullscreenenter"",""0"",""152774""
","
","
","""event"",""trial"",""time""
""fullscreenenter"",""0"",""152774""
","
","null","run_exp/static/images/Set 6_rs/016a.jpg","null","","","","","","learn","SL",""
"","html-keyboard-response","129","335246","0.0-129.0","""event"",""trial"",""time""
""fullscreenenter"",""0"",""152774""
","
","
","""event"",""trial"",""time""
""fullscreenenter"",""0"",""152774""
","
","null","<p></p>","null","","","","","","","",""
"","image","130","336803","0.0-130.0","""event"",""trial"",""time""
""fullscreenenter"",""0"",""152774""
","
","
","""event"",""trial"",""time""
""fullscreenenter"",""0"",""152774""
","
","1552.4000000000233","run_exp/static/images/Set 6_rs/063a.jpg","86","","","","","","learn","SR",""
"","show_choice","131","337254","0.0-131.0","""event"",""trial"",""time""
""fullscreenenter"",""0"",""152774""
","
","
","""event"",""trial"",""time""
""fullscreenenter"",""0"",""152774""
","
","null","run_exp/static/images/Set 6_rs/063a.jpg","null","","","","","","learn","SR",""
"","html-keyboard-response","132","337756","0.0-132.0","""event"",""trial"",""time""
""fullscreenenter"",""0"",""152774""
","
","
","""event"",""trial"",""time""
""fullscreenenter"",""0"",""152774""
","
","null","<p></p>","null","","","","","","","",""
"","image","133","338635","0.0-133.0","""event"",""trial"",""time""
""fullscreenenter"",""0"",""152774""
","
","
","""event"",""trial"",""time""
""fullscreenenter"",""0"",""152774""
","
","872.5","run_exp/static/images/Set 6_rs/112a.jpg","86","","","","","","learn","SR",""
"","show_choice","134","339767","0.0-134.0","""event"",""trial"",""time""
""fullscreenenter"",""0"",""152774""
","
","
","""event"",""trial"",""time""
""fullscreenenter"",""0"",""152774""
","
","null","run_exp/static/images/Set 6_rs/112a.jpg","null","","","","","","learn","SR",""
"","html-keyboard-response","135","340271","0.0-135.0","""event"",""trial"",""time""
""fullscreenenter"",""0"",""152774""
","
","
","""event"",""trial"",""time""
""fullscreenenter"",""0"",""152774""
","
","null","<p></p>","null","","","","","","","",""
"","image","136","342082","0.0-136.0","""event"",""trial"",""time""
""fullscreenenter"",""0"",""152774""
","
","
","""event"",""trial"",""time""
""fullscreenenter"",""0"",""152774""
","
","1806.1999999999534","run_exp/static/images/Set 6_rs/089a.jpg","86","","","","","","learn","SL",""
"","show_choice","137","342278","0.0-137.0","""event"",""trial"",""time""
""fullscreenenter"",""0"",""152774""
","
","
","""event"",""trial"",""time""
""fullscreenenter"",""0"",""152774""
","
","null","run_exp/static/images/Set 6_rs/089a.jpg","null","","","","","","learn","SL",""
"","html-keyboard-response","138","342781","0.0-138.0","""event"",""trial"",""time""
""fullscreenenter"",""0"",""152774""
","
","
","""event"",""trial"",""time""
""fullscreenenter"",""0"",""152774""
","
","null","<p></p>","null","","","","","","","",""
"","image","139","343527","0.0-139.0","""event"",""trial"",""time""
""fullscreenenter"",""0"",""152774""
","
","
","""event"",""trial"",""time""
""fullscreenenter"",""0"",""152774""
","
","743","run_exp/static/images/Set 6_rs/079a.jpg","86","","","","","","learn","SL",""
"","show_choice","140","344789","0.0-140.0","""event"",""trial"",""time""
""fullscreenenter"",""0"",""152774""
","
","
","""event"",""trial"",""time""
""fullscreenenter"",""0"",""152774""
","
","null","run_exp/static/images/Set 6_rs/079a.jpg","null","","","","","","learn","SL",""
"","html-keyboard-response","141","345291","0.0-141.0","""event"",""trial"",""time""
""fullscreenenter"",""0"",""152774""
","
","
","""event"",""trial"",""time""
""fullscreenenter"",""0"",""152774""
","
","null","<p></p>","null","","","","","","","",""
"","image","142","346927","0.0-142.0","""event"",""trial"",""time""
""fullscreenenter"",""0"",""152774""
","
","
","""event"",""trial"",""time""
""fullscreenenter"",""0"",""152774""
","
","1629.0999999999767","run_exp/static/images/Set 6_rs/116a.jpg","86","","","","","","learn","SL",""
"","show_choice","143","347302","0.0-143.0","""event"",""trial"",""time""
""fullscreenenter"",""0"",""152774""
","
","
","""event"",""trial"",""time""
""fullscreenenter"",""0"",""152774""
","
","null","run_exp/static/images/Set 6_rs/116a.jpg","null","","","","","","learn","SL",""
"","html-keyboard-response","144","347806","0.0-144.0","""event"",""trial"",""time""
""fullscreenenter"",""0"",""152774""
","
","
","""event"",""trial"",""time""
""fullscreenenter"",""0"",""152774""
","
","null","<p></p>","null","","","","","","","",""
"","image","145","349609","0.0-145.0","""event"",""trial"",""time""
""fullscreenenter"",""0"",""152774""
","
","
","""event"",""trial"",""time""
""fullscreenenter"",""0"",""152774""
","
","1800.8999999999069","run_exp/static/images/Set 6_rs/191a.jpg","78","","","","","","learn","SL",""
"","show_choice","146","349812","0.0-146.0","""event"",""trial"",""time""
""fullscreenenter"",""0"",""152774""
","
","
","""event"",""trial"",""time""
""fullscreenenter"",""0"",""152774""
","
","null","run_exp/static/images/Set 6_rs/191a.jpg","null","","","","","","learn","SL",""
"","html-keyboard-response","147","350315","0.0-147.0","""event"",""trial"",""time""
""fullscreenenter"",""0"",""152774""
","
","
","""event"",""trial"",""time""
""fullscreenenter"",""0"",""152774""
","
","null","<p></p>","null","","","","","","","",""
"","image","148","351106","0.0-148.0","""event"",""trial"",""time""
""fullscreenenter"",""0"",""152774""
","
","
","""event"",""trial"",""time""
""fullscreenenter"",""0"",""152774""
","
","786.8000000000466","run_exp/static/images/Set 6_rs/073a.jpg","86","","","","","","learn","SL",""
"","show_choice","149","352323","0.0-149.0","""event"",""trial"",""time""
""fullscreenenter"",""0"",""152774""
","
","
","""event"",""trial"",""time""
""fullscreenenter"",""0"",""152774""
","
","null","run_exp/static/images/Set 6_rs/073a.jpg","null","","","","","","learn","SL",""
"","html-keyboard-response","150","352828","0.0-150.0","""event"",""trial"",""time""
""fullscreenenter"",""0"",""152774""
","
","
","""event"",""trial"",""time""
""fullscreenenter"",""0"",""152774""
","
","null","<p></p>","null","","","","","","","",""
"","image","151","353777","0.0-151.0","""event"",""trial"",""time""
""fullscreenenter"",""0"",""152774""
","
","
","""event"",""trial"",""time""
""fullscreenenter"",""0"",""152774""
","
","940.3999999999069","run_exp/static/images/Set 6_rs/132a.jpg","86","","","","","","learn","SR",""
"","show_choice","152","354842","0.0-152.0","""event"",""trial"",""time""
""fullscreenenter"",""0"",""152774""
","
","
","""event"",""trial"",""time""
""fullscreenenter"",""0"",""152774""
","
","null","run_exp/static/images/Set 6_rs/132a.jpg","null","","","","","","learn","SR",""
"","html-keyboard-response","153","355348","0.0-153.0","""event"",""trial"",""time""
""fullscreenenter"",""0"",""152774""
","
","
","""event"",""trial"",""time""
""fullscreenenter"",""0"",""152774""
","
","null","<p></p>","null","","","","","","","",""
"","image","154","356848","0.0-154.0","""event"",""trial"",""time""
""fullscreenenter"",""0"",""152774""
","
","
","""event"",""trial"",""time""
""fullscreenenter"",""0"",""152774""
","
","1493.5","run_exp/static/images/Set 6_rs/074a.jpg","78","","","","","","learn","SL",""
"","show_choice","155","357359","0.0-155.0","""event"",""trial"",""time""
""fullscreenenter"",""0"",""152774""
","
","
","""event"",""trial"",""time""
""fullscreenenter"",""0"",""152774""
","
","null","run_exp/static/images/Set 6_rs/074a.jpg","null","","","","","","learn","SL",""
"","html-keyboard-response","156","357861","0.0-156.0","""event"",""trial"",""time""
""fullscreenenter"",""0"",""152774""
","
","
","""event"",""trial"",""time""
""fullscreenenter"",""0"",""152774""
","
","null","<p></p>","null","","","","","","","",""
"","image","157","359423","0.0-157.0","""event"",""trial"",""time""
""fullscreenenter"",""0"",""152774""
","
","
","""event"",""trial"",""time""
""fullscreenenter"",""0"",""152774""
","
","1557.9000000000233","run_exp/static/images/Set 6_rs/122a.jpg","78","","","","","","learn","SR",""
"","show_choice","158","359871","0.0-158.0","""event"",""trial"",""time""
""fullscreenenter"",""0"",""152774""
","
","
","""event"",""trial"",""time""
""fullscreenenter"",""0"",""152774""
","
","null","run_exp/static/images/Set 6_rs/122a.jpg","null","","","","","","learn","SR",""
"","html-keyboard-response","159","360375","0.0-159.0","""event"",""trial"",""time""
""fullscreenenter"",""0"",""152774""
","
","
","""event"",""trial"",""time""
""fullscreenenter"",""0"",""152774""
","
","null","<p></p>","null","","","","","","","",""
"","image","160","362305","0.0-160.0","""event"",""trial"",""time""
""fullscreenenter"",""0"",""152774""
","
","
","""event"",""trial"",""time""
""fullscreenenter"",""0"",""152774""
","
","1923.2999999999302","run_exp/static/images/Set 6_rs/071a.jpg","86","","","","","","learn","SL",""
"","show_choice","161","362385","0.0-161.0","""event"",""trial"",""time""
""fullscreenenter"",""0"",""152774""
","
","
","""event"",""trial"",""time""
""fullscreenenter"",""0"",""152774""
","
","null","run_exp/static/images/Set 6_rs/071a.jpg","null","","","","","","learn","SL",""
"","html-keyboard-response","162","362887","0.0-162.0","""event"",""trial"",""time""
""fullscreenenter"",""0"",""152774""
","
","
","""event"",""trial"",""time""
""fullscreenenter"",""0"",""152774""
","
","null","<p></p>","null","","","","","","","",""
"","image","163","363845","0.0-163.0","""event"",""trial"",""time""
""fullscreenenter"",""0"",""152774""
","
","
","""event"",""trial"",""time""
""fullscreenenter"",""0"",""152774""
","
","952.1999999999534","run_exp/static/images/Set 6_rs/181a.jpg","86","","","","","","learn","SL",""
"","show_choice","164","364897","0.0-164.0","""event"",""trial"",""time""
""fullscreenenter"",""0"",""152774""
","
","
","""event"",""trial"",""time""
""fullscreenenter"",""0"",""152774""
","
","null","run_exp/static/images/Set 6_rs/181a.jpg","null","","","","","","learn","SL",""
"","html-keyboard-response","165","365401","0.0-165.0","""event"",""trial"",""time""
""fullscreenenter"",""0"",""152774""
","
","
","""event"",""trial"",""time""
""fullscreenenter"",""0"",""152774""
","
","null","<p></p>","null","","","","","","","",""
"","image","166","367408","0.0-166.0","""event"",""trial"",""time""
""fullscreenenter"",""0"",""152774""
","
","
","""event"",""trial"",""time""
""fullscreenenter"",""0"",""152774""
","
","null","run_exp/static/images/Set 6_rs/036a.jpg","null","","","","","","learn","SL",""
"","show_choice","167","369413","0.0-167.0","""event"",""trial"",""time""
""fullscreenenter"",""0"",""152774""
","
","
","""event"",""trial"",""time""
""fullscreenenter"",""0"",""152774""
","
","null","run_exp/static/images/blank.png","null","","","","","","learn","SL",""
"","html-keyboard-response","168","369915","0.0-168.0","""event"",""trial"",""time""
""fullscreenenter"",""0"",""152774""
","
","
","""event"",""trial"",""time""
""fullscreenenter"",""0"",""152774""
","
","null","<p></p>","null","","","","","","","",""
"","image","169","370762","0.0-169.0","""event"",""trial"",""time""
""fullscreenenter"",""0"",""152774""
","
","
","""event"",""trial"",""time""
""fullscreenenter"",""0"",""152774""
","
","840.0999999999767","run_exp/static/images/Set 6_rs/152a.jpg","86","","","","","","learn","SR",""
"","show_choice","170","371927","0.0-170.0","""event"",""trial"",""time""
""fullscreenenter"",""0"",""152774""
","
","
","""event"",""trial"",""time""
""fullscreenenter"",""0"",""152774""
","
","null","run_exp/static/images/Set 6_rs/152a.jpg","null","","","","","","learn","SR",""
"","html-keyboard-response","171","372430","0.0-171.0","""event"",""trial"",""time""
""fullscreenenter"",""0"",""152774""
","
","
","""event"",""trial"",""time""
""fullscreenenter"",""0"",""152774""
","
","null","<p></p>","null","","","","","","","",""
"","image","172","374036","0.0-172.0","""event"",""trial"",""time""
""fullscreenenter"",""0"",""152774""
","
","
","""event"",""trial"",""time""
""fullscreenenter"",""0"",""152774""
","
","1602.2999999999302","run_exp/static/images/Set 6_rs/050a.jpg","78","","","","","","learn","SL",""
"","show_choice","173","374438","0.0-173.0","""event"",""trial"",""time""
""fullscreenenter"",""0"",""152774""
","
","
","""event"",""trial"",""time""
""fullscreenenter"",""0"",""152774""
","
","null","run_exp/static/images/Set 6_rs/050a.jpg","null","","","","","","learn","SL",""
"","html-keyboard-response","174","374941","0.0-174.0","""event"",""trial"",""time""
""fullscreenenter"",""0"",""152774""
","
","
","""event"",""trial"",""time""
""fullscreenenter"",""0"",""152774""
","
","null","<p></p>","null","","","","","","","",""
"","image","175","376781","0.0-175.0","""event"",""trial"",""time""
""fullscreenenter"",""0"",""152774""
","
","
","""event"",""trial"",""time""
""fullscreenenter"",""0"",""152774""
","
","1833.8000000000466","run_exp/static/images/Set 6_rs/121a.jpg","78","","","","","","learn","SR",""
"","show_choice","176","376950","0.0-176.0","""event"",""trial"",""time""
""fullscreenenter"",""0"",""152774""
","
","
","""event"",""trial"",""time""
""fullscreenenter"",""0"",""152774""
","
","null","run_exp/static/images/Set 6_rs/121a.jpg","null","","","","","","learn","SR",""
"","html-keyboard-response","177","377453","0.0-177.0","""event"",""trial"",""time""
""fullscreenenter"",""0"",""152774""
","
","
","""event"",""trial"",""time""
""fullscreenenter"",""0"",""152774""
","
","null","<p></p>","null","","","","","","","",""
"","image","178","379220","0.0-178.0","""event"",""trial"",""time""
""fullscreenenter"",""0"",""152774""
","
","
","""event"",""trial"",""time""
""fullscreenenter"",""0"",""152774""
","
","1761.8000000000466","run_exp/static/images/Set 6_rs/085a.jpg","86","","","","","","learn","SL",""
"","show_choice","179","379463","0.0-179.0","""event"",""trial"",""time""
""fullscreenenter"",""0"",""152774""
","
","
","""event"",""trial"",""time""
""fullscreenenter"",""0"",""152774""
","
","null","run_exp/static/images/Set 6_rs/085a.jpg","null","","","","","","learn","SL",""
"","html-keyboard-response","180","379966","0.0-180.0","""event"",""trial"",""time""
""fullscreenenter"",""0"",""152774""
","
","
","""event"",""trial"",""time""
""fullscreenenter"",""0"",""152774""
","
","null","<p></p>","null","","","","","","","",""
"","image","181","381490","0.0-181.0","""event"",""trial"",""time""
""fullscreenenter"",""0"",""152774""
","
","
","""event"",""trial"",""time""
""fullscreenenter"",""0"",""152774""
","
","1517.5","run_exp/static/images/Set 6_rs/168a.jpg","78","","","","","","learn","SL",""
"","show_choice","182","381977","0.0-182.0","""event"",""trial"",""time""
""fullscreenenter"",""0"",""152774""
","
","
","""event"",""trial"",""time""
""fullscreenenter"",""0"",""152774""
","
","null","run_exp/static/images/Set 6_rs/168a.jpg","null","","","","","","learn","SL",""
"","html-keyboard-response","183","382480","0.0-183.0","""event"",""trial"",""time""
""fullscreenenter"",""0"",""152774""
","
","
","""event"",""trial"",""time""
""fullscreenenter"",""0"",""152774""
","
","null","<p></p>","null","","","","","","","",""
"","image","184","383580","0.0-184.0","""event"",""trial"",""time""
""fullscreenenter"",""0"",""152774""
","
","
","""event"",""trial"",""time""
""fullscreenenter"",""0"",""152774""
","
","1097.5","run_exp/static/images/Set 6_rs/064a.jpg","86","","","","","","learn","SR",""
"","show_choice","185","384485","0.0-185.0","""event"",""trial"",""time""
""fullscreenenter"",""0"",""152774""
","
","
","""event"",""trial"",""time""
""fullscreenenter"",""0"",""152774""
","
","null","run_exp/static/images/Set 6_rs/064a.jpg","null","","","","","","learn","SR",""
"","html-keyboard-response","186","384989","0.0-186.0","""event"",""trial"",""time""
""fullscreenenter"",""0"",""152774""
","
","
","""event"",""trial"",""time""
""fullscreenenter"",""0"",""152774""
","
","null","<p></p>","null","","","","","","","",""
"","image","187","386729","0.0-187.0","""event"",""trial"",""time""
""fullscreenenter"",""0"",""152774""
","
","
","""event"",""trial"",""time""
""fullscreenenter"",""0"",""152774""
","
","1735.0999999999767","run_exp/static/images/Set 6_rs/045a.jpg","86","","","","","","learn","SR",""
"","show_choice","188","386998","0.0-188.0","""event"",""trial"",""time""
""fullscreenenter"",""0"",""152774""
","
","
","""event"",""trial"",""time""
""fullscreenenter"",""0"",""152774""
","
","null","run_exp/static/images/Set 6_rs/045a.jpg","null","","","","","","learn","SR",""
"","html-keyboard-response","189","387501","0.0-189.0","""event"",""trial"",""time""
""fullscreenenter"",""0"",""152774""
","
","
","""event"",""trial"",""time""
""fullscreenenter"",""0"",""152774""
","
","null","<p></p>","null","","","","","","","",""
"","image","190","389505","0.0-190.0","""event"",""trial"",""time""
""fullscreenenter"",""0"",""152774""
","
","
","""event"",""trial"",""time""
""fullscreenenter"",""0"",""152774""
","
","null","run_exp/static/images/Set 6_rs/024a.jpg","null","","","","","","learn","SR",""
"","show_choice","191","391508","0.0-191.0","""event"",""trial"",""time""
""fullscreenenter"",""0"",""152774""
","
","
","""event"",""trial"",""time""
""fullscreenenter"",""0"",""152774""
","
","null","run_exp/static/images/blank.png","null","","","","","","learn","SR",""
"","html-keyboard-response","192","392011","0.0-192.0","""event"",""trial"",""time""
""fullscreenenter"",""0"",""152774""
","
","
","""event"",""trial"",""time""
""fullscreenenter"",""0"",""152774""
","
","null","<p></p>","null","","","","","","","",""
"","image","193","392098","0.0-193.0","""event"",""trial"",""time""
""fullscreenenter"",""0"",""152774""
","
","
","""event"",""trial"",""time""
""fullscreenenter"",""0"",""152774""
","
","82.39999999990687","run_exp/static/images/Set 6_rs/111a.jpg","78","","","","","","learn","SL",""
"","show_choice","194","394018","0.0-194.0","""event"",""trial"",""time""
""fullscreenenter"",""0"",""152774""
","
","
","""event"",""trial"",""time""
""fullscreenenter"",""0"",""152774""
","
","null","run_exp/static/images/Set 6_rs/111a.jpg","null","","","","","","learn","SL",""
"","html-keyboard-response","195","394521","0.0-195.0","""event"",""trial"",""time""
""fullscreenenter"",""0"",""152774""
","
","
","""event"",""trial"",""time""
""fullscreenenter"",""0"",""152774""
","
","null","<p></p>","null","","","","","","","",""
"","test_intro","196","431462","0.0-196.0","""event"",""trial"",""time""
""fullscreenenter"",""0"",""152774""
","
","
","""event"",""trial"",""time""
""fullscreenenter"",""0"",""152774""
","
","null","run_exp/static/audio/clip_2_memory.m4a","null","","","","","<div class='center'><p>Now, lets see how much you remember about the items you just saw.  For each item, you need to indicate if it was <b>old</b> by pressing the <b>v</b> key, <b>similar</b> by pressing the <b>b</b> key, or <b>new</b> by pressing the <b>n</b> key.</p><p>Old refers to an item that you saw before in the indoor/outdoor game that you just played, new refers to an item you have <b>not</b> seen before within the indoor/outdoor game, and similar refers to an item that is similar to an item youve seen before but is not exactly the same. </p><p>Before we begin, lets go over some brief demonstrations to make sure you understand.</p></div>","","",""
"","html-keyboard-response","197","432714","0.0-197.0","""event"",""trial"",""time""
""fullscreenenter"",""0"",""152774""
","
","
","""event"",""trial"",""time""
""fullscreenenter"",""0"",""152774""
","
","1245.3000000000466","<div class='center'><p>Now, lets see how much you remember about the items you just saw.  For each item, you need to indicate if it was <b>old</b> by pressing the <b>v</b> key, <b>similar</b> by pressing the <b>b</b> key, or <b>new</b> by pressing the <b>n</b> key.</p><p>Old refers to an item that you saw before in the indoor/outdoor game that you just played, new refers to an item you have <b>not</b> seen before within the indoor/outdoor game, and similar refers to an item that is similar to an item youve seen before but is not exactly the same. </p><p>Before we begin, lets go over some brief demonstrations to make sure you understand.</p><div><p><b>[Press the space bar to continue]</b></p></div>","32","","","","","","","",""
"","items","198","440221","0.0-198.0","""event"",""trial"",""time""
""fullscreenenter"",""0"",""152774""
","
","
","""event"",""trial"",""time""
""fullscreenenter"",""0"",""152774""
","
","null","run_exp/static/audio/clip_3_items.m4a","null","","","","","","","",""
"","mop","199","444727","0.0-199.0","""event"",""trial"",""time""
""fullscreenenter"",""0"",""152774""
","
","
","""event"",""trial"",""time""
""fullscreenenter"",""0"",""152774""
","
","null","run_exp/static/audio/clip_4_mop.m4a","null","","","","","","","",""
"","baseball","200","448234","0.0-200.0","""event"",""trial"",""time""
""fullscreenenter"",""0"",""152774""
","
","
","""event"",""trial"",""time""
""fullscreenenter"",""0"",""152774""
","
","null","run_exp/static/audio/clip_5_baseball.m4a","null","","","","","","","",""
"","trumpet","201","451754","0.0-201.0","""event"",""trial"",""time""
""fullscreenenter"",""0"",""152774""
","
","
","""event"",""trial"",""time""
""fullscreenenter"",""0"",""152774""
","
","null","run_exp/static/audio/clip_6_trumpet.m4a","null","","","","","","","",""
"","gummies","202","455262","0.0-202.0","""event"",""trial"",""time""
""fullscreenenter"",""0"",""152774""
","
","
","""event"",""trial"",""time""
""fullscreenenter"",""0"",""152774""
","
","null","run_exp/static/audio/clip_7_gummies.m4a","null","","","","","","","",""
"","osn","203","459770","0.0-203.0","""event"",""trial"",""time""
""fullscreenenter"",""0"",""152774""
","
","
","""event"",""trial"",""time""
""fullscreenenter"",""0"",""152774""
","
","null","run_exp/static/audio/clip_8_osn.m4a","null","","","","","","","",""
"","old_1","204","466275","0.0-204.0","""event"",""trial"",""time""
""fullscreenenter"",""0"",""152774""
","
","
","""event"",""trial"",""time""
""fullscreenenter"",""0"",""152774""
","
","null","run_exp/static/audio/clip_9_old_trumpet.m4a","null","","","","","","","",""
"","new_1","205","473791","0.0-205.0","""event"",""trial"",""time""
""fullscreenenter"",""0"",""152774""
","
","
","""event"",""trial"",""time""
""fullscreenenter"",""0"",""152774""
","
","null","run_exp/static/audio/clip_10_new_balloon.m4a","null","","","","","","","",""
"","similar_1a","206","478299","0.0-206.0","""event"",""trial"",""time""
""fullscreenenter"",""0"",""152774""
","
","
","""event"",""trial"",""time""
""fullscreenenter"",""0"",""152774""
","
","null","run_exp/static/audio/clip_11a_similar_mop.m4a","null","","","","","","","",""
"","similar_1b","207","484810","0.0-207.0","""event"",""trial"",""time""
""fullscreenenter"",""0"",""152774""
","
","
","""event"",""trial"",""time""
""fullscreenenter"",""0"",""152774""
","
","null","run_exp/static/audio/clip_11b_similar_mop.m4a","null","","","","","","","",""
"","new_2","208","488324","0.0-208.0","""event"",""trial"",""time""
""fullscreenenter"",""0"",""152774""
","
","
","""event"",""trial"",""time""
""fullscreenenter"",""0"",""152774""
","
","null","run_exp/static/audio/clip_12_new_stoplight.m4a","null","","","","","","","",""
"","old_2","209","491834","0.0-209.0","""event"",""trial"",""time""
""fullscreenenter"",""0"",""152774""
","
","
","""event"",""trial"",""time""
""fullscreenenter"",""0"",""152774""
","
","null","run_exp/static/audio/clip_13_old_baseball.m4a","null","","","","","","","",""
"","similar_2a","210","495339","0.0-210.0","""event"",""trial"",""time""
""fullscreenenter"",""0"",""152774""
","
","
","""event"",""trial"",""time""
""fullscreenenter"",""0"",""152774""
","
","null","run_exp/static/audio/clip_14a_similar_gummies.m4a","null","","","","","","","",""
"","similar_2b","211","502852","0.0-211.0","""event"",""trial"",""time""
""fullscreenenter"",""0"",""152774""
","
","
","""event"",""trial"",""time""
""fullscreenenter"",""0"",""152774""
","
","null","run_exp/static/audio/clip_14b_similar_gummies.m4a","null","","","","","","","",""
"","practice","212","545154","0.0-212.0","""event"",""trial"",""time""
""fullscreenenter"",""0"",""152774""
","
","
","""event"",""trial"",""time""
""fullscreenenter"",""0"",""152774""
","
","null","run_exp/static/audio/clip_15_practice.m4a","null","","","","","<div class='center'><p>Lets practice a little to make sure you understand the difference between new, similar, and old. Lets say you saw these three items in the indoor/outdoor game.</p><p> Try your best to remember these images because youll soon be tested on them in a practice game. In the practice game, youll be shown images and youll have to say if they are old (one of the three images belows), similar (similar to one of the images below but not exactly the same), or new (are not one of the images below nor similar to them).</p><p>Once you press the space bar youll be shown these images again but one at time. Then youll begin the practice game.</p><p><img src='run_exp/static/images/tutorial/test/three_indoor_outdoor.png' height='300'></p></div>","","",""
"","html-keyboard-response","213","545732","0.0-213.0","""event"",""trial"",""time""
""fullscreenenter"",""0"",""152774""
","
","
","""event"",""trial"",""time""
""fullscreenenter"",""0"",""152774""
","
","570.3000000000466","<div class='center'><p>Lets practice a little to make sure you understand the difference between new, similar, and old. Lets say you saw these three items in the indoor/outdoor game.</p><p> Try your best to remember these images because youll soon be tested on them in a practice game. In the practice game, youll be shown images and youll have to say if they are old (one of the three images belows), similar (similar to one of the images below but not exactly the same), or new (are not one of the images below nor similar to them).</p><p>Once you press the space bar youll be shown these images again but one at time. Then youll begin the practice game.</p><p><img src='run_exp/static/images/tutorial/test/three_indoor_outdoor.png' height='300'></p><div><p><b>[Press the space bar to continue]</b></p></div>","32","","","","","","","",""
"","planet","214","547735","0.0-214.0","""event"",""trial"",""time""
""fullscreenenter"",""0"",""152774""
","
","
","""event"",""trial"",""time""
""fullscreenenter"",""0"",""152774""
","
","null","run_exp/static/images/tutorial/test/008a.jpg","null","","","","","","","",""
"","boot","215","549738","0.0-215.0","""event"",""trial"",""time""
""fullscreenenter"",""0"",""152774""
","
","
","""event"",""trial"",""time""
""fullscreenenter"",""0"",""152774""
","
","null","run_exp/static/images/tutorial/test/011a.jpg","null","","","","","","","",""
"","lemon","216","551741","0.0-216.0","""event"",""trial"",""time""
""fullscreenenter"",""0"",""152774""
","
","
","""event"",""trial"",""time""
""fullscreenenter"",""0"",""152774""
","
","null","run_exp/static/images/tutorial/test/018a.jpg","null","","","","","","","",""
"","practice_q1","217","559329","0.0-217.0","""event"",""trial"",""time""
""fullscreenenter"",""0"",""152774""
","
","
","""event"",""trial"",""time""
""fullscreenenter"",""0"",""152774""
","
","7583.300000000047","run_exp/static/audio/clip_16_practice_question.m4a","86","","","","","","","",""
"","incorrect_q1","218","562384","0.0-218.0-0.0","""event"",""trial"",""time""
""fullscreenenter"",""0"",""152774""
","
","
","""event"",""trial"",""time""
""fullscreenenter"",""0"",""152774""
","
","null","run_exp/static/audio/clip_18_incorrect_new.m4a","null","","","","","<div class='center'><p>Thats incorrect. Its new.</p></div>","","",""
"","html-keyboard-response","219","563671","0.0-218.0-1.0","""event"",""trial"",""time""
""fullscreenenter"",""0"",""152774""
","
","
","""event"",""trial"",""time""
""fullscreenenter"",""0"",""152774""
","
","1282.1999999999534","<div class='center'><p>Thats incorrect. Its new.</p><div><p><b>[Press the space bar to continue]</b></p></div>","32","","","","","","","",""
"","practice_q2","220","567015","0.0-218.0-2.0","""event"",""trial"",""time""
""fullscreenenter"",""0"",""152774""
","
","
","""event"",""trial"",""time""
""fullscreenenter"",""0"",""152774""
","
","3340.0999999999767","run_exp/static/audio/clip_16_practice_question.m4a","86","","","","","","","",""
"","correct","221","569121","0.0-219.0-0.0","""event"",""trial"",""time""
""fullscreenenter"",""0"",""152774""
","
","
","""event"",""trial"",""time""
""fullscreenenter"",""0"",""152774""
","
","null","run_exp/static/audio/clip_17_correct.m4a","null","","","","","<div class='center'><p>That's correct!</p></div>","","",""
"","html-keyboard-response","222","570170","0.0-219.0-1.0","""event"",""trial"",""time""
""fullscreenenter"",""0"",""152774""
","
","
","""event"",""trial"",""time""
""fullscreenenter"",""0"",""152774""
","
","1044.5","<div class='center'><p>That's correct!</p><div><p><b>[Press the space bar to continue]</b></p></div>","32","","","","","","","",""
"","practice_q3","223","573669","0.0-219.0-2.0","""event"",""trial"",""time""
""fullscreenenter"",""0"",""152774""
","
","
","""event"",""trial"",""time""
""fullscreenenter"",""0"",""152774""
","
","3490.1999999999534","run_exp/static/audio/clip_16_practice_question.m4a","86","","","","","","","",""
"","incorrect_q3","224","576545","0.0-220.0-0.0","""event"",""trial"",""time""
""fullscreenenter"",""0"",""152774""
","
","
","""event"",""trial"",""time""
""fullscreenenter"",""0"",""152774""
","
","null","run_exp/static/audio/clip_20_incorrect_similar.m4a","null","","","","","<div class='center'><p>Thats incorrect. Its similar.</p><p><img src='run_exp/static/images/tutorial/test/boot_comparison.png' height='300'></p></div>","","",""
"","html-keyboard-response","225","577340","0.0-220.0-1.0","""event"",""trial"",""time""
""fullscreenenter"",""0"",""152774""
","
","
","""event"",""trial"",""time""
""fullscreenenter"",""0"",""152774""
","
","787.7999999999302","<div class='center'><p>Thats incorrect. Its similar.</p><p><img src='run_exp/static/images/tutorial/test/boot_comparison.png' height='300'></p><div><p><b>[Press the space bar to continue]</b></p></div>","32","","","","","","","",""
"","repeat","226","582257","0.0-221.0-0.0","""event"",""trial"",""time""
""fullscreenenter"",""0"",""152774""
","
","
","""event"",""trial"",""time""
""fullscreenenter"",""0"",""152774""
","
","null","run_exp/static/audio/clip_21_practice_again.m4a","null","","","","","<div class='center'><p>Oops. you missed at least one of these questions. Let's try practicing again. </p></div>","","",""
"","html-keyboard-response","227","582867","0.0-221.0-1.0","""event"",""trial"",""time""
""fullscreenenter"",""0"",""152774""
","
","
","""event"",""trial"",""time""
""fullscreenenter"",""0"",""152774""
","
","604.5","<div class='center'><p>Oops. you missed at least one of these questions. Let's try practicing again. </p><div><p><b>[Press the space bar to continue]</b></p></div>","32","","","","","","","",""
"","practice_q1","228","586279","0.0-221.0-2.0","""event"",""trial"",""time""
""fullscreenenter"",""0"",""152774""
","
","
","""event"",""trial"",""time""
""fullscreenenter"",""0"",""152774""
","
","3404.5999999999767","run_exp/static/audio/clip_16_practice_question.m4a","86","","","","","","","",""
"","incorrect_q1","229","589338","0.0-222.0-0.0","""event"",""trial"",""time""
""fullscreenenter"",""0"",""152774""
","
","
","""event"",""trial"",""time""
""fullscreenenter"",""0"",""152774""
","
","null","run_exp/static/audio/clip_18_incorrect_new.m4a","null","","","","","<div class='center'><p>Thats incorrect. Its new.</p></div>","","",""
"","html-keyboard-response","230","589992","0.0-222.0-1.0","""event"",""trial"",""time""
""fullscreenenter"",""0"",""152774""
","
","
","""event"",""trial"",""time""
""fullscreenenter"",""0"",""152774""
","
","649.5999999999767","<div class='center'><p>Thats incorrect. Its new.</p><div><p><b>[Press the space bar to continue]</b></p></div>","32","","","","","","","",""
"","practice_q2","231","591265","0.0-222.0-2.0","""event"",""trial"",""time""
""fullscreenenter"",""0"",""152774""
","
","
","""event"",""trial"",""time""
""fullscreenenter"",""0"",""152774""
","
","1265.7000000000698","run_exp/static/audio/clip_16_practice_question.m4a","86","","","","","","","",""
"","correct","232","593346","0.0-223.0-0.0","""event"",""trial"",""time""
""fullscreenenter"",""0"",""152774""
","
","
","""event"",""trial"",""time""
""fullscreenenter"",""0"",""152774""
","
","null","run_exp/static/audio/clip_17_correct.m4a","null","","","","","<div class='center'><p>That's correct!</p></div>","","",""
"","html-keyboard-response","233","593988","0.0-223.0-1.0","""event"",""trial"",""time""
""fullscreenenter"",""0"",""152774""
","
","
","""event"",""trial"",""time""
""fullscreenenter"",""0"",""152774""
","
","635.2000000000698","<div class='center'><p>That's correct!</p><div><p><b>[Press the space bar to continue]</b></p></div>","32","","","","","","","",""
"","practice_q3","234","594785","0.0-223.0-2.0","""event"",""trial"",""time""
""fullscreenenter"",""0"",""152774""
","
","
","""event"",""trial"",""time""
""fullscreenenter"",""0"",""152774""
","
","788.1000000000931","run_exp/static/audio/clip_16_practice_question.m4a","66","","","","","","","",""
"","correct","235","596926","0.0-224.0-0.0","""event"",""trial"",""time""
""fullscreenenter"",""0"",""152774""
","
","
","""event"",""trial"",""time""
""fullscreenenter"",""0"",""152774""
","
","null","run_exp/static/audio/clip_17_correct.m4a","null","","","","","<div class='center'><p>That's correct!</p></div>","","",""
"","html-keyboard-response","236","597605","0.0-224.0-1.0","""event"",""trial"",""time""
""fullscreenenter"",""0"",""152774""
","
","
","""event"",""trial"",""time""
""fullscreenenter"",""0"",""152774""
","
","673.9000000000233","<div class='center'><p>That's correct!</p><div><p><b>[Press the space bar to continue]</b></p></div>","32","","","","","","","",""
"","repeat","237","602556","0.0-225.0-0.0","""event"",""trial"",""time""
""fullscreenenter"",""0"",""152774""
","
","
","""event"",""trial"",""time""
""fullscreenenter"",""0"",""152774""
","
","null","run_exp/static/audio/clip_21_practice_again.m4a","null","","","","","<div class='center'><p>Oops. you missed at least one of these questions. Let's try practicing again. </p></div>","","",""
"","html-keyboard-response","238","603504","0.0-225.0-1.0","""event"",""trial"",""time""
""fullscreenenter"",""0"",""152774""
","
","
","""event"",""trial"",""time""
""fullscreenenter"",""0"",""152774""
","
","936.1999999999534","<div class='center'><p>Oops. you missed at least one of these questions. Let's try practicing again. </p><div><p><b>[Press the space bar to continue]</b></p></div>","32","","","","","","","",""
"","practice_q1","239","606659","0.0-225.0-2.0","""event"",""trial"",""time""
""fullscreenenter"",""0"",""152774""
","
","
","""event"",""trial"",""time""
""fullscreenenter"",""0"",""152774""
","
","3149.8000000000466","run_exp/static/audio/clip_16_practice_question.m4a","78","","","","","","","",""
"","correct","240","608782","0.0-226.0-0.0","""event"",""trial"",""time""
""fullscreenenter"",""0"",""152774""
","
","
","""event"",""trial"",""time""
""fullscreenenter"",""0"",""152774""
","
","null","run_exp/static/audio/clip_17_correct.m4a","null","","","","","<div class='center'><p>That's correct!</p></div>","","",""
"","html-keyboard-response","241","609528","0.0-226.0-1.0","""event"",""trial"",""time""
""fullscreenenter"",""0"",""152774""
","
","
","""event"",""trial"",""time""
""fullscreenenter"",""0"",""152774""
","
","739.5999999999767","<div class='center'><p>That's correct!</p><div><p><b>[Press the space bar to continue]</b></p></div>","32","","","","","","","",""
"","practice_q2","242","610000","0.0-226.0-2.0","""event"",""trial"",""time""
""fullscreenenter"",""0"",""152774""
","
","
","""event"",""trial"",""time""
""fullscreenenter"",""0"",""152774""
","
","463","run_exp/static/audio/clip_16_practice_question.m4a","86","","","","","","","",""
"","correct","243","612107","0.0-227.0-0.0","""event"",""trial"",""time""
""fullscreenenter"",""0"",""152774""
","
","
","""event"",""trial"",""time""
""fullscreenenter"",""0"",""152774""
","
","null","run_exp/static/audio/clip_17_correct.m4a","null","","","","","<div class='center'><p>That's correct!</p></div>","","",""
"","html-keyboard-response","244","612422","0.0-227.0-1.0","""event"",""trial"",""time""
""fullscreenenter"",""0"",""152774""
","
","
","""event"",""trial"",""time""
""fullscreenenter"",""0"",""152774""
","
","310","<div class='center'><p>That's correct!</p><div><p><b>[Press the space bar to continue]</b></p></div>","32","","","","","","","",""
"","practice_q3","245","612886","0.0-227.0-2.0","""event"",""trial"",""time""
""fullscreenenter"",""0"",""152774""
","
","
","""event"",""trial"",""time""
""fullscreenenter"",""0"",""152774""
","
","458.0999999999767","run_exp/static/audio/clip_16_practice_question.m4a","66","","","","","","","",""
"","correct","246","615520","0.0-228.0-0.0","""event"",""trial"",""time""
""fullscreenenter"",""0"",""152774""
","
","
","""event"",""trial"",""time""
""fullscreenenter"",""0"",""152774""
","
","null","run_exp/static/audio/clip_17_correct.m4a","null","","","","","<div class='center'><p>That's correct!</p></div>","","",""
"","html-keyboard-response","247","616152","0.0-228.0-1.0","""event"",""trial"",""time""
""fullscreenenter"",""0"",""152774""
","
","
","""event"",""trial"",""time""
""fullscreenenter"",""0"",""152774""
","
","627.9000000000233","<div class='center'><p>That's correct!</p><div><p><b>[Press the space bar to continue]</b></p></div>","32","","","","","","","",""
"","begin_text","248","634796","0.0-229.0-0.0","""event"",""trial"",""time""
""fullscreenenter"",""0"",""152774""
","
","
","""event"",""trial"",""time""
""fullscreenenter"",""0"",""152774""
","
","null","run_exp/static/audio/clip_22_begin_test.m4a","null","","","","","<div class='center'><p>On to the real game where well test your memory of items from the indoor/outdoor game. For each item, you need to indicate if the item is <b>old</b> by pressing the <b>v</b> key, <b>similar</b> by pressing the <b>b</b> key, or <b>new</b> by pressing the <b>n</b> key. </p></div>","","",""
"","html-keyboard-response","249","641436","0.0-229.0-1.0","""event"",""trial"",""time""
""fullscreenenter"",""0"",""152774""
","
","
","""event"",""trial"",""time""
""fullscreenenter"",""0"",""152774""
","
","6635.5","<div class='center'><p>On to the real game where well test your memory of items from the indoor/outdoor game. For each item, you need to indicate if the item is <b>old</b> by pressing the <b>v</b> key, <b>similar</b> by pressing the <b>b</b> key, or <b>new</b> by pressing the <b>n</b> key. </p><div><p><b>[Press the space bar to continue]</b></p></div>","32","","","","","","","",""
"","image","250","644441","0.0-230.0-0.0","""event"",""trial"",""time""
""fullscreenenter"",""0"",""152774""
","
","
","""event"",""trial"",""time""
""fullscreenenter"",""0"",""152774""
","
","null","run_exp/static/images/Set 6_rs/097a.jpg","null","","","","","","test","TF","5"
"","show_choice","251","644947","0.0-230.0-1.0","""event"",""trial"",""time""
""fullscreenenter"",""0"",""152774""
","
","
","""event"",""trial"",""time""
""fullscreenenter"",""0"",""152774""
","
","null","run_exp/static/images/Set 6_rs/097a.jpg","null","","","","","","test","TF",""
"","html-keyboard-response","252","645450","0.0-230.0-2.0","""event"",""trial"",""time""
""fullscreenenter"",""0"",""152774""
","
","
","""event"",""trial"",""time""
""fullscreenenter"",""0"",""152774""
","
","null","<p></p>","null","","","","","","","",""
"","image","253","646991","0.0-231.0-0.0","""event"",""trial"",""time""
""fullscreenenter"",""0"",""152774""
","
","
","""event"",""trial"",""time""
""fullscreenenter"",""0"",""152774""
","
","1536","run_exp/static/images/Set 6_rs/024a.jpg","86","","","","","","test","TR","5"
"","show_choice","254","647495","0.0-231.0-1.0","""event"",""trial"",""time""
""fullscreenenter"",""0"",""152774""
","
","
","""event"",""trial"",""time""
""fullscreenenter"",""0"",""152774""
","
","null","run_exp/static/images/Set 6_rs/024a.jpg","null","","","","","","test","TR",""
"","html-keyboard-response","255","647998","0.0-231.0-2.0","""event"",""trial"",""time""
""fullscreenenter"",""0"",""152774""
","
","
","""event"",""trial"",""time""
""fullscreenenter"",""0"",""152774""
","
","null","<p></p>","null","","","","","","","",""
"","image","256","649074","0.0-232.0-0.0","""event"",""trial"",""time""
""fullscreenenter"",""0"",""152774""
","
","
","""event"",""trial"",""time""
""fullscreenenter"",""0"",""152774""
","
","1069.9000000000233","run_exp/static/images/Set 6_rs/121a.jpg","86","","","","","","test","TR","4"
"","show_choice","257","649580","0.0-232.0-1.0","""event"",""trial"",""time""
""fullscreenenter"",""0"",""152774""
","
","
","""event"",""trial"",""time""
""fullscreenenter"",""0"",""152774""
","
","null","run_exp/static/images/Set 6_rs/121a.jpg","null","","","","","","test","TR",""
"","html-keyboard-response","258","650084","0.0-232.0-2.0","""event"",""trial"",""time""
""fullscreenenter"",""0"",""152774""
","
","
","""event"",""trial"",""time""
""fullscreenenter"",""0"",""152774""
","
","null","<p></p>","null","","","","","","","",""
"","image","259","651508","0.0-233.0-0.0","""event"",""trial"",""time""
""fullscreenenter"",""0"",""152774""
","
","
","""event"",""trial"",""time""
""fullscreenenter"",""0"",""152774""
","
","1420.4000000000233","run_exp/static/images/Set 6_rs/028a.jpg","66","","","","","","test","TF","1"
"","show_choice","260","652013","0.0-233.0-1.0","""event"",""trial"",""time""
""fullscreenenter"",""0"",""152774""
","
","
","""event"",""trial"",""time""
""fullscreenenter"",""0"",""152774""
","
","null","run_exp/static/images/Set 6_rs/028a.jpg","null","","","","","","test","TF",""
"","html-keyboard-response","261","652517","0.0-233.0-2.0","""event"",""trial"",""time""
""fullscreenenter"",""0"",""152774""
","
","
","""event"",""trial"",""time""
""fullscreenenter"",""0"",""152774""
","
","null","<p></p>","null","","","","","","","",""
"","image","262","654173","0.0-234.0-0.0","""event"",""trial"",""time""
""fullscreenenter"",""0"",""152774""
","
","
","""event"",""trial"",""time""
""fullscreenenter"",""0"",""152774""
","
","1650.8999999999069","run_exp/static/images/Set 6_rs/022a.jpg","66","","","","","","test","TF","4"
"","show_choice","263","654680","0.0-234.0-1.0","""event"",""trial"",""time""
""fullscreenenter"",""0"",""152774""
","
","
","""event"",""trial"",""time""
""fullscreenenter"",""0"",""152774""
","
","null","run_exp/static/images/Set 6_rs/022a.jpg","null","","","","","","test","TF",""
"","html-keyboard-response","264","655184","0.0-234.0-2.0","""event"",""trial"",""time""
""fullscreenenter"",""0"",""152774""
","
","
","""event"",""trial"",""time""
""fullscreenenter"",""0"",""152774""
","
","null","<p></p>","null","","","","","","","",""
"","image","265","656772","0.0-235.0-0.0","""event"",""trial"",""time""
""fullscreenenter"",""0"",""152774""
","
","
","""event"",""trial"",""time""
""fullscreenenter"",""0"",""152774""
","
","1584.1999999999534","run_exp/static/images/Set 6_rs/133a.jpg","78","","","","","","test","TF","4"
"","show_choice","266","657278","0.0-235.0-1.0","""event"",""trial"",""time""
""fullscreenenter"",""0"",""152774""
","
","
","""event"",""trial"",""time""
""fullscreenenter"",""0"",""152774""
","
","null","run_exp/static/images/Set 6_rs/133a.jpg","null","","","","","","test","TF",""
"","html-keyboard-response","267","657782","0.0-235.0-2.0","""event"",""trial"",""time""
""fullscreenenter"",""0"",""152774""
","
","
","""event"",""trial"",""time""
""fullscreenenter"",""0"",""152774""
","
","null","<p></p>","null","","","","","","","",""
"","image","268","658692","0.0-236.0-0.0","""event"",""trial"",""time""
""fullscreenenter"",""0"",""152774""
","
","
","""event"",""trial"",""time""
""fullscreenenter"",""0"",""152774""
","
","904.4000000000233","run_exp/static/images/Set 6_rs/188a.jpg","78","","","","","","test","TF","3"
"","show_choice","269","659201","0.0-236.0-1.0","""event"",""trial"",""time""
""fullscreenenter"",""0"",""152774""
","
","
","""event"",""trial"",""time""
""fullscreenenter"",""0"",""152774""
","
","null","run_exp/static/images/Set 6_rs/188a.jpg","null","","","","","","test","TF",""
"","html-keyboard-response","270","659707","0.0-236.0-2.0","""event"",""trial"",""time""
""fullscreenenter"",""0"",""152774""
","
","
","""event"",""trial"",""time""
""fullscreenenter"",""0"",""152774""
","
","null","<p></p>","null","","","","","","","",""
"","image","271","661348","0.0-237.0-0.0","""event"",""trial"",""time""
""fullscreenenter"",""0"",""152774""
","
","
","""event"",""trial"",""time""
""fullscreenenter"",""0"",""152774""
","
","1631.8999999999069","run_exp/static/images/Set 6_rs/011a.jpg","66","","","","","","test","TF","3"
"","show_choice","272","661853","0.0-237.0-1.0","""event"",""trial"",""time""
""fullscreenenter"",""0"",""152774""
","
","
","""event"",""trial"",""time""
""fullscreenenter"",""0"",""152774""
","
","null","run_exp/static/images/Set 6_rs/011a.jpg","null","","","","","","test","TF",""
"","html-keyboard-response","273","662358","0.0-237.0-2.0","""event"",""trial"",""time""
""fullscreenenter"",""0"",""152774""
","
","
","""event"",""trial"",""time""
""fullscreenenter"",""0"",""152774""
","
","null","<p></p>","null","","","","","","","",""
"","image","274","663602","0.0-238.0-0.0","""event"",""trial"",""time""
""fullscreenenter"",""0"",""152774""
","
","
","""event"",""trial"",""time""
""fullscreenenter"",""0"",""152774""
","
","1239.2000000000698","run_exp/static/images/Set 6_rs/152a.jpg","86","","","","","","test","TR","2"
"","show_choice","275","664107","0.0-238.0-1.0","""event"",""trial"",""time""
""fullscreenenter"",""0"",""152774""
","
","
","""event"",""trial"",""time""
""fullscreenenter"",""0"",""152774""
","
","null","run_exp/static/images/Set 6_rs/152a.jpg","null","","","","","","test","TR",""
"","html-keyboard-response","276","664610","0.0-238.0-2.0","""event"",""trial"",""time""
""fullscreenenter"",""0"",""152774""
","
","
","""event"",""trial"",""time""
""fullscreenenter"",""0"",""152774""
","
","null","<p></p>","null","","","","","","","",""
"","image","277","666104","0.0-239.0-0.0","""event"",""trial"",""time""
""fullscreenenter"",""0"",""152774""
","
","
","""event"",""trial"",""time""
""fullscreenenter"",""0"",""152774""
","
","1489.6999999999534","run_exp/static/images/Set 6_rs/140a.jpg","66","","","","","","test","TF","1"
"","show_choice","278","666609","0.0-239.0-1.0","""event"",""trial"",""time""
""fullscreenenter"",""0"",""152774""
","
","
","""event"",""trial"",""time""
""fullscreenenter"",""0"",""152774""
","
","null","run_exp/static/images/Set 6_rs/140a.jpg","null","","","","","","test","TF",""
"","html-keyboard-response","279","667112","0.0-239.0-2.0","""event"",""trial"",""time""
""fullscreenenter"",""0"",""152774""
","
","
","""event"",""trial"",""time""
""fullscreenenter"",""0"",""152774""
","
","null","<p></p>","null","","","","","","","",""
"","image","280","668451","0.0-240.0-0.0","""event"",""trial"",""time""
""fullscreenenter"",""0"",""152774""
","
","
","""event"",""trial"",""time""
""fullscreenenter"",""0"",""152774""
","
","1334.9000000000233","run_exp/static/images/Set 6_rs/015a.jpg","78","","","","","","test","TF","4"
"","show_choice","281","668959","0.0-240.0-1.0","""event"",""trial"",""time""
""fullscreenenter"",""0"",""152774""
","
","
","""event"",""trial"",""time""
""fullscreenenter"",""0"",""152774""
","
","null","run_exp/static/images/Set 6_rs/015a.jpg","null","","","","","","test","TF",""
"","html-keyboard-response","282","669462","0.0-240.0-2.0","""event"",""trial"",""time""
""fullscreenenter"",""0"",""152774""
","
","
","""event"",""trial"",""time""
""fullscreenenter"",""0"",""152774""
","
","null","<p></p>","null","","","","","","","",""
"","image","283","670571","0.0-241.0-0.0","""event"",""trial"",""time""
""fullscreenenter"",""0"",""152774""
","
","
","""event"",""trial"",""time""
""fullscreenenter"",""0"",""152774""
","
","1101.6999999999534","run_exp/static/images/Set 6_rs/052a.jpg","78","","","","","","test","TF","1"
"","show_choice","284","671077","0.0-241.0-1.0","""event"",""trial"",""time""
""fullscreenenter"",""0"",""152774""
","
","
","""event"",""trial"",""time""
""fullscreenenter"",""0"",""152774""
","
","null","run_exp/static/images/Set 6_rs/052a.jpg","null","","","","","","test","TF",""
"","html-keyboard-response","285","671581","0.0-241.0-2.0","""event"",""trial"",""time""
""fullscreenenter"",""0"",""152774""
","
","
","""event"",""trial"",""time""
""fullscreenenter"",""0"",""152774""
","
","null","<p></p>","null","","","","","","","",""
"","image","286","672733","0.0-242.0-0.0","""event"",""trial"",""time""
""fullscreenenter"",""0"",""152774""
","
","
","""event"",""trial"",""time""
""fullscreenenter"",""0"",""152774""
","
","1147","run_exp/static/images/Set 6_rs/057b.jpg","86","","","","","","test","TL","1"
"","show_choice","287","673242","0.0-242.0-1.0","""event"",""trial"",""time""
""fullscreenenter"",""0"",""152774""
","
","
","""event"",""trial"",""time""
""fullscreenenter"",""0"",""152774""
","
","null","run_exp/static/images/Set 6_rs/057b.jpg","null","","","","","","test","TL",""
"","html-keyboard-response","288","673747","0.0-242.0-2.0","""event"",""trial"",""time""
""fullscreenenter"",""0"",""152774""
","
","
","""event"",""trial"",""time""
""fullscreenenter"",""0"",""152774""
","
","null","<p></p>","null","","","","","","","",""
"","image","289","674943","0.0-243.0-0.0","""event"",""trial"",""time""
""fullscreenenter"",""0"",""152774""
","
","
","""event"",""trial"",""time""
""fullscreenenter"",""0"",""152774""
","
","1191.8000000000466","run_exp/static/images/Set 6_rs/149a.jpg","78","","","","","","test","TF","1"
"","show_choice","290","675449","0.0-243.0-1.0","""event"",""trial"",""time""
""fullscreenenter"",""0"",""152774""
","
","
","""event"",""trial"",""time""
""fullscreenenter"",""0"",""152774""
","
","null","run_exp/static/images/Set 6_rs/149a.jpg","null","","","","","","test","TF",""
"","html-keyboard-response","291","675954","0.0-243.0-2.0","""event"",""trial"",""time""
""fullscreenenter"",""0"",""152774""
","
","
","""event"",""trial"",""time""
""fullscreenenter"",""0"",""152774""
","
","null","<p></p>","null","","","","","","","",""
"","image","292","677137","0.0-244.0-0.0","""event"",""trial"",""time""
""fullscreenenter"",""0"",""152774""
","
","
","""event"",""trial"",""time""
""fullscreenenter"",""0"",""152774""
","
","1179.5999999999767","run_exp/static/images/Set 6_rs/144b.jpg","86","","","","","","test","TL","4"
"","show_choice","293","677643","0.0-244.0-1.0","""event"",""trial"",""time""
""fullscreenenter"",""0"",""152774""
","
","
","""event"",""trial"",""time""
""fullscreenenter"",""0"",""152774""
","
","null","run_exp/static/images/Set 6_rs/144b.jpg","null","","","","","","test","TL",""
"","html-keyboard-response","294","678146","0.0-244.0-2.0","""event"",""trial"",""time""
""fullscreenenter"",""0"",""152774""
","
","
","""event"",""trial"",""time""
""fullscreenenter"",""0"",""152774""
","
","null","<p></p>","null","","","","","","","",""
"","image","295","679281","0.0-245.0-0.0","""event"",""trial"",""time""
""fullscreenenter"",""0"",""152774""
","
","
","""event"",""trial"",""time""
""fullscreenenter"",""0"",""152774""
","
","1129.8000000000466","run_exp/static/images/Set 6_rs/169a.jpg","86","","","","","","test","TR","4"
"","show_choice","296","679787","0.0-245.0-1.0","""event"",""trial"",""time""
""fullscreenenter"",""0"",""152774""
","
","
","""event"",""trial"",""time""
""fullscreenenter"",""0"",""152774""
","
","null","run_exp/static/images/Set 6_rs/169a.jpg","null","","","","","","test","TR",""
"","html-keyboard-response","297","680291","0.0-245.0-2.0","""event"",""trial"",""time""
""fullscreenenter"",""0"",""152774""
","
","
","""event"",""trial"",""time""
""fullscreenenter"",""0"",""152774""
","
","null","<p></p>","null","","","","","","","",""
"","image","298","681130","0.0-246.0-0.0","""event"",""trial"",""time""
""fullscreenenter"",""0"",""152774""
","
","
","""event"",""trial"",""time""
""fullscreenenter"",""0"",""152774""
","
","830.7999999999302","run_exp/static/images/Set 6_rs/187a.jpg","86","","","","","","test","TR","3"
"","show_choice","299","681635","0.0-246.0-1.0","""event"",""trial"",""time""
""fullscreenenter"",""0"",""152774""
","
","
","""event"",""trial"",""time""
""fullscreenenter"",""0"",""152774""
","
","null","run_exp/static/images/Set 6_rs/187a.jpg","null","","","","","","test","TR",""
"","html-keyboard-response","300","682139","0.0-246.0-2.0","""event"",""trial"",""time""
""fullscreenenter"",""0"",""152774""
","
","
","""event"",""trial"",""time""
""fullscreenenter"",""0"",""152774""
","
","null","<p></p>","null","","","","","","","",""
"","image","301","682903","0.0-247.0-0.0","""event"",""trial"",""time""
""fullscreenenter"",""0"",""152774""
","
","
","""event"",""trial"",""time""
""fullscreenenter"",""0"",""152774""
","
","757.5","run_exp/static/images/Set 6_rs/088a.jpg","86","","","","","","test","TR","2"
"","show_choice","302","683409","0.0-247.0-1.0","""event"",""trial"",""time""
""fullscreenenter"",""0"",""152774""
","
","
","""event"",""trial"",""time""
""fullscreenenter"",""0"",""152774""
","
","null","run_exp/static/images/Set 6_rs/088a.jpg","null","","","","","","test","TR",""
"","html-keyboard-response","303","683913","0.0-247.0-2.0","""event"",""trial"",""time""
""fullscreenenter"",""0"",""152774""
","
","
","""event"",""trial"",""time""
""fullscreenenter"",""0"",""152774""
","
","null","<p></p>","null","","","","","","","",""
"","image","304","684609","0.0-248.0-0.0","""event"",""trial"",""time""
""fullscreenenter"",""0"",""152774""
","
","
","""event"",""trial"",""time""
""fullscreenenter"",""0"",""152774""
","
","689.5999999999767","run_exp/static/images/Set 6_rs/167b.jpg","86","","","","","","test","TL","2"
"","show_choice","305","685114","0.0-248.0-1.0","""event"",""trial"",""time""
""fullscreenenter"",""0"",""152774""
","
","
","""event"",""trial"",""time""
""fullscreenenter"",""0"",""152774""
","
","null","run_exp/static/images/Set 6_rs/167b.jpg","null","","","","","","test","TL",""
"","html-keyboard-response","306","685618","0.0-248.0-2.0","""event"",""trial"",""time""
""fullscreenenter"",""0"",""152774""
","
","
","""event"",""trial"",""time""
""fullscreenenter"",""0"",""152774""
","
","null","<p></p>","null","","","","","","","",""
"","image","307","686956","0.0-249.0-0.0","""event"",""trial"",""time""
""fullscreenenter"",""0"",""152774""
","
","
","""event"",""trial"",""time""
""fullscreenenter"",""0"",""152774""
","
","1329.1000000000931","run_exp/static/images/Set 6_rs/171a.jpg","66","","","","","","test","TF","1"
"","show_choice","308","687462","0.0-249.0-1.0","""event"",""trial"",""time""
""fullscreenenter"",""0"",""152774""
","
","
","""event"",""trial"",""time""
""fullscreenenter"",""0"",""152774""
","
","null","run_exp/static/images/Set 6_rs/171a.jpg","null","","","","","","test","TF",""
"","html-keyboard-response","309","687966","0.0-249.0-2.0","""event"",""trial"",""time""
""fullscreenenter"",""0"",""152774""
","
","
","""event"",""trial"",""time""
""fullscreenenter"",""0"",""152774""
","
","null","<p></p>","null","","","","","","","",""
"","image","310","689016","0.0-250.0-0.0","""event"",""trial"",""time""
""fullscreenenter"",""0"",""152774""
","
","
","""event"",""trial"",""time""
""fullscreenenter"",""0"",""152774""
","
","1041.6000000000931","run_exp/static/images/Set 6_rs/071b.jpg","78","","","","","","test","TL","4"
"","show_choice","311","689523","0.0-250.0-1.0","""event"",""trial"",""time""
""fullscreenenter"",""0"",""152774""
","
","
","""event"",""trial"",""time""
""fullscreenenter"",""0"",""152774""
","
","null","run_exp/static/images/Set 6_rs/071b.jpg","null","","","","","","test","TL",""
"","html-keyboard-response","312","690026","0.0-250.0-2.0","""event"",""trial"",""time""
""fullscreenenter"",""0"",""152774""
","
","
","""event"",""trial"",""time""
""fullscreenenter"",""0"",""152774""
","
","null","<p></p>","null","","","","","","","",""
"","image","313","691168","0.0-251.0-0.0","""event"",""trial"",""time""
""fullscreenenter"",""0"",""152774""
","
","
","""event"",""trial"",""time""
""fullscreenenter"",""0"",""152774""
","
","1137.2999999999302","run_exp/static/images/Set 6_rs/076a.jpg","86","","","","","","test","TR","4"
"","show_choice","314","691675","0.0-251.0-1.0","""event"",""trial"",""time""
""fullscreenenter"",""0"",""152774""
","
","
","""event"",""trial"",""time""
""fullscreenenter"",""0"",""152774""
","
","null","run_exp/static/images/Set 6_rs/076a.jpg","null","","","","","","test","TR",""
"","html-keyboard-response","315","692178","0.0-251.0-2.0","""event"",""trial"",""time""
""fullscreenenter"",""0"",""152774""
","
","
","""event"",""trial"",""time""
""fullscreenenter"",""0"",""152774""
","
","null","<p></p>","null","","","","","","","",""
"","image","316","693417","0.0-252.0-0.0","""event"",""trial"",""time""
""fullscreenenter"",""0"",""152774""
","
","
","""event"",""trial"",""time""
""fullscreenenter"",""0"",""152774""
","
","1232.6999999999534","run_exp/static/images/Set 6_rs/090a.jpg","66","","","","","","test","TF","5"
"","show_choice","317","693925","0.0-252.0-1.0","""event"",""trial"",""time""
""fullscreenenter"",""0"",""152774""
","
","
","""event"",""trial"",""time""
""fullscreenenter"",""0"",""152774""
","
","null","run_exp/static/images/Set 6_rs/090a.jpg","null","","","","","","test","TF",""
"","html-keyboard-response","318","694430","0.0-252.0-2.0","""event"",""trial"",""time""
""fullscreenenter"",""0"",""152774""
","
","
","""event"",""trial"",""time""
""fullscreenenter"",""0"",""152774""
","
","null","<p></p>","null","","","","","","","",""
"","image","319","695598","0.0-253.0-0.0","""event"",""trial"",""time""
""fullscreenenter"",""0"",""152774""
","
","
","""event"",""trial"",""time""
""fullscreenenter"",""0"",""152774""
","
","1163.2000000000698","run_exp/static/images/Set 6_rs/074b.jpg","86","","","","","","test","TL","4"
"","show_choice","320","696103","0.0-253.0-1.0","""event"",""trial"",""time""
""fullscreenenter"",""0"",""152774""
","
","
","""event"",""trial"",""time""
""fullscreenenter"",""0"",""152774""
","
","null","run_exp/static/images/Set 6_rs/074b.jpg","null","","","","","","test","TL",""
"","html-keyboard-response","321","696606","0.0-253.0-2.0","""event"",""trial"",""time""
""fullscreenenter"",""0"",""152774""
","
","
","""event"",""trial"",""time""
""fullscreenenter"",""0"",""152774""
","
","null","<p></p>","null","","","","","","","",""
"","image","322","697754","0.0-254.0-0.0","""event"",""trial"",""time""
""fullscreenenter"",""0"",""152774""
","
","
","""event"",""trial"",""time""
""fullscreenenter"",""0"",""152774""
","
","1143.2000000000698","run_exp/static/images/Set 6_rs/123b.jpg","86","","","","","","test","TL","2"
"","show_choice","323","698262","0.0-254.0-1.0","""event"",""trial"",""time""
""fullscreenenter"",""0"",""152774""
","
","
","""event"",""trial"",""time""
""fullscreenenter"",""0"",""152774""
","
","null","run_exp/static/images/Set 6_rs/123b.jpg","null","","","","","","test","TL",""
"","html-keyboard-response","324","698765","0.0-254.0-2.0","""event"",""trial"",""time""
""fullscreenenter"",""0"",""152774""
","
","
","""event"",""trial"",""time""
""fullscreenenter"",""0"",""152774""
","
","null","<p></p>","null","","","","","","","",""
"","image","325","699680","0.0-255.0-0.0","""event"",""trial"",""time""
""fullscreenenter"",""0"",""152774""
","
","
","""event"",""trial"",""time""
""fullscreenenter"",""0"",""152774""
","
","910.7000000000698","run_exp/static/images/Set 6_rs/172a.jpg","86","","","","","","test","TR","1"
"","show_choice","326","700185","0.0-255.0-1.0","""event"",""trial"",""time""
""fullscreenenter"",""0"",""152774""
","
","
","""event"",""trial"",""time""
""fullscreenenter"",""0"",""152774""
","
","null","run_exp/static/images/Set 6_rs/172a.jpg","null","","","","","","test","TR",""
"","html-keyboard-response","327","700691","0.0-255.0-2.0","""event"",""trial"",""time""
""fullscreenenter"",""0"",""152774""
","
","
","""event"",""trial"",""time""
""fullscreenenter"",""0"",""152774""
","
","null","<p></p>","null","","","","","","","",""
"","image","328","701755","0.0-256.0-0.0","""event"",""trial"",""time""
""fullscreenenter"",""0"",""152774""
","
","
","""event"",""trial"",""time""
""fullscreenenter"",""0"",""152774""
","
","1057.7999999999302","run_exp/static/images/Set 6_rs/065a.jpg","66","","","","","","test","TF","3"
"","show_choice","329","702263","0.0-256.0-1.0","""event"",""trial"",""time""
""fullscreenenter"",""0"",""152774""
","
","
","""event"",""trial"",""time""
""fullscreenenter"",""0"",""152774""
","
","null","run_exp/static/images/Set 6_rs/065a.jpg","null","","","","","","test","TF",""
