"success","trial_type","trial_index","time_elapsed","internal_node_id","interactions","blur_events","focus_events","fullscreenenter_events","fullscreenexit_events","rt","stimulus","key_press","subject_id","participant_id","age","gender","prompt","phase","condition","lure_bin"
"true","fullscreen","0","7305","0.0-0.0","""event"",""trial"",""time""
""fullscreenenter"",""0"",""6310""
","
","
","""event"",""trial"",""time""
""fullscreenenter"",""0"",""6310""
","
","","","","","","","","","","",""
"","pavlovia","1","7311","0.0-1.0","""event"",""trial"",""time""
""fullscreenenter"",""0"",""6310""
","
","
","""event"",""trial"",""time""
""fullscreenenter"",""0"",""6310""
","
","","","","","","","","","","",""
"","welcome","2","42068","0.0-2.0","""event"",""trial"",""time""
""fullscreenenter"",""0"",""6310""
","
","
","""event"",""trial"",""time""
""fullscreenenter"",""0"",""6310""
","
","null","run_exp/static/audio/clip_1_welcome.m4a","null","1040","1184","12","Male","<div class='center'><p>Welcome to the third part of the study! First, you'll be shown pictures of items one at a time. For each picture, you have to decide if the item is typically found indoors or outdoors.</p><p>If you think it's usually found indoors, then press <b>v</b> key on your keyboard. If you think it's usually found outdoors, then press the <b>n</b> key.There will be reminders on the screen to help you remember which keys to press. </p><p>If you're not sure whether the item is an indoor item or an outdoor item, go ahead and take a guess but try your best not to skip that choice. </p></div>","","",""
"","html-keyboard-response","3","231720","0.0-3.0","""event"",""trial"",""time""
""fullscreenenter"",""0"",""6310""
","
","
","""event"",""trial"",""time""
""fullscreenenter"",""0"",""6310""
","
","189650.29999999702","<div class='center'><p>Welcome to the third part of the study! First, you'll be shown pictures of items one at a time. For each picture, you have to decide if the item is typically found indoors or outdoors.</p><p>If you think it's usually found indoors, then press <b>v</b> key on your keyboard. If you think it's usually found outdoors, then press the <b>n</b> key.There will be reminders on the screen to help you remember which keys to press. </p><p>If you're not sure whether the item is an indoor item or an outdoor item, go ahead and take a guess but try your best not to skip that choice. </p><div><p><b>[Press the space bar to continue]</b></p></div>","32","","","","","","","",""
"","image","4","233723","0.0-4.0","""event"",""trial"",""time""
""fullscreenenter"",""0"",""6310""
","
","
","""event"",""trial"",""time""
""fullscreenenter"",""0"",""6310""
","
","null","run_exp/static/images/Set 6_rs/095a.jpg","null","","","","","","learn","SL",""
"","show_choice","5","235726","0.0-5.0","""event"",""trial"",""time""
""fullscreenenter"",""0"",""6310""
","
","
","""event"",""trial"",""time""
""fullscreenenter"",""0"",""6310""
","
","null","run_exp/static/images/blank.png","null","","","","","","learn","SL",""
"","html-keyboard-response","6","236229","0.0-6.0","""event"",""trial"",""time""
""fullscreenenter"",""0"",""6310""
","
","
","""event"",""trial"",""time""
""fullscreenenter"",""0"",""6310""
","
","null","<p></p>","null","","","","","","","",""
"","image","7","238231","0.0-7.0","""event"",""trial"",""time""
""fullscreenenter"",""0"",""6310""
","
","
","""event"",""trial"",""time""
""fullscreenenter"",""0"",""6310""
","
","null","run_exp/static/images/Set 6_rs/016a.jpg","null","","","","","","learn","SL",""
"","show_choice","8","240234","0.0-8.0","""event"",""trial"",""time""
""fullscreenenter"",""0"",""6310""
","
","
","""event"",""trial"",""time""
""fullscreenenter"",""0"",""6310""
","
","null","run_exp/static/images/blank.png","null","","","","","","learn","SL",""
"","html-keyboard-response","9","240736","0.0-9.0","""event"",""trial"",""time""
""fullscreenenter"",""0"",""6310""
","
","
","""event"",""trial"",""time""
""fullscreenenter"",""0"",""6310""
","
","null","<p></p>","null","","","","","","","",""
"","image","10","241998","0.0-10.0","""event"",""trial"",""time""
""fullscreenenter"",""0"",""6310""
","
","
","""event"",""trial"",""time""
""fullscreenenter"",""0"",""6310""
","
","1259.5","run_exp/static/images/Set 6_rs/112a.jpg","86","","","","","","learn","SR",""
"","show_choice","11","242740","0.0-11.0","""event"",""trial"",""time""
""fullscreenenter"",""0"",""6310""
","
","
","""event"",""trial"",""time""
""fullscreenenter"",""0"",""6310""
","
","null","run_exp/static/images/Set 6_rs/112a.jpg","null","","","","","","learn","SR",""
"","html-keyboard-response","12","243242","0.0-12.0","""event"",""trial"",""time""
""fullscreenenter"",""0"",""6310""
","
","
","""event"",""trial"",""time""
""fullscreenenter"",""0"",""6310""
","
","null","<p></p>","null","","","","","","","",""
"","image","13","245248","0.0-13.0","""event"",""trial"",""time""
""fullscreenenter"",""0"",""6310""
","
","
","""event"",""trial"",""time""
""fullscreenenter"",""0"",""6310""
","
","null","run_exp/static/images/Set 6_rs/062a.jpg","null","","","","","","learn","SL",""
"","show_choice","14","247250","0.0-14.0","""event"",""trial"",""time""
""fullscreenenter"",""0"",""6310""
","
","
","""event"",""trial"",""time""
""fullscreenenter"",""0"",""6310""
","
","null","run_exp/static/images/blank.png","null","","","","","","learn","SL",""
"","html-keyboard-response","15","247752","0.0-15.0","""event"",""trial"",""time""
""fullscreenenter"",""0"",""6310""
","
","
","""event"",""trial"",""time""
""fullscreenenter"",""0"",""6310""
","
","null","<p></p>","null","","","","","","","",""
"","image","16","248735","0.0-16.0","""event"",""trial"",""time""
""fullscreenenter"",""0"",""6310""
","
","
","""event"",""trial"",""time""
""fullscreenenter"",""0"",""6310""
","
","981.3999999985099","run_exp/static/images/Set 6_rs/079a.jpg","86","","","","","","learn","SL",""
"","show_choice","17","249755","0.0-17.0","""event"",""trial"",""time""
""fullscreenenter"",""0"",""6310""
","
","
","""event"",""trial"",""time""
""fullscreenenter"",""0"",""6310""
","
","null","run_exp/static/images/Set 6_rs/079a.jpg","null","","","","","","learn","SL",""
"","html-keyboard-response","18","250257","0.0-18.0","""event"",""trial"",""time""
""fullscreenenter"",""0"",""6310""
","
","
","""event"",""trial"",""time""
""fullscreenenter"",""0"",""6310""
","
","null","<p></p>","null","","","","","","","",""
"","image","19","251864","0.0-19.0","""event"",""trial"",""time""
""fullscreenenter"",""0"",""6310""
","
","
","""event"",""trial"",""time""
""fullscreenenter"",""0"",""6310""
","
","1605","run_exp/static/images/Set 6_rs/074a.jpg","86","","","","","","learn","SL",""
"","show_choice","20","252261","0.0-20.0","""event"",""trial"",""time""
""fullscreenenter"",""0"",""6310""
","
","
","""event"",""trial"",""time""
""fullscreenenter"",""0"",""6310""
","
","null","run_exp/static/images/Set 6_rs/074a.jpg","null","","","","","","learn","SL",""
"","html-keyboard-response","21","252763","0.0-21.0","""event"",""trial"",""time""
""fullscreenenter"",""0"",""6310""
","
","
","""event"",""trial"",""time""
""fullscreenenter"",""0"",""6310""
","
","null","<p></p>","null","","","","","","","",""
"","image","22","254387","0.0-22.0","""event"",""trial"",""time""
""fullscreenenter"",""0"",""6310""
","
","
","""event"",""trial"",""time""
""fullscreenenter"",""0"",""6310""
","
","1622.0999999977648","run_exp/static/images/Set 6_rs/088a.jpg","86","","","","","","learn","SR",""
"","show_choice","23","254766","0.0-23.0","""event"",""trial"",""time""
""fullscreenenter"",""0"",""6310""
","
","
","""event"",""trial"",""time""
""fullscreenenter"",""0"",""6310""
","
","null","run_exp/static/images/Set 6_rs/088a.jpg","null","","","","","","learn","SR",""
"","html-keyboard-response","24","255267","0.0-24.0","""event"",""trial"",""time""
""fullscreenenter"",""0"",""6310""
","
","
","""event"",""trial"",""time""
""fullscreenenter"",""0"",""6310""
","
","null","<p></p>","null","","","","","","","",""
"","image","25","256377","0.0-25.0","""event"",""trial"",""time""
""fullscreenenter"",""0"",""6310""
","
","
","""event"",""trial"",""time""
""fullscreenenter"",""0"",""6310""
","
","1108.0999999977648","run_exp/static/images/Set 6_rs/152a.jpg","86","","","","","","learn","SR",""
"","show_choice","26","257271","0.0-26.0","""event"",""trial"",""time""
""fullscreenenter"",""0"",""6310""
","
","
","""event"",""trial"",""time""
""fullscreenenter"",""0"",""6310""
","
","null","run_exp/static/images/Set 6_rs/152a.jpg","null","","","","","","learn","SR",""
"","html-keyboard-response","27","257773","0.0-27.0","""event"",""trial"",""time""
""fullscreenenter"",""0"",""6310""
","
","
","""event"",""trial"",""time""
""fullscreenenter"",""0"",""6310""
","
","null","<p></p>","null","","","","","","","",""
"","image","28","259328","0.0-28.0","""event"",""trial"",""time""
""fullscreenenter"",""0"",""6310""
","
","
","""event"",""trial"",""time""
""fullscreenenter"",""0"",""6310""
","
","1553.1000000014901","run_exp/static/images/Set 6_rs/177a.jpg","78","","","","","","learn","SR",""
"","show_choice","29","259776","0.0-29.0","""event"",""trial"",""time""
""fullscreenenter"",""0"",""6310""
","
","
","""event"",""trial"",""time""
""fullscreenenter"",""0"",""6310""
","
","null","run_exp/static/images/Set 6_rs/177a.jpg","null","","","","","","learn","SR",""
"","html-keyboard-response","30","260278","0.0-30.0","""event"",""trial"",""time""
""fullscreenenter"",""0"",""6310""
","
","
","""event"",""trial"",""time""
""fullscreenenter"",""0"",""6310""
","
","null","<p></p>","null","","","","","","","",""
"","image","31","261331","0.0-31.0","""event"",""trial"",""time""
""fullscreenenter"",""0"",""6310""
","
","
","""event"",""trial"",""time""
""fullscreenenter"",""0"",""6310""
","
","1051.0999999977648","run_exp/static/images/Set 6_rs/089a.jpg","86","","","","","","learn","SL",""
"","show_choice","32","262282","0.0-32.0","""event"",""trial"",""time""
""fullscreenenter"",""0"",""6310""
","
","
","""event"",""trial"",""time""
""fullscreenenter"",""0"",""6310""
","
","null","run_exp/static/images/Set 6_rs/089a.jpg","null","","","","","","learn","SL",""
"","html-keyboard-response","33","262783","0.0-33.0","""event"",""trial"",""time""
""fullscreenenter"",""0"",""6310""
","
","
","""event"",""trial"",""time""
""fullscreenenter"",""0"",""6310""
","
","null","<p></p>","null","","","","","","","",""
"","image","34","263776","0.0-34.0","""event"",""trial"",""time""
""fullscreenenter"",""0"",""6310""
","
","
","""event"",""trial"",""time""
""fullscreenenter"",""0"",""6310""
","
","989.8999999985099","run_exp/static/images/Set 6_rs/168a.jpg","86","","","","","","learn","SL",""
"","show_choice","35","264789","0.0-35.0","""event"",""trial"",""time""
""fullscreenenter"",""0"",""6310""
","
","
","""event"",""trial"",""time""
""fullscreenenter"",""0"",""6310""
","
","null","run_exp/static/images/Set 6_rs/168a.jpg","null","","","","","","learn","SL",""
"","html-keyboard-response","36","265290","0.0-36.0","""event"",""trial"",""time""
""fullscreenenter"",""0"",""6310""
","
","
","""event"",""trial"",""time""
""fullscreenenter"",""0"",""6310""
","
","null","<p></p>","null","","","","","","","",""
"","image","37","266755","0.0-37.0","""event"",""trial"",""time""
""fullscreenenter"",""0"",""6310""
","
","
","""event"",""trial"",""time""
""fullscreenenter"",""0"",""6310""
","
","1461.9000000022352","run_exp/static/images/Set 6_rs/166a.jpg","86","","","","","","learn","SR",""
"","show_choice","38","267294","0.0-38.0","""event"",""trial"",""time""
""fullscreenenter"",""0"",""6310""
","
","
","""event"",""trial"",""time""
""fullscreenenter"",""0"",""6310""
","
","null","run_exp/static/images/Set 6_rs/166a.jpg","null","","","","","","learn","SR",""
"","html-keyboard-response","39","267796","0.0-39.0","""event"",""trial"",""time""
""fullscreenenter"",""0"",""6310""
","
","
","""event"",""trial"",""time""
""fullscreenenter"",""0"",""6310""
","
","null","<p></p>","null","","","","","","","",""
"","image","40","268666","0.0-40.0","""event"",""trial"",""time""
""fullscreenenter"",""0"",""6310""
","
","
","""event"",""trial"",""time""
""fullscreenenter"",""0"",""6310""
","
","868","run_exp/static/images/Set 6_rs/131a.jpg","86","","","","","","learn","SR",""
"","show_choice","41","269800","0.0-41.0","""event"",""trial"",""time""
""fullscreenenter"",""0"",""6310""
","
","
","""event"",""trial"",""time""
""fullscreenenter"",""0"",""6310""
","
","null","run_exp/static/images/Set 6_rs/131a.jpg","null","","","","","","learn","SR",""
"","html-keyboard-response","42","270301","0.0-42.0","""event"",""trial"",""time""
""fullscreenenter"",""0"",""6310""
","
","
","""event"",""trial"",""time""
""fullscreenenter"",""0"",""6310""
","
","null","<p></p>","null","","","","","","","",""
"","image","43","271199","0.0-43.0","""event"",""trial"",""time""
""fullscreenenter"",""0"",""6310""
","
","
","""event"",""trial"",""time""
""fullscreenenter"",""0"",""6310""
","
","895.8000000007451","run_exp/static/images/Set 6_rs/181a.jpg","78","","","","","","learn","SL",""
"","show_choice","44","272305","0.0-44.0","""event"",""trial"",""time""
""fullscreenenter"",""0"",""6310""
","
","
","""event"",""trial"",""time""
""fullscreenenter"",""0"",""6310""
","
","null","run_exp/static/images/Set 6_rs/181a.jpg","null","","","","","","learn","SL",""
"","html-keyboard-response","45","272806","0.0-45.0","""event"",""trial"",""time""
""fullscreenenter"",""0"",""6310""
","
","
","""event"",""trial"",""time""
""fullscreenenter"",""0"",""6310""
","
","null","<p></p>","null","","","","","","","",""
"","image","46","273982","0.0-46.0","""event"",""trial"",""time""
""fullscreenenter"",""0"",""6310""
","
","
","""event"",""trial"",""time""
""fullscreenenter"",""0"",""6310""
","
","1174","run_exp/static/images/Set 6_rs/172a.jpg","78","","","","","","learn","SR",""
"","show_choice","47","274811","0.0-47.0","""event"",""trial"",""time""
""fullscreenenter"",""0"",""6310""
","
","
","""event"",""trial"",""time""
""fullscreenenter"",""0"",""6310""
","
","null","run_exp/static/images/Set 6_rs/172a.jpg","null","","","","","","learn","SR",""
"","html-keyboard-response","48","275312","0.0-48.0","""event"",""trial"",""time""
""fullscreenenter"",""0"",""6310""
","
","
","""event"",""trial"",""time""
""fullscreenenter"",""0"",""6310""
","
","null","<p></p>","null","","","","","","","",""
"","image","49","276358","0.0-49.0","""event"",""trial"",""time""
""fullscreenenter"",""0"",""6310""
","
","
","""event"",""trial"",""time""
""fullscreenenter"",""0"",""6310""
","
","1042.8999999985099","run_exp/static/images/Set 6_rs/057a.jpg","86","","","","","","learn","SL",""
"","show_choice","50","277317","0.0-50.0","""event"",""trial"",""time""
""fullscreenenter"",""0"",""6310""
","
","
","""event"",""trial"",""time""
""fullscreenenter"",""0"",""6310""
","
","null","run_exp/static/images/Set 6_rs/057a.jpg","null","","","","","","learn","SL",""
"","html-keyboard-response","51","277818","0.0-51.0","""event"",""trial"",""time""
""fullscreenenter"",""0"",""6310""
","
","
","""event"",""trial"",""time""
""fullscreenenter"",""0"",""6310""
","
","null","<p></p>","null","","","","","","","",""
"","image","52","278806","0.0-52.0","""event"",""trial"",""time""
""fullscreenenter"",""0"",""6310""
","
","
","""event"",""trial"",""time""
""fullscreenenter"",""0"",""6310""
","
","986.0999999977648","run_exp/static/images/Set 6_rs/023a.jpg","86","","","","","","learn","SR",""
"","show_choice","53","279821","0.0-53.0","""event"",""trial"",""time""
""fullscreenenter"",""0"",""6310""
","
","
","""event"",""trial"",""time""
""fullscreenenter"",""0"",""6310""
","
","null","run_exp/static/images/Set 6_rs/023a.jpg","null","","","","","","learn","SR",""
"","html-keyboard-response","54","280323","0.0-54.0","""event"",""trial"",""time""
""fullscreenenter"",""0"",""6310""
","
","
","""event"",""trial"",""time""
""fullscreenenter"",""0"",""6310""
","
","null","<p></p>","null","","","","","","","",""
"","image","55","281456","0.0-55.0","""event"",""trial"",""time""
""fullscreenenter"",""0"",""6310""
","
","
","""event"",""trial"",""time""
""fullscreenenter"",""0"",""6310""
","
","1131.4000000022352","run_exp/static/images/Set 6_rs/091a.jpg","86","","","","","","learn","SL",""
"","show_choice","56","282327","0.0-56.0","""event"",""trial"",""time""
""fullscreenenter"",""0"",""6310""
","
","
","""event"",""trial"",""time""
""fullscreenenter"",""0"",""6310""
","
","null","run_exp/static/images/Set 6_rs/091a.jpg","null","","","","","","learn","SL",""
"","html-keyboard-response","57","282828","0.0-57.0","""event"",""trial"",""time""
""fullscreenenter"",""0"",""6310""
","
","
","""event"",""trial"",""time""
""fullscreenenter"",""0"",""6310""
","
","null","<p></p>","null","","","","","","","",""
"","image","58","283895","0.0-58.0","""event"",""trial"",""time""
""fullscreenenter"",""0"",""6310""
","
","
","""event"",""trial"",""time""
""fullscreenenter"",""0"",""6310""
","
","1065.0999999977648","run_exp/static/images/Set 6_rs/024a.jpg","86","","","","","","learn","SR",""
"","show_choice","59","284831","0.0-59.0","""event"",""trial"",""time""
""fullscreenenter"",""0"",""6310""
","
","
","""event"",""trial"",""time""
""fullscreenenter"",""0"",""6310""
","
","null","run_exp/static/images/Set 6_rs/024a.jpg","null","","","","","","learn","SR",""
"","html-keyboard-response","60","285332","0.0-60.0","""event"",""trial"",""time""
""fullscreenenter"",""0"",""6310""
","
","
","""event"",""trial"",""time""
""fullscreenenter"",""0"",""6310""
","
","null","<p></p>","null","","","","","","","",""
"","image","61","285624","0.0-61.0","""event"",""trial"",""time""
""fullscreenenter"",""0"",""6310""
","
","
","""event"",""trial"",""time""
""fullscreenenter"",""0"",""6310""
","
","289.8999999985099","run_exp/static/images/Set 6_rs/075a.jpg","86","","","","","","learn","SR",""
"","show_choice","62","287336","0.0-62.0","""event"",""trial"",""time""
""fullscreenenter"",""0"",""6310""
","
","
","""event"",""trial"",""time""
""fullscreenenter"",""0"",""6310""
","
","null","run_exp/static/images/Set 6_rs/075a.jpg","null","","","","","","learn","SR",""
"","html-keyboard-response","63","287839","0.0-63.0","""event"",""trial"",""time""
""fullscreenenter"",""0"",""6310""
","
","
","""event"",""trial"",""time""
""fullscreenenter"",""0"",""6310""
","
","null","<p></p>","null","","","","","","","",""
"","image","64","289010","0.0-64.0","""event"",""trial"",""time""
""fullscreenenter"",""0"",""6310""
","
","
","""event"",""trial"",""time""
""fullscreenenter"",""0"",""6310""
","
","1168.300000000745","run_exp/static/images/Set 6_rs/141a.jpg","86","","","","","","learn","SR",""
"","show_choice","65","289842","0.0-65.0","""event"",""trial"",""time""
""fullscreenenter"",""0"",""6310""
","
","
","""event"",""trial"",""time""
""fullscreenenter"",""0"",""6310""
","
","null","run_exp/static/images/Set 6_rs/141a.jpg","null","","","","","","learn","SR",""
"","html-keyboard-response","66","290344","0.0-66.0","""event"",""trial"",""time""
""fullscreenenter"",""0"",""6310""
","
","
","""event"",""trial"",""time""
""fullscreenenter"",""0"",""6310""
","
","null","<p></p>","null","","","","","","","",""
"","image","67","291183","0.0-67.0","""event"",""trial"",""time""
""fullscreenenter"",""0"",""6310""
","
","
","""event"",""trial"",""time""
""fullscreenenter"",""0"",""6310""
","
","836.6999999992549","run_exp/static/images/Set 6_rs/045a.jpg","86","","","","","","learn","SR",""
"","show_choice","68","292348","0.0-68.0","""event"",""trial"",""time""
""fullscreenenter"",""0"",""6310""
","
","
","""event"",""trial"",""time""
""fullscreenenter"",""0"",""6310""
","
","null","run_exp/static/images/Set 6_rs/045a.jpg","null","","","","","","learn","SR",""
"","html-keyboard-response","69","292849","0.0-69.0","""event"",""trial"",""time""
""fullscreenenter"",""0"",""6310""
","
","
","""event"",""trial"",""time""
""fullscreenenter"",""0"",""6310""
","
","null","<p></p>","null","","","","","","","",""
"","image","70","293710","0.0-70.0","""event"",""trial"",""time""
""fullscreenenter"",""0"",""6310""
","
","
","""event"",""trial"",""time""
""fullscreenenter"",""0"",""6310""
","
","858","run_exp/static/images/Set 6_rs/132a.jpg","86","","","","","","learn","SR",""
"","show_choice","71","294854","0.0-71.0","""event"",""trial"",""time""
""fullscreenenter"",""0"",""6310""
","
","
","""event"",""trial"",""time""
""fullscreenenter"",""0"",""6310""
","
","null","run_exp/static/images/Set 6_rs/132a.jpg","null","","","","","","learn","SR",""
"","html-keyboard-response","72","295355","0.0-72.0","""event"",""trial"",""time""
""fullscreenenter"",""0"",""6310""
","
","
","""event"",""trial"",""time""
""fullscreenenter"",""0"",""6310""
","
","null","<p></p>","null","","","","","","","",""
"","image","73","296666","0.0-73.0","""event"",""trial"",""time""
""fullscreenenter"",""0"",""6310""
","
","
","""event"",""trial"",""time""
""fullscreenenter"",""0"",""6310""
","
","1308.800000000745","run_exp/static/images/Set 6_rs/154a.jpg","86","","","","","","learn","SR",""
"","show_choice","74","297360","0.0-74.0","""event"",""trial"",""time""
""fullscreenenter"",""0"",""6310""
","
","
","""event"",""trial"",""time""
""fullscreenenter"",""0"",""6310""
","
","null","run_exp/static/images/Set 6_rs/154a.jpg","null","","","","","","learn","SR",""
"","html-keyboard-response","75","297861","0.0-75.0","""event"",""trial"",""time""
""fullscreenenter"",""0"",""6310""
","
","
","""event"",""trial"",""time""
""fullscreenenter"",""0"",""6310""
","
","null","<p></p>","null","","","","","","","",""
"","image","76","299326","0.0-76.0","""event"",""trial"",""time""
""fullscreenenter"",""0"",""6310""
","
","
","""event"",""trial"",""time""
""fullscreenenter"",""0"",""6310""
","
","1462.699999999255","run_exp/static/images/Set 6_rs/017a.jpg","86","","","","","","learn","SL",""
"","show_choice","77","299865","0.0-77.0","""event"",""trial"",""time""
""fullscreenenter"",""0"",""6310""
","
","
","""event"",""trial"",""time""
""fullscreenenter"",""0"",""6310""
","
","null","run_exp/static/images/Set 6_rs/017a.jpg","null","","","","","","learn","SL",""
"","html-keyboard-response","78","300366","0.0-78.0","""event"",""trial"",""time""
""fullscreenenter"",""0"",""6310""
","
","
","""event"",""trial"",""time""
""fullscreenenter"",""0"",""6310""
","
","null","<p></p>","null","","","","","","","",""
"","image","79","301245","0.0-79.0","""event"",""trial"",""time""
""fullscreenenter"",""0"",""6310""
","
","
","""event"",""trial"",""time""
""fullscreenenter"",""0"",""6310""
","
","876.8999999985099","run_exp/static/images/Set 6_rs/073a.jpg","86","","","","","","learn","SL",""
"","show_choice","80","302370","0.0-80.0","""event"",""trial"",""time""
""fullscreenenter"",""0"",""6310""
","
","
","""event"",""trial"",""time""
""fullscreenenter"",""0"",""6310""
","
","null","run_exp/static/images/Set 6_rs/073a.jpg","null","","","","","","learn","SL",""
"","html-keyboard-response","81","302871","0.0-81.0","""event"",""trial"",""time""
""fullscreenenter"",""0"",""6310""
","
","
","""event"",""trial"",""time""
""fullscreenenter"",""0"",""6310""
","
","null","<p></p>","null","","","","","","","",""
"","image","82","303968","0.0-82.0","""event"",""trial"",""time""
""fullscreenenter"",""0"",""6310""
","
","
","""event"",""trial"",""time""
""fullscreenenter"",""0"",""6310""
","
","1094.300000000745","run_exp/static/images/Set 6_rs/064a.jpg","78","","","","","","learn","SR",""
"","show_choice","83","304875","0.0-83.0","""event"",""trial"",""time""
""fullscreenenter"",""0"",""6310""
","
","
","""event"",""trial"",""time""
""fullscreenenter"",""0"",""6310""
","
","null","run_exp/static/images/Set 6_rs/064a.jpg","null","","","","","","learn","SR",""
"","html-keyboard-response","84","305376","0.0-84.0","""event"",""trial"",""time""
""fullscreenenter"",""0"",""6310""
","
","
","""event"",""trial"",""time""
""fullscreenenter"",""0"",""6310""
","
","null","<p></p>","null","","","","","","","",""
"","image","85","306260","0.0-85.0","""event"",""trial"",""time""
""fullscreenenter"",""0"",""6310""
","
","
","""event"",""trial"",""time""
""fullscreenenter"",""0"",""6310""
","
","882.1000000014901","run_exp/static/images/Set 6_rs/071a.jpg","78","","","","","","learn","SL",""
"","show_choice","86","307380","0.0-86.0","""event"",""trial"",""time""
""fullscreenenter"",""0"",""6310""
","
","
","""event"",""trial"",""time""
""fullscreenenter"",""0"",""6310""
","
","null","run_exp/static/images/Set 6_rs/071a.jpg","null","","","","","","learn","SL",""
"","html-keyboard-response","87","307882","0.0-87.0","""event"",""trial"",""time""
""fullscreenenter"",""0"",""6310""
","
","
","""event"",""trial"",""time""
""fullscreenenter"",""0"",""6310""
","
","null","<p></p>","null","","","","","","","",""
"","image","88","309184","0.0-88.0","""event"",""trial"",""time""
""fullscreenenter"",""0"",""6310""
","
","
","""event"",""trial"",""time""
""fullscreenenter"",""0"",""6310""
","
","1300.5","run_exp/static/images/Set 6_rs/134a.jpg","86","","","","","","learn","SR",""
"","show_choice","89","309885","0.0-89.0","""event"",""trial"",""time""
""fullscreenenter"",""0"",""6310""
","
","
","""event"",""trial"",""time""
""fullscreenenter"",""0"",""6310""
","
","null","run_exp/static/images/Set 6_rs/134a.jpg","null","","","","","","learn","SR",""
"","html-keyboard-response","90","310387","0.0-90.0","""event"",""trial"",""time""
""fullscreenenter"",""0"",""6310""
","
","
","""event"",""trial"",""time""
""fullscreenenter"",""0"",""6310""
","
","null","<p></p>","null","","","","","","","",""
"","image","91","311379","0.0-91.0","""event"",""trial"",""time""
""fullscreenenter"",""0"",""6310""
","
","
","""event"",""trial"",""time""
""fullscreenenter"",""0"",""6310""
","
","990.3999999985099","run_exp/static/images/Set 6_rs/055a.jpg","86","","","","","","learn","SL",""
"","show_choice","92","312390","0.0-92.0","""event"",""trial"",""time""
""fullscreenenter"",""0"",""6310""
","
","
","""event"",""trial"",""time""
""fullscreenenter"",""0"",""6310""
","
","null","run_exp/static/images/Set 6_rs/055a.jpg","null","","","","","","learn","SL",""
"","html-keyboard-response","93","312892","0.0-93.0","""event"",""trial"",""time""
""fullscreenenter"",""0"",""6310""
","
","
","""event"",""trial"",""time""
""fullscreenenter"",""0"",""6310""
","
","null","<p></p>","null","","","","","","","",""
"","image","94","314355","0.0-94.0","""event"",""trial"",""time""
""fullscreenenter"",""0"",""6310""
","
","
","""event"",""trial"",""time""
""fullscreenenter"",""0"",""6310""
","
","1460.5","run_exp/static/images/Set 6_rs/122a.jpg","86","","","","","","learn","SR",""
"","show_choice","95","314895","0.0-95.0","""event"",""trial"",""time""
""fullscreenenter"",""0"",""6310""
","
","
","""event"",""trial"",""time""
""fullscreenenter"",""0"",""6310""
","
","null","run_exp/static/images/Set 6_rs/122a.jpg","null","","","","","","learn","SR",""
"","html-keyboard-response","96","315397","0.0-96.0","""event"",""trial"",""time""
""fullscreenenter"",""0"",""6310""
","
","
","""event"",""trial"",""time""
""fullscreenenter"",""0"",""6310""
","
","null","<p></p>","null","","","","","","","",""
"","image","97","316114","0.0-97.0","""event"",""trial"",""time""
""fullscreenenter"",""0"",""6310""
","
","
","""event"",""trial"",""time""
""fullscreenenter"",""0"",""6310""
","
","714.2999999970198","run_exp/static/images/Set 6_rs/007a.jpg","86","","","","","","learn","SR",""
"","show_choice","98","317401","0.0-98.0","""event"",""trial"",""time""
""fullscreenenter"",""0"",""6310""
","
","
","""event"",""trial"",""time""
""fullscreenenter"",""0"",""6310""
","
","null","run_exp/static/images/Set 6_rs/007a.jpg","null","","","","","","learn","SR",""
"","html-keyboard-response","99","317902","0.0-99.0","""event"",""trial"",""time""
""fullscreenenter"",""0"",""6310""
","
","
","""event"",""trial"",""time""
""fullscreenenter"",""0"",""6310""
","
","null","<p></p>","null","","","","","","","",""
"","image","100","319133","0.0-100.0","""event"",""trial"",""time""
""fullscreenenter"",""0"",""6310""
","
","
","""event"",""trial"",""time""
""fullscreenenter"",""0"",""6310""
","
","1229.2999999970198","run_exp/static/images/Set 6_rs/123a.jpg","86","","","","","","learn","SL",""
"","show_choice","101","319905","0.0-101.0","""event"",""trial"",""time""
""fullscreenenter"",""0"",""6310""
","
","
","""event"",""trial"",""time""
""fullscreenenter"",""0"",""6310""
","
","null","run_exp/static/images/Set 6_rs/123a.jpg","null","","","","","","learn","SL",""
"","html-keyboard-response","102","320407","0.0-102.0","""event"",""trial"",""time""
""fullscreenenter"",""0"",""6310""
","
","
","""event"",""trial"",""time""
""fullscreenenter"",""0"",""6310""
","
","null","<p></p>","null","","","","","","","",""
"","image","103","322409","0.0-103.0","""event"",""trial"",""time""
""fullscreenenter"",""0"",""6310""
","
","
","""event"",""trial"",""time""
""fullscreenenter"",""0"",""6310""
","
","null","run_exp/static/images/Set 6_rs/061a.jpg","null","","","","","","learn","SR",""
"","show_choice","104","324411","0.0-104.0","""event"",""trial"",""time""
""fullscreenenter"",""0"",""6310""
","
","
","""event"",""trial"",""time""
""fullscreenenter"",""0"",""6310""
","
","null","run_exp/static/images/blank.png","null","","","","","","learn","SR",""
"","html-keyboard-response","105","324913","0.0-105.0","""event"",""trial"",""time""
""fullscreenenter"",""0"",""6310""
","
","
","""event"",""trial"",""time""
""fullscreenenter"",""0"",""6310""
","
","null","<p></p>","null","","","","","","","",""
"","image","106","326367","0.0-106.0","""event"",""trial"",""time""
""fullscreenenter"",""0"",""6310""
","
","
","""event"",""trial"",""time""
""fullscreenenter"",""0"",""6310""
","
","1452.2999999970198","run_exp/static/images/Set 6_rs/167a.jpg","86","","","","","","learn","SL",""
"","show_choice","107","326916","0.0-107.0","""event"",""trial"",""time""
""fullscreenenter"",""0"",""6310""
","
","
","""event"",""trial"",""time""
""fullscreenenter"",""0"",""6310""
","
","null","run_exp/static/images/Set 6_rs/167a.jpg","null","","","","","","learn","SL",""
"","html-keyboard-response","108","327417","0.0-108.0","""event"",""trial"",""time""
""fullscreenenter"",""0"",""6310""
","
","
","""event"",""trial"",""time""
""fullscreenenter"",""0"",""6310""
","
","null","<p></p>","null","","","","","","","",""
"","image","109","328222","0.0-109.0","""event"",""trial"",""time""
""fullscreenenter"",""0"",""6310""
","
","
","""event"",""trial"",""time""
""fullscreenenter"",""0"",""6310""
","
","802.5999999977648","run_exp/static/images/Set 6_rs/129a.jpg","86","","","","","","learn","SL",""
"","show_choice","110","329421","0.0-110.0","""event"",""trial"",""time""
""fullscreenenter"",""0"",""6310""
","
","
","""event"",""trial"",""time""
""fullscreenenter"",""0"",""6310""
","
","null","run_exp/static/images/Set 6_rs/129a.jpg","null","","","","","","learn","SL",""
"","html-keyboard-response","111","329923","0.0-111.0","""event"",""trial"",""time""
""fullscreenenter"",""0"",""6310""
","
","
","""event"",""trial"",""time""
""fullscreenenter"",""0"",""6310""
","
","null","<p></p>","null","","","","","","","",""
"","image","112","330832","0.0-112.0","""event"",""trial"",""time""
""fullscreenenter"",""0"",""6310""
","
","
","""event"",""trial"",""time""
""fullscreenenter"",""0"",""6310""
","
","907","run_exp/static/images/Set 6_rs/111a.jpg","86","","","","","","learn","SL",""
"","show_choice","113","331927","0.0-113.0","""event"",""trial"",""time""
""fullscreenenter"",""0"",""6310""
","
","
","""event"",""trial"",""time""
""fullscreenenter"",""0"",""6310""
","
","null","run_exp/static/images/Set 6_rs/111a.jpg","null","","","","","","learn","SL",""
"","html-keyboard-response","114","332429","0.0-114.0","""event"",""trial"",""time""
""fullscreenenter"",""0"",""6310""
","
","
","""event"",""trial"",""time""
""fullscreenenter"",""0"",""6310""
","
","null","<p></p>","null","","","","","","","",""
"","image","115","334432","0.0-115.0","""event"",""trial"",""time""
""fullscreenenter"",""0"",""6310""
","
","
","""event"",""trial"",""time""
""fullscreenenter"",""0"",""6310""
","
","null","run_exp/static/images/Set 6_rs/186a.jpg","null","","","","","","learn","SR",""
"","show_choice","116","336434","0.0-116.0","""event"",""trial"",""time""
""fullscreenenter"",""0"",""6310""
","
","
","""event"",""trial"",""time""
""fullscreenenter"",""0"",""6310""
","
","null","run_exp/static/images/blank.png","null","","","","","","learn","SR",""
"","html-keyboard-response","117","336935","0.0-117.0","""event"",""trial"",""time""
""fullscreenenter"",""0"",""6310""
","
","
","""event"",""trial"",""time""
""fullscreenenter"",""0"",""6310""
","
","null","<p></p>","null","","","","","","","",""
"","image","118","337492","0.0-118.0","""event"",""trial"",""time""
""fullscreenenter"",""0"",""6310""
","
","
","""event"",""trial"",""time""
""fullscreenenter"",""0"",""6310""
","
","554.3000000007451","run_exp/static/images/Set 6_rs/014a.jpg","86","","","","","","learn","SL",""
"","show_choice","119","338939","0.0-119.0","""event"",""trial"",""time""
""fullscreenenter"",""0"",""6310""
","
","
","""event"",""trial"",""time""
""fullscreenenter"",""0"",""6310""
","
","null","run_exp/static/images/Set 6_rs/014a.jpg","null","","","","","","learn","SL",""
"","html-keyboard-response","120","339441","0.0-120.0","""event"",""trial"",""time""
""fullscreenenter"",""0"",""6310""
","
","
","""event"",""trial"",""time""
""fullscreenenter"",""0"",""6310""
","
","null","<p></p>","null","","","","","","","",""
"","image","121","340633","0.0-121.0","""event"",""trial"",""time""
""fullscreenenter"",""0"",""6310""
","
","
","""event"",""trial"",""time""
""fullscreenenter"",""0"",""6310""
","
","1190.2999999970198","run_exp/static/images/Set 6_rs/144a.jpg","86","","","","","","learn","SL",""
"","show_choice","122","341445","0.0-122.0","""event"",""trial"",""time""
""fullscreenenter"",""0"",""6310""
","
","
","""event"",""trial"",""time""
""fullscreenenter"",""0"",""6310""
","
","null","run_exp/static/images/Set 6_rs/144a.jpg","null","","","","","","learn","SL",""
"","html-keyboard-response","123","341946","0.0-123.0","""event"",""trial"",""time""
""fullscreenenter"",""0"",""6310""
","
","
","""event"",""trial"",""time""
""fullscreenenter"",""0"",""6310""
","
","null","<p></p>","null","","","","","","","",""
"","image","124","343633","0.0-124.0","""event"",""trial"",""time""
""fullscreenenter"",""0"",""6310""
","
","
","""event"",""trial"",""time""
""fullscreenenter"",""0"",""6310""
","
","1684.6000000014901","run_exp/static/images/Set 6_rs/191a.jpg","86","","","","","","learn","SL",""
"","show_choice","125","343950","0.0-125.0","""event"",""trial"",""time""
""fullscreenenter"",""0"",""6310""
","
","
","""event"",""trial"",""time""
""fullscreenenter"",""0"",""6310""
","
","null","run_exp/static/images/Set 6_rs/191a.jpg","null","","","","","","learn","SL",""
"","html-keyboard-response","126","344451","0.0-126.0","""event"",""trial"",""time""
""fullscreenenter"",""0"",""6310""
","
","
","""event"",""trial"",""time""
""fullscreenenter"",""0"",""6310""
","
","null","<p></p>","null","","","","","","","",""
"","image","127","345902","0.0-127.0","""event"",""trial"",""time""
""fullscreenenter"",""0"",""6310""
","
","
","""event"",""trial"",""time""
""fullscreenenter"",""0"",""6310""
","
","1448.1000000014901","run_exp/static/images/Set 6_rs/025a.jpg","86","","","","","","learn","SL",""
"","show_choice","128","346455","0.0-128.0","""event"",""trial"",""time""
""fullscreenenter"",""0"",""6310""
","
","
","""event"",""trial"",""time""
""fullscreenenter"",""0"",""6310""
","
","null","run_exp/static/images/Set 6_rs/025a.jpg","null","","","","","","learn","SL",""
"","html-keyboard-response","129","346956","0.0-129.0","""event"",""trial"",""time""
""fullscreenenter"",""0"",""6310""
","
","
","""event"",""trial"",""time""
""fullscreenenter"",""0"",""6310""
","
","null","<p></p>","null","","","","","","","",""
"","image","130","348896","0.0-130.0","""event"",""trial"",""time""
""fullscreenenter"",""0"",""6310""
","
","
","""event"",""trial"",""time""
""fullscreenenter"",""0"",""6310""
","
","1937.699999999255","run_exp/static/images/Set 6_rs/076a.jpg","78","","","","","","learn","SR",""
"","show_choice","131","348960","0.0-131.0","""event"",""trial"",""time""
""fullscreenenter"",""0"",""6310""
","
","
","""event"",""trial"",""time""
""fullscreenenter"",""0"",""6310""
","
","null","run_exp/static/images/Set 6_rs/076a.jpg","null","","","","","","learn","SR",""
"","html-keyboard-response","132","349462","0.0-132.0","""event"",""trial"",""time""
""fullscreenenter"",""0"",""6310""
","
","
","""event"",""trial"",""time""
""fullscreenenter"",""0"",""6310""
","
","null","<p></p>","null","","","","","","","",""
"","image","133","351139","0.0-133.0","""event"",""trial"",""time""
""fullscreenenter"",""0"",""6310""
","
","
","""event"",""trial"",""time""
""fullscreenenter"",""0"",""6310""
","
","1675.5","run_exp/static/images/Set 6_rs/187a.jpg","86","","","","","","learn","SR",""
"","show_choice","134","351465","0.0-134.0","""event"",""trial"",""time""
""fullscreenenter"",""0"",""6310""
","
","
","""event"",""trial"",""time""
""fullscreenenter"",""0"",""6310""
","
","null","run_exp/static/images/Set 6_rs/187a.jpg","null","","","","","","learn","SR",""
"","html-keyboard-response","135","351967","0.0-135.0","""event"",""trial"",""time""
""fullscreenenter"",""0"",""6310""
","
","
","""event"",""trial"",""time""
""fullscreenenter"",""0"",""6310""
","
","null","<p></p>","null","","","","","","","",""
"","image","136","353862","0.0-136.0","""event"",""trial"",""time""
""fullscreenenter"",""0"",""6310""
","
","
","""event"",""trial"",""time""
""fullscreenenter"",""0"",""6310""
","
","1892.8999999985099","run_exp/static/images/Set 6_rs/066a.jpg","78","","","","","","learn","SL",""
"","show_choice","137","353971","0.0-137.0","""event"",""trial"",""time""
""fullscreenenter"",""0"",""6310""
","
","
","""event"",""trial"",""time""
""fullscreenenter"",""0"",""6310""
","
","null","run_exp/static/images/Set 6_rs/066a.jpg","null","","","","","","learn","SL",""
"","html-keyboard-response","138","354472","0.0-138.0","""event"",""trial"",""time""
""fullscreenenter"",""0"",""6310""
","
","
","""event"",""trial"",""time""
""fullscreenenter"",""0"",""6310""
","
","null","<p></p>","null","","","","","","","",""
"","image","139","355871","0.0-139.0","""event"",""trial"",""time""
""fullscreenenter"",""0"",""6310""
","
","
","""event"",""trial"",""time""
""fullscreenenter"",""0"",""6310""
","
","1396.699999999255","run_exp/static/images/Set 6_rs/116a.jpg","78","","","","","","learn","SL",""
"","show_choice","140","356477","0.0-140.0","""event"",""trial"",""time""
""fullscreenenter"",""0"",""6310""
","
","
","""event"",""trial"",""time""
""fullscreenenter"",""0"",""6310""
","
","null","run_exp/static/images/Set 6_rs/116a.jpg","null","","","","","","learn","SL",""
"","html-keyboard-response","141","356979","0.0-141.0","""event"",""trial"",""time""
""fullscreenenter"",""0"",""6310""
","
","
","""event"",""trial"",""time""
""fullscreenenter"",""0"",""6310""
","
","null","<p></p>","null","","","","","","","",""
"","image","142","358028","0.0-142.0","""event"",""trial"",""time""
""fullscreenenter"",""0"",""6310""
","
","
","""event"",""trial"",""time""
""fullscreenenter"",""0"",""6310""
","
","1046.8999999985099","run_exp/static/images/Set 6_rs/150a.jpg","78","","","","","","learn","SR",""
"","show_choice","143","358983","0.0-143.0","""event"",""trial"",""time""
""fullscreenenter"",""0"",""6310""
","
","
","""event"",""trial"",""time""
""fullscreenenter"",""0"",""6310""
","
","null","run_exp/static/images/Set 6_rs/150a.jpg","null","","","","","","learn","SR",""
"","html-keyboard-response","144","359484","0.0-144.0","""event"",""trial"",""time""
""fullscreenenter"",""0"",""6310""
","
","
","""event"",""trial"",""time""
""fullscreenenter"",""0"",""6310""
","
","null","<p></p>","null","","","","","","","",""
"","image","145","360879","0.0-145.0","""event"",""trial"",""time""
""fullscreenenter"",""0"",""6310""
","
","
","""event"",""trial"",""time""
""fullscreenenter"",""0"",""6310""
","
","1392.699999999255","run_exp/static/images/Set 6_rs/036a.jpg","86","","","","","","learn","SL",""
"","show_choice","146","361488","0.0-146.0","""event"",""trial"",""time""
""fullscreenenter"",""0"",""6310""
","
","
","""event"",""trial"",""time""
""fullscreenenter"",""0"",""6310""
","
","null","run_exp/static/images/Set 6_rs/036a.jpg","null","","","","","","learn","SL",""
"","html-keyboard-response","147","361990","0.0-147.0","""event"",""trial"",""time""
""fullscreenenter"",""0"",""6310""
","
","
","""event"",""trial"",""time""
""fullscreenenter"",""0"",""6310""
","
","null","<p></p>","null","","","","","","","",""
"","image","148","362984","0.0-148.0","""event"",""trial"",""time""
""fullscreenenter"",""0"",""6310""
","
","
","""event"",""trial"",""time""
""fullscreenenter"",""0"",""6310""
","
","992.3999999985099","run_exp/static/images/Set 6_rs/063a.jpg","86","","","","","","learn","SR",""
"","show_choice","149","363994","0.0-149.0","""event"",""trial"",""time""
""fullscreenenter"",""0"",""6310""
","
","
","""event"",""trial"",""time""
""fullscreenenter"",""0"",""6310""
","
","null","run_exp/static/images/Set 6_rs/063a.jpg","null","","","","","","learn","SR",""
"","html-keyboard-response","150","364496","0.0-150.0","""event"",""trial"",""time""
""fullscreenenter"",""0"",""6310""
","
","
","""event"",""trial"",""time""
""fullscreenenter"",""0"",""6310""
","
","null","<p></p>","null","","","","","","","",""
"","image","151","366371","0.0-151.0","""event"",""trial"",""time""
""fullscreenenter"",""0"",""6310""
","
","
","""event"",""trial"",""time""
""fullscreenenter"",""0"",""6310""
","
","1873","run_exp/static/images/Set 6_rs/008a.jpg","86","","","","","","learn","SL",""
"","show_choice","152","366500","0.0-152.0","""event"",""trial"",""time""
""fullscreenenter"",""0"",""6310""
","
","
","""event"",""trial"",""time""
""fullscreenenter"",""0"",""6310""
","
","null","run_exp/static/images/Set 6_rs/008a.jpg","null","","","","","","learn","SL",""
"","html-keyboard-response","153","367001","0.0-153.0","""event"",""trial"",""time""
""fullscreenenter"",""0"",""6310""
","
","
","""event"",""trial"",""time""
""fullscreenenter"",""0"",""6310""
","
","null","<p></p>","null","","","","","","","",""
"","image","154","369004","0.0-154.0","""event"",""trial"",""time""
""fullscreenenter"",""0"",""6310""
","
","
","""event"",""trial"",""time""
""fullscreenenter"",""0"",""6310""
","
","null","run_exp/static/images/Set 6_rs/121a.jpg","null","","","","","","learn","SR",""
"","show_choice","155","371006","0.0-155.0","""event"",""trial"",""time""
""fullscreenenter"",""0"",""6310""
","
","
","""event"",""trial"",""time""
""fullscreenenter"",""0"",""6310""
","
","null","run_exp/static/images/blank.png","null","","","","","","learn","SR",""
"","html-keyboard-response","156","371508","0.0-156.0","""event"",""trial"",""time""
""fullscreenenter"",""0"",""6310""
","
","
","""event"",""trial"",""time""
""fullscreenenter"",""0"",""6310""
","
","null","<p></p>","null","","","","","","","",""
"","image","157","373252","0.0-157.0","""event"",""trial"",""time""
""fullscreenenter"",""0"",""6310""
","
","
","""event"",""trial"",""time""
""fullscreenenter"",""0"",""6310""
","
","1741.8999999985099","run_exp/static/images/Set 6_rs/178a.jpg","78","","","","","","learn","SR",""
"","show_choice","158","373513","0.0-158.0","""event"",""trial"",""time""
""fullscreenenter"",""0"",""6310""
","
","
","""event"",""trial"",""time""
""fullscreenenter"",""0"",""6310""
","
","null","run_exp/static/images/Set 6_rs/178a.jpg","null","","","","","","learn","SR",""
"","html-keyboard-response","159","374015","0.0-159.0","""event"",""trial"",""time""
""fullscreenenter"",""0"",""6310""
","
","
","""event"",""trial"",""time""
""fullscreenenter"",""0"",""6310""
","
","null","<p></p>","null","","","","","","","",""
"","image","160","374894","0.0-160.0","""event"",""trial"",""time""
""fullscreenenter"",""0"",""6310""
","
","
","""event"",""trial"",""time""
""fullscreenenter"",""0"",""6310""
","
","877.5999999977648","run_exp/static/images/Set 6_rs/126a.jpg","78","","","","","","learn","SR",""
"","show_choice","161","376018","0.0-161.0","""event"",""trial"",""time""
""fullscreenenter"",""0"",""6310""
","
","
","""event"",""trial"",""time""
""fullscreenenter"",""0"",""6310""
","
","null","run_exp/static/images/Set 6_rs/126a.jpg","null","","","","","","learn","SR",""
"","html-keyboard-response","162","376520","0.0-162.0","""event"",""trial"",""time""
""fullscreenenter"",""0"",""6310""
","
","
","""event"",""trial"",""time""
""fullscreenenter"",""0"",""6310""
","
","null","<p></p>","null","","","","","","","",""
"","image","163","378487","0.0-163.0","""event"",""trial"",""time""
""fullscreenenter"",""0"",""6310""
","
","
","""event"",""trial"",""time""
""fullscreenenter"",""0"",""6310""
","
","1965.5","run_exp/static/images/Set 6_rs/019a.jpg","86","","","","","","learn","SL",""
"","show_choice","164","378523","0.0-164.0","""event"",""trial"",""time""
""fullscreenenter"",""0"",""6310""
","
","
","""event"",""trial"",""time""
""fullscreenenter"",""0"",""6310""
","
","null","run_exp/static/images/Set 6_rs/019a.jpg","null","","","","","","learn","SL",""
"","html-keyboard-response","165","379025","0.0-165.0","""event"",""trial"",""time""
""fullscreenenter"",""0"",""6310""
","
","
","""event"",""trial"",""time""
""fullscreenenter"",""0"",""6310""
","
","null","<p></p>","null","","","","","","","",""
"","image","166","379971","0.0-166.0","""event"",""trial"",""time""
""fullscreenenter"",""0"",""6310""
","
","
","""event"",""trial"",""time""
""fullscreenenter"",""0"",""6310""
","
","944.1000000014901","run_exp/static/images/Set 6_rs/012a.jpg","86","","","","","","learn","SR",""
"","show_choice","167","381028","0.0-167.0","""event"",""trial"",""time""
""fullscreenenter"",""0"",""6310""
","
","
","""event"",""trial"",""time""
""fullscreenenter"",""0"",""6310""
","
","null","run_exp/static/images/Set 6_rs/012a.jpg","null","","","","","","learn","SR",""
"","html-keyboard-response","168","381530","0.0-168.0","""event"",""trial"",""time""
""fullscreenenter"",""0"",""6310""
","
","
","""event"",""trial"",""time""
""fullscreenenter"",""0"",""6310""
","
","null","<p></p>","null","","","","","","","",""
"","image","169","382354","0.0-169.0","""event"",""trial"",""time""
""fullscreenenter"",""0"",""6310""
","
","
","""event"",""trial"",""time""
""fullscreenenter"",""0"",""6310""
","
","822","run_exp/static/images/Set 6_rs/085a.jpg","78","","","","","","learn","SL",""
"","show_choice","170","383534","0.0-170.0","""event"",""trial"",""time""
""fullscreenenter"",""0"",""6310""
","
","
","""event"",""trial"",""time""
""fullscreenenter"",""0"",""6310""
","
","null","run_exp/static/images/Set 6_rs/085a.jpg","null","","","","","","learn","SL",""
"","html-keyboard-response","171","384035","0.0-171.0","""event"",""trial"",""time""
""fullscreenenter"",""0"",""6310""
","
","
","""event"",""trial"",""time""
""fullscreenenter"",""0"",""6310""
","
","null","<p></p>","null","","","","","","","",""
"","image","172","385213","0.0-172.0","""event"",""trial"",""time""
""fullscreenenter"",""0"",""6310""
","
","
","""event"",""trial"",""time""
""fullscreenenter"",""0"",""6310""
","
","1176","run_exp/static/images/Set 6_rs/138a.jpg","78","","","","","","learn","SL",""
"","show_choice","173","386040","0.0-173.0","""event"",""trial"",""time""
""fullscreenenter"",""0"",""6310""
","
","
","""event"",""trial"",""time""
""fullscreenenter"",""0"",""6310""
","
","null","run_exp/static/images/Set 6_rs/138a.jpg","null","","","","","","learn","SL",""
"","html-keyboard-response","174","386541","0.0-174.0","""event"",""trial"",""time""
""fullscreenenter"",""0"",""6310""
","
","
","""event"",""trial"",""time""
""fullscreenenter"",""0"",""6310""
","
","null","<p></p>","null","","","","","","","",""
"","image","175","387367","0.0-175.0","""event"",""trial"",""time""
""fullscreenenter"",""0"",""6310""
","
","
","""event"",""trial"",""time""
""fullscreenenter"",""0"",""6310""
","
","823.3999999985099","run_exp/static/images/Set 6_rs/169a.jpg","78","","","","","","learn","SR",""
"","show_choice","176","388545","0.0-176.0","""event"",""trial"",""time""
""fullscreenenter"",""0"",""6310""
","
","
","""event"",""trial"",""time""
""fullscreenenter"",""0"",""6310""
","
","null","run_exp/static/images/Set 6_rs/169a.jpg","null","","","","","","learn","SR",""
"","html-keyboard-response","177","389046","0.0-177.0","""event"",""trial"",""time""
""fullscreenenter"",""0"",""6310""
","
","
","""event"",""trial"",""time""
""fullscreenenter"",""0"",""6310""
","
","null","<p></p>","null","","","","","","","",""
"","image","178","389863","0.0-178.0","""event"",""trial"",""time""
""fullscreenenter"",""0"",""6310""
","
","
","""event"",""trial"",""time""
""fullscreenenter"",""0"",""6310""
","
","814.3999999985099","run_exp/static/images/Set 6_rs/108a.jpg","78","","","","","","learn","SR",""
"","show_choice","179","391050","0.0-179.0","""event"",""trial"",""time""
""fullscreenenter"",""0"",""6310""
","
","
","""event"",""trial"",""time""
""fullscreenenter"",""0"",""6310""
","
","null","run_exp/static/images/Set 6_rs/108a.jpg","null","","","","","","learn","SR",""
"","html-keyboard-response","180","391551","0.0-180.0","""event"",""trial"",""time""
""fullscreenenter"",""0"",""6310""
","
","
","""event"",""trial"",""time""
""fullscreenenter"",""0"",""6310""
","
","null","<p></p>","null","","","","","","","",""
"","image","181","392601","0.0-181.0","""event"",""trial"",""time""
""fullscreenenter"",""0"",""6310""
","
","
","""event"",""trial"",""time""
""fullscreenenter"",""0"",""6310""
","
","1048","run_exp/static/images/Set 6_rs/117a.jpg","78","","","","","","learn","SL",""
"","show_choice","182","393555","0.0-182.0","""event"",""trial"",""time""
""fullscreenenter"",""0"",""6310""
","
","
","""event"",""trial"",""time""
""fullscreenenter"",""0"",""6310""
","
","null","run_exp/static/images/Set 6_rs/117a.jpg","null","","","","","","learn","SL",""
"","html-keyboard-response","183","394057","0.0-183.0","""event"",""trial"",""time""
""fullscreenenter"",""0"",""6310""
","
","
","""event"",""trial"",""time""
""fullscreenenter"",""0"",""6310""
","
","null","<p></p>","null","","","","","","","",""
"","image","184","395094","0.0-184.0","""event"",""trial"",""time""
""fullscreenenter"",""0"",""6310""
","
","
","""event"",""trial"",""time""
""fullscreenenter"",""0"",""6310""
","
","1035.3999999985099","run_exp/static/images/Set 6_rs/010a.jpg","86","","","","","","learn","SR",""
"","show_choice","185","396062","0.0-185.0","""event"",""trial"",""time""
""fullscreenenter"",""0"",""6310""
","
","
","""event"",""trial"",""time""
""fullscreenenter"",""0"",""6310""
","
","null","run_exp/static/images/Set 6_rs/010a.jpg","null","","","","","","learn","SR",""
"","html-keyboard-response","186","396564","0.0-186.0","""event"",""trial"",""time""
""fullscreenenter"",""0"",""6310""
","
","
","""event"",""trial"",""time""
""fullscreenenter"",""0"",""6310""
","
","null","<p></p>","null","","","","","","","",""
"","image","187","397698","0.0-187.0","""event"",""trial"",""time""
""fullscreenenter"",""0"",""6310""
","
","
","""event"",""trial"",""time""
""fullscreenenter"",""0"",""6310""
","
","1131.0999999977648","run_exp/static/images/Set 6_rs/050a.jpg","78","","","","","","learn","SL",""
"","show_choice","188","398569","0.0-188.0","""event"",""trial"",""time""
""fullscreenenter"",""0"",""6310""
","
","
","""event"",""trial"",""time""
""fullscreenenter"",""0"",""6310""
","
","null","run_exp/static/images/Set 6_rs/050a.jpg","null","","","","","","learn","SL",""
"","html-keyboard-response","189","399071","0.0-189.0","""event"",""trial"",""time""
""fullscreenenter"",""0"",""6310""
","
","
","""event"",""trial"",""time""
""fullscreenenter"",""0"",""6310""
","
","null","<p></p>","null","","","","","","","",""
"","image","190","400454","0.0-190.0","""event"",""trial"",""time""
""fullscreenenter"",""0"",""6310""
","
","
","""event"",""trial"",""time""
""fullscreenenter"",""0"",""6310""
","
","1380.800000000745","run_exp/static/images/Set 6_rs/006a.jpg","78","","","","","","learn","SL",""
"","show_choice","191","401075","0.0-191.0","""event"",""trial"",""time""
""fullscreenenter"",""0"",""6310""
","
","
","""event"",""trial"",""time""
""fullscreenenter"",""0"",""6310""
","
","null","run_exp/static/images/Set 6_rs/006a.jpg","null","","","","","","learn","SL",""
"","html-keyboard-response","192","401577","0.0-192.0","""event"",""trial"",""time""
""fullscreenenter"",""0"",""6310""
","
","
","""event"",""trial"",""time""
""fullscreenenter"",""0"",""6310""
","
","null","<p></p>","null","","","","","","","",""
"","image","193","402460","0.0-193.0","""event"",""trial"",""time""
""fullscreenenter"",""0"",""6310""
","
","
","""event"",""trial"",""time""
""fullscreenenter"",""0"",""6310""
","
","881.8000000007451","run_exp/static/images/Set 6_rs/070a.jpg","86","","","","","","learn","SR",""
"","show_choice","194","403581","0.0-194.0","""event"",""trial"",""time""
""fullscreenenter"",""0"",""6310""
","
","
","""event"",""trial"",""time""
""fullscreenenter"",""0"",""6310""
","
","null","run_exp/static/images/Set 6_rs/070a.jpg","null","","","","","","learn","SR",""
"","html-keyboard-response","195","404082","0.0-195.0","""event"",""trial"",""time""
""fullscreenenter"",""0"",""6310""
","
","
","""event"",""trial"",""time""
""fullscreenenter"",""0"",""6310""
","
","null","<p></p>","null","","","","","","","",""
"","test_intro","196","441054","0.0-196.0","""event"",""trial"",""time""
""fullscreenenter"",""0"",""6310""
","
","
","""event"",""trial"",""time""
""fullscreenenter"",""0"",""6310""
","
","null","run_exp/static/audio/clip_2_memory.m4a","null","","","","","<div class='center'><p>Now, lets see how much you remember about the items you just saw.  For each item, you need to indicate if it was <b>old</b> by pressing the <b>v</b> key, <b>similar</b> by pressing the <b>b</b> key, or <b>new</b> by pressing the <b>n</b> key.</p><p>Old refers to an item that you saw before in the indoor/outdoor game that you just played, new refers to an item you have <b>not</b> seen before within the indoor/outdoor game, and similar refers to an item that is similar to an item youve seen before but is not exactly the same. </p><p>Before we begin, lets go over some brief demonstrations to make sure you understand.</p></div>","","",""
"","html-keyboard-response","197","490835","0.0-197.0","""event"",""trial"",""time""
""fullscreenenter"",""0"",""6310""
","
","
","""event"",""trial"",""time""
""fullscreenenter"",""0"",""6310""
","
","49778.89999999851","<div class='center'><p>Now, lets see how much you remember about the items you just saw.  For each item, you need to indicate if it was <b>old</b> by pressing the <b>v</b> key, <b>similar</b> by pressing the <b>b</b> key, or <b>new</b> by pressing the <b>n</b> key.</p><p>Old refers to an item that you saw before in the indoor/outdoor game that you just played, new refers to an item you have <b>not</b> seen before within the indoor/outdoor game, and similar refers to an item that is similar to an item youve seen before but is not exactly the same. </p><p>Before we begin, lets go over some brief demonstrations to make sure you understand.</p><div><p><b>[Press the space bar to continue]</b></p></div>","32","","","","","","","",""
"","items","198","498337","0.0-198.0","""event"",""trial"",""time""
""fullscreenenter"",""0"",""6310""
","
","
","""event"",""trial"",""time""
""fullscreenenter"",""0"",""6310""
","
","null","run_exp/static/audio/clip_3_items.m4a","null","","","","","","","",""
"","mop","199","502840","0.0-199.0","""event"",""trial"",""time""
""fullscreenenter"",""0"",""6310""
","
","
","""event"",""trial"",""time""
""fullscreenenter"",""0"",""6310""
","
","null","run_exp/static/audio/clip_4_mop.m4a","null","","","","","","","",""
"","baseball","200","506343","0.0-200.0","""event"",""trial"",""time""
""fullscreenenter"",""0"",""6310""
","
","
","""event"",""trial"",""time""
""fullscreenenter"",""0"",""6310""
","
","null","run_exp/static/audio/clip_5_baseball.m4a","null","","","","","","","",""
"","trumpet","201","509847","0.0-201.0","""event"",""trial"",""time""
""fullscreenenter"",""0"",""6310""
","
","
","""event"",""trial"",""time""
""fullscreenenter"",""0"",""6310""
","
","null","run_exp/static/audio/clip_6_trumpet.m4a","null","","","","","","","",""
"","gummies","202","513351","0.0-202.0","""event"",""trial"",""time""
""fullscreenenter"",""0"",""6310""
","
","
","""event"",""trial"",""time""
""fullscreenenter"",""0"",""6310""
","
","null","run_exp/static/audio/clip_7_gummies.m4a","null","","","","","","","",""
"","osn","203","517854","0.0-203.0","""event"",""trial"",""time""
""fullscreenenter"",""0"",""6310""
","
","
","""event"",""trial"",""time""
""fullscreenenter"",""0"",""6310""
","
","null","run_exp/static/audio/clip_8_osn.m4a","null","","","","","","","",""
"","old_1","204","524357","0.0-204.0","""event"",""trial"",""time""
""fullscreenenter"",""0"",""6310""
","
","
","""event"",""trial"",""time""
""fullscreenenter"",""0"",""6310""
","
","null","run_exp/static/audio/clip_9_old_trumpet.m4a","null","","","","","","","",""
"","new_1","205","531860","0.0-205.0","""event"",""trial"",""time""
""fullscreenenter"",""0"",""6310""
","
","
","""event"",""trial"",""time""
""fullscreenenter"",""0"",""6310""
","
","null","run_exp/static/audio/clip_10_new_balloon.m4a","null","","","","","","","",""
"","similar_1a","206","536364","0.0-206.0","""event"",""trial"",""time""
""fullscreenenter"",""0"",""6310""
","
","
","""event"",""trial"",""time""
""fullscreenenter"",""0"",""6310""
","
","null","run_exp/static/audio/clip_11a_similar_mop.m4a","null","","","","","","","",""
"","similar_1b","207","542867","0.0-207.0","""event"",""trial"",""time""
""fullscreenenter"",""0"",""6310""
","
","
","""event"",""trial"",""time""
""fullscreenenter"",""0"",""6310""
","
","null","run_exp/static/audio/clip_11b_similar_mop.m4a","null","","","","","","","",""
"","new_2","208","546370","0.0-208.0","""event"",""trial"",""time""
""fullscreenenter"",""0"",""6310""
","
","
","""event"",""trial"",""time""
""fullscreenenter"",""0"",""6310""
","
","null","run_exp/static/audio/clip_12_new_stoplight.m4a","null","","","","","","","",""
"","old_2","209","549874","0.0-209.0","""event"",""trial"",""time""
""fullscreenenter"",""0"",""6310""
","
","
","""event"",""trial"",""time""
""fullscreenenter"",""0"",""6310""
","
","null","run_exp/static/audio/clip_13_old_baseball.m4a","null","","","","","","","",""
"","similar_2a","210","553377","0.0-210.0","""event"",""trial"",""time""
""fullscreenenter"",""0"",""6310""
","
","
","""event"",""trial"",""time""
""fullscreenenter"",""0"",""6310""
","
","null","run_exp/static/audio/clip_14a_similar_gummies.m4a","null","","","","","","","",""
"","similar_2b","211","560881","0.0-211.0","""event"",""trial"",""time""
""fullscreenenter"",""0"",""6310""
","
","
","""event"",""trial"",""time""
""fullscreenenter"",""0"",""6310""
","
","null","run_exp/static/audio/clip_14b_similar_gummies.m4a","null","","","","","","","",""
"","practice","212","603159","0.0-212.0","""event"",""trial"",""time""
""fullscreenenter"",""0"",""6310""
","
","
","""event"",""trial"",""time""
""fullscreenenter"",""0"",""6310""
","
","null","run_exp/static/audio/clip_15_practice.m4a","null","","","","","<div class='center'><p>Lets practice a little to make sure you understand the difference between new, similar, and old. Lets say you saw these three items in the indoor/outdoor game.</p><p> Try your best to remember these images because youll soon be tested on them in a practice game. In the practice game, youll be shown images and youll have to say if they are old (one of the three images belows), similar (similar to one of the images below but not exactly the same), or new (are not one of the images below nor similar to them).</p><p>Once you press the space bar youll be shown these images again but one at time. Then youll begin the practice game.</p><p><img src='run_exp/static/images/tutorial/test/three_indoor_outdoor.png' height='300'></p></div>","","",""
"","html-keyboard-response","213","712953","0.0-213.0","""event"",""trial"",""time""
""fullscreenenter"",""0"",""6310""
","
","
","""event"",""trial"",""time""
""fullscreenenter"",""0"",""6310""
","
","109791.80000000075","<div class='center'><p>Lets practice a little to make sure you understand the difference between new, similar, and old. Lets say you saw these three items in the indoor/outdoor game.</p><p> Try your best to remember these images because youll soon be tested on them in a practice game. In the practice game, youll be shown images and youll have to say if they are old (one of the three images belows), similar (similar to one of the images below but not exactly the same), or new (are not one of the images below nor similar to them).</p><p>Once you press the space bar youll be shown these images again but one at time. Then youll begin the practice game.</p><p><img src='run_exp/static/images/tutorial/test/three_indoor_outdoor.png' height='300'></p><div><p><b>[Press the space bar to continue]</b></p></div>","32","","","","","","","",""
"","planet","214","714956","0.0-214.0","""event"",""trial"",""time""
""fullscreenenter"",""0"",""6310""
","
","
","""event"",""trial"",""time""
""fullscreenenter"",""0"",""6310""
","
","null","run_exp/static/images/tutorial/test/008a.jpg","null","","","","","","","",""
"","boot","215","716958","0.0-215.0","""event"",""trial"",""time""
""fullscreenenter"",""0"",""6310""
","
","
","""event"",""trial"",""time""
""fullscreenenter"",""0"",""6310""
","
","null","run_exp/static/images/tutorial/test/011a.jpg","null","","","","","","","",""
"","lemon","216","718961","0.0-216.0","""event"",""trial"",""time""
""fullscreenenter"",""0"",""6310""
","
","
","""event"",""trial"",""time""
""fullscreenenter"",""0"",""6310""
","
","null","run_exp/static/images/tutorial/test/018a.jpg","null","","","","","","","",""
"","practice_q1","217","727300","0.0-217.0","""event"",""trial"",""time""
""fullscreenenter"",""0"",""6310""
","
","
","""event"",""trial"",""time""
""fullscreenenter"",""0"",""6310""
","
","8335.89999999851","run_exp/static/audio/clip_16_practice_question.m4a","86","","","","","","","",""
"","incorrect_q1","218","730329","0.0-218.0-0.0","""event"",""trial"",""time""
""fullscreenenter"",""0"",""6310""
","
","
","""event"",""trial"",""time""
""fullscreenenter"",""0"",""6310""
","
","null","run_exp/static/audio/clip_18_incorrect_new.m4a","null","","","","","<div class='center'><p>Thats incorrect. Its new.</p></div>","","",""
"","html-keyboard-response","219","731427","0.0-218.0-1.0","""event"",""trial"",""time""
""fullscreenenter"",""0"",""6310""
","
","
","""event"",""trial"",""time""
""fullscreenenter"",""0"",""6310""
","
","1095.699999999255","<div class='center'><p>Thats incorrect. Its new.</p><div><p><b>[Press the space bar to continue]</b></p></div>","32","","","","","","","",""
"","practice_q2","220","736914","0.0-218.0-2.0","""event"",""trial"",""time""
""fullscreenenter"",""0"",""6310""
","
","
","""event"",""trial"",""time""
""fullscreenenter"",""0"",""6310""
","
","5483.800000000745","run_exp/static/audio/clip_16_practice_question.m4a","86","","","","","","","",""
"","correct","221","739033","0.0-219.0-0.0","""event"",""trial"",""time""
""fullscreenenter"",""0"",""6310""
","
","
","""event"",""trial"",""time""
""fullscreenenter"",""0"",""6310""
","
","null","run_exp/static/audio/clip_17_correct.m4a","null","","","","","<div class='center'><p>That's correct!</p></div>","","",""
"","html-keyboard-response","222","739533","0.0-219.0-1.0","""event"",""trial"",""time""
""fullscreenenter"",""0"",""6310""
","
","
","""event"",""trial"",""time""
""fullscreenenter"",""0"",""6310""
","
","497.19999999925494","<div class='center'><p>That's correct!</p><div><p><b>[Press the space bar to continue]</b></p></div>","32","","","","","","","",""
"","practice_q3","223","745790","0.0-219.0-2.0","""event"",""trial"",""time""
""fullscreenenter"",""0"",""6310""
","
","
","""event"",""trial"",""time""
""fullscreenenter"",""0"",""6310""
","
","6252.099999997765","run_exp/static/audio/clip_16_practice_question.m4a","78","","","","","","","",""
"","incorrect_q3","224","748762","0.0-220.0-0.0","""event"",""trial"",""time""
""fullscreenenter"",""0"",""6310""
","
","
","""event"",""trial"",""time""
""fullscreenenter"",""0"",""6310""
","
","null","run_exp/static/audio/clip_20_incorrect_similar.m4a","null","","","","","<div class='center'><p>Thats incorrect. Its similar.</p><p><img src='run_exp/static/images/tutorial/test/boot_comparison.png' height='300'></p></div>","","",""
"","html-keyboard-response","225","749306","0.0-220.0-1.0","""event"",""trial"",""time""
""fullscreenenter"",""0"",""6310""
","
","
","""event"",""trial"",""time""
""fullscreenenter"",""0"",""6310""
","
","541.6999999992549","<div class='center'><p>Thats incorrect. Its similar.</p><p><img src='run_exp/static/images/tutorial/test/boot_comparison.png' height='300'></p><div><p><b>[Press the space bar to continue]</b></p></div>","32","","","","","","","",""
"","repeat","226","754223","0.0-221.0-0.0","""event"",""trial"",""time""
""fullscreenenter"",""0"",""6310""
","
","
","""event"",""trial"",""time""
""fullscreenenter"",""0"",""6310""
","
","null","run_exp/static/audio/clip_21_practice_again.m4a","null","","","","","<div class='center'><p>Oops. you missed at least one of these questions. Let's try practicing again. </p></div>","","",""
"","html-keyboard-response","227","754801","0.0-221.0-1.0","""event"",""trial"",""time""
""fullscreenenter"",""0"",""6310""
","
","
","""event"",""trial"",""time""
""fullscreenenter"",""0"",""6310""
","
","575.8000000007451","<div class='center'><p>Oops. you missed at least one of these questions. Let's try practicing again. </p><div><p><b>[Press the space bar to continue]</b></p></div>","32","","","","","","","",""
"","practice_q1","228","759512","0.0-221.0-2.0","""event"",""trial"",""time""
""fullscreenenter"",""0"",""6310""
","
","
","""event"",""trial"",""time""
""fullscreenenter"",""0"",""6310""
","
","4708.300000000745","run_exp/static/audio/clip_16_practice_question.m4a","78","","","","","","","",""
"","correct","229","761646","0.0-222.0-0.0","""event"",""trial"",""time""
""fullscreenenter"",""0"",""6310""
","
","
","""event"",""trial"",""time""
""fullscreenenter"",""0"",""6310""
","
","null","run_exp/static/audio/clip_17_correct.m4a","null","","","","","<div class='center'><p>That's correct!</p></div>","","",""
"","html-keyboard-response","230","762030","0.0-222.0-1.0","""event"",""trial"",""time""
""fullscreenenter"",""0"",""6310""
","
","
","""event"",""trial"",""time""
""fullscreenenter"",""0"",""6310""
","
","381.3999999985099","<div class='center'><p>That's correct!</p><div><p><b>[Press the space bar to continue]</b></p></div>","32","","","","","","","",""
"","practice_q2","231","763783","0.0-222.0-2.0","""event"",""trial"",""time""
""fullscreenenter"",""0"",""6310""
","
","
","""event"",""trial"",""time""
""fullscreenenter"",""0"",""6310""
","
","1749.800000000745","run_exp/static/audio/clip_16_practice_question.m4a","66","","","","","","","",""
"","incorrect_q2","232","767023","0.0-223.0-0.0","""event"",""trial"",""time""
""fullscreenenter"",""0"",""6310""
","
","
","""event"",""trial"",""time""
""fullscreenenter"",""0"",""6310""
","
","null","run_exp/static/audio/clip_19_incorrect_old.m4a","null","","","","","<div class='center'><p>Thats incorrect. Its old.</p></div>","","",""
"","html-keyboard-response","233","767578","0.0-223.0-1.0","""event"",""trial"",""time""
""fullscreenenter"",""0"",""6310""
","
","
","""event"",""trial"",""time""
""fullscreenenter"",""0"",""6310""
","
","553.2999999970198","<div class='center'><p>Thats incorrect. Its old.</p><div><p><b>[Press the space bar to continue]</b></p></div>","32","","","","","","","",""
"","practice_q3","234","768724","0.0-223.0-2.0","""event"",""trial"",""time""
""fullscreenenter"",""0"",""6310""
","
","
","""event"",""trial"",""time""
""fullscreenenter"",""0"",""6310""
","
","1143","run_exp/static/audio/clip_16_practice_question.m4a","66","","","","","","","",""
"","correct","235","770863","0.0-224.0-0.0","""event"",""trial"",""time""
""fullscreenenter"",""0"",""6310""
","
","
","""event"",""trial"",""time""
""fullscreenenter"",""0"",""6310""
","
","null","run_exp/static/audio/clip_17_correct.m4a","null","","","","","<div class='center'><p>That's correct!</p></div>","","",""
"","html-keyboard-response","236","771501","0.0-224.0-1.0","""event"",""trial"",""time""
""fullscreenenter"",""0"",""6310""
","
","
","""event"",""trial"",""time""
""fullscreenenter"",""0"",""6310""
","
","636.6999999992549","<div class='center'><p>That's correct!</p><div><p><b>[Press the space bar to continue]</b></p></div>","32","","","","","","","",""
"","repeat","237","776409","0.0-225.0-0.0","""event"",""trial"",""time""
""fullscreenenter"",""0"",""6310""
","
","
","""event"",""trial"",""time""
""fullscreenenter"",""0"",""6310""
","
","null","run_exp/static/audio/clip_21_practice_again.m4a","null","","","","","<div class='center'><p>Oops. you missed at least one of these questions. Let's try practicing again. </p></div>","","",""
"","html-keyboard-response","238","777640","0.0-225.0-1.0","""event"",""trial"",""time""
""fullscreenenter"",""0"",""6310""
","
","
","""event"",""trial"",""time""
""fullscreenenter"",""0"",""6310""
","
","1228","<div class='center'><p>Oops. you missed at least one of these questions. Let's try practicing again. </p><div><p><b>[Press the space bar to continue]</b></p></div>","32","","","","","","","",""
"","practice_q1","239","800531","0.0-225.0-2.0","""event"",""trial"",""time""
""fullscreenenter"",""0"",""6310""
","
","
","""event"",""trial"",""time""
""fullscreenenter"",""0"",""6310""
","
","22889.20000000298","run_exp/static/audio/clip_16_practice_question.m4a","78","","","","","","","",""
"","correct","240","802508","0.0-226.0-0.0","""event"",""trial"",""time""
""fullscreenenter"",""0"",""6310""
","
","
","""event"",""trial"",""time""
""fullscreenenter"",""0"",""6310""
","
","null","run_exp/static/audio/clip_17_correct.m4a","null","","","","","<div class='center'><p>That's correct!</p></div>","","",""
"","html-keyboard-response","241","805024","0.0-226.0-1.0","""event"",""trial"",""time""
""fullscreenenter"",""0"",""6310""
","
","
","""event"",""trial"",""time""
""fullscreenenter"",""0"",""6310""
","
","2513.89999999851","<div class='center'><p>That's correct!</p><div><p><b>[Press the space bar to continue]</b></p></div>","32","","","","","","","",""
"","practice_q2","242","810254","0.0-226.0-2.0","""event"",""trial"",""time""
""fullscreenenter"",""0"",""6310""
","
","
","""event"",""trial"",""time""
""fullscreenenter"",""0"",""6310""
","
","5227.599999997765","run_exp/static/audio/clip_16_practice_question.m4a","86","","","","","","","",""
"","correct","243","812320","0.0-227.0-0.0","""event"",""trial"",""time""
""fullscreenenter"",""0"",""6310""
","
","
","""event"",""trial"",""time""
""fullscreenenter"",""0"",""6310""
","
","null","run_exp/static/audio/clip_17_correct.m4a","null","","","","","<div class='center'><p>That's correct!</p></div>","","",""
"","html-keyboard-response","244","812842","0.0-227.0-1.0","""event"",""trial"",""time""
""fullscreenenter"",""0"",""6310""
","
","
","""event"",""trial"",""time""
""fullscreenenter"",""0"",""6310""
","
","520.5","<div class='center'><p>That's correct!</p><div><p><b>[Press the space bar to continue]</b></p></div>","32","","","","","","","",""
"","practice_q3","245","814034","0.0-227.0-2.0","""event"",""trial"",""time""
""fullscreenenter"",""0"",""6310""
","
","
","""event"",""trial"",""time""
""fullscreenenter"",""0"",""6310""
","
","1188.4000000022352","run_exp/static/audio/clip_16_practice_question.m4a","66","","","","","","","",""
"","correct","246","816417","0.0-228.0-0.0","""event"",""trial"",""time""
""fullscreenenter"",""0"",""6310""
","
","
","""event"",""trial"",""time""
""fullscreenenter"",""0"",""6310""
","
","null","run_exp/static/audio/clip_17_correct.m4a","null","","","","","<div class='center'><p>That's correct!</p></div>","","",""
"","html-keyboard-response","247","817198","0.0-228.0-1.0","""event"",""trial"",""time""
""fullscreenenter"",""0"",""6310""
","
","
","""event"",""trial"",""time""
""fullscreenenter"",""0"",""6310""
","
","778.5","<div class='center'><p>That's correct!</p><div><p><b>[Press the space bar to continue]</b></p></div>","32","","","","","","","",""
"","begin_text","248","835873","0.0-229.0-0.0","""event"",""trial"",""time""
""fullscreenenter"",""0"",""6310""
","
","
","""event"",""trial"",""time""
""fullscreenenter"",""0"",""6310""
","
","null","run_exp/static/audio/clip_22_begin_test.m4a","null","","","","","<div class='center'><p>On to the real game where well test your memory of items from the indoor/outdoor game. For each item, you need to indicate if the item is <b>old</b> by pressing the <b>v</b> key, <b>similar</b> by pressing the <b>b</b> key, or <b>new</b> by pressing the <b>n</b> key. </p></div>","","",""
"","html-keyboard-response","249","836406","0.0-229.0-1.0","""event"",""trial"",""time""
""fullscreenenter"",""0"",""6310""
","
","
","""event"",""trial"",""time""
""fullscreenenter"",""0"",""6310""
","
","531.5999999977648","<div class='center'><p>On to the real game where well test your memory of items from the indoor/outdoor game. For each item, you need to indicate if the item is <b>old</b> by pressing the <b>v</b> key, <b>similar</b> by pressing the <b>b</b> key, or <b>new</b> by pressing the <b>n</b> key. </p><div><p><b>[Press the space bar to continue]</b></p></div>","32","","","","","","","",""
"","image","250","839102","0.0-230.0-0.0","""event"",""trial"",""time""
""fullscreenenter"",""0"",""6310""
","
","
","""event"",""trial"",""time""
""fullscreenenter"",""0"",""6310""
","
","2693.7000000029802","run_exp/static/images/Set 6_rs/047a.jpg","86","","","","","","test","TF","3"
"","show_choice","251","839605","0.0-230.0-1.0","""event"",""trial"",""time""
""fullscreenenter"",""0"",""6310""
","
","
","""event"",""trial"",""time""
""fullscreenenter"",""0"",""6310""
","
","null","run_exp/static/images/Set 6_rs/047a.jpg","null","","","","","","test","TF",""
"","html-keyboard-response","252","840107","0.0-230.0-2.0","""event"",""trial"",""time""
""fullscreenenter"",""0"",""6310""
","
","
","""event"",""trial"",""time""
""fullscreenenter"",""0"",""6310""
","
","null","<p></p>","null","","","","","","","",""
"","image","253","843109","0.0-231.0-0.0","""event"",""trial"",""time""
""fullscreenenter"",""0"",""6310""
","
","
","""event"",""trial"",""time""
""fullscreenenter"",""0"",""6310""
","
","null","run_exp/static/images/Set 6_rs/074b.jpg","null","","","","","","test","TL","4"
"","show_choice","254","843612","0.0-231.0-1.0","""event"",""trial"",""time""
""fullscreenenter"",""0"",""6310""
","
","
","""event"",""trial"",""time""
""fullscreenenter"",""0"",""6310""
","
","null","run_exp/static/images/Set 6_rs/074b.jpg","null","","","","","","test","TL",""
"","html-keyboard-response","255","844114","0.0-231.0-2.0","""event"",""trial"",""time""
""fullscreenenter"",""0"",""6310""
","
","
","""event"",""trial"",""time""
""fullscreenenter"",""0"",""6310""
","
","null","<p></p>","null","","","","","","","",""
"","image","256","847116","0.0-232.0-0.0","""event"",""trial"",""time""
""fullscreenenter"",""0"",""6310""
","
","
","""event"",""trial"",""time""
""fullscreenenter"",""0"",""6310""
","
","null","run_exp/static/images/Set 6_rs/062b.jpg","null","","","","","","test","TL","1"
"","show_choice","257","847619","0.0-232.0-1.0","""event"",""trial"",""time""
""fullscreenenter"",""0"",""6310""
","
","
","""event"",""trial"",""time""
""fullscreenenter"",""0"",""6310""
","
","null","run_exp/static/images/Set 6_rs/062b.jpg","null","","","","","","test","TL",""
"","html-keyboard-response","258","848121","0.0-232.0-2.0","""event"",""trial"",""time""
""fullscreenenter"",""0"",""6310""
","
","
","""event"",""trial"",""time""
""fullscreenenter"",""0"",""6310""
","
","null","<p></p>","null","","","","","","","",""
"","image","259","849817","0.0-233.0-0.0","""event"",""trial"",""time""
""fullscreenenter"",""0"",""6310""
","
","
","""event"",""trial"",""time""
""fullscreenenter"",""0"",""6310""
","
","1694.199999999255","run_exp/static/images/Set 6_rs/154a.jpg","66","","","","","","test","TR","3"
"","show_choice","260","850320","0.0-233.0-1.0","""event"",""trial"",""time""
""fullscreenenter"",""0"",""6310""
","
","
","""event"",""trial"",""time""
""fullscreenenter"",""0"",""6310""
","
","null","run_exp/static/images/Set 6_rs/154a.jpg","null","","","","","","test","TR",""
"","html-keyboard-response","261","850822","0.0-233.0-2.0","""event"",""trial"",""time""
""fullscreenenter"",""0"",""6310""
","
","
","""event"",""trial"",""time""
""fullscreenenter"",""0"",""6310""
","
","null","<p></p>","null","","","","","","","",""
"","image","262","852274","0.0-234.0-0.0","""event"",""trial"",""time""
""fullscreenenter"",""0"",""6310""
","
","
","""event"",""trial"",""time""
""fullscreenenter"",""0"",""6310""
","
","1449.300000000745","run_exp/static/images/Set 6_rs/134a.jpg","86","","","","","","test","TR","3"
"","show_choice","263","852776","0.0-234.0-1.0","""event"",""trial"",""time""
""fullscreenenter"",""0"",""6310""
","
","
","""event"",""trial"",""time""
""fullscreenenter"",""0"",""6310""
","
","null","run_exp/static/images/Set 6_rs/134a.jpg","null","","","","","","test","TR",""
"","html-keyboard-response","264","853278","0.0-234.0-2.0","""event"",""trial"",""time""
""fullscreenenter"",""0"",""6310""
","
","
","""event"",""trial"",""time""
""fullscreenenter"",""0"",""6310""
","
","null","<p></p>","null","","","","","","","",""
"","image","265","854297","0.0-235.0-0.0","""event"",""trial"",""time""
""fullscreenenter"",""0"",""6310""
","
","
","""event"",""trial"",""time""
""fullscreenenter"",""0"",""6310""
","
","1017.1000000014901","run_exp/static/images/Set 6_rs/178a.jpg","78","","","","","","test","TR","3"
"","show_choice","266","854800","0.0-235.0-1.0","""event"",""trial"",""time""
""fullscreenenter"",""0"",""6310""
","
","
","""event"",""trial"",""time""
""fullscreenenter"",""0"",""6310""
","
","null","run_exp/static/images/Set 6_rs/178a.jpg","null","","","","","","test","TR",""
"","html-keyboard-response","267","855302","0.0-235.0-2.0","""event"",""trial"",""time""
""fullscreenenter"",""0"",""6310""
","
","
","""event"",""trial"",""time""
""fullscreenenter"",""0"",""6310""
","
","null","<p></p>","null","","","","","","","",""
"","image","268","856941","0.0-236.0-0.0","""event"",""trial"",""time""
""fullscreenenter"",""0"",""6310""
","
","
","""event"",""trial"",""time""
""fullscreenenter"",""0"",""6310""
","
","1637","run_exp/static/images/Set 6_rs/021a.jpg","78","","","","","","test","TF","2"
"","show_choice","269","857443","0.0-236.0-1.0","""event"",""trial"",""time""
""fullscreenenter"",""0"",""6310""
","
","
","""event"",""trial"",""time""
""fullscreenenter"",""0"",""6310""
","
","null","run_exp/static/images/Set 6_rs/021a.jpg","null","","","","","","test","TF",""
"","html-keyboard-response","270","857945","0.0-236.0-2.0","""event"",""trial"",""time""
""fullscreenenter"",""0"",""6310""
","
","
","""event"",""trial"",""time""
""fullscreenenter"",""0"",""6310""
","
","null","<p></p>","null","","","","","","","",""
"","image","271","859505","0.0-237.0-0.0","""event"",""trial"",""time""
""fullscreenenter"",""0"",""6310""
","
","
","""event"",""trial"",""time""
""fullscreenenter"",""0"",""6310""
","
","1557.4000000022352","run_exp/static/images/Set 6_rs/011a.jpg","78","","","","","","test","TF","3"
"","show_choice","272","860007","0.0-237.0-1.0","""event"",""trial"",""time""
""fullscreenenter"",""0"",""6310""
","
","
","""event"",""trial"",""time""
""fullscreenenter"",""0"",""6310""
","
","null","run_exp/static/images/Set 6_rs/011a.jpg","null","","","","","","test","TF",""
"","html-keyboard-response","273","860510","0.0-237.0-2.0","""event"",""trial"",""time""
""fullscreenenter"",""0"",""6310""
","
","
","""event"",""trial"",""time""
""fullscreenenter"",""0"",""6310""
","
","null","<p></p>","null","","","","","","","",""
"","image","274","862036","0.0-238.0-0.0","""event"",""trial"",""time""
""fullscreenenter"",""0"",""6310""
","
","
","""event"",""trial"",""time""
""fullscreenenter"",""0"",""6310""
","
","1523","run_exp/static/images/Set 6_rs/191b.jpg","66","","","","","","test","TL","2"
"","show_choice","275","862539","0.0-238.0-1.0","""event"",""trial"",""time""
""fullscreenenter"",""0"",""6310""
","
","
","""event"",""trial"",""time""
""fullscreenenter"",""0"",""6310""
","
","null","run_exp/static/images/Set 6_rs/191b.jpg","null","","","","","","test","TL",""
"","html-keyboard-response","276","863041","0.0-238.0-2.0","""event"",""trial"",""time""
""fullscreenenter"",""0"",""6310""
","
","
","""event"",""trial"",""time""
""fullscreenenter"",""0"",""6310""
","
","null","<p></p>","null","","","","","","","",""
"","image","277","864874","0.0-239.0-0.0","""event"",""trial"",""time""
""fullscreenenter"",""0"",""6310""
","
","
","""event"",""trial"",""time""
""fullscreenenter"",""0"",""6310""
","
","1830.5","run_exp/static/images/Set 6_rs/089b.jpg","78","","","","","","test","TL","4"
"","show_choice","278","865376","0.0-239.0-1.0","""event"",""trial"",""time""
""fullscreenenter"",""0"",""6310""
","
","
","""event"",""trial"",""time""
""fullscreenenter"",""0"",""6310""
","
","null","run_exp/static/images/Set 6_rs/089b.jpg","null","","","","","","test","TL",""
"","html-keyboard-response","279","865877","0.0-239.0-2.0","""event"",""trial"",""time""
""fullscreenenter"",""0"",""6310""
","
","
","""event"",""trial"",""time""
""fullscreenenter"",""0"",""6310""
","
","null","<p></p>","null","","","","","","","",""
"","image","280","866935","0.0-240.0-0.0","""event"",""trial"",""time""
""fullscreenenter"",""0"",""6310""
","
","
","""event"",""trial"",""time""
""fullscreenenter"",""0"",""6310""
","
","1054.9000000022352","run_exp/static/images/Set 6_rs/097a.jpg","78","","","","","","test","TF","5"
"","show_choice","281","867437","0.0-240.0-1.0","""event"",""trial"",""time""
""fullscreenenter"",""0"",""6310""
","
","
","""event"",""trial"",""time""
""fullscreenenter"",""0"",""6310""
","
","null","run_exp/static/images/Set 6_rs/097a.jpg","null","","","","","","test","TF",""
"","html-keyboard-response","282","867939","0.0-240.0-2.0","""event"",""trial"",""time""
""fullscreenenter"",""0"",""6310""
","
","
","""event"",""trial"",""time""
""fullscreenenter"",""0"",""6310""
","
","null","<p></p>","null","","","","","","","",""
"","image","283","868991","0.0-241.0-0.0","""event"",""trial"",""time""
""fullscreenenter"",""0"",""6310""
","
","
","""event"",""trial"",""time""
""fullscreenenter"",""0"",""6310""
","
","1049.699999999255","run_exp/static/images/Set 6_rs/057b.jpg","86","","","","","","test","TL","1"
"","show_choice","284","869493","0.0-241.0-1.0","""event"",""trial"",""time""
""fullscreenenter"",""0"",""6310""
","
","
","""event"",""trial"",""time""
""fullscreenenter"",""0"",""6310""
","
","null","run_exp/static/images/Set 6_rs/057b.jpg","null","","","","","","test","TL",""
"","html-keyboard-response","285","869995","0.0-241.0-2.0","""event"",""trial"",""time""
""fullscreenenter"",""0"",""6310""
","
","
","""event"",""trial"",""time""
""fullscreenenter"",""0"",""6310""
","
","null","<p></p>","null","","","","","","","",""
"","image","286","871661","0.0-242.0-0.0","""event"",""trial"",""time""
""fullscreenenter"",""0"",""6310""
","
","
","""event"",""trial"",""time""
""fullscreenenter"",""0"",""6310""
","
","1664.300000000745","run_exp/static/images/Set 6_rs/061a.jpg","78","","","","","","test","TR","5"
"","show_choice","287","872164","0.0-242.0-1.0","""event"",""trial"",""time""
""fullscreenenter"",""0"",""6310""
","
","
","""event"",""trial"",""time""
""fullscreenenter"",""0"",""6310""
","
","null","run_exp/static/images/Set 6_rs/061a.jpg","null","","","","","","test","TR",""
"","html-keyboard-response","288","872665","0.0-242.0-2.0","""event"",""trial"",""time""
""fullscreenenter"",""0"",""6310""
","
","
","""event"",""trial"",""time""
""fullscreenenter"",""0"",""6310""
","
","null","<p></p>","null","","","","","","","",""
"","image","289","873759","0.0-243.0-0.0","""event"",""trial"",""time""
""fullscreenenter"",""0"",""6310""
","
","
","""event"",""trial"",""time""
""fullscreenenter"",""0"",""6310""
","
","1091.199999999255","run_exp/static/images/Set 6_rs/169a.jpg","86","","","","","","test","TR","4"
"","show_choice","290","874261","0.0-243.0-1.0","""event"",""trial"",""time""
""fullscreenenter"",""0"",""6310""
","
","
","""event"",""trial"",""time""
""fullscreenenter"",""0"",""6310""
","
","null","run_exp/static/images/Set 6_rs/169a.jpg","null","","","","","","test","TR",""
"","html-keyboard-response","291","874763","0.0-243.0-2.0","""event"",""trial"",""time""
""fullscreenenter"",""0"",""6310""
","
","
","""event"",""trial"",""time""
""fullscreenenter"",""0"",""6310""
","
","null","<p></p>","null","","","","","","","",""
"","image","292","876379","0.0-244.0-0.0","""event"",""trial"",""time""
""fullscreenenter"",""0"",""6310""
","
","
","""event"",""trial"",""time""
""fullscreenenter"",""0"",""6310""
","
","1613.2000000029802","run_exp/static/images/Set 6_rs/155a.jpg","78","","","","","","test","TF","4"
"","show_choice","293","876881","0.0-244.0-1.0","""event"",""trial"",""time""
""fullscreenenter"",""0"",""6310""
","
","
","""event"",""trial"",""time""
""fullscreenenter"",""0"",""6310""
","
","null","run_exp/static/images/Set 6_rs/155a.jpg","null","","","","","","test","TF",""
"","html-keyboard-response","294","877383","0.0-244.0-2.0","""event"",""trial"",""time""
""fullscreenenter"",""0"",""6310""
","
","
","""event"",""trial"",""time""
""fullscreenenter"",""0"",""6310""
","
","null","<p></p>","null","","","","","","","",""
"","image","295","878301","0.0-245.0-0.0","""event"",""trial"",""time""
""fullscreenenter"",""0"",""6310""
","
","
","""event"",""trial"",""time""
""fullscreenenter"",""0"",""6310""
","
","916.3000000007451","run_exp/static/images/Set 6_rs/001a.jpg","78","","","","","","test","TF","1"
"","show_choice","296","878803","0.0-245.0-1.0","""event"",""trial"",""time""
""fullscreenenter"",""0"",""6310""
","
","
","""event"",""trial"",""time""
""fullscreenenter"",""0"",""6310""
","
","null","run_exp/static/images/Set 6_rs/001a.jpg","null","","","","","","test","TF",""
"","html-keyboard-response","297","879305","0.0-245.0-2.0","""event"",""trial"",""time""
""fullscreenenter"",""0"",""6310""
","
","
","""event"",""trial"",""time""
""fullscreenenter"",""0"",""6310""
","
","null","<p></p>","null","","","","","","","",""
"","image","298","880253","0.0-246.0-0.0","""event"",""trial"",""time""
""fullscreenenter"",""0"",""6310""
","
","
","""event"",""trial"",""time""
""fullscreenenter"",""0"",""6310""
","
","945.5","run_exp/static/images/Set 6_rs/166a.jpg","66","","","","","","test","TR","1"
"","show_choice","299","880755","0.0-246.0-1.0","""event"",""trial"",""time""
""fullscreenenter"",""0"",""6310""
","
","
","""event"",""trial"",""time""
""fullscreenenter"",""0"",""6310""
","
","null","run_exp/static/images/Set 6_rs/166a.jpg","null","","","","","","test","TR",""
"","html-keyboard-response","300","881257","0.0-246.0-2.0","""event"",""trial"",""time""
""fullscreenenter"",""0"",""6310""
","
","
","""event"",""trial"",""time""
""fullscreenenter"",""0"",""6310""
","
","null","<p></p>","null","","","","","","","",""
"","image","301","882221","0.0-247.0-0.0","""event"",""trial"",""time""
""fullscreenenter"",""0"",""6310""
","
","
","""event"",""trial"",""time""
""fullscreenenter"",""0"",""6310""
","
","961.9000000022352","run_exp/static/images/Set 6_rs/045a.jpg","86","","","","","","test","TR","2"
"","show_choice","302","882723","0.0-247.0-1.0","""event"",""trial"",""time""
""fullscreenenter"",""0"",""6310""
","
","
","""event"",""trial"",""time""
""fullscreenenter"",""0"",""6310""
","
","null","run_exp/static/images/Set 6_rs/045a.jpg","null","","","","","","test","TR",""
"","html-keyboard-response","303","883225","0.0-247.0-2.0","""event"",""trial"",""time""
""fullscreenenter"",""0"",""6310""
","
","
","""event"",""trial"",""time""
""fullscreenenter"",""0"",""6310""
","
","null","<p></p>","null","","","","","","","",""
"","image","304","884375","0.0-248.0-0.0","""event"",""trial"",""time""
""fullscreenenter"",""0"",""6310""
","
","
","""event"",""trial"",""time""
""fullscreenenter"",""0"",""6310""
","
","1147.5","run_exp/static/images/Set 6_rs/136a.jpg","78","","","","","","test","TF","4"
"","show_choice","305","884877","0.0-248.0-1.0","""event"",""trial"",""time""
""fullscreenenter"",""0"",""6310""
","
","
","""event"",""trial"",""time""
""fullscreenenter"",""0"",""6310""
","
","null","run_exp/static/images/Set 6_rs/136a.jpg","null","","","","","","test","TF",""
"","html-keyboard-response","306","885380","0.0-248.0-2.0","""event"",""trial"",""time""
""fullscreenenter"",""0"",""6310""
","
","
","""event"",""trial"",""time""
""fullscreenenter"",""0"",""6310""
","
","null","<p></p>","null","","","","","","","",""
"","image","307","886391","0.0-249.0-0.0","""event"",""trial"",""time""
""fullscreenenter"",""0"",""6310""
","
","
","""event"",""trial"",""time""
""fullscreenenter"",""0"",""6310""
","
","1008.6999999992549","run_exp/static/images/Set 6_rs/129b.jpg","86","","","","","","test","TL","1"
"","show_choice","308","886893","0.0-249.0-1.0","""event"",""trial"",""time""
""fullscreenenter"",""0"",""6310""
","
","
","""event"",""trial"",""time""
""fullscreenenter"",""0"",""6310""
","
","null","run_exp/static/images/Set 6_rs/129b.jpg","null","","","","","","test","TL",""
"","html-keyboard-response","309","887395","0.0-249.0-2.0","""event"",""trial"",""time""
""fullscreenenter"",""0"",""6310""
","
","
","""event"",""trial"",""time""
""fullscreenenter"",""0"",""6310""
","
","null","<p></p>","null","","","","","","","",""
"","image","310","888822","0.0-250.0-0.0","""event"",""trial"",""time""
""fullscreenenter"",""0"",""6310""
","
","
","""event"",""trial"",""time""
""fullscreenenter"",""0"",""6310""
","
","1423.5","run_exp/static/images/Set 6_rs/116b.jpg","66","","","","","","test","TL","2"
"","show_choice","311","889325","0.0-250.0-1.0","""event"",""trial"",""time""
""fullscreenenter"",""0"",""6310""
","
","
","""event"",""trial"",""time""
""fullscreenenter"",""0"",""6310""
","
","null","run_exp/static/images/Set 6_rs/116b.jpg","null","","","","","","test","TL",""
"","html-keyboard-response","312","889827","0.0-250.0-2.0","""event"",""trial"",""time""
""fullscreenenter"",""0"",""6310""
","
","
","""event"",""trial"",""time""
""fullscreenenter"",""0"",""6310""
","
","null","<p></p>","null","","","","","","","",""
"","image","313","891376","0.0-251.0-0.0","""event"",""trial"",""time""
""fullscreenenter"",""0"",""6310""
","
","
","""event"",""trial"",""time""
""fullscreenenter"",""0"",""6310""
","
","1547.300000000745","run_exp/static/images/Set 6_rs/016b.jpg","66","","","","","","test","TL","1"
"","show_choice","314","891879","0.0-251.0-1.0","""event"",""trial"",""time""
""fullscreenenter"",""0"",""6310""
","
","
","""event"",""trial"",""time""
""fullscreenenter"",""0"",""6310""
","
","null","run_exp/static/images/Set 6_rs/016b.jpg","null","","","","","","test","TL",""
"","html-keyboard-response","315","892381","0.0-251.0-2.0","""event"",""trial"",""time""
""fullscreenenter"",""0"",""6310""
","
","
","""event"",""trial"",""time""
""fullscreenenter"",""0"",""6310""
","
","null","<p></p>","null","","","","","","","",""
"","image","316","893554","0.0-252.0-0.0","""event"",""trial"",""time""
""fullscreenenter"",""0"",""6310""
","
","
","""event"",""trial"",""time""
""fullscreenenter"",""0"",""6310""
","
","1170.6000000014901","run_exp/static/images/Set 6_rs/149a.jpg","66","","","","","","test","TF","1"
"","show_choice","317","894056","0.0-252.0-1.0","""event"",""trial"",""time""
""fullscreenenter"",""0"",""6310""
","
","
","""event"",""trial"",""time""
""fullscreenenter"",""0"",""6310""
","
","null","run_exp/static/images/Set 6_rs/149a.jpg","null","","","","","","test","TF",""
"","html-keyboard-response","318","894559","0.0-252.0-2.0","""event"",""trial"",""time""
""fullscreenenter"",""0"",""6310""
","
","
","""event"",""trial"",""time""
""fullscreenenter"",""0"",""6310""
","
","null","<p></p>","null","","","","","","","",""
"","image","319","896045","0.0-253.0-0.0","""event"",""trial"",""time""
""fullscreenenter"",""0"",""6310""
","
","
","""event"",""trial"",""time""
""fullscreenenter"",""0"",""6310""
","
","1484.300000000745","run_exp/static/images/Set 6_rs/105a.jpg","78","","","","","","test","TF","5"
"","show_choice","320","896548","0.0-253.0-1.0","""event"",""trial"",""time""
""fullscreenenter"",""0"",""6310""
","
","
","""event"",""trial"",""time""
""fullscreenenter"",""0"",""6310""
","
","null","run_exp/static/images/Set 6_rs/105a.jpg","null","","","","","","test","TF",""
"","html-keyboard-response","321","897050","0.0-253.0-2.0","""event"",""trial"",""time""
""fullscreenenter"",""0"",""6310""
","
","
","""event"",""trial"",""time""
""fullscreenenter"",""0"",""6310""
","
","null","<p></p>","null","","","","","","","",""
"","image","322","898451","0.0-254.0-0.0","""event"",""trial"",""time""
""fullscreenenter"",""0"",""6310""
","
","
","""event"",""trial"",""time""
""fullscreenenter"",""0"",""6310""
","
","1398.6000000014901","run_exp/static/images/Set 6_rs/095b.jpg","78","","","","","","test","TL","5"
"","show_choice","323","898954","0.0-254.0-1.0","""event"",""trial"",""time""
""fullscreenenter"",""0"",""6310""
","
","
","""event"",""trial"",""time""
""fullscreenenter"",""0"",""6310""
","
","null","run_exp/static/images/Set 6_rs/095b.jpg","null","","","","","","test","TL",""
"","html-keyboard-response","324","899456","0.0-254.0-2.0","""event"",""trial"",""time""
""fullscreenenter"",""0"",""6310""
","
","
","""event"",""trial"",""time""
""fullscreenenter"",""0"",""6310""
","
","null","<p></p>","null","","","","","","","",""
"","image","325","900643","0.0-255.0-0.0","""event"",""trial"",""time""
""fullscreenenter"",""0"",""6310""
","
","
","""event"",""trial"",""time""
""fullscreenenter"",""0"",""6310""
","
","1185","run_exp/static/images/Set 6_rs/010a.jpg","86","","","","","","test","TR","5"
"","show_choice","326","901145","0.0-255.0-1.0","""event"",""trial"",""time""
""fullscreenenter"",""0"",""6310""
","
","
","""event"",""trial"",""time""
""fullscreenenter"",""0"",""6310""
","
","null","run_exp/static/images/Set 6_rs/010a.jpg","null","","","","","","test","TR",""
"","html-keyboard-response","327","901647","0.0-255.0-2.0","""event"",""trial"",""time""
""fullscreenenter"",""0"",""6310""
","
","
","""event"",""trial"",""time""
""fullscreenenter"",""0"",""6310""
","
","null","<p></p>","null","","","","","","","",""
"","image","328","903414","0.0-256.0-0.0","""event"",""trial"",""time""
""fullscreenenter"",""0"",""6310""
","
","
","""event"",""trial"",""time""
""fullscreenenter"",""0"",""6310""
","
","1764.300000000745","run_exp/static/images/Set 6_rs/078a.jpg","86","","","","","","test","TF","1"
"","show_choice","329","903916","0.0-256.0-1.0","""event"",""trial"",""time""
""fullscreenenter"",""0"",""6310""
","
","
","""event"",""trial"",""time""
""fullscreenenter"",""0"",""6310""
","
","null","run_exp/static/images/Set 6_rs/078a.jpg","null","","","","","","test","TF",""
"","html-keyboard-response","330","904418","0.0-256.0-2.0","""event"",""trial"",""time""
""fullscreenenter"",""0"",""6310""
","
","
","""event"",""trial"",""time""
""fullscreenenter"",""0"",""6310""
","
","null","<p></p>","null","","","","","","","",""
"","image","331","905913","0.0-257.0-0.0","""event"",""trial"",""time""
""fullscreenenter"",""0"",""6310""
","
","
","""event"",""trial"",""time""
""fullscreenenter"",""0"",""6310""
","
","1492.300000000745","run_exp/static/images/Set 6_rs/111b.jpg","66","","","","","","test","TL","3"
"","show_choice","332","906416","0.0-257.0-1.0","""event"",""trial"",""time""
""fullscreenenter"",""0"",""6310""
","
","
","""event"",""trial"",""time""
""fullscreenenter"",""0"",""6310""
","
","null","run_exp/static/images/Set 6_rs/111b.jpg","null","","","","","","test","TL",""
"","html-keyboard-response","333","906918","0.0-257.0-2.0","""event"",""trial"",""time""
""fullscreenenter"",""0"",""6310""
","
","
","""event"",""trial"",""time""
""fullscreenenter"",""0"",""6310""
","
","null","<p></p>","null","","","","","","","",""
"","image","334","908044","0.0-258.0-0.0","""event"",""trial"",""time""
""fullscreenenter"",""0"",""6310""
","
","
","""event"",""trial"",""time""
""fullscreenenter"",""0"",""6310""
","
","1124.5","run_exp/static/images/Set 6_rs/071b.jpg","66","","","","","","test","TL","4"
"","show_choice","335","908547","0.0-258.0-1.0","""event"",""trial"",""time""
""fullscreenenter"",""0"",""6310""
","
","
