"success","trial_type","trial_index","time_elapsed","internal_node_id","interactions","blur_events","focus_events","fullscreenenter_events","fullscreenexit_events","rt","stimulus","key_press","subject_id","participant_id","age","gender","prompt","phase","condition","lure_bin"
"true","fullscreen","0","3114","0.0-0.0","""event"",""trial"",""time""
""fullscreenenter"",""0"",""2137""
","
","
","""event"",""trial"",""time""
""fullscreenenter"",""0"",""2137""
","
","","","","","","","","","","",""
"","pavlovia","1","3120","0.0-1.0","""event"",""trial"",""time""
""fullscreenenter"",""0"",""2137""
","
","
","""event"",""trial"",""time""
""fullscreenenter"",""0"",""2137""
","
","","","","","","","","","","",""
"","welcome","2","37971","0.0-2.0","""event"",""trial"",""time""
""fullscreenenter"",""0"",""2137""
","
","
","""event"",""trial"",""time""
""fullscreenenter"",""0"",""2137""
","
","null","run_exp/static/audio/clip_1_welcome.m4a","null","637","661","11","Female","<div class='center'><p>Welcome to the third part of the study! First, you'll be shown pictures of items one at a time. For each picture, you have to decide if the item is typically found indoors or outdoors.</p><p>If you think it's usually found indoors, then press <b>v</b> key on your keyboard. If you think it's usually found outdoors, then press the <b>n</b> key.There will be reminders on the screen to help you remember which keys to press. </p><p>If you're not sure whether the item is an indoor item or an outdoor item, go ahead and take a guess but try your best not to skip that choice. </p></div>","","",""
"","html-keyboard-response","3","38165","0.0-3.0","""event"",""trial"",""time""
""fullscreenenter"",""0"",""2137""
","
","
","""event"",""trial"",""time""
""fullscreenenter"",""0"",""2137""
","
","190.60000000149012","<div class='center'><p>Welcome to the third part of the study! First, you'll be shown pictures of items one at a time. For each picture, you have to decide if the item is typically found indoors or outdoors.</p><p>If you think it's usually found indoors, then press <b>v</b> key on your keyboard. If you think it's usually found outdoors, then press the <b>n</b> key.There will be reminders on the screen to help you remember which keys to press. </p><p>If you're not sure whether the item is an indoor item or an outdoor item, go ahead and take a guess but try your best not to skip that choice. </p><div><p><b>[Press the space bar to continue]</b></p></div>","32","","","","","","","",""
"","image","4","40168","0.0-4.0","""event"",""trial"",""time""
""fullscreenenter"",""0"",""2137""
","
","
","""event"",""trial"",""time""
""fullscreenenter"",""0"",""2137""
","
","null","run_exp/static/images/Set 6_rs/070a.jpg","null","","","","","","learn","SR",""
"","show_choice","5","42173","0.0-5.0","""event"",""trial"",""time""
""fullscreenenter"",""0"",""2137""
","
","
","""event"",""trial"",""time""
""fullscreenenter"",""0"",""2137""
","
","null","run_exp/static/images/blank.png","null","","","","","","learn","SR",""
"","html-keyboard-response","6","42676","0.0-6.0","""event"",""trial"",""time""
""fullscreenenter"",""0"",""2137""
","
","
","""event"",""trial"",""time""
""fullscreenenter"",""0"",""2137""
","
","null","<p></p>","null","","","","","","","",""
"","image","7","43605","0.0-7.0","""event"",""trial"",""time""
""fullscreenenter"",""0"",""2137""
","
","
","""event"",""trial"",""time""
""fullscreenenter"",""0"",""2137""
","
","927.1000000014901","run_exp/static/images/Set 6_rs/007a.jpg","86","","","","","","learn","SR",""
"","show_choice","8","44679","0.0-8.0","""event"",""trial"",""time""
""fullscreenenter"",""0"",""2137""
","
","
","""event"",""trial"",""time""
""fullscreenenter"",""0"",""2137""
","
","null","run_exp/static/images/Set 6_rs/007a.jpg","null","","","","","","learn","SR",""
"","html-keyboard-response","9","45181","0.0-9.0","""event"",""trial"",""time""
""fullscreenenter"",""0"",""2137""
","
","
","""event"",""trial"",""time""
""fullscreenenter"",""0"",""2137""
","
","null","<p></p>","null","","","","","","","",""
"","image","10","46116","0.0-10.0","""event"",""trial"",""time""
""fullscreenenter"",""0"",""2137""
","
","
","""event"",""trial"",""time""
""fullscreenenter"",""0"",""2137""
","
","933.3000000007451","run_exp/static/images/Set 6_rs/073a.jpg","78","","","","","","learn","SL",""
"","show_choice","11","47186","0.0-11.0","""event"",""trial"",""time""
""fullscreenenter"",""0"",""2137""
","
","
","""event"",""trial"",""time""
""fullscreenenter"",""0"",""2137""
","
","null","run_exp/static/images/Set 6_rs/073a.jpg","null","","","","","","learn","SL",""
"","html-keyboard-response","12","47688","0.0-12.0","""event"",""trial"",""time""
""fullscreenenter"",""0"",""2137""
","
","
","""event"",""trial"",""time""
""fullscreenenter"",""0"",""2137""
","
","null","<p></p>","null","","","","","","","",""
"","image","13","48442","0.0-13.0","""event"",""trial"",""time""
""fullscreenenter"",""0"",""2137""
","
","
","""event"",""trial"",""time""
""fullscreenenter"",""0"",""2137""
","
","750.6999999992549","run_exp/static/images/Set 6_rs/024a.jpg","86","","","","","","learn","SR",""
"","show_choice","14","49694","0.0-14.0","""event"",""trial"",""time""
""fullscreenenter"",""0"",""2137""
","
","
","""event"",""trial"",""time""
""fullscreenenter"",""0"",""2137""
","
","null","run_exp/static/images/Set 6_rs/024a.jpg","null","","","","","","learn","SR",""
"","html-keyboard-response","15","50197","0.0-15.0","""event"",""trial"",""time""
""fullscreenenter"",""0"",""2137""
","
","
","""event"",""trial"",""time""
""fullscreenenter"",""0"",""2137""
","
","null","<p></p>","null","","","","","","","",""
"","image","16","51244","0.0-16.0","""event"",""trial"",""time""
""fullscreenenter"",""0"",""2137""
","
","
","""event"",""trial"",""time""
""fullscreenenter"",""0"",""2137""
","
","1045.2000000029802","run_exp/static/images/Set 6_rs/019a.jpg","78","","","","","","learn","SL",""
"","show_choice","17","52200","0.0-17.0","""event"",""trial"",""time""
""fullscreenenter"",""0"",""2137""
","
","
","""event"",""trial"",""time""
""fullscreenenter"",""0"",""2137""
","
","null","run_exp/static/images/Set 6_rs/019a.jpg","null","","","","","","learn","SL",""
"","html-keyboard-response","18","52701","0.0-18.0","""event"",""trial"",""time""
""fullscreenenter"",""0"",""2137""
","
","
","""event"",""trial"",""time""
""fullscreenenter"",""0"",""2137""
","
","null","<p></p>","null","","","","","","","",""
"","image","19","53518","0.0-19.0","""event"",""trial"",""time""
""fullscreenenter"",""0"",""2137""
","
","
","""event"",""trial"",""time""
""fullscreenenter"",""0"",""2137""
","
","814.6000000014901","run_exp/static/images/Set 6_rs/008a.jpg","86","","","","","","learn","SL",""
"","show_choice","20","54705","0.0-20.0","""event"",""trial"",""time""
""fullscreenenter"",""0"",""2137""
","
","
","""event"",""trial"",""time""
""fullscreenenter"",""0"",""2137""
","
","null","run_exp/static/images/Set 6_rs/008a.jpg","null","","","","","","learn","SL",""
"","html-keyboard-response","21","55207","0.0-21.0","""event"",""trial"",""time""
""fullscreenenter"",""0"",""2137""
","
","
","""event"",""trial"",""time""
""fullscreenenter"",""0"",""2137""
","
","null","<p></p>","null","","","","","","","",""
"","image","22","56469","0.0-22.0","""event"",""trial"",""time""
""fullscreenenter"",""0"",""2137""
","
","
","""event"",""trial"",""time""
""fullscreenenter"",""0"",""2137""
","
","1259.5","run_exp/static/images/Set 6_rs/186a.jpg","86","","","","","","learn","SR",""
"","show_choice","23","57210","0.0-23.0","""event"",""trial"",""time""
""fullscreenenter"",""0"",""2137""
","
","
","""event"",""trial"",""time""
""fullscreenenter"",""0"",""2137""
","
","null","run_exp/static/images/Set 6_rs/186a.jpg","null","","","","","","learn","SR",""
"","html-keyboard-response","24","57713","0.0-24.0","""event"",""trial"",""time""
""fullscreenenter"",""0"",""2137""
","
","
","""event"",""trial"",""time""
""fullscreenenter"",""0"",""2137""
","
","null","<p></p>","null","","","","","","","",""
"","image","25","58792","0.0-25.0","""event"",""trial"",""time""
""fullscreenenter"",""0"",""2137""
","
","
","""event"",""trial"",""time""
""fullscreenenter"",""0"",""2137""
","
","1077.199999999255","run_exp/static/images/Set 6_rs/126a.jpg","86","","","","","","learn","SR",""
"","show_choice","26","59716","0.0-26.0","""event"",""trial"",""time""
""fullscreenenter"",""0"",""2137""
","
","
","""event"",""trial"",""time""
""fullscreenenter"",""0"",""2137""
","
","null","run_exp/static/images/Set 6_rs/126a.jpg","null","","","","","","learn","SR",""
"","html-keyboard-response","27","60218","0.0-27.0","""event"",""trial"",""time""
""fullscreenenter"",""0"",""2137""
","
","
","""event"",""trial"",""time""
""fullscreenenter"",""0"",""2137""
","
","null","<p></p>","null","","","","","","","",""
"","image","28","61175","0.0-28.0","""event"",""trial"",""time""
""fullscreenenter"",""0"",""2137""
","
","
","""event"",""trial"",""time""
""fullscreenenter"",""0"",""2137""
","
","955.4000000022352","run_exp/static/images/Set 6_rs/169a.jpg","78","","","","","","learn","SR",""
"","show_choice","29","62221","0.0-29.0","""event"",""trial"",""time""
""fullscreenenter"",""0"",""2137""
","
","
","""event"",""trial"",""time""
""fullscreenenter"",""0"",""2137""
","
","null","run_exp/static/images/Set 6_rs/169a.jpg","null","","","","","","learn","SR",""
"","html-keyboard-response","30","62723","0.0-30.0","""event"",""trial"",""time""
""fullscreenenter"",""0"",""2137""
","
","
","""event"",""trial"",""time""
""fullscreenenter"",""0"",""2137""
","
","null","<p></p>","null","","","","","","","",""
"","image","31","64027","0.0-31.0","""event"",""trial"",""time""
""fullscreenenter"",""0"",""2137""
","
","
","""event"",""trial"",""time""
""fullscreenenter"",""0"",""2137""
","
","1302.300000000745","run_exp/static/images/Set 6_rs/036a.jpg","86","","","","","","learn","SL",""
"","show_choice","32","64726","0.0-32.0","""event"",""trial"",""time""
""fullscreenenter"",""0"",""2137""
","
","
","""event"",""trial"",""time""
""fullscreenenter"",""0"",""2137""
","
","null","run_exp/static/images/Set 6_rs/036a.jpg","null","","","","","","learn","SL",""
"","html-keyboard-response","33","65229","0.0-33.0","""event"",""trial"",""time""
""fullscreenenter"",""0"",""2137""
","
","
","""event"",""trial"",""time""
""fullscreenenter"",""0"",""2137""
","
","null","<p></p>","null","","","","","","","",""
"","image","34","66432","0.0-34.0","""event"",""trial"",""time""
""fullscreenenter"",""0"",""2137""
","
","
","""event"",""trial"",""time""
""fullscreenenter"",""0"",""2137""
","
","1201.699999999255","run_exp/static/images/Set 6_rs/108a.jpg","78","","","","","","learn","SR",""
"","show_choice","35","67232","0.0-35.0","""event"",""trial"",""time""
""fullscreenenter"",""0"",""2137""
","
","
","""event"",""trial"",""time""
""fullscreenenter"",""0"",""2137""
","
","null","run_exp/static/images/Set 6_rs/108a.jpg","null","","","","","","learn","SR",""
"","html-keyboard-response","36","67734","0.0-36.0","""event"",""trial"",""time""
""fullscreenenter"",""0"",""2137""
","
","
","""event"",""trial"",""time""
""fullscreenenter"",""0"",""2137""
","
","null","<p></p>","null","","","","","","","",""
"","image","37","68710","0.0-37.0","""event"",""trial"",""time""
""fullscreenenter"",""0"",""2137""
","
","
","""event"",""trial"",""time""
""fullscreenenter"",""0"",""2137""
","
","974.8000000007451","run_exp/static/images/Set 6_rs/045a.jpg","86","","","","","","learn","SR",""
"","show_choice","38","69737","0.0-38.0","""event"",""trial"",""time""
""fullscreenenter"",""0"",""2137""
","
","
","""event"",""trial"",""time""
""fullscreenenter"",""0"",""2137""
","
","null","run_exp/static/images/Set 6_rs/045a.jpg","null","","","","","","learn","SR",""
"","html-keyboard-response","39","70238","0.0-39.0","""event"",""trial"",""time""
""fullscreenenter"",""0"",""2137""
","
","
","""event"",""trial"",""time""
""fullscreenenter"",""0"",""2137""
","
","null","<p></p>","null","","","","","","","",""
"","image","40","71033","0.0-40.0","""event"",""trial"",""time""
""fullscreenenter"",""0"",""2137""
","
","
","""event"",""trial"",""time""
""fullscreenenter"",""0"",""2137""
","
","793.6999999992549","run_exp/static/images/Set 6_rs/131a.jpg","86","","","","","","learn","SR",""
"","show_choice","41","72242","0.0-41.0","""event"",""trial"",""time""
""fullscreenenter"",""0"",""2137""
","
","
","""event"",""trial"",""time""
""fullscreenenter"",""0"",""2137""
","
","null","run_exp/static/images/Set 6_rs/131a.jpg","null","","","","","","learn","SR",""
"","html-keyboard-response","42","72744","0.0-42.0","""event"",""trial"",""time""
""fullscreenenter"",""0"",""2137""
","
","
","""event"",""trial"",""time""
""fullscreenenter"",""0"",""2137""
","
","null","<p></p>","null","","","","","","","",""
"","image","43","73471","0.0-43.0","""event"",""trial"",""time""
""fullscreenenter"",""0"",""2137""
","
","
","""event"",""trial"",""time""
""fullscreenenter"",""0"",""2137""
","
","725","run_exp/static/images/Set 6_rs/064a.jpg","86","","","","","","learn","SR",""
"","show_choice","44","74747","0.0-44.0","""event"",""trial"",""time""
""fullscreenenter"",""0"",""2137""
","
","
","""event"",""trial"",""time""
""fullscreenenter"",""0"",""2137""
","
","null","run_exp/static/images/Set 6_rs/064a.jpg","null","","","","","","learn","SR",""
"","html-keyboard-response","45","75249","0.0-45.0","""event"",""trial"",""time""
""fullscreenenter"",""0"",""2137""
","
","
","""event"",""trial"",""time""
""fullscreenenter"",""0"",""2137""
","
","null","<p></p>","null","","","","","","","",""
"","image","46","76106","0.0-46.0","""event"",""trial"",""time""
""fullscreenenter"",""0"",""2137""
","
","
","""event"",""trial"",""time""
""fullscreenenter"",""0"",""2137""
","
","855.5999999977648","run_exp/static/images/Set 6_rs/066a.jpg","78","","","","","","learn","SL",""
"","show_choice","47","77252","0.0-47.0","""event"",""trial"",""time""
""fullscreenenter"",""0"",""2137""
","
","
","""event"",""trial"",""time""
""fullscreenenter"",""0"",""2137""
","
","null","run_exp/static/images/Set 6_rs/066a.jpg","null","","","","","","learn","SL",""
"","html-keyboard-response","48","77753","0.0-48.0","""event"",""trial"",""time""
""fullscreenenter"",""0"",""2137""
","
","
","""event"",""trial"",""time""
""fullscreenenter"",""0"",""2137""
","
","null","<p></p>","null","","","","","","","",""
"","image","49","78643","0.0-49.0","""event"",""trial"",""time""
""fullscreenenter"",""0"",""2137""
","
","
","""event"",""trial"",""time""
""fullscreenenter"",""0"",""2137""
","
","888.6000000014901","run_exp/static/images/Set 6_rs/012a.jpg","78","","","","","","learn","SR",""
"","show_choice","50","79756","0.0-50.0","""event"",""trial"",""time""
""fullscreenenter"",""0"",""2137""
","
","
","""event"",""trial"",""time""
""fullscreenenter"",""0"",""2137""
","
","null","run_exp/static/images/Set 6_rs/012a.jpg","null","","","","","","learn","SR",""
"","html-keyboard-response","51","80257","0.0-51.0","""event"",""trial"",""time""
""fullscreenenter"",""0"",""2137""
","
","
","""event"",""trial"",""time""
""fullscreenenter"",""0"",""2137""
","
","null","<p></p>","null","","","","","","","",""
"","image","52","80866","0.0-52.0","""event"",""trial"",""time""
""fullscreenenter"",""0"",""2137""
","
","
","""event"",""trial"",""time""
""fullscreenenter"",""0"",""2137""
","
","607.4000000022352","run_exp/static/images/Set 6_rs/166a.jpg","86","","","","","","learn","SR",""
"","show_choice","53","82260","0.0-53.0","""event"",""trial"",""time""
""fullscreenenter"",""0"",""2137""
","
","
","""event"",""trial"",""time""
""fullscreenenter"",""0"",""2137""
","
","null","run_exp/static/images/Set 6_rs/166a.jpg","null","","","","","","learn","SR",""
"","html-keyboard-response","54","82761","0.0-54.0","""event"",""trial"",""time""
""fullscreenenter"",""0"",""2137""
","
","
","""event"",""trial"",""time""
""fullscreenenter"",""0"",""2137""
","
","null","<p></p>","null","","","","","","","",""
"","image","55","83685","0.0-55.0","""event"",""trial"",""time""
""fullscreenenter"",""0"",""2137""
","
","
","""event"",""trial"",""time""
""fullscreenenter"",""0"",""2137""
","
","922.5","run_exp/static/images/Set 6_rs/062a.jpg","86","","","","","","learn","SL",""
"","show_choice","56","84765","0.0-56.0","""event"",""trial"",""time""
""fullscreenenter"",""0"",""2137""
","
","
","""event"",""trial"",""time""
""fullscreenenter"",""0"",""2137""
","
","null","run_exp/static/images/Set 6_rs/062a.jpg","null","","","","","","learn","SL",""
"","html-keyboard-response","57","85266","0.0-57.0","""event"",""trial"",""time""
""fullscreenenter"",""0"",""2137""
","
","
","""event"",""trial"",""time""
""fullscreenenter"",""0"",""2137""
","
","null","<p></p>","null","","","","","","","",""
"","image","58","86103","0.0-58.0","""event"",""trial"",""time""
""fullscreenenter"",""0"",""2137""
","
","
","""event"",""trial"",""time""
""fullscreenenter"",""0"",""2137""
","
","834.6999999992549","run_exp/static/images/Set 6_rs/122a.jpg","78","","","","","","learn","SR",""
"","show_choice","59","87270","0.0-59.0","""event"",""trial"",""time""
""fullscreenenter"",""0"",""2137""
","
","
","""event"",""trial"",""time""
""fullscreenenter"",""0"",""2137""
","
","null","run_exp/static/images/Set 6_rs/122a.jpg","null","","","","","","learn","SR",""
"","html-keyboard-response","60","87772","0.0-60.0","""event"",""trial"",""time""
""fullscreenenter"",""0"",""2137""
","
","
","""event"",""trial"",""time""
""fullscreenenter"",""0"",""2137""
","
","null","<p></p>","null","","","","","","","",""
"","image","61","88667","0.0-61.0","""event"",""trial"",""time""
""fullscreenenter"",""0"",""2137""
","
","
","""event"",""trial"",""time""
""fullscreenenter"",""0"",""2137""
","
","893.4000000022352","run_exp/static/images/Set 6_rs/134a.jpg","78","","","","","","learn","SR",""
"","show_choice","62","89775","0.0-62.0","""event"",""trial"",""time""
""fullscreenenter"",""0"",""2137""
","
","
","""event"",""trial"",""time""
""fullscreenenter"",""0"",""2137""
","
","null","run_exp/static/images/Set 6_rs/134a.jpg","null","","","","","","learn","SR",""
"","html-keyboard-response","63","90277","0.0-63.0","""event"",""trial"",""time""
""fullscreenenter"",""0"",""2137""
","
","
","""event"",""trial"",""time""
""fullscreenenter"",""0"",""2137""
","
","null","<p></p>","null","","","","","","","",""
"","image","64","91664","0.0-64.0","""event"",""trial"",""time""
""fullscreenenter"",""0"",""2137""
","
","
","""event"",""trial"",""time""
""fullscreenenter"",""0"",""2137""
","
","1385.5","run_exp/static/images/Set 6_rs/191a.jpg","78","","","","","","learn","SL",""
"","show_choice","65","92280","0.0-65.0","""event"",""trial"",""time""
""fullscreenenter"",""0"",""2137""
","
","
","""event"",""trial"",""time""
""fullscreenenter"",""0"",""2137""
","
","null","run_exp/static/images/Set 6_rs/191a.jpg","null","","","","","","learn","SL",""
"","html-keyboard-response","66","92781","0.0-66.0","""event"",""trial"",""time""
""fullscreenenter"",""0"",""2137""
","
","
","""event"",""trial"",""time""
""fullscreenenter"",""0"",""2137""
","
","null","<p></p>","null","","","","","","","",""
"","image","67","93972","0.0-67.0","""event"",""trial"",""time""
""fullscreenenter"",""0"",""2137""
","
","
","""event"",""trial"",""time""
""fullscreenenter"",""0"",""2137""
","
","1189.300000000745","run_exp/static/images/Set 6_rs/172a.jpg","78","","","","","","learn","SR",""
"","show_choice","68","94784","0.0-68.0","""event"",""trial"",""time""
""fullscreenenter"",""0"",""2137""
","
","
","""event"",""trial"",""time""
""fullscreenenter"",""0"",""2137""
","
","null","run_exp/static/images/Set 6_rs/172a.jpg","null","","","","","","learn","SR",""
"","html-keyboard-response","69","95286","0.0-69.0","""event"",""trial"",""time""
""fullscreenenter"",""0"",""2137""
","
","
","""event"",""trial"",""time""
""fullscreenenter"",""0"",""2137""
","
","null","<p></p>","null","","","","","","","",""
"","image","70","96348","0.0-70.0","""event"",""trial"",""time""
""fullscreenenter"",""0"",""2137""
","
","
","""event"",""trial"",""time""
""fullscreenenter"",""0"",""2137""
","
","1060.300000000745","run_exp/static/images/Set 6_rs/177a.jpg","78","","","","","","learn","SR",""
"","show_choice","71","97288","0.0-71.0","""event"",""trial"",""time""
""fullscreenenter"",""0"",""2137""
","
","
","""event"",""trial"",""time""
""fullscreenenter"",""0"",""2137""
","
","null","run_exp/static/images/Set 6_rs/177a.jpg","null","","","","","","learn","SR",""
"","html-keyboard-response","72","97789","0.0-72.0","""event"",""trial"",""time""
""fullscreenenter"",""0"",""2137""
","
","
","""event"",""trial"",""time""
""fullscreenenter"",""0"",""2137""
","
","null","<p></p>","null","","","","","","","",""
"","image","73","98736","0.0-73.0","""event"",""trial"",""time""
""fullscreenenter"",""0"",""2137""
","
","
","""event"",""trial"",""time""
""fullscreenenter"",""0"",""2137""
","
","945.9000000022352","run_exp/static/images/Set 6_rs/023a.jpg","86","","","","","","learn","SR",""
"","show_choice","74","99792","0.0-74.0","""event"",""trial"",""time""
""fullscreenenter"",""0"",""2137""
","
","
","""event"",""trial"",""time""
""fullscreenenter"",""0"",""2137""
","
","null","run_exp/static/images/Set 6_rs/023a.jpg","null","","","","","","learn","SR",""
"","html-keyboard-response","75","100293","0.0-75.0","""event"",""trial"",""time""
""fullscreenenter"",""0"",""2137""
","
","
","""event"",""trial"",""time""
""fullscreenenter"",""0"",""2137""
","
","null","<p></p>","null","","","","","","","",""
"","image","76","101275","0.0-76.0","""event"",""trial"",""time""
""fullscreenenter"",""0"",""2137""
","
","
","""event"",""trial"",""time""
""fullscreenenter"",""0"",""2137""
","
","980.5999999977648","run_exp/static/images/Set 6_rs/050a.jpg","86","","","","","","learn","SL",""
"","show_choice","77","102297","0.0-77.0","""event"",""trial"",""time""
""fullscreenenter"",""0"",""2137""
","
","
","""event"",""trial"",""time""
""fullscreenenter"",""0"",""2137""
","
","null","run_exp/static/images/Set 6_rs/050a.jpg","null","","","","","","learn","SL",""
"","html-keyboard-response","78","102798","0.0-78.0","""event"",""trial"",""time""
""fullscreenenter"",""0"",""2137""
","
","
","""event"",""trial"",""time""
""fullscreenenter"",""0"",""2137""
","
","null","<p></p>","null","","","","","","","",""
"","image","79","103851","0.0-79.0","""event"",""trial"",""time""
""fullscreenenter"",""0"",""2137""
","
","
","""event"",""trial"",""time""
""fullscreenenter"",""0"",""2137""
","
","1051","run_exp/static/images/Set 6_rs/132a.jpg","78","","","","","","learn","SR",""
"","show_choice","80","104802","0.0-80.0","""event"",""trial"",""time""
""fullscreenenter"",""0"",""2137""
","
","
","""event"",""trial"",""time""
""fullscreenenter"",""0"",""2137""
","
","null","run_exp/static/images/Set 6_rs/132a.jpg","null","","","","","","learn","SR",""
"","html-keyboard-response","81","105303","0.0-81.0","""event"",""trial"",""time""
""fullscreenenter"",""0"",""2137""
","
","
","""event"",""trial"",""time""
""fullscreenenter"",""0"",""2137""
","
","null","<p></p>","null","","","","","","","",""
"","image","82","106622","0.0-82.0","""event"",""trial"",""time""
""fullscreenenter"",""0"",""2137""
","
","
","""event"",""trial"",""time""
""fullscreenenter"",""0"",""2137""
","
","1316.3999999985099","run_exp/static/images/Set 6_rs/016a.jpg","86","","","","","","learn","SL",""
"","show_choice","83","107307","0.0-83.0","""event"",""trial"",""time""
""fullscreenenter"",""0"",""2137""
","
","
","""event"",""trial"",""time""
""fullscreenenter"",""0"",""2137""
","
","null","run_exp/static/images/Set 6_rs/016a.jpg","null","","","","","","learn","SL",""
"","html-keyboard-response","84","107808","0.0-84.0","""event"",""trial"",""time""
""fullscreenenter"",""0"",""2137""
","
","
","""event"",""trial"",""time""
""fullscreenenter"",""0"",""2137""
","
","null","<p></p>","null","","","","","","","",""
"","image","85","109051","0.0-85.0","""event"",""trial"",""time""
""fullscreenenter"",""0"",""2137""
","
","
","""event"",""trial"",""time""
""fullscreenenter"",""0"",""2137""
","
","1241.2999999970198","run_exp/static/images/Set 6_rs/112a.jpg","86","","","","","","learn","SR",""
"","show_choice","86","109812","0.0-86.0","""event"",""trial"",""time""
""fullscreenenter"",""0"",""2137""
","
","
","""event"",""trial"",""time""
""fullscreenenter"",""0"",""2137""
","
","null","run_exp/static/images/Set 6_rs/112a.jpg","null","","","","","","learn","SR",""
"","html-keyboard-response","87","110313","0.0-87.0","""event"",""trial"",""time""
""fullscreenenter"",""0"",""2137""
","
","
","""event"",""trial"",""time""
""fullscreenenter"",""0"",""2137""
","
","null","<p></p>","null","","","","","","","",""
"","image","88","111332","0.0-88.0","""event"",""trial"",""time""
""fullscreenenter"",""0"",""2137""
","
","
","""event"",""trial"",""time""
""fullscreenenter"",""0"",""2137""
","
","1017.8999999985099","run_exp/static/images/Set 6_rs/079a.jpg","86","","","","","","learn","SL",""
"","show_choice","89","112317","0.0-89.0","""event"",""trial"",""time""
""fullscreenenter"",""0"",""2137""
","
","
","""event"",""trial"",""time""
""fullscreenenter"",""0"",""2137""
","
","null","run_exp/static/images/Set 6_rs/079a.jpg","null","","","","","","learn","SL",""
"","html-keyboard-response","90","112819","0.0-90.0","""event"",""trial"",""time""
""fullscreenenter"",""0"",""2137""
","
","
","""event"",""trial"",""time""
""fullscreenenter"",""0"",""2137""
","
","null","<p></p>","null","","","","","","","",""
"","image","91","113920","0.0-91.0","""event"",""trial"",""time""
""fullscreenenter"",""0"",""2137""
","
","
","""event"",""trial"",""time""
""fullscreenenter"",""0"",""2137""
","
","1099.5999999977648","run_exp/static/images/Set 6_rs/006a.jpg","86","","","","","","learn","SL",""
"","show_choice","92","114822","0.0-92.0","""event"",""trial"",""time""
""fullscreenenter"",""0"",""2137""
","
","
","""event"",""trial"",""time""
""fullscreenenter"",""0"",""2137""
","
","null","run_exp/static/images/Set 6_rs/006a.jpg","null","","","","","","learn","SL",""
"","html-keyboard-response","93","115323","0.0-93.0","""event"",""trial"",""time""
""fullscreenenter"",""0"",""2137""
","
","
","""event"",""trial"",""time""
""fullscreenenter"",""0"",""2137""
","
","null","<p></p>","null","","","","","","","",""
"","image","94","116526","0.0-94.0","""event"",""trial"",""time""
""fullscreenenter"",""0"",""2137""
","
","
","""event"",""trial"",""time""
""fullscreenenter"",""0"",""2137""
","
","1201","run_exp/static/images/Set 6_rs/129a.jpg","86","","","","","","learn","SL",""
"","show_choice","95","117327","0.0-95.0","""event"",""trial"",""time""
""fullscreenenter"",""0"",""2137""
","
","
","""event"",""trial"",""time""
""fullscreenenter"",""0"",""2137""
","
","null","run_exp/static/images/Set 6_rs/129a.jpg","null","","","","","","learn","SL",""
"","html-keyboard-response","96","117830","0.0-96.0","""event"",""trial"",""time""
""fullscreenenter"",""0"",""2137""
","
","
","""event"",""trial"",""time""
""fullscreenenter"",""0"",""2137""
","
","null","<p></p>","null","","","","","","","",""
"","image","97","118823","0.0-97.0","""event"",""trial"",""time""
""fullscreenenter"",""0"",""2137""
","
","
","""event"",""trial"",""time""
""fullscreenenter"",""0"",""2137""
","
","991.3000000007451","run_exp/static/images/Set 6_rs/057a.jpg","86","","","","","","learn","SL",""
"","show_choice","98","119833","0.0-98.0","""event"",""trial"",""time""
""fullscreenenter"",""0"",""2137""
","
","
","""event"",""trial"",""time""
""fullscreenenter"",""0"",""2137""
","
","null","run_exp/static/images/Set 6_rs/057a.jpg","null","","","","","","learn","SL",""
"","html-keyboard-response","99","120334","0.0-99.0","""event"",""trial"",""time""
""fullscreenenter"",""0"",""2137""
","
","
","""event"",""trial"",""time""
""fullscreenenter"",""0"",""2137""
","
","null","<p></p>","null","","","","","","","",""
"","image","100","121354","0.0-100.0","""event"",""trial"",""time""
""fullscreenenter"",""0"",""2137""
","
","
","""event"",""trial"",""time""
""fullscreenenter"",""0"",""2137""
","
","1018.6999999992549","run_exp/static/images/Set 6_rs/074a.jpg","78","","","","","","learn","SL",""
"","show_choice","101","122337","0.0-101.0","""event"",""trial"",""time""
""fullscreenenter"",""0"",""2137""
","
","
","""event"",""trial"",""time""
""fullscreenenter"",""0"",""2137""
","
","null","run_exp/static/images/Set 6_rs/074a.jpg","null","","","","","","learn","SL",""
"","html-keyboard-response","102","122840","0.0-102.0","""event"",""trial"",""time""
""fullscreenenter"",""0"",""2137""
","
","
","""event"",""trial"",""time""
""fullscreenenter"",""0"",""2137""
","
","null","<p></p>","null","","","","","","","",""
"","image","103","124455","0.0-103.0","""event"",""trial"",""time""
""fullscreenenter"",""0"",""2137""
","
","
","""event"",""trial"",""time""
""fullscreenenter"",""0"",""2137""
","
","1613.199999999255","run_exp/static/images/Set 6_rs/014a.jpg","86","","","","","","learn","SL",""
"","show_choice","104","124843","0.0-104.0","""event"",""trial"",""time""
""fullscreenenter"",""0"",""2137""
","
","
","""event"",""trial"",""time""
""fullscreenenter"",""0"",""2137""
","
","null","run_exp/static/images/Set 6_rs/014a.jpg","null","","","","","","learn","SL",""
"","html-keyboard-response","105","125345","0.0-105.0","""event"",""trial"",""time""
""fullscreenenter"",""0"",""2137""
","
","
","""event"",""trial"",""time""
""fullscreenenter"",""0"",""2137""
","
","null","<p></p>","null","","","","","","","",""
"","image","106","126454","0.0-106.0","""event"",""trial"",""time""
""fullscreenenter"",""0"",""2137""
","
","
","""event"",""trial"",""time""
""fullscreenenter"",""0"",""2137""
","
","1106.800000000745","run_exp/static/images/Set 6_rs/150a.jpg","86","","","","","","learn","SR",""
"","show_choice","107","127350","0.0-107.0","""event"",""trial"",""time""
""fullscreenenter"",""0"",""2137""
","
","
","""event"",""trial"",""time""
""fullscreenenter"",""0"",""2137""
","
","null","run_exp/static/images/Set 6_rs/150a.jpg","null","","","","","","learn","SR",""
"","html-keyboard-response","108","127851","0.0-108.0","""event"",""trial"",""time""
""fullscreenenter"",""0"",""2137""
","
","
","""event"",""trial"",""time""
""fullscreenenter"",""0"",""2137""
","
","null","<p></p>","null","","","","","","","",""
"","image","109","129056","0.0-109.0","""event"",""trial"",""time""
""fullscreenenter"",""0"",""2137""
","
","
","""event"",""trial"",""time""
""fullscreenenter"",""0"",""2137""
","
","1202.8999999985099","run_exp/static/images/Set 6_rs/123a.jpg","78","","","","","","learn","SL",""
"","show_choice","110","129854","0.0-110.0","""event"",""trial"",""time""
""fullscreenenter"",""0"",""2137""
","
","
","""event"",""trial"",""time""
""fullscreenenter"",""0"",""2137""
","
","null","run_exp/static/images/Set 6_rs/123a.jpg","null","","","","","","learn","SL",""
"","html-keyboard-response","111","130356","0.0-111.0","""event"",""trial"",""time""
""fullscreenenter"",""0"",""2137""
","
","
","""event"",""trial"",""time""
""fullscreenenter"",""0"",""2137""
","
","null","<p></p>","null","","","","","","","",""
"","image","112","131348","0.0-112.0","""event"",""trial"",""time""
""fullscreenenter"",""0"",""2137""
","
","
","""event"",""trial"",""time""
""fullscreenenter"",""0"",""2137""
","
","990.1999999992549","run_exp/static/images/Set 6_rs/117a.jpg","78","","","","","","learn","SL",""
"","show_choice","113","132361","0.0-113.0","""event"",""trial"",""time""
""fullscreenenter"",""0"",""2137""
","
","
","""event"",""trial"",""time""
""fullscreenenter"",""0"",""2137""
","
","null","run_exp/static/images/Set 6_rs/117a.jpg","null","","","","","","learn","SL",""
"","html-keyboard-response","114","132862","0.0-114.0","""event"",""trial"",""time""
""fullscreenenter"",""0"",""2137""
","
","
","""event"",""trial"",""time""
""fullscreenenter"",""0"",""2137""
","
","null","<p></p>","null","","","","","","","",""
"","image","115","133613","0.0-115.0","""event"",""trial"",""time""
""fullscreenenter"",""0"",""2137""
","
","
","""event"",""trial"",""time""
""fullscreenenter"",""0"",""2137""
","
","749.5","run_exp/static/images/Set 6_rs/061a.jpg","78","","","","","","learn","SR",""
"","show_choice","116","134865","0.0-116.0","""event"",""trial"",""time""
""fullscreenenter"",""0"",""2137""
","
","
","""event"",""trial"",""time""
""fullscreenenter"",""0"",""2137""
","
","null","run_exp/static/images/Set 6_rs/061a.jpg","null","","","","","","learn","SR",""
"","html-keyboard-response","117","135368","0.0-117.0","""event"",""trial"",""time""
""fullscreenenter"",""0"",""2137""
","
","
","""event"",""trial"",""time""
""fullscreenenter"",""0"",""2137""
","
","null","<p></p>","null","","","","","","","",""
"","image","118","136442","0.0-118.0","""event"",""trial"",""time""
""fullscreenenter"",""0"",""2137""
","
","
","""event"",""trial"",""time""
""fullscreenenter"",""0"",""2137""
","
","1072.6000000014901","run_exp/static/images/Set 6_rs/111a.jpg","86","","","","","","learn","SL",""
"","show_choice","119","137371","0.0-119.0","""event"",""trial"",""time""
""fullscreenenter"",""0"",""2137""
","
","
","""event"",""trial"",""time""
""fullscreenenter"",""0"",""2137""
","
","null","run_exp/static/images/Set 6_rs/111a.jpg","null","","","","","","learn","SL",""
"","html-keyboard-response","120","137873","0.0-120.0","""event"",""trial"",""time""
""fullscreenenter"",""0"",""2137""
","
","
","""event"",""trial"",""time""
""fullscreenenter"",""0"",""2137""
","
","null","<p></p>","null","","","","","","","",""
"","image","121","139327","0.0-121.0","""event"",""trial"",""time""
""fullscreenenter"",""0"",""2137""
","
","
","""event"",""trial"",""time""
""fullscreenenter"",""0"",""2137""
","
","1453.0999999977648","run_exp/static/images/Set 6_rs/017a.jpg","78","","","","","","learn","SL",""
"","show_choice","122","139875","0.0-122.0","""event"",""trial"",""time""
""fullscreenenter"",""0"",""2137""
","
","
","""event"",""trial"",""time""
""fullscreenenter"",""0"",""2137""
","
","null","run_exp/static/images/Set 6_rs/017a.jpg","null","","","","","","learn","SL",""
"","html-keyboard-response","123","140376","0.0-123.0","""event"",""trial"",""time""
""fullscreenenter"",""0"",""2137""
","
","
","""event"",""trial"",""time""
""fullscreenenter"",""0"",""2137""
","
","null","<p></p>","null","","","","","","","",""
"","image","124","141271","0.0-124.0","""event"",""trial"",""time""
""fullscreenenter"",""0"",""2137""
","
","
","""event"",""trial"",""time""
""fullscreenenter"",""0"",""2137""
","
","894","run_exp/static/images/Set 6_rs/071a.jpg","86","","","","","","learn","SL",""
"","show_choice","125","142379","0.0-125.0","""event"",""trial"",""time""
""fullscreenenter"",""0"",""2137""
","
","
","""event"",""trial"",""time""
""fullscreenenter"",""0"",""2137""
","
","null","run_exp/static/images/Set 6_rs/071a.jpg","null","","","","","","learn","SL",""
"","html-keyboard-response","126","142880","0.0-126.0","""event"",""trial"",""time""
""fullscreenenter"",""0"",""2137""
","
","
","""event"",""trial"",""time""
""fullscreenenter"",""0"",""2137""
","
","null","<p></p>","null","","","","","","","",""
"","image","127","144244","0.0-127.0","""event"",""trial"",""time""
""fullscreenenter"",""0"",""2137""
","
","
","""event"",""trial"",""time""
""fullscreenenter"",""0"",""2137""
","
","1362.2999999970198","run_exp/static/images/Set 6_rs/055a.jpg","86","","","","","","learn","SL",""
"","show_choice","128","144883","0.0-128.0","""event"",""trial"",""time""
""fullscreenenter"",""0"",""2137""
","
","
","""event"",""trial"",""time""
""fullscreenenter"",""0"",""2137""
","
","null","run_exp/static/images/Set 6_rs/055a.jpg","null","","","","","","learn","SL",""
"","html-keyboard-response","129","145384","0.0-129.0","""event"",""trial"",""time""
""fullscreenenter"",""0"",""2137""
","
","
","""event"",""trial"",""time""
""fullscreenenter"",""0"",""2137""
","
","null","<p></p>","null","","","","","","","",""
"","image","130","146454","0.0-130.0","""event"",""trial"",""time""
""fullscreenenter"",""0"",""2137""
","
","
","""event"",""trial"",""time""
""fullscreenenter"",""0"",""2137""
","
","1068.5","run_exp/static/images/Set 6_rs/121a.jpg","78","","","","","","learn","SR",""
"","show_choice","131","147387","0.0-131.0","""event"",""trial"",""time""
""fullscreenenter"",""0"",""2137""
","
","
","""event"",""trial"",""time""
""fullscreenenter"",""0"",""2137""
","
","null","run_exp/static/images/Set 6_rs/121a.jpg","null","","","","","","learn","SR",""
"","html-keyboard-response","132","147888","0.0-132.0","""event"",""trial"",""time""
""fullscreenenter"",""0"",""2137""
","
","
","""event"",""trial"",""time""
""fullscreenenter"",""0"",""2137""
","
","null","<p></p>","null","","","","","","","",""
"","image","133","148953","0.0-133.0","""event"",""trial"",""time""
""fullscreenenter"",""0"",""2137""
","
","
","""event"",""trial"",""time""
""fullscreenenter"",""0"",""2137""
","
","1063.5","run_exp/static/images/Set 6_rs/178a.jpg","86","","","","","","learn","SR",""
"","show_choice","134","149891","0.0-134.0","""event"",""trial"",""time""
""fullscreenenter"",""0"",""2137""
","
","
","""event"",""trial"",""time""
""fullscreenenter"",""0"",""2137""
","
","null","run_exp/static/images/Set 6_rs/178a.jpg","null","","","","","","learn","SR",""
"","html-keyboard-response","135","150393","0.0-135.0","""event"",""trial"",""time""
""fullscreenenter"",""0"",""2137""
","
","
","""event"",""trial"",""time""
""fullscreenenter"",""0"",""2137""
","
","null","<p></p>","null","","","","","","","",""
"","image","136","151844","0.0-136.0","""event"",""trial"",""time""
""fullscreenenter"",""0"",""2137""
","
","
","""event"",""trial"",""time""
""fullscreenenter"",""0"",""2137""
","
","1449.1000000014901","run_exp/static/images/Set 6_rs/144a.jpg","78","","","","","","learn","SL",""
"","show_choice","137","152396","0.0-137.0","""event"",""trial"",""time""
""fullscreenenter"",""0"",""2137""
","
","
","""event"",""trial"",""time""
""fullscreenenter"",""0"",""2137""
","
","null","run_exp/static/images/Set 6_rs/144a.jpg","null","","","","","","learn","SL",""
"","html-keyboard-response","138","152897","0.0-138.0","""event"",""trial"",""time""
""fullscreenenter"",""0"",""2137""
","
","
","""event"",""trial"",""time""
""fullscreenenter"",""0"",""2137""
","
","null","<p></p>","null","","","","","","","",""
"","image","139","154477","0.0-139.0","""event"",""trial"",""time""
""fullscreenenter"",""0"",""2137""
","
","
","""event"",""trial"",""time""
""fullscreenenter"",""0"",""2137""
","
","1578.1000000014901","run_exp/static/images/Set 6_rs/076a.jpg","78","","","","","","learn","SR",""
"","show_choice","140","154900","0.0-140.0","""event"",""trial"",""time""
""fullscreenenter"",""0"",""2137""
","
","
","""event"",""trial"",""time""
""fullscreenenter"",""0"",""2137""
","
","null","run_exp/static/images/Set 6_rs/076a.jpg","null","","","","","","learn","SR",""
"","html-keyboard-response","141","155402","0.0-141.0","""event"",""trial"",""time""
""fullscreenenter"",""0"",""2137""
","
","
","""event"",""trial"",""time""
""fullscreenenter"",""0"",""2137""
","
","null","<p></p>","null","","","","","","","",""
"","image","142","156089","0.0-142.0","""event"",""trial"",""time""
""fullscreenenter"",""0"",""2137""
","
","
","""event"",""trial"",""time""
""fullscreenenter"",""0"",""2137""
","
","685.0999999977648","run_exp/static/images/Set 6_rs/088a.jpg","78","","","","","","learn","SR",""
"","show_choice","143","157405","0.0-143.0","""event"",""trial"",""time""
""fullscreenenter"",""0"",""2137""
","
","
","""event"",""trial"",""time""
""fullscreenenter"",""0"",""2137""
","
","null","run_exp/static/images/Set 6_rs/088a.jpg","null","","","","","","learn","SR",""
"","html-keyboard-response","144","157907","0.0-144.0","""event"",""trial"",""time""
""fullscreenenter"",""0"",""2137""
","
","
","""event"",""trial"",""time""
""fullscreenenter"",""0"",""2137""
","
","null","<p></p>","null","","","","","","","",""
"","image","145","158698","0.0-145.0","""event"",""trial"",""time""
""fullscreenenter"",""0"",""2137""
","
","
","""event"",""trial"",""time""
""fullscreenenter"",""0"",""2137""
","
","789.3000000007451","run_exp/static/images/Set 6_rs/085a.jpg","78","","","","","","learn","SL",""
"","show_choice","146","159910","0.0-146.0","""event"",""trial"",""time""
""fullscreenenter"",""0"",""2137""
","
","
","""event"",""trial"",""time""
""fullscreenenter"",""0"",""2137""
","
","null","run_exp/static/images/Set 6_rs/085a.jpg","null","","","","","","learn","SL",""
"","html-keyboard-response","147","160411","0.0-147.0","""event"",""trial"",""time""
""fullscreenenter"",""0"",""2137""
","
","
","""event"",""trial"",""time""
""fullscreenenter"",""0"",""2137""
","
","null","<p></p>","null","","","","","","","",""
"","image","148","161420","0.0-148.0","""event"",""trial"",""time""
""fullscreenenter"",""0"",""2137""
","
","
","""event"",""trial"",""time""
""fullscreenenter"",""0"",""2137""
","
","1007.3999999985099","run_exp/static/images/Set 6_rs/010a.jpg","86","","","","","","learn","SR",""
"","show_choice","149","162415","0.0-149.0","""event"",""trial"",""time""
""fullscreenenter"",""0"",""2137""
","
","
","""event"",""trial"",""time""
""fullscreenenter"",""0"",""2137""
","
","null","run_exp/static/images/Set 6_rs/010a.jpg","null","","","","","","learn","SR",""
"","html-keyboard-response","150","162918","0.0-150.0","""event"",""trial"",""time""
""fullscreenenter"",""0"",""2137""
","
","
","""event"",""trial"",""time""
""fullscreenenter"",""0"",""2137""
","
","null","<p></p>","null","","","","","","","",""
"","image","151","163875","0.0-151.0","""event"",""trial"",""time""
""fullscreenenter"",""0"",""2137""
","
","
","""event"",""trial"",""time""
""fullscreenenter"",""0"",""2137""
","
","955.3000000007451","run_exp/static/images/Set 6_rs/187a.jpg","86","","","","","","learn","SR",""
"","show_choice","152","164921","0.0-152.0","""event"",""trial"",""time""
""fullscreenenter"",""0"",""2137""
","
","
","""event"",""trial"",""time""
""fullscreenenter"",""0"",""2137""
","
","null","run_exp/static/images/Set 6_rs/187a.jpg","null","","","","","","learn","SR",""
"","html-keyboard-response","153","165423","0.0-153.0","""event"",""trial"",""time""
""fullscreenenter"",""0"",""2137""
","
","
","""event"",""trial"",""time""
""fullscreenenter"",""0"",""2137""
","
","null","<p></p>","null","","","","","","","",""
"","image","154","166786","0.0-154.0","""event"",""trial"",""time""
""fullscreenenter"",""0"",""2137""
","
","
","""event"",""trial"",""time""
""fullscreenenter"",""0"",""2137""
","
","1361.2999999970198","run_exp/static/images/Set 6_rs/152a.jpg","86","","","","","","learn","SR",""
"","show_choice","155","167426","0.0-155.0","""event"",""trial"",""time""
""fullscreenenter"",""0"",""2137""
","
","
","""event"",""trial"",""time""
""fullscreenenter"",""0"",""2137""
","
","null","run_exp/static/images/Set 6_rs/152a.jpg","null","","","","","","learn","SR",""
"","html-keyboard-response","156","167927","0.0-156.0","""event"",""trial"",""time""
""fullscreenenter"",""0"",""2137""
","
","
","""event"",""trial"",""time""
""fullscreenenter"",""0"",""2137""
","
","null","<p></p>","null","","","","","","","",""
"","image","157","168666","0.0-157.0","""event"",""trial"",""time""
""fullscreenenter"",""0"",""2137""
","
","
","""event"",""trial"",""time""
""fullscreenenter"",""0"",""2137""
","
","736.1000000014901","run_exp/static/images/Set 6_rs/168a.jpg","78","","","","","","learn","SL",""
"","show_choice","158","169932","0.0-158.0","""event"",""trial"",""time""
""fullscreenenter"",""0"",""2137""
","
","
","""event"",""trial"",""time""
""fullscreenenter"",""0"",""2137""
","
","null","run_exp/static/images/Set 6_rs/168a.jpg","null","","","","","","learn","SL",""
"","html-keyboard-response","159","170433","0.0-159.0","""event"",""trial"",""time""
""fullscreenenter"",""0"",""2137""
","
","
","""event"",""trial"",""time""
""fullscreenenter"",""0"",""2137""
","
","null","<p></p>","null","","","","","","","",""
"","image","160","171272","0.0-160.0","""event"",""trial"",""time""
""fullscreenenter"",""0"",""2137""
","
","
","""event"",""trial"",""time""
""fullscreenenter"",""0"",""2137""
","
","837.5","run_exp/static/images/Set 6_rs/025a.jpg","78","","","","","","learn","SL",""
"","show_choice","161","172436","0.0-161.0","""event"",""trial"",""time""
""fullscreenenter"",""0"",""2137""
","
","
","""event"",""trial"",""time""
""fullscreenenter"",""0"",""2137""
","
","null","run_exp/static/images/Set 6_rs/025a.jpg","null","","","","","","learn","SL",""
"","html-keyboard-response","162","172938","0.0-162.0","""event"",""trial"",""time""
""fullscreenenter"",""0"",""2137""
","
","
","""event"",""trial"",""time""
""fullscreenenter"",""0"",""2137""
","
","null","<p></p>","null","","","","","","","",""
"","image","163","173542","0.0-163.0","""event"",""trial"",""time""
""fullscreenenter"",""0"",""2137""
","
","
","""event"",""trial"",""time""
""fullscreenenter"",""0"",""2137""
","
","602.3000000007451","run_exp/static/images/Set 6_rs/063a.jpg","78","","","","","","learn","SR",""
"","show_choice","164","174941","0.0-164.0","""event"",""trial"",""time""
""fullscreenenter"",""0"",""2137""
","
","
","""event"",""trial"",""time""
""fullscreenenter"",""0"",""2137""
","
","null","run_exp/static/images/Set 6_rs/063a.jpg","null","","","","","","learn","SR",""
"","html-keyboard-response","165","175442","0.0-165.0","""event"",""trial"",""time""
""fullscreenenter"",""0"",""2137""
","
","
","""event"",""trial"",""time""
""fullscreenenter"",""0"",""2137""
","
","null","<p></p>","null","","","","","","","",""
"","image","166","176269","0.0-166.0","""event"",""trial"",""time""
""fullscreenenter"",""0"",""2137""
","
","
","""event"",""trial"",""time""
""fullscreenenter"",""0"",""2137""
","
","825.3000000007451","run_exp/static/images/Set 6_rs/091a.jpg","78","","","","","","learn","SL",""
"","show_choice","167","177446","0.0-167.0","""event"",""trial"",""time""
""fullscreenenter"",""0"",""2137""
","
","
","""event"",""trial"",""time""
""fullscreenenter"",""0"",""2137""
","
","null","run_exp/static/images/Set 6_rs/091a.jpg","null","","","","","","learn","SL",""
"","html-keyboard-response","168","177949","0.0-168.0","""event"",""trial"",""time""
""fullscreenenter"",""0"",""2137""
","
","
","""event"",""trial"",""time""
""fullscreenenter"",""0"",""2137""
","
","null","<p></p>","null","","","","","","","",""
"","image","169","178751","0.0-169.0","""event"",""trial"",""time""
""fullscreenenter"",""0"",""2137""
","
","
","""event"",""trial"",""time""
""fullscreenenter"",""0"",""2137""
","
","801.3999999985099","run_exp/static/images/Set 6_rs/181a.jpg","78","","","","","","learn","SL",""
"","show_choice","170","179952","0.0-170.0","""event"",""trial"",""time""
""fullscreenenter"",""0"",""2137""
","
","
","""event"",""trial"",""time""
""fullscreenenter"",""0"",""2137""
","
","null","run_exp/static/images/Set 6_rs/181a.jpg","null","","","","","","learn","SL",""
"","html-keyboard-response","171","180453","0.0-171.0","""event"",""trial"",""time""
""fullscreenenter"",""0"",""2137""
","
","
","""event"",""trial"",""time""
""fullscreenenter"",""0"",""2137""
","
","null","<p></p>","null","","","","","","","",""
"","image","172","181394","0.0-172.0","""event"",""trial"",""time""
""fullscreenenter"",""0"",""2137""
","
","
","""event"",""trial"",""time""
""fullscreenenter"",""0"",""2137""
","
","940.0999999977648","run_exp/static/images/Set 6_rs/154a.jpg","86","","","","","","learn","SR",""
"","show_choice","173","182458","0.0-173.0","""event"",""trial"",""time""
""fullscreenenter"",""0"",""2137""
","
","
","""event"",""trial"",""time""
""fullscreenenter"",""0"",""2137""
","
","null","run_exp/static/images/Set 6_rs/154a.jpg","null","","","","","","learn","SR",""
"","html-keyboard-response","174","182959","0.0-174.0","""event"",""trial"",""time""
""fullscreenenter"",""0"",""2137""
","
","
","""event"",""trial"",""time""
""fullscreenenter"",""0"",""2137""
","
","null","<p></p>","null","","","","","","","",""
"","image","175","183787","0.0-175.0","""event"",""trial"",""time""
""fullscreenenter"",""0"",""2137""
","
","
","""event"",""trial"",""time""
""fullscreenenter"",""0"",""2137""
","
","826.3000000007451","run_exp/static/images/Set 6_rs/095a.jpg","78","","","","","","learn","SL",""
"","show_choice","176","184962","0.0-176.0","""event"",""trial"",""time""
""fullscreenenter"",""0"",""2137""
","
","
","""event"",""trial"",""time""
""fullscreenenter"",""0"",""2137""
","
","null","run_exp/static/images/Set 6_rs/095a.jpg","null","","","","","","learn","SL",""
"","html-keyboard-response","177","185463","0.0-177.0","""event"",""trial"",""time""
""fullscreenenter"",""0"",""2137""
","
","
","""event"",""trial"",""time""
""fullscreenenter"",""0"",""2137""
","
","null","<p></p>","null","","","","","","","",""
"","image","178","186328","0.0-178.0","""event"",""trial"",""time""
""fullscreenenter"",""0"",""2137""
","
","
","""event"",""trial"",""time""
""fullscreenenter"",""0"",""2137""
","
","863.2000000029802","run_exp/static/images/Set 6_rs/167a.jpg","78","","","","","","learn","SL",""
"","show_choice","179","187466","0.0-179.0","""event"",""trial"",""time""
""fullscreenenter"",""0"",""2137""
","
","
","""event"",""trial"",""time""
""fullscreenenter"",""0"",""2137""
","
","null","run_exp/static/images/Set 6_rs/167a.jpg","null","","","","","","learn","SL",""
"","html-keyboard-response","180","187967","0.0-180.0","""event"",""trial"",""time""
""fullscreenenter"",""0"",""2137""
","
","
","""event"",""trial"",""time""
""fullscreenenter"",""0"",""2137""
","
","null","<p></p>","null","","","","","","","",""
"","image","181","188689","0.0-181.0","""event"",""trial"",""time""
""fullscreenenter"",""0"",""2137""
","
","
","""event"",""trial"",""time""
""fullscreenenter"",""0"",""2137""
","
","720.1000000014901","run_exp/static/images/Set 6_rs/075a.jpg","78","","","","","","learn","SR",""
"","show_choice","182","189969","0.0-182.0","""event"",""trial"",""time""
""fullscreenenter"",""0"",""2137""
","
","
","""event"",""trial"",""time""
""fullscreenenter"",""0"",""2137""
","
","null","run_exp/static/images/Set 6_rs/075a.jpg","null","","","","","","learn","SR",""
"","html-keyboard-response","183","190470","0.0-183.0","""event"",""trial"",""time""
""fullscreenenter"",""0"",""2137""
","
","
","""event"",""trial"",""time""
""fullscreenenter"",""0"",""2137""
","
","null","<p></p>","null","","","","","","","",""
"","image","184","191176","0.0-184.0","""event"",""trial"",""time""
""fullscreenenter"",""0"",""2137""
","
","
","""event"",""trial"",""time""
""fullscreenenter"",""0"",""2137""
","
","704.3000000007451","run_exp/static/images/Set 6_rs/138a.jpg","78","","","","","","learn","SL",""
"","show_choice","185","192473","0.0-185.0","""event"",""trial"",""time""
""fullscreenenter"",""0"",""2137""
","
","
","""event"",""trial"",""time""
""fullscreenenter"",""0"",""2137""
","
","null","run_exp/static/images/Set 6_rs/138a.jpg","null","","","","","","learn","SL",""
"","html-keyboard-response","186","192976","0.0-186.0","""event"",""trial"",""time""
""fullscreenenter"",""0"",""2137""
","
","
","""event"",""trial"",""time""
""fullscreenenter"",""0"",""2137""
","
","null","<p></p>","null","","","","","","","",""
"","image","187","194368","0.0-187.0","""event"",""trial"",""time""
""fullscreenenter"",""0"",""2137""
","
","
","""event"",""trial"",""time""
""fullscreenenter"",""0"",""2137""
","
","1390.0999999977648","run_exp/static/images/Set 6_rs/116a.jpg","78","","","","","","learn","SL",""
"","show_choice","188","194978","0.0-188.0","""event"",""trial"",""time""
""fullscreenenter"",""0"",""2137""
","
","
","""event"",""trial"",""time""
""fullscreenenter"",""0"",""2137""
","
","null","run_exp/static/images/Set 6_rs/116a.jpg","null","","","","","","learn","SL",""
"","html-keyboard-response","189","195480","0.0-189.0","""event"",""trial"",""time""
""fullscreenenter"",""0"",""2137""
","
","
","""event"",""trial"",""time""
""fullscreenenter"",""0"",""2137""
","
","null","<p></p>","null","","","","","","","",""
"","image","190","196914","0.0-190.0","""event"",""trial"",""time""
""fullscreenenter"",""0"",""2137""
","
","
","""event"",""trial"",""time""
""fullscreenenter"",""0"",""2137""
","
","1432.199999999255","run_exp/static/images/Set 6_rs/089a.jpg","86","","","","","","learn","SL",""
"","show_choice","191","197483","0.0-191.0","""event"",""trial"",""time""
""fullscreenenter"",""0"",""2137""
","
","
","""event"",""trial"",""time""
""fullscreenenter"",""0"",""2137""
","
","null","run_exp/static/images/Set 6_rs/089a.jpg","null","","","","","","learn","SL",""
"","html-keyboard-response","192","197987","0.0-192.0","""event"",""trial"",""time""
""fullscreenenter"",""0"",""2137""
","
","
","""event"",""trial"",""time""
""fullscreenenter"",""0"",""2137""
","
","null","<p></p>","null","","","","","","","",""
"","image","193","199126","0.0-193.0","""event"",""trial"",""time""
""fullscreenenter"",""0"",""2137""
","
","
","""event"",""trial"",""time""
""fullscreenenter"",""0"",""2137""
","
","1137.3999999985099","run_exp/static/images/Set 6_rs/141a.jpg","78","","","","","","learn","SR",""
"","show_choice","194","199990","0.0-194.0","""event"",""trial"",""time""
""fullscreenenter"",""0"",""2137""
","
","
","""event"",""trial"",""time""
""fullscreenenter"",""0"",""2137""
","
","null","run_exp/static/images/Set 6_rs/141a.jpg","null","","","","","","learn","SR",""
"","html-keyboard-response","195","200492","0.0-195.0","""event"",""trial"",""time""
""fullscreenenter"",""0"",""2137""
","
","
","""event"",""trial"",""time""
""fullscreenenter"",""0"",""2137""
","
","null","<p></p>","null","","","","","","","",""
"","test_intro","196","237320","0.0-196.0","""event"",""trial"",""time""
""fullscreenenter"",""0"",""2137""
","
","
","""event"",""trial"",""time""
""fullscreenenter"",""0"",""2137""
","
","null","run_exp/static/audio/clip_2_memory.m4a","null","","","","","<div class='center'><p>Now, lets see how much you remember about the items you just saw.  For each item, you need to indicate if it was <b>old</b> by pressing the <b>v</b> key, <b>similar</b> by pressing the <b>b</b> key, or <b>new</b> by pressing the <b>n</b> key.</p><p>Old refers to an item that you saw before in the indoor/outdoor game that you just played, new refers to an item you have <b>not</b> seen before within the indoor/outdoor game, and similar refers to an item that is similar to an item youve seen before but is not exactly the same. </p><p>Before we begin, lets go over some brief demonstrations to make sure you understand.</p></div>","","",""
"","html-keyboard-response","197","242826","0.0-197.0","""event"",""trial"",""time""
""fullscreenenter"",""0"",""2137""
","
","
","""event"",""trial"",""time""
""fullscreenenter"",""0"",""2137""
","
","5502.89999999851","<div class='center'><p>Now, lets see how much you remember about the items you just saw.  For each item, you need to indicate if it was <b>old</b> by pressing the <b>v</b> key, <b>similar</b> by pressing the <b>b</b> key, or <b>new</b> by pressing the <b>n</b> key.</p><p>Old refers to an item that you saw before in the indoor/outdoor game that you just played, new refers to an item you have <b>not</b> seen before within the indoor/outdoor game, and similar refers to an item that is similar to an item youve seen before but is not exactly the same. </p><p>Before we begin, lets go over some brief demonstrations to make sure you understand.</p><div><p><b>[Press the space bar to continue]</b></p></div>","32","","","","","","","",""
"","items","198","250329","0.0-198.0","""event"",""trial"",""time""
""fullscreenenter"",""0"",""2137""
","
","
","""event"",""trial"",""time""
""fullscreenenter"",""0"",""2137""
","
","null","run_exp/static/audio/clip_3_items.m4a","null","","","","","","","",""
"","mop","199","254831","0.0-199.0","""event"",""trial"",""time""
""fullscreenenter"",""0"",""2137""
","
","
","""event"",""trial"",""time""
""fullscreenenter"",""0"",""2137""
","
","null","run_exp/static/audio/clip_4_mop.m4a","null","","","","","","","",""
"","baseball","200","258335","0.0-200.0","""event"",""trial"",""time""
""fullscreenenter"",""0"",""2137""
","
","
","""event"",""trial"",""time""
""fullscreenenter"",""0"",""2137""
","
","null","run_exp/static/audio/clip_5_baseball.m4a","null","","","","","","","",""
"","trumpet","201","261840","0.0-201.0","""event"",""trial"",""time""
""fullscreenenter"",""0"",""2137""
","
","
","""event"",""trial"",""time""
""fullscreenenter"",""0"",""2137""
","
","null","run_exp/static/audio/clip_6_trumpet.m4a","null","","","","","","","",""
"","gummies","202","265343","0.0-202.0","""event"",""trial"",""time""
""fullscreenenter"",""0"",""2137""
","
","
","""event"",""trial"",""time""
""fullscreenenter"",""0"",""2137""
","
","null","run_exp/static/audio/clip_7_gummies.m4a","null","","","","","","","",""
"","osn","203","269845","0.0-203.0","""event"",""trial"",""time""
""fullscreenenter"",""0"",""2137""
","
","
","""event"",""trial"",""time""
""fullscreenenter"",""0"",""2137""
","
","null","run_exp/static/audio/clip_8_osn.m4a","null","","","","","","","",""
"","old_1","204","276355","0.0-204.0","""event"",""trial"",""time""
""fullscreenenter"",""0"",""2137""
","
","
","""event"",""trial"",""time""
""fullscreenenter"",""0"",""2137""
","
","null","run_exp/static/audio/clip_9_old_trumpet.m4a","null","","","","","","","",""
"","new_1","205","283865","0.0-205.0","""event"",""trial"",""time""
""fullscreenenter"",""0"",""2137""
","
","
","""event"",""trial"",""time""
""fullscreenenter"",""0"",""2137""
","
","null","run_exp/static/audio/clip_10_new_balloon.m4a","null","","","","","","","",""
"","similar_1a","206","288370","0.0-206.0","""event"",""trial"",""time""
""fullscreenenter"",""0"",""2137""
","
","
","""event"",""trial"",""time""
""fullscreenenter"",""0"",""2137""
","
","null","run_exp/static/audio/clip_11a_similar_mop.m4a","null","","","","","","","",""
"","similar_1b","207","294873","0.0-207.0","""event"",""trial"",""time""
""fullscreenenter"",""0"",""2137""
","
","
","""event"",""trial"",""time""
""fullscreenenter"",""0"",""2137""
","
","null","run_exp/static/audio/clip_11b_similar_mop.m4a","null","","","","","","","",""
"","new_2","208","298381","0.0-208.0","""event"",""trial"",""time""
""fullscreenenter"",""0"",""2137""
","
","
","""event"",""trial"",""time""
""fullscreenenter"",""0"",""2137""
","
","null","run_exp/static/audio/clip_12_new_stoplight.m4a","null","","","","","","","",""
"","old_2","209","301884","0.0-209.0","""event"",""trial"",""time""
""fullscreenenter"",""0"",""2137""
","
","
","""event"",""trial"",""time""
""fullscreenenter"",""0"",""2137""
","
","null","run_exp/static/audio/clip_13_old_baseball.m4a","null","","","","","","","",""
"","similar_2a","210","305391","0.0-210.0","""event"",""trial"",""time""
""fullscreenenter"",""0"",""2137""
","
","
","""event"",""trial"",""time""
""fullscreenenter"",""0"",""2137""
","
","null","run_exp/static/audio/clip_14a_similar_gummies.m4a","null","","","","","","","",""
"","similar_2b","211","312902","0.0-211.0","""event"",""trial"",""time""
""fullscreenenter"",""0"",""2137""
","
","
","""event"",""trial"",""time""
""fullscreenenter"",""0"",""2137""
","
","null","run_exp/static/audio/clip_14b_similar_gummies.m4a","null","","","","","","","",""
"","practice","212","354999","0.0-212.0","""event"",""trial"",""time""
""fullscreenenter"",""0"",""2137""
","
","
","""event"",""trial"",""time""
""fullscreenenter"",""0"",""2137""
","
","null","run_exp/static/audio/clip_15_practice.m4a","null","","","","","<div class='center'><p>Lets practice a little to make sure you understand the difference between new, similar, and old. Lets say you saw these three items in the indoor/outdoor game.</p><p> Try your best to remember these images because youll soon be tested on them in a practice game. In the practice game, youll be shown images and youll have to say if they are old (one of the three images belows), similar (similar to one of the images below but not exactly the same), or new (are not one of the images below nor similar to them).</p><p>Once you press the space bar youll be shown these images again but one at time. Then youll begin the practice game.</p><p><img src='run_exp/static/images/tutorial/test/three_indoor_outdoor.png' height='300'></p></div>","","",""
"","html-keyboard-response","213","380175","0.0-213.0","""event"",""trial"",""time""
""fullscreenenter"",""0"",""2137""
","
","
","""event"",""trial"",""time""
""fullscreenenter"",""0"",""2137""
","
","25171.300000000745","<div class='center'><p>Lets practice a little to make sure you understand the difference between new, similar, and old. Lets say you saw these three items in the indoor/outdoor game.</p><p> Try your best to remember these images because youll soon be tested on them in a practice game. In the practice game, youll be shown images and youll have to say if they are old (one of the three images belows), similar (similar to one of the images below but not exactly the same), or new (are not one of the images below nor similar to them).</p><p>Once you press the space bar youll be shown these images again but one at time. Then youll begin the practice game.</p><p><img src='run_exp/static/images/tutorial/test/three_indoor_outdoor.png' height='300'></p><div><p><b>[Press the space bar to continue]</b></p></div>","32","","","","","","","",""
"","planet","214","382176","0.0-214.0","""event"",""trial"",""time""
""fullscreenenter"",""0"",""2137""
","
","
","""event"",""trial"",""time""
""fullscreenenter"",""0"",""2137""
","
","null","run_exp/static/images/tutorial/test/008a.jpg","null","","","","","","","",""
"","boot","215","384179","0.0-215.0","""event"",""trial"",""time""
""fullscreenenter"",""0"",""2137""
","
","
","""event"",""trial"",""time""
""fullscreenenter"",""0"",""2137""
","
","null","run_exp/static/images/tutorial/test/011a.jpg","null","","","","","","","",""
"","lemon","216","386182","0.0-216.0","""event"",""trial"",""time""
""fullscreenenter"",""0"",""2137""
","
","
","""event"",""trial"",""time""
""fullscreenenter"",""0"",""2137""
","
","null","run_exp/static/images/tutorial/test/018a.jpg","null","","","","","","","",""
"","practice_q1","217","386357","0.0-217.0","""event"",""trial"",""time""
""fullscreenenter"",""0"",""2137""
","
","
","""event"",""trial"",""time""
""fullscreenenter"",""0"",""2137""
","
","173.29999999701977","run_exp/static/audio/clip_16_practice_question.m4a","86","","","","","","","",""
"","incorrect_q1","218","389177","0.0-218.0-0.0","""event"",""trial"",""time""
""fullscreenenter"",""0"",""2137""
","
","
","""event"",""trial"",""time""
""fullscreenenter"",""0"",""2137""
","
","null","run_exp/static/audio/clip_18_incorrect_new.m4a","null","","","","","<div class='center'><p>Thats incorrect. Its new.</p></div>","","",""
"","html-keyboard-response","219","390418","0.0-218.0-1.0","""event"",""trial"",""time""
""fullscreenenter"",""0"",""2137""
","
","
","""event"",""trial"",""time""
""fullscreenenter"",""0"",""2137""
","
","1239.2999999970198","<div class='center'><p>Thats incorrect. Its new.</p><div><p><b>[Press the space bar to continue]</b></p></div>","32","","","","","","","",""
"","practice_q2","220","395710","0.0-218.0-2.0","""event"",""trial"",""time""
""fullscreenenter"",""0"",""2137""
","
","
","""event"",""trial"",""time""
""fullscreenenter"",""0"",""2137""
","
","5288.900000002235","run_exp/static/audio/clip_16_practice_question.m4a","86","","","","","","","",""
"","correct","221","397588","0.0-219.0-0.0","""event"",""trial"",""time""
""fullscreenenter"",""0"",""2137""
","
","
","""event"",""trial"",""time""
""fullscreenenter"",""0"",""2137""
","
","null","run_exp/static/audio/clip_17_correct.m4a","null","","","","","<div class='center'><p>That's correct!</p></div>","","",""
"","html-keyboard-response","222","398657","0.0-219.0-1.0","""event"",""trial"",""time""
""fullscreenenter"",""0"",""2137""
","
","
","""event"",""trial"",""time""
""fullscreenenter"",""0"",""2137""
","
","1066.5","<div class='center'><p>That's correct!</p><div><p><b>[Press the space bar to continue]</b></p></div>","32","","","","","","","",""
"","practice_q3","223","403140","0.0-219.0-2.0","""event"",""trial"",""time""
""fullscreenenter"",""0"",""2137""
","
","
","""event"",""trial"",""time""
""fullscreenenter"",""0"",""2137""
","
","4480.800000000745","run_exp/static/audio/clip_16_practice_question.m4a","86","","","","","","","",""
"","incorrect_q3","224","405858","0.0-220.0-0.0","""event"",""trial"",""time""
""fullscreenenter"",""0"",""2137""
","
","
","""event"",""trial"",""time""
""fullscreenenter"",""0"",""2137""
","
","null","run_exp/static/audio/clip_20_incorrect_similar.m4a","null","","","","","<div class='center'><p>Thats incorrect. Its similar.</p><p><img src='run_exp/static/images/tutorial/test/boot_comparison.png' height='300'></p></div>","","",""
"","html-keyboard-response","225","407045","0.0-220.0-1.0","""event"",""trial"",""time""
""fullscreenenter"",""0"",""2137""
","
","
","""event"",""trial"",""time""
""fullscreenenter"",""0"",""2137""
","
","1185.4000000022352","<div class='center'><p>Thats incorrect. Its similar.</p><p><img src='run_exp/static/images/tutorial/test/boot_comparison.png' height='300'></p><div><p><b>[Press the space bar to continue]</b></p></div>","32","","","","","","","",""
"","repeat","226","411770","0.0-221.0-0.0","""event"",""trial"",""time""
""fullscreenenter"",""0"",""2137""
","
","
","""event"",""trial"",""time""
""fullscreenenter"",""0"",""2137""
","
","null","run_exp/static/audio/clip_21_practice_again.m4a","null","","","","","<div class='center'><p>Oops. you missed at least one of these questions. Let's try practicing again. </p></div>","","",""
"","html-keyboard-response","227","412580","0.0-221.0-1.0","""event"",""trial"",""time""
""fullscreenenter"",""0"",""2137""
","
","
","""event"",""trial"",""time""
""fullscreenenter"",""0"",""2137""
","
","807.7000000029802","<div class='center'><p>Oops. you missed at least one of these questions. Let's try practicing again. </p><div><p><b>[Press the space bar to continue]</b></p></div>","32","","","","","","","",""
"","practice_q1","228","417736","0.0-221.0-2.0","""event"",""trial"",""time""
""fullscreenenter"",""0"",""2137""
","
","
","""event"",""trial"",""time""
""fullscreenenter"",""0"",""2137""
","
","5153.39999999851","run_exp/static/audio/clip_16_practice_question.m4a","78","","","","","","","",""
"","correct","229","419612","0.0-222.0-0.0","""event"",""trial"",""time""
""fullscreenenter"",""0"",""2137""
","
","
","""event"",""trial"",""time""
""fullscreenenter"",""0"",""2137""
","
","null","run_exp/static/audio/clip_17_correct.m4a","null","","","","","<div class='center'><p>That's correct!</p></div>","","",""
"","html-keyboard-response","230","421000","0.0-222.0-1.0","""event"",""trial"",""time""
""fullscreenenter"",""0"",""2137""
","
","
","""event"",""trial"",""time""
""fullscreenenter"",""0"",""2137""
","
","1386.199999999255","<div class='center'><p>That's correct!</p><div><p><b>[Press the space bar to continue]</b></p></div>","32","","","","","","","",""
"","practice_q2","231","426159","0.0-222.0-2.0","""event"",""trial"",""time""
""fullscreenenter"",""0"",""2137""
","
","
","""event"",""trial"",""time""
""fullscreenenter"",""0"",""2137""
","
","5156","run_exp/static/audio/clip_16_practice_question.m4a","86","","","","","","","",""
"","correct","232","428023","0.0-223.0-0.0","""event"",""trial"",""time""
""fullscreenenter"",""0"",""2137""
","
","
","""event"",""trial"",""time""
""fullscreenenter"",""0"",""2137""
","
","null","run_exp/static/audio/clip_17_correct.m4a","null","","","","","<div class='center'><p>That's correct!</p></div>","","",""
"","html-keyboard-response","233","429973","0.0-223.0-1.0","""event"",""trial"",""time""
""fullscreenenter"",""0"",""2137""
","
","
","""event"",""trial"",""time""
""fullscreenenter"",""0"",""2137""
","
","1947.699999999255","<div class='center'><p>That's correct!</p><div><p><b>[Press the space bar to continue]</b></p></div>","32","","","","","","","",""
"","practice_q3","234","435032","0.0-223.0-2.0","""event"",""trial"",""time""
""fullscreenenter"",""0"",""2137""
","
","
","""event"",""trial"",""time""
""fullscreenenter"",""0"",""2137""
","
","5056.699999999255","run_exp/static/audio/clip_16_practice_question.m4a","66","","","","","","","",""
"","correct","235","437166","0.0-224.0-0.0","""event"",""trial"",""time""
""fullscreenenter"",""0"",""2137""
","
","
","""event"",""trial"",""time""
""fullscreenenter"",""0"",""2137""
","
","null","run_exp/static/audio/clip_17_correct.m4a","null","","","","","<div class='center'><p>That's correct!</p></div>","","",""
"","html-keyboard-response","236","438148","0.0-224.0-1.0","""event"",""trial"",""time""
""fullscreenenter"",""0"",""2137""
","
","
","""event"",""trial"",""time""
""fullscreenenter"",""0"",""2137""
","
","979.1999999992549","<div class='center'><p>That's correct!</p><div><p><b>[Press the space bar to continue]</b></p></div>","32","","","","","","","",""
"","begin_text","237","456590","0.0-225.0-0.0","""event"",""trial"",""time""
""fullscreenenter"",""0"",""2137""
","
","
","""event"",""trial"",""time""
""fullscreenenter"",""0"",""2137""
","
","null","run_exp/static/audio/clip_22_begin_test.m4a","null","","","","","<div class='center'><p>On to the real game where well test your memory of items from the indoor/outdoor game. For each item, you need to indicate if the item is <b>old</b> by pressing the <b>v</b> key, <b>similar</b> by pressing the <b>b</b> key, or <b>new</b> by pressing the <b>n</b> key. </p></div>","","",""
"","html-keyboard-response","238","457428","0.0-225.0-1.0","""event"",""trial"",""time""
""fullscreenenter"",""0"",""2137""
","
","
","""event"",""trial"",""time""
""fullscreenenter"",""0"",""2137""
","
","835.7999999970198","<div class='center'><p>On to the real game where well test your memory of items from the indoor/outdoor game. For each item, you need to indicate if the item is <b>old</b> by pressing the <b>v</b> key, <b>similar</b> by pressing the <b>b</b> key, or <b>new</b> by pressing the <b>n</b> key. </p><div><p><b>[Press the space bar to continue]</b></p></div>","32","","","","","","","",""
"","image","239","458584","0.0-226.0-0.0","""event"",""trial"",""time""
""fullscreenenter"",""0"",""2137""
","
","
","""event"",""trial"",""time""
""fullscreenenter"",""0"",""2137""
","
","1154.1000000014901","run_exp/static/images/Set 6_rs/118a.jpg","66","","","","","","test","TF","5"
"","show_choice","240","459087","0.0-226.0-1.0","""event"",""trial"",""time""
""fullscreenenter"",""0"",""2137""
","
","
","""event"",""trial"",""time""
""fullscreenenter"",""0"",""2137""
","
","null","run_exp/static/images/Set 6_rs/118a.jpg","null","","","","","","test","TF",""
"","html-keyboard-response","241","459590","0.0-226.0-2.0","""event"",""trial"",""time""
""fullscreenenter"",""0"",""2137""
","
","
","""event"",""trial"",""time""
""fullscreenenter"",""0"",""2137""
","
","null","<p></p>","null","","","","","","","",""
"","image","242","461077","0.0-227.0-0.0","""event"",""trial"",""time""
""fullscreenenter"",""0"",""2137""
","
","
","""event"",""trial"",""time""
""fullscreenenter"",""0"",""2137""
","
","1484.4000000022352","run_exp/static/images/Set 6_rs/071b.jpg","66","","","","","","test","TL","4"
"","show_choice","243","461579","0.0-227.0-1.0","""event"",""trial"",""time""
""fullscreenenter"",""0"",""2137""
","
","
","""event"",""trial"",""time""
""fullscreenenter"",""0"",""2137""
","
","null","run_exp/static/images/Set 6_rs/071b.jpg","null","","","","","","test","TL",""
"","html-keyboard-response","244","462081","0.0-227.0-2.0","""event"",""trial"",""time""
""fullscreenenter"",""0"",""2137""
","
","
","""event"",""trial"",""time""
""fullscreenenter"",""0"",""2137""
","
","null","<p></p>","null","","","","","","","",""
"","image","245","463230","0.0-228.0-0.0","""event"",""trial"",""time""
""fullscreenenter"",""0"",""2137""
","
","
","""event"",""trial"",""time""
""fullscreenenter"",""0"",""2137""
","
","1147.1000000014901","run_exp/static/images/Set 6_rs/141a.jpg","86","","","","","","test","TR","2"
"","show_choice","246","463732","0.0-228.0-1.0","""event"",""trial"",""time""
""fullscreenenter"",""0"",""2137""
","
","
","""event"",""trial"",""time""
""fullscreenenter"",""0"",""2137""
","
","null","run_exp/static/images/Set 6_rs/141a.jpg","null","","","","","","test","TR",""
"","html-keyboard-response","247","464234","0.0-228.0-2.0","""event"",""trial"",""time""
""fullscreenenter"",""0"",""2137""
","
","
","""event"",""trial"",""time""
""fullscreenenter"",""0"",""2137""
","
","null","<p></p>","null","","","","","","","",""
"","image","248","465380","0.0-229.0-0.0","""event"",""trial"",""time""
""fullscreenenter"",""0"",""2137""
","
","
","""event"",""trial"",""time""
""fullscreenenter"",""0"",""2137""
","
","1143.5","run_exp/static/images/Set 6_rs/047a.jpg","78","","","","","","test","TF","3"
"","show_choice","249","465882","0.0-229.0-1.0","""event"",""trial"",""time""
""fullscreenenter"",""0"",""2137""
","
","
","""event"",""trial"",""time""
""fullscreenenter"",""0"",""2137""
","
","null","run_exp/static/images/Set 6_rs/047a.jpg","null","","","","","","test","TF",""
"","html-keyboard-response","250","466384","0.0-229.0-2.0","""event"",""trial"",""time""
""fullscreenenter"",""0"",""2137""
","
","
","""event"",""trial"",""time""
""fullscreenenter"",""0"",""2137""
","
","null","<p></p>","null","","","","","","","",""
"","image","251","467663","0.0-230.0-0.0","""event"",""trial"",""time""
""fullscreenenter"",""0"",""2137""
","
","
","""event"",""trial"",""time""
""fullscreenenter"",""0"",""2137""
","
","1276.699999999255","run_exp/static/images/Set 6_rs/007a.jpg","86","","","","","","test","TR","3"
"","show_choice","252","468165","0.0-230.0-1.0","""event"",""trial"",""time""
""fullscreenenter"",""0"",""2137""
","
","
","""event"",""trial"",""time""
""fullscreenenter"",""0"",""2137""
","
","null","run_exp/static/images/Set 6_rs/007a.jpg","null","","","","","","test","TR",""
"","html-keyboard-response","253","468669","0.0-230.0-2.0","""event"",""trial"",""time""
""fullscreenenter"",""0"",""2137""
","
","
","""event"",""trial"",""time""
""fullscreenenter"",""0"",""2137""
","
","null","<p></p>","null","","","","","","","",""
"","image","254","469647","0.0-231.0-0.0","""event"",""trial"",""time""
""fullscreenenter"",""0"",""2137""
","
","
","""event"",""trial"",""time""
""fullscreenenter"",""0"",""2137""
","
","976.8000000007451","run_exp/static/images/Set 6_rs/126a.jpg","86","","","","","","test","TR","2"
"","show_choice","255","470150","0.0-231.0-1.0","""event"",""trial"",""time""
""fullscreenenter"",""0"",""2137""
","
","
","""event"",""trial"",""time""
""fullscreenenter"",""0"",""2137""
","
","null","run_exp/static/images/Set 6_rs/126a.jpg","null","","","","","","test","TR",""
"","html-keyboard-response","256","470652","0.0-231.0-2.0","""event"",""trial"",""time""
""fullscreenenter"",""0"",""2137""
","
","
","""event"",""trial"",""time""
""fullscreenenter"",""0"",""2137""
","
","null","<p></p>","null","","","","","","","",""
"","image","257","471610","0.0-232.0-0.0","""event"",""trial"",""time""
""fullscreenenter"",""0"",""2137""
","
","
","""event"",""trial"",""time""
""fullscreenenter"",""0"",""2137""
","
","956.6999999992549","run_exp/static/images/Set 6_rs/006b.jpg","86","","","","","","test","TL","2"
"","show_choice","258","472114","0.0-232.0-1.0","""event"",""trial"",""time""
""fullscreenenter"",""0"",""2137""
","
","
","""event"",""trial"",""time""
""fullscreenenter"",""0"",""2137""
","
","null","run_exp/static/images/Set 6_rs/006b.jpg","null","","","","","","test","TL",""
"","html-keyboard-response","259","472616","0.0-232.0-2.0","""event"",""trial"",""time""
""fullscreenenter"",""0"",""2137""
","
","
","""event"",""trial"",""time""
""fullscreenenter"",""0"",""2137""
","
","null","<p></p>","null","","","","","","","",""
"","image","260","473520","0.0-233.0-0.0","""event"",""trial"",""time""
""fullscreenenter"",""0"",""2137""
","
","
","""event"",""trial"",""time""
""fullscreenenter"",""0"",""2137""
","
","900.4000000022352","run_exp/static/images/Set 6_rs/097a.jpg","66","","","","","","test","TF","5"
"","show_choice","261","474022","0.0-233.0-1.0","""event"",""trial"",""time""
""fullscreenenter"",""0"",""2137""
","
","
","""event"",""trial"",""time""
""fullscreenenter"",""0"",""2137""
","
","null","run_exp/static/images/Set 6_rs/097a.jpg","null","","","","","","test","TF",""
"","html-keyboard-response","262","474525","0.0-233.0-2.0","""event"",""trial"",""time""
""fullscreenenter"",""0"",""2137""
","
","
","""event"",""trial"",""time""
""fullscreenenter"",""0"",""2137""
","
","null","<p></p>","null","","","","","","","",""
"","image","263","476085","0.0-234.0-0.0","""event"",""trial"",""time""
""fullscreenenter"",""0"",""2137""
","
","
","""event"",""trial"",""time""
""fullscreenenter"",""0"",""2137""
","
","1557.699999999255","run_exp/static/images/Set 6_rs/169a.jpg","86","","","","","","test","TR","4"
"","show_choice","264","476588","0.0-234.0-1.0","""event"",""trial"",""time""
""fullscreenenter"",""0"",""2137""
","
","
","""event"",""trial"",""time""
""fullscreenenter"",""0"",""2137""
","
","null","run_exp/static/images/Set 6_rs/169a.jpg","null","","","","","","test","TR",""
"","html-keyboard-response","265","477090","0.0-234.0-2.0","""event"",""trial"",""time""
""fullscreenenter"",""0"",""2137""
","
","
","""event"",""trial"",""time""
""fullscreenenter"",""0"",""2137""
","
","null","<p></p>","null","","","","","","","",""
"","image","266","478479","0.0-235.0-0.0","""event"",""trial"",""time""
""fullscreenenter"",""0"",""2137""
","
","
","""event"",""trial"",""time""
""fullscreenenter"",""0"",""2137""
","
","1385.300000000745","run_exp/static/images/Set 6_rs/012a.jpg","86","","","","","","test","TR","1"
"","show_choice","267","478983","0.0-235.0-1.0","""event"",""trial"",""time""
""fullscreenenter"",""0"",""2137""
","
","
","""event"",""trial"",""time""
""fullscreenenter"",""0"",""2137""
","
","null","run_exp/static/images/Set 6_rs/012a.jpg","null","","","","","","test","TR",""
"","html-keyboard-response","268","479486","0.0-235.0-2.0","""event"",""trial"",""time""
""fullscreenenter"",""0"",""2137""
","
","
","""event"",""trial"",""time""
""fullscreenenter"",""0"",""2137""
","
","null","<p></p>","null","","","","","","","",""
"","image","269","481162","0.0-236.0-0.0","""event"",""trial"",""time""
""fullscreenenter"",""0"",""2137""
","
","
","""event"",""trial"",""time""
""fullscreenenter"",""0"",""2137""
","
","1673.7000000029802","run_exp/static/images/Set 6_rs/177a.jpg","78","","","","","","test","TR","5"
"","show_choice","270","481664","0.0-236.0-1.0","""event"",""trial"",""time""
""fullscreenenter"",""0"",""2137""
","
","
","""event"",""trial"",""time""
""fullscreenenter"",""0"",""2137""
","
","null","run_exp/static/images/Set 6_rs/177a.jpg","null","","","","","","test","TR",""
"","html-keyboard-response","271","482166","0.0-236.0-2.0","""event"",""trial"",""time""
""fullscreenenter"",""0"",""2137""
","
","
","""event"",""trial"",""time""
""fullscreenenter"",""0"",""2137""
","
","null","<p></p>","null","","","","","","","",""
"","image","272","483634","0.0-237.0-0.0","""event"",""trial"",""time""
""fullscreenenter"",""0"",""2137""
","
","
","""event"",""trial"",""time""
""fullscreenenter"",""0"",""2137""
","
","1464.8999999985099","run_exp/static/images/Set 6_rs/089b.jpg","86","","","","","","test","TL","4"
"","show_choice","273","484137","0.0-237.0-1.0","""event"",""trial"",""time""
""fullscreenenter"",""0"",""2137""
","
","
","""event"",""trial"",""time""
""fullscreenenter"",""0"",""2137""
","
","null","run_exp/static/images/Set 6_rs/089b.jpg","null","","","","","","test","TL",""
"","html-keyboard-response","274","484640","0.0-237.0-2.0","""event"",""trial"",""time""
""fullscreenenter"",""0"",""2137""
","
","
","""event"",""trial"",""time""
""fullscreenenter"",""0"",""2137""
","
","null","<p></p>","null","","","","","","","",""
"","image","275","485985","0.0-238.0-0.0","""event"",""trial"",""time""
""fullscreenenter"",""0"",""2137""
","
","
","""event"",""trial"",""time""
""fullscreenenter"",""0"",""2137""
","
","1342.800000000745","run_exp/static/images/Set 6_rs/056a.jpg","78","","","","","","test","TF","3"
"","show_choice","276","486487","0.0-238.0-1.0","""event"",""trial"",""time""
""fullscreenenter"",""0"",""2137""
","
","
","""event"",""trial"",""time""
""fullscreenenter"",""0"",""2137""
","
","null","run_exp/static/images/Set 6_rs/056a.jpg","null","","","","","","test","TF",""
"","html-keyboard-response","277","486989","0.0-238.0-2.0","""event"",""trial"",""time""
""fullscreenenter"",""0"",""2137""
","
","
","""event"",""trial"",""time""
""fullscreenenter"",""0"",""2137""
","
","null","<p></p>","null","","","","","","","",""
"","image","278","487831","0.0-239.0-0.0","""event"",""trial"",""time""
""fullscreenenter"",""0"",""2137""
","
","
","""event"",""trial"",""time""
""fullscreenenter"",""0"",""2137""
","
","840.6000000014901","run_exp/static/images/Set 6_rs/150a.jpg","66","","","","","","test","TR","1"
"","show_choice","279","488334","0.0-239.0-1.0","""event"",""trial"",""time""
""fullscreenenter"",""0"",""2137""
","
","
","""event"",""trial"",""time""
""fullscreenenter"",""0"",""2137""
","
","null","run_exp/static/images/Set 6_rs/150a.jpg","null","","","","","","test","TR",""
"","html-keyboard-response","280","488836","0.0-239.0-2.0","""event"",""trial"",""time""
""fullscreenenter"",""0"",""2137""
","
","
","""event"",""trial"",""time""
""fullscreenenter"",""0"",""2137""
","
","null","<p></p>","null","","","","","","","",""
"","image","281","490004","0.0-240.0-0.0","""event"",""trial"",""time""
""fullscreenenter"",""0"",""2137""
","
","
","""event"",""trial"",""time""
""fullscreenenter"",""0"",""2137""
","
","1165.7999999970198","run_exp/static/images/Set 6_rs/085b.jpg","66","","","","","","test","TL","1"
"","show_choice","282","490506","0.0-240.0-1.0","""event"",""trial"",""time""
""fullscreenenter"",""0"",""2137""
","
","
","""event"",""trial"",""time""
""fullscreenenter"",""0"",""2137""
","
","null","run_exp/static/images/Set 6_rs/085b.jpg","null","","","","","","test","TL",""
"","html-keyboard-response","283","491008","0.0-240.0-2.0","""event"",""trial"",""time""
""fullscreenenter"",""0"",""2137""
","
","
","""event"",""trial"",""time""
""fullscreenenter"",""0"",""2137""
","
","null","<p></p>","null","","","","","","","",""
"","image","284","492298","0.0-241.0-0.0","""event"",""trial"",""time""
""fullscreenenter"",""0"",""2137""
","
","
","""event"",""trial"",""time""
""fullscreenenter"",""0"",""2137""
","
","1287","run_exp/static/images/Set 6_rs/035a.jpg","78","","","","","","test","TF","4"
"","show_choice","285","492800","0.0-241.0-1.0","""event"",""trial"",""time""
""fullscreenenter"",""0"",""2137""
","
","
","""event"",""trial"",""time""
""fullscreenenter"",""0"",""2137""
","
","null","run_exp/static/images/Set 6_rs/035a.jpg","null","","","","","","test","TF",""
"","html-keyboard-response","286","493302","0.0-241.0-2.0","""event"",""trial"",""time""
""fullscreenenter"",""0"",""2137""
","
","
","""event"",""trial"",""time""
""fullscreenenter"",""0"",""2137""
","
","null","<p></p>","null","","","","","","","",""
"","image","287","494601","0.0-242.0-0.0","""event"",""trial"",""time""
""fullscreenenter"",""0"",""2137""
","
","
","""event"",""trial"",""time""
""fullscreenenter"",""0"",""2137""
","
","1297.3999999985099","run_exp/static/images/Set 6_rs/191b.jpg","86","","","","","","test","TL","2"
"","show_choice","288","495103","0.0-242.0-1.0","""event"",""trial"",""time""
""fullscreenenter"",""0"",""2137""
","
","
","""event"",""trial"",""time""
""fullscreenenter"",""0"",""2137""
","
","null","run_exp/static/images/Set 6_rs/191b.jpg","null","","","","","","test","TL",""
"","html-keyboard-response","289","495605","0.0-242.0-2.0","""event"",""trial"",""time""
""fullscreenenter"",""0"",""2137""
","
","
","""event"",""trial"",""time""
""fullscreenenter"",""0"",""2137""
","
","null","<p></p>","null","","","","","","","",""
"","image","290","497357","0.0-243.0-0.0","""event"",""trial"",""time""
""fullscreenenter"",""0"",""2137""
","
","
","""event"",""trial"",""time""
""fullscreenenter"",""0"",""2137""
","
","1750.199999999255","run_exp/static/images/Set 6_rs/109a.jpg","66","","","","","","test","TF","5"
"","show_choice","291","497859","0.0-243.0-1.0","""event"",""trial"",""time""
""fullscreenenter"",""0"",""2137""
","
","
","""event"",""trial"",""time""
""fullscreenenter"",""0"",""2137""
","
","null","run_exp/static/images/Set 6_rs/109a.jpg","null","","","","","","test","TF",""
"","html-keyboard-response","292","498361","0.0-243.0-2.0","""event"",""trial"",""time""
""fullscreenenter"",""0"",""2137""
","
","
","""event"",""trial"",""time""
""fullscreenenter"",""0"",""2137""
","
","null","<p></p>","null","","","","","","","",""
"","image","293","500020","0.0-244.0-0.0","""event"",""trial"",""time""
""fullscreenenter"",""0"",""2137""
","
","
","""event"",""trial"",""time""
""fullscreenenter"",""0"",""2137""
","
","1656.5","run_exp/static/images/Set 6_rs/014b.jpg","86","","","","","","test","TL","5"
"","show_choice","294","500522","0.0-244.0-1.0","""event"",""trial"",""time""
""fullscreenenter"",""0"",""2137""
","
","
","""event"",""trial"",""time""
""fullscreenenter"",""0"",""2137""
","
","null","run_exp/static/images/Set 6_rs/014b.jpg","null","","","","","","test","TL",""
"","html-keyboard-response","295","501025","0.0-244.0-2.0","""event"",""trial"",""time""
""fullscreenenter"",""0"",""2137""
","
","
","""event"",""trial"",""time""
""fullscreenenter"",""0"",""2137""
","
","null","<p></p>","null","","","","","","","",""
"","image","296","502398","0.0-245.0-0.0","""event"",""trial"",""time""
""fullscreenenter"",""0"",""2137""
","
","
","""event"",""trial"",""time""
""fullscreenenter"",""0"",""2137""
","
","1369.699999999255","run_exp/static/images/Set 6_rs/070a.jpg","66","","","","","","test","TR","2"
"","show_choice","297","502899","0.0-245.0-1.0","""event"",""trial"",""time""
""fullscreenenter"",""0"",""2137""
","
","
","""event"",""trial"",""time""
""fullscreenenter"",""0"",""2137""
","
","null","run_exp/static/images/Set 6_rs/070a.jpg","null","","","","","","test","TR",""
"","html-keyboard-response","298","503402","0.0-245.0-2.0","""event"",""trial"",""time""
""fullscreenenter"",""0"",""2137""
","
","
","""event"",""trial"",""time""
""fullscreenenter"",""0"",""2137""
","
","null","<p></p>","null","","","","","","","",""
"","image","299","504737","0.0-246.0-0.0","""event"",""trial"",""time""
""fullscreenenter"",""0"",""2137""
","
","
","""event"",""trial"",""time""
""fullscreenenter"",""0"",""2137""
","
","1333.5","run_exp/static/images/Set 6_rs/172a.jpg","86","","","","","","test","TR","1"
"","show_choice","300","505240","0.0-246.0-1.0","""event"",""trial"",""time""
""fullscreenenter"",""0"",""2137""
","
","
","""event"",""trial"",""time""
""fullscreenenter"",""0"",""2137""
","
","null","run_exp/static/images/Set 6_rs/172a.jpg","null","","","","","","test","TR",""
"","html-keyboard-response","301","505744","0.0-246.0-2.0","""event"",""trial"",""time""
""fullscreenenter"",""0"",""2137""
","
","
","""event"",""trial"",""time""
""fullscreenenter"",""0"",""2137""
","
","null","<p></p>","null","","","","","","","",""
"","image","302","506728","0.0-247.0-0.0","""event"",""trial"",""time""
""fullscreenenter"",""0"",""2137""
","
","
","""event"",""trial"",""time""
""fullscreenenter"",""0"",""2137""
","
","982.1999999992549","run_exp/static/images/Set 6_rs/022a.jpg","78","","","","","","test","TF","4"
"","show_choice","303","507231","0.0-247.0-1.0","""event"",""trial"",""time""
""fullscreenenter"",""0"",""2137""
","
","
","""event"",""trial"",""time""
""fullscreenenter"",""0"",""2137""
","
","null","run_exp/static/images/Set 6_rs/022a.jpg","null","","","","","","test","TF",""
"","html-keyboard-response","304","507733","0.0-247.0-2.0","""event"",""trial"",""time""
""fullscreenenter"",""0"",""2137""
","
","
","""event"",""trial"",""time""
""fullscreenenter"",""0"",""2137""
","
","null","<p></p>","null","","","","","","","",""
"","image","305","508984","0.0-248.0-0.0","""event"",""trial"",""time""
""fullscreenenter"",""0"",""2137""
","
","
","""event"",""trial"",""time""
""fullscreenenter"",""0"",""2137""
","
","1248.800000000745","run_exp/static/images/Set 6_rs/121a.jpg","86","","","","","","test","TR","4"
"","show_choice","306","509486","0.0-248.0-1.0","""event"",""trial"",""time""
""fullscreenenter"",""0"",""2137""
","
","
","""event"",""trial"",""time""
""fullscreenenter"",""0"",""2137""
","
","null","run_exp/static/images/Set 6_rs/121a.jpg","null","","","","","","test","TR",""
"","html-keyboard-response","307","509989","0.0-248.0-2.0","""event"",""trial"",""time""
""fullscreenenter"",""0"",""2137""
","
","
","""event"",""trial"",""time""
""fullscreenenter"",""0"",""2137""
","
","null","<p></p>","null","","","","","","","",""
"","image","308","511351","0.0-249.0-0.0","""event"",""trial"",""time""
""fullscreenenter"",""0"",""2137""
","
","
","""event"",""trial"",""time""
""fullscreenenter"",""0"",""2137""
","
","1359.0999999977648","run_exp/static/images/Set 6_rs/140a.jpg","78","","","","","","test","TF","1"
"","show_choice","309","511853","0.0-249.0-1.0","""event"",""trial"",""time""
""fullscreenenter"",""0"",""2137""
","
","
","""event"",""trial"",""time""
""fullscreenenter"",""0"",""2137""
","
","null","run_exp/static/images/Set 6_rs/140a.jpg","null","","","","","","test","TF",""
"","html-keyboard-response","310","512355","0.0-249.0-2.0","""event"",""trial"",""time""
""fullscreenenter"",""0"",""2137""
","
","
","""event"",""trial"",""time""
""fullscreenenter"",""0"",""2137""
","
","null","<p></p>","null","","","","","","","",""
"","image","311","513967","0.0-250.0-0.0","""event"",""trial"",""time""
""fullscreenenter"",""0"",""2137""
","
","
","""event"",""trial"",""time""
""fullscreenenter"",""0"",""2137""
","
","1609.8999999985099","run_exp/static/images/Set 6_rs/065a.jpg","86","","","","","","test","TF","3"
"","show_choice","312","514469","0.0-250.0-1.0","""event"",""trial"",""time""
""fullscreenenter"",""0"",""2137""
","
","
","""event"",""trial"",""time""
""fullscreenenter"",""0"",""2137""
","
","null","run_exp/static/images/Set 6_rs/065a.jpg","null","","","","","","test","TF",""
"","html-keyboard-response","313","514971","0.0-250.0-2.0","""event"",""trial"",""time""
""fullscreenenter"",""0"",""2137""
","
","
","""event"",""trial"",""time""
""fullscreenenter"",""0"",""2137""
","
","null","<p></p>","null","","","","","","","",""
"","image","314","516166","0.0-251.0-0.0","""event"",""trial"",""time""
""fullscreenenter"",""0"",""2137""
","
","
","""event"",""trial"",""time""
""fullscreenenter"",""0"",""2137""
","
","1193.199999999255","run_exp/static/images/Set 6_rs/178a.jpg","86","","","","","","test","TR","3"
"","show_choice","315","516668","0.0-251.0-1.0","""event"",""trial"",""time""
""fullscreenenter"",""0"",""2137""
","
","
","""event"",""trial"",""time""
""fullscreenenter"",""0"",""2137""
","
","null","run_exp/static/images/Set 6_rs/178a.jpg","null","","","","","","test","TR",""
"","html-keyboard-response","316","517171","0.0-251.0-2.0","""event"",""trial"",""time""
""fullscreenenter"",""0"",""2137""
","
","
","""event"",""trial"",""time""
""fullscreenenter"",""0"",""2137""
","
","null","<p></p>","null","","","","","","","",""
"","image","317","518600","0.0-252.0-0.0","""event"",""trial"",""time""
""fullscreenenter"",""0"",""2137""
","
","
","""event"",""trial"",""time""
""fullscreenenter"",""0"",""2137""
","
","1426.1000000014901","run_exp/static/images/Set 6_rs/001a.jpg","78","","","","","","test","TF","1"
"","show_choice","318","519102","0.0-252.0-1.0","""event"",""trial"",""time""
""fullscreenenter"",""0"",""2137""
","
","
","""event"",""trial"",""time""
""fullscreenenter"",""0"",""2137""
","
","null","run_exp/static/images/Set 6_rs/001a.jpg","null","","","","","","test","TF",""
"","html-keyboard-response","319","519604","0.0-252.0-2.0","""event"",""trial"",""time""
""fullscreenenter"",""0"",""2137""
","
","
","""event"",""trial"",""time""
""fullscreenenter"",""0"",""2137""
","
","null","<p></p>","null","","","","","","","",""
"","image","320","521341","0.0-253.0-0.0","""event"",""trial"",""time""
""fullscreenenter"",""0"",""2137""
","
","
","""event"",""trial"",""time""
""fullscreenenter"",""0"",""2137""
","
","1734.7999999970198","run_exp/static/images/Set 6_rs/048a.jpg","78","","","","","","test","TF","4"
"","show_choice","321","521844","0.0-253.0-1.0","""event"",""trial"",""time""
""fullscreenenter"",""0"",""2137""
","
","
","""event"",""trial"",""time""
""fullscreenenter"",""0"",""2137""
","
","null","run_exp/static/images/Set 6_rs/048a.jpg","null","","","","","","test","TF",""
"","html-keyboard-response","322","522346","0.0-253.0-2.0","""event"",""trial"",""time""
""fullscreenenter"",""0"",""2137""
","
","
","""event"",""trial"",""time""
""fullscreenenter"",""0"",""2137""
","
","null","<p></p>","null","","","","","","","",""
"","image","323","524188","0.0-254.0-0.0","""event"",""trial"",""time""
""fullscreenenter"",""0"",""2137""
","
","
","""event"",""trial"",""time""
""fullscreenenter"",""0"",""2137""
","
","1839.9000000022352","run_exp/static/images/Set 6_rs/117b.jpg","66","","","","","","test","TL","5"
"","show_choice","324","524690","0.0-254.0-1.0","""event"",""trial"",""time""
""fullscreenenter"",""0"",""2137""
","
","
","""event"",""trial"",""time""
""fullscreenenter"",""0"",""2137""
","
","null","run_exp/static/images/Set 6_rs/117b.jpg","null","","","","","","test","TL",""
"","html-keyboard-response","325","525192","0.0-254.0-2.0","""event"",""trial"",""time""
""fullscreenenter"",""0"",""2137""
","
","
","""event"",""trial"",""time""
""fullscreenenter"",""0"",""2137""
","
","null","<p></p>","null","","","","","","","",""
"","image","326","526663","0.0-255.0-0.0","""event"",""trial"",""time""
""fullscreenenter"",""0"",""2137""
","
","
","""event"",""trial"",""time""
""fullscreenenter"",""0"",""2137""
","
","1468.7999999970198","run_exp/static/images/Set 6_rs/024a.jpg","66","","","","","","test","TR","5"
"","show_choice","327","527166","0.0-255.0-1.0","""event"",""trial"",""time""
""fullscreenenter"",""0"",""2137""
","
","
","""event"",""trial"",""time""
""fullscreenenter"",""0"",""2137""
","
","null","run_exp/static/images/Set 6_rs/024a.jpg","null","","","","","","test","TR",""
"","html-keyboard-response","328","527669","0.0-255.0-2.0","""event"",""trial"",""time""
""fullscreenenter"",""0"",""2137""
","
","
","""event"",""trial"",""time""
""fullscreenenter"",""0"",""2137""
","
","null","<p></p>","null","","","","","","","",""
"","image","329","529138","0.0-256.0-0.0","""event"",""trial"",""time""
""fullscreenenter"",""0"",""2137""
","
","
","""event"",""trial"",""time""
""fullscreenenter"",""0"",""2137""
","
","1466.4000000022352","run_exp/static/images/Set 6_rs/055b.jpg","66","","","","","","test","TL","4"
"","show_choice","330","529640","0.0-256.0-1.0","""event"",""trial"",""time""
""fullscreenenter"",""0"",""2137""
","
","
","""event"",""trial"",""time""
""fullscreenenter"",""0"",""2137""
","
","null","run_exp/static/images/Set 6_rs/055b.jpg","null","","","","","","test","TL",""
"","html-keyboard-response","331","530142","0.0-256.0-2.0","""event"",""trial"",""time""
""fullscreenenter"",""0"",""2137""
","
","
","""event"",""trial"",""time""
""fullscreenenter"",""0"",""2137""
","
","null","<p></p>","null","","","","","","","",""
"","image","332","531487","0.0-257.0-0.0","""event"",""trial"",""time""
""fullscreenenter"",""0"",""2137""
","
","
","""event"",""trial"",""time""
""fullscreenenter"",""0"",""2137""
","
","1343.699999999255","run_exp/static/images/Set 6_rs/064a.jpg","86","","","","","","test","TR","5"
"","show_choice","333","531989","0.0-257.0-1.0","""event"",""trial"",""time""
""fullscreenenter"",""0"",""2137""
","
","
","""event"",""trial"",""time""
""fullscreenenter"",""0"",""2137""
","
","null","run_exp/static/images/Set 6_rs/064a.jpg","null","","","","","","test","TR",""
"","html-keyboard-response","334","532492","0.0-257.0-2.0","""event"",""trial"",""time""
""fullscreenenter"",""0"",""2137""
","
","
","""event"",""trial"",""time""
""fullscreenenter"",""0"",""2137""
","
","null","<p></p>","null","","","","","","","",""
"","image","335","533240","0.0-258.0-0.0","""event"",""trial"",""time""
""fullscreenenter"",""0"",""2137""
","
","
","""event"",""trial"",""time""
""fullscreenenter"",""0"",""2137""
","
","745.8000000007451","run_exp/static/images/Set 6_rs/062b.jpg","86","","","","","","test","TL","1"
"","show_choice","336","533742","0.0-258.0-1.0","""event"",""trial"",""time""
""fullscreenenter"",""0"",""2137""
","
","
","""event"",""trial"",""time""
""fullscreenenter"",""0"",""2137""
","
","null","run_exp/static/images/Set 6_rs/062b.jpg","null","","","","","","test","TL",""
"","html-keyboard-response","337","534244","0.0-258.0-2.0","""event"",""trial"",""time""
""fullscreenenter"",""0"",""2137""
","
","
","""event"",""trial"",""time""