"success","trial_type","trial_index","time_elapsed","internal_node_id","interactions","blur_events","focus_events","fullscreenenter_events","fullscreenexit_events","rt","stimulus","key_press","subject_id","participant_id","age","gender","prompt","phase","condition","lure_bin"
"true","fullscreen","0","66208","0.0-0.0","""event"",""trial"",""time""
""fullscreenenter"",""0"",""65228""
","
","
","""event"",""trial"",""time""
""fullscreenenter"",""0"",""65228""
","
","","","","","","","","","","",""
"","pavlovia","1","66222","0.0-1.0","""event"",""trial"",""time""
""fullscreenenter"",""0"",""65228""
","
","
","""event"",""trial"",""time""
""fullscreenenter"",""0"",""65228""
","
","","","","","","","","","","",""
"","welcome","2","101744","0.0-2.0","""event"",""trial"",""time""
""fullscreenenter"",""0"",""65228""
","
","
","""event"",""trial"",""time""
""fullscreenenter"",""0"",""65228""
","
","null","run_exp/static/audio/clip_1_welcome.m4a","null","580","22","9","Male","<div class='center'><p>Welcome to the third part of the study! First, you'll be shown pictures of items one at a time. For each picture, you have to decide if the item is typically found indoors or outdoors.</p><p>If you think it's usually found indoors, then press <b>v</b> key on your keyboard. If you think it's usually found outdoors, then press the <b>n</b> key.There will be reminders on the screen to help you remember which keys to press. </p><p>If you're not sure whether the item is an indoor item or an outdoor item, go ahead and take a guess but try your best not to skip that choice. </p></div>","","",""
"","html-keyboard-response","3","103246","0.0-3.0","""event"",""trial"",""time""
""fullscreenenter"",""0"",""65228""
","
","
","""event"",""trial"",""time""
""fullscreenenter"",""0"",""65228""
","
","1490.5","<div class='center'><p>Welcome to the third part of the study! First, you'll be shown pictures of items one at a time. For each picture, you have to decide if the item is typically found indoors or outdoors.</p><p>If you think it's usually found indoors, then press <b>v</b> key on your keyboard. If you think it's usually found outdoors, then press the <b>n</b> key.There will be reminders on the screen to help you remember which keys to press. </p><p>If you're not sure whether the item is an indoor item or an outdoor item, go ahead and take a guess but try your best not to skip that choice. </p><div><p><b>[Press the space bar to continue]</b></p></div>","32","","","","","","","",""
"","image","4","105260","0.0-4.0","""event"",""trial"",""time""
""fullscreenenter"",""0"",""65228""
","
","
","""event"",""trial"",""time""
""fullscreenenter"",""0"",""65228""
","
","null","run_exp/static/images/Set 6_rs/089a.jpg","null","","","","","","learn","SL",""
"","show_choice","5","107270","0.0-5.0","""event"",""trial"",""time""
""fullscreenenter"",""0"",""65228""
","
","
","""event"",""trial"",""time""
""fullscreenenter"",""0"",""65228""
","
","null","run_exp/static/images/blank.png","null","","","","","","learn","SL",""
"","html-keyboard-response","6","107779","0.0-6.0","""event"",""trial"",""time""
""fullscreenenter"",""0"",""65228""
","
","
","""event"",""trial"",""time""
""fullscreenenter"",""0"",""65228""
","
","null","<p></p>","null","","","","","","","",""
"","image","7","109027","0.0-7.0","""event"",""trial"",""time""
""fullscreenenter"",""0"",""65228""
","
","
","""event"",""trial"",""time""
""fullscreenenter"",""0"",""65228""
","
","1245","run_exp/static/images/Set 6_rs/076a.jpg","78","","","","","","learn","SR",""
"","show_choice","8","109800","0.0-8.0","""event"",""trial"",""time""
""fullscreenenter"",""0"",""65228""
","
","
","""event"",""trial"",""time""
""fullscreenenter"",""0"",""65228""
","
","null","run_exp/static/images/Set 6_rs/076a.jpg","null","","","","","","learn","SR",""
"","html-keyboard-response","9","110319","0.0-9.0","""event"",""trial"",""time""
""fullscreenenter"",""0"",""65228""
","
","
","""event"",""trial"",""time""
""fullscreenenter"",""0"",""65228""
","
","null","<p></p>","null","","","","","","","",""
"","image","10","111855","0.0-10.0","""event"",""trial"",""time""
""fullscreenenter"",""0"",""65228""
","
","
","""event"",""trial"",""time""
""fullscreenenter"",""0"",""65228""
","
","1533.5999999999767","run_exp/static/images/Set 6_rs/132a.jpg","78","","","","","","learn","SR",""
"","show_choice","11","112331","0.0-11.0","""event"",""trial"",""time""
""fullscreenenter"",""0"",""65228""
","
","
","""event"",""trial"",""time""
""fullscreenenter"",""0"",""65228""
","
","null","run_exp/static/images/Set 6_rs/132a.jpg","null","","","","","","learn","SR",""
"","html-keyboard-response","12","112848","0.0-12.0","""event"",""trial"",""time""
""fullscreenenter"",""0"",""65228""
","
","
","""event"",""trial"",""time""
""fullscreenenter"",""0"",""65228""
","
","null","<p></p>","null","","","","","","","",""
"","image","13","114161","0.0-13.0","""event"",""trial"",""time""
""fullscreenenter"",""0"",""65228""
","
","
","""event"",""trial"",""time""
""fullscreenenter"",""0"",""65228""
","
","1308.3000000000466","run_exp/static/images/Set 6_rs/071a.jpg","78","","","","","","learn","SL",""
"","show_choice","14","114867","0.0-14.0","""event"",""trial"",""time""
""fullscreenenter"",""0"",""65228""
","
","
","""event"",""trial"",""time""
""fullscreenenter"",""0"",""65228""
","
","null","run_exp/static/images/Set 6_rs/071a.jpg","null","","","","","","learn","SL",""
"","html-keyboard-response","15","115383","0.0-15.0","""event"",""trial"",""time""
""fullscreenenter"",""0"",""65228""
","
","
","""event"",""trial"",""time""
""fullscreenenter"",""0"",""65228""
","
","null","<p></p>","null","","","","","","","",""
"","image","16","116431","0.0-16.0","""event"",""trial"",""time""
""fullscreenenter"",""0"",""65228""
","
","
","""event"",""trial"",""time""
""fullscreenenter"",""0"",""65228""
","
","1046.5999999999767","run_exp/static/images/Set 6_rs/166a.jpg","86","","","","","","learn","SR",""
"","show_choice","17","117387","0.0-17.0","""event"",""trial"",""time""
""fullscreenenter"",""0"",""65228""
","
","
","""event"",""trial"",""time""
""fullscreenenter"",""0"",""65228""
","
","null","run_exp/static/images/Set 6_rs/166a.jpg","null","","","","","","learn","SR",""
"","html-keyboard-response","18","117898","0.0-18.0","""event"",""trial"",""time""
""fullscreenenter"",""0"",""65228""
","
","
","""event"",""trial"",""time""
""fullscreenenter"",""0"",""65228""
","
","null","<p></p>","null","","","","","","","",""
"","image","19","119411","0.0-19.0","""event"",""trial"",""time""
""fullscreenenter"",""0"",""65228""
","
","
","""event"",""trial"",""time""
""fullscreenenter"",""0"",""65228""
","
","1511.9000000000233","run_exp/static/images/Set 6_rs/150a.jpg","86","","","","","","learn","SR",""
"","show_choice","20","119913","0.0-20.0","""event"",""trial"",""time""
""fullscreenenter"",""0"",""65228""
","
","
","""event"",""trial"",""time""
""fullscreenenter"",""0"",""65228""
","
","null","run_exp/static/images/Set 6_rs/150a.jpg","null","","","","","","learn","SR",""
"","html-keyboard-response","21","120415","0.0-21.0","""event"",""trial"",""time""
""fullscreenenter"",""0"",""65228""
","
","
","""event"",""trial"",""time""
""fullscreenenter"",""0"",""65228""
","
","null","<p></p>","null","","","","","","","",""
"","image","22","122123","0.0-22.0","""event"",""trial"",""time""
""fullscreenenter"",""0"",""65228""
","
","
","""event"",""trial"",""time""
""fullscreenenter"",""0"",""65228""
","
","1706.0999999999767","run_exp/static/images/Set 6_rs/108a.jpg","78","","","","","","learn","SR",""
"","show_choice","23","122421","0.0-23.0","""event"",""trial"",""time""
""fullscreenenter"",""0"",""65228""
","
","
","""event"",""trial"",""time""
""fullscreenenter"",""0"",""65228""
","
","null","run_exp/static/images/Set 6_rs/108a.jpg","null","","","","","","learn","SR",""
"","html-keyboard-response","24","122932","0.0-24.0","""event"",""trial"",""time""
""fullscreenenter"",""0"",""65228""
","
","
","""event"",""trial"",""time""
""fullscreenenter"",""0"",""65228""
","
","null","<p></p>","null","","","","","","","",""
"","image","25","123998","0.0-25.0","""event"",""trial"",""time""
""fullscreenenter"",""0"",""65228""
","
","
","""event"",""trial"",""time""
""fullscreenenter"",""0"",""65228""
","
","1064","run_exp/static/images/Set 6_rs/057a.jpg","86","","","","","","learn","SL",""
"","show_choice","26","124944","0.0-26.0","""event"",""trial"",""time""
""fullscreenenter"",""0"",""65228""
","
","
","""event"",""trial"",""time""
""fullscreenenter"",""0"",""65228""
","
","null","run_exp/static/images/Set 6_rs/057a.jpg","null","","","","","","learn","SL",""
"","html-keyboard-response","27","125448","0.0-27.0","""event"",""trial"",""time""
""fullscreenenter"",""0"",""65228""
","
","
","""event"",""trial"",""time""
""fullscreenenter"",""0"",""65228""
","
","null","<p></p>","null","","","","","","","",""
"","image","28","126803","0.0-28.0","""event"",""trial"",""time""
""fullscreenenter"",""0"",""65228""
","
","
","""event"",""trial"",""time""
""fullscreenenter"",""0"",""65228""
","
","1352.8000000000466","run_exp/static/images/Set 6_rs/178a.jpg","78","","","","","","learn","SR",""
"","show_choice","29","127455","0.0-29.0","""event"",""trial"",""time""
""fullscreenenter"",""0"",""65228""
","
","
","""event"",""trial"",""time""
""fullscreenenter"",""0"",""65228""
","
","null","run_exp/static/images/Set 6_rs/178a.jpg","null","","","","","","learn","SR",""
"","html-keyboard-response","30","127958","0.0-30.0","""event"",""trial"",""time""
""fullscreenenter"",""0"",""65228""
","
","
","""event"",""trial"",""time""
""fullscreenenter"",""0"",""65228""
","
","null","<p></p>","null","","","","","","","",""
"","image","31","129904","0.0-31.0","""event"",""trial"",""time""
""fullscreenenter"",""0"",""65228""
","
","
","""event"",""trial"",""time""
""fullscreenenter"",""0"",""65228""
","
","1943.2999999999302","run_exp/static/images/Set 6_rs/144a.jpg","86","","","","","","learn","SL",""
"","show_choice","32","129977","0.0-32.0","""event"",""trial"",""time""
""fullscreenenter"",""0"",""65228""
","
","
","""event"",""trial"",""time""
""fullscreenenter"",""0"",""65228""
","
","null","run_exp/static/images/Set 6_rs/144a.jpg","null","","","","","","learn","SL",""
"","html-keyboard-response","33","130489","0.0-33.0","""event"",""trial"",""time""
""fullscreenenter"",""0"",""65228""
","
","
","""event"",""trial"",""time""
""fullscreenenter"",""0"",""65228""
","
","null","<p></p>","null","","","","","","","",""
"","image","34","132359","0.0-34.0","""event"",""trial"",""time""
""fullscreenenter"",""0"",""65228""
","
","
","""event"",""trial"",""time""
""fullscreenenter"",""0"",""65228""
","
","1869","run_exp/static/images/Set 6_rs/091a.jpg","78","","","","","","learn","SL",""
"","show_choice","35","132497","0.0-35.0","""event"",""trial"",""time""
""fullscreenenter"",""0"",""65228""
","
","
","""event"",""trial"",""time""
""fullscreenenter"",""0"",""65228""
","
","null","run_exp/static/images/Set 6_rs/091a.jpg","null","","","","","","learn","SL",""
"","html-keyboard-response","36","133004","0.0-36.0","""event"",""trial"",""time""
""fullscreenenter"",""0"",""65228""
","
","
","""event"",""trial"",""time""
""fullscreenenter"",""0"",""65228""
","
","null","<p></p>","null","","","","","","","",""
"","image","37","134512","0.0-37.0","""event"",""trial"",""time""
""fullscreenenter"",""0"",""65228""
","
","
","""event"",""trial"",""time""
""fullscreenenter"",""0"",""65228""
","
","1506.3000000000466","run_exp/static/images/Set 6_rs/181a.jpg","78","","","","","","learn","SL",""
"","show_choice","38","135020","0.0-38.0","""event"",""trial"",""time""
""fullscreenenter"",""0"",""65228""
","
","
","""event"",""trial"",""time""
""fullscreenenter"",""0"",""65228""
","
","null","run_exp/static/images/Set 6_rs/181a.jpg","null","","","","","","learn","SL",""
"","html-keyboard-response","39","135532","0.0-39.0","""event"",""trial"",""time""
""fullscreenenter"",""0"",""65228""
","
","
","""event"",""trial"",""time""
""fullscreenenter"",""0"",""65228""
","
","null","<p></p>","null","","","","","","","",""
"","image","40","136678","0.0-40.0","""event"",""trial"",""time""
""fullscreenenter"",""0"",""65228""
","
","
","""event"",""trial"",""time""
""fullscreenenter"",""0"",""65228""
","
","1144.5","run_exp/static/images/Set 6_rs/172a.jpg","78","","","","","","learn","SR",""
"","show_choice","41","137548","0.0-41.0","""event"",""trial"",""time""
""fullscreenenter"",""0"",""65228""
","
","
","""event"",""trial"",""time""
""fullscreenenter"",""0"",""65228""
","
","null","run_exp/static/images/Set 6_rs/172a.jpg","null","","","","","","learn","SR",""
"","html-keyboard-response","42","138060","0.0-42.0","""event"",""trial"",""time""
""fullscreenenter"",""0"",""65228""
","
","
","""event"",""trial"",""time""
""fullscreenenter"",""0"",""65228""
","
","null","<p></p>","null","","","","","","","",""
"","image","43","139409","0.0-43.0","""event"",""trial"",""time""
""fullscreenenter"",""0"",""65228""
","
","
","""event"",""trial"",""time""
""fullscreenenter"",""0"",""65228""
","
","1346.0999999999767","run_exp/static/images/Set 6_rs/141a.jpg","78","","","","","","learn","SR",""
"","show_choice","44","140075","0.0-44.0","""event"",""trial"",""time""
""fullscreenenter"",""0"",""65228""
","
","
","""event"",""trial"",""time""
""fullscreenenter"",""0"",""65228""
","
","null","run_exp/static/images/Set 6_rs/141a.jpg","null","","","","","","learn","SR",""
"","html-keyboard-response","45","140587","0.0-45.0","""event"",""trial"",""time""
""fullscreenenter"",""0"",""65228""
","
","
","""event"",""trial"",""time""
""fullscreenenter"",""0"",""65228""
","
","null","<p></p>","null","","","","","","","",""
"","image","46","141695","0.0-46.0","""event"",""trial"",""time""
""fullscreenenter"",""0"",""65228""
","
","
","""event"",""trial"",""time""
""fullscreenenter"",""0"",""65228""
","
","1106.4000000000233","run_exp/static/images/Set 6_rs/191a.jpg","78","","","","","","learn","SL",""
"","show_choice","47","142598","0.0-47.0","""event"",""trial"",""time""
""fullscreenenter"",""0"",""65228""
","
","
","""event"",""trial"",""time""
""fullscreenenter"",""0"",""65228""
","
","null","run_exp/static/images/Set 6_rs/191a.jpg","null","","","","","","learn","SL",""
"","html-keyboard-response","48","143105","0.0-48.0","""event"",""trial"",""time""
""fullscreenenter"",""0"",""65228""
","
","
","""event"",""trial"",""time""
""fullscreenenter"",""0"",""65228""
","
","null","<p></p>","null","","","","","","","",""
"","image","49","144487","0.0-49.0","""event"",""trial"",""time""
""fullscreenenter"",""0"",""65228""
","
","
","""event"",""trial"",""time""
""fullscreenenter"",""0"",""65228""
","
","1379.9000000000233","run_exp/static/images/Set 6_rs/006a.jpg","86","","","","","","learn","SL",""
"","show_choice","50","145114","0.0-50.0","""event"",""trial"",""time""
""fullscreenenter"",""0"",""65228""
","
","
","""event"",""trial"",""time""
""fullscreenenter"",""0"",""65228""
","
","null","run_exp/static/images/Set 6_rs/006a.jpg","null","","","","","","learn","SL",""
"","html-keyboard-response","51","145620","0.0-51.0","""event"",""trial"",""time""
""fullscreenenter"",""0"",""65228""
","
","
","""event"",""trial"",""time""
""fullscreenenter"",""0"",""65228""
","
","null","<p></p>","null","","","","","","","",""
"","image","52","146940","0.0-52.0","""event"",""trial"",""time""
""fullscreenenter"",""0"",""65228""
","
","
","""event"",""trial"",""time""
""fullscreenenter"",""0"",""65228""
","
","1319.0999999999767","run_exp/static/images/Set 6_rs/167a.jpg","78","","","","","","learn","SL",""
"","show_choice","53","147637","0.0-53.0","""event"",""trial"",""time""
""fullscreenenter"",""0"",""65228""
","
","
","""event"",""trial"",""time""
""fullscreenenter"",""0"",""65228""
","
","null","run_exp/static/images/Set 6_rs/167a.jpg","null","","","","","","learn","SL",""
"","html-keyboard-response","54","148139","0.0-54.0","""event"",""trial"",""time""
""fullscreenenter"",""0"",""65228""
","
","
","""event"",""trial"",""time""
""fullscreenenter"",""0"",""65228""
","
","null","<p></p>","null","","","","","","","",""
"","image","55","149311","0.0-55.0","""event"",""trial"",""time""
""fullscreenenter"",""0"",""65228""
","
","
","""event"",""trial"",""time""
""fullscreenenter"",""0"",""65228""
","
","1168.4000000000233","run_exp/static/images/Set 6_rs/017a.jpg","78","","","","","","learn","SL",""
"","show_choice","56","150153","0.0-56.0","""event"",""trial"",""time""
""fullscreenenter"",""0"",""65228""
","
","
","""event"",""trial"",""time""
""fullscreenenter"",""0"",""65228""
","
","null","run_exp/static/images/Set 6_rs/017a.jpg","null","","","","","","learn","SL",""
"","html-keyboard-response","57","150654","0.0-57.0","""event"",""trial"",""time""
""fullscreenenter"",""0"",""65228""
","
","
","""event"",""trial"",""time""
""fullscreenenter"",""0"",""65228""
","
","null","<p></p>","null","","","","","","","",""
"","image","58","151856","0.0-58.0","""event"",""trial"",""time""
""fullscreenenter"",""0"",""65228""
","
","
","""event"",""trial"",""time""
""fullscreenenter"",""0"",""65228""
","
","1200.1999999999534","run_exp/static/images/Set 6_rs/134a.jpg","78","","","","","","learn","SR",""
"","show_choice","59","152663","0.0-59.0","""event"",""trial"",""time""
""fullscreenenter"",""0"",""65228""
","
","
","""event"",""trial"",""time""
""fullscreenenter"",""0"",""65228""
","
","null","run_exp/static/images/Set 6_rs/134a.jpg","null","","","","","","learn","SR",""
"","html-keyboard-response","60","153166","0.0-60.0","""event"",""trial"",""time""
""fullscreenenter"",""0"",""65228""
","
","
","""event"",""trial"",""time""
""fullscreenenter"",""0"",""65228""
","
","null","<p></p>","null","","","","","","","",""
"","image","61","154642","0.0-61.0","""event"",""trial"",""time""
""fullscreenenter"",""0"",""65228""
","
","
","""event"",""trial"",""time""
""fullscreenenter"",""0"",""65228""
","
","1474.0999999999767","run_exp/static/images/Set 6_rs/050a.jpg","86","","","","","","learn","SL",""
"","show_choice","62","155183","0.0-62.0","""event"",""trial"",""time""
""fullscreenenter"",""0"",""65228""
","
","
","""event"",""trial"",""time""
""fullscreenenter"",""0"",""65228""
","
","null","run_exp/static/images/Set 6_rs/050a.jpg","null","","","","","","learn","SL",""
"","html-keyboard-response","63","155688","0.0-63.0","""event"",""trial"",""time""
""fullscreenenter"",""0"",""65228""
","
","
","""event"",""trial"",""time""
""fullscreenenter"",""0"",""65228""
","
","null","<p></p>","null","","","","","","","",""
"","image","64","157632","0.0-64.0","""event"",""trial"",""time""
""fullscreenenter"",""0"",""65228""
","
","
","""event"",""trial"",""time""
""fullscreenenter"",""0"",""65228""
","
","1941.0999999999767","run_exp/static/images/Set 6_rs/008a.jpg","86","","","","","","learn","SL",""
"","show_choice","65","157715","0.0-65.0","""event"",""trial"",""time""
""fullscreenenter"",""0"",""65228""
","
","
","""event"",""trial"",""time""
""fullscreenenter"",""0"",""65228""
","
","null","run_exp/static/images/Set 6_rs/008a.jpg","null","","","","","","learn","SL",""
"","html-keyboard-response","66","158217","0.0-66.0","""event"",""trial"",""time""
""fullscreenenter"",""0"",""65228""
","
","
","""event"",""trial"",""time""
""fullscreenenter"",""0"",""65228""
","
","null","<p></p>","null","","","","","","","",""
"","image","67","159186","0.0-67.0","""event"",""trial"",""time""
""fullscreenenter"",""0"",""65228""
","
","
","""event"",""trial"",""time""
""fullscreenenter"",""0"",""65228""
","
","967.1999999999534","run_exp/static/images/Set 6_rs/079a.jpg","86","","","","","","learn","SL",""
"","show_choice","68","160226","0.0-68.0","""event"",""trial"",""time""
""fullscreenenter"",""0"",""65228""
","
","
","""event"",""trial"",""time""
""fullscreenenter"",""0"",""65228""
","
","null","run_exp/static/images/Set 6_rs/079a.jpg","null","","","","","","learn","SL",""
"","html-keyboard-response","69","160733","0.0-69.0","""event"",""trial"",""time""
""fullscreenenter"",""0"",""65228""
","
","
","""event"",""trial"",""time""
""fullscreenenter"",""0"",""65228""
","
","null","<p></p>","null","","","","","","","",""
"","image","70","162034","0.0-70.0","""event"",""trial"",""time""
""fullscreenenter"",""0"",""65228""
","
","
","""event"",""trial"",""time""
""fullscreenenter"",""0"",""65228""
","
","1298.5","run_exp/static/images/Set 6_rs/062a.jpg","86","","","","","","learn","SL",""
"","show_choice","71","162747","0.0-71.0","""event"",""trial"",""time""
""fullscreenenter"",""0"",""65228""
","
","
","""event"",""trial"",""time""
""fullscreenenter"",""0"",""65228""
","
","null","run_exp/static/images/Set 6_rs/062a.jpg","null","","","","","","learn","SL",""
"","html-keyboard-response","72","163255","0.0-72.0","""event"",""trial"",""time""
""fullscreenenter"",""0"",""65228""
","
","
","""event"",""trial"",""time""
""fullscreenenter"",""0"",""65228""
","
","null","<p></p>","null","","","","","","","",""
"","image","73","164194","0.0-73.0","""event"",""trial"",""time""
""fullscreenenter"",""0"",""65228""
","
","
","""event"",""trial"",""time""
""fullscreenenter"",""0"",""65228""
","
","937.7000000000698","run_exp/static/images/Set 6_rs/063a.jpg","86","","","","","","learn","SR",""
"","show_choice","74","165259","0.0-74.0","""event"",""trial"",""time""
""fullscreenenter"",""0"",""65228""
","
","
","""event"",""trial"",""time""
""fullscreenenter"",""0"",""65228""
","
","null","run_exp/static/images/Set 6_rs/063a.jpg","null","","","","","","learn","SR",""
"","html-keyboard-response","75","165768","0.0-75.0","""event"",""trial"",""time""
""fullscreenenter"",""0"",""65228""
","
","
","""event"",""trial"",""time""
""fullscreenenter"",""0"",""65228""
","
","null","<p></p>","null","","","","","","","",""
"","image","76","166823","0.0-76.0","""event"",""trial"",""time""
""fullscreenenter"",""0"",""65228""
","
","
","""event"",""trial"",""time""
""fullscreenenter"",""0"",""65228""
","
","1053.3999999999069","run_exp/static/images/Set 6_rs/025a.jpg","78","","","","","","learn","SL",""
"","show_choice","77","167788","0.0-77.0","""event"",""trial"",""time""
""fullscreenenter"",""0"",""65228""
","
","
","""event"",""trial"",""time""
""fullscreenenter"",""0"",""65228""
","
","null","run_exp/static/images/Set 6_rs/025a.jpg","null","","","","","","learn","SL",""
"","html-keyboard-response","78","168292","0.0-78.0","""event"",""trial"",""time""
""fullscreenenter"",""0"",""65228""
","
","
","""event"",""trial"",""time""
""fullscreenenter"",""0"",""65228""
","
","null","<p></p>","null","","","","","","","",""
"","image","79","169607","0.0-79.0","""event"",""trial"",""time""
""fullscreenenter"",""0"",""65228""
","
","
","""event"",""trial"",""time""
""fullscreenenter"",""0"",""65228""
","
","1313","run_exp/static/images/Set 6_rs/064a.jpg","86","","","","","","learn","SR",""
"","show_choice","80","170296","0.0-80.0","""event"",""trial"",""time""
""fullscreenenter"",""0"",""65228""
","
","
","""event"",""trial"",""time""
""fullscreenenter"",""0"",""65228""
","
","null","run_exp/static/images/Set 6_rs/064a.jpg","null","","","","","","learn","SR",""
"","html-keyboard-response","81","170798","0.0-81.0","""event"",""trial"",""time""
""fullscreenenter"",""0"",""65228""
","
","
","""event"",""trial"",""time""
""fullscreenenter"",""0"",""65228""
","
","null","<p></p>","null","","","","","","","",""
"","image","82","171904","0.0-82.0","""event"",""trial"",""time""
""fullscreenenter"",""0"",""65228""
","
","
","""event"",""trial"",""time""
""fullscreenenter"",""0"",""65228""
","
","1103.9000000000233","run_exp/static/images/Set 6_rs/055a.jpg","86","","","","","","learn","SL",""
"","show_choice","83","172816","0.0-83.0","""event"",""trial"",""time""
""fullscreenenter"",""0"",""65228""
","
","
","""event"",""trial"",""time""
""fullscreenenter"",""0"",""65228""
","
","null","run_exp/static/images/Set 6_rs/055a.jpg","null","","","","","","learn","SL",""
"","html-keyboard-response","84","173323","0.0-84.0","""event"",""trial"",""time""
""fullscreenenter"",""0"",""65228""
","
","
","""event"",""trial"",""time""
""fullscreenenter"",""0"",""65228""
","
","null","<p></p>","null","","","","","","","",""
"","image","85","174591","0.0-85.0","""event"",""trial"",""time""
""fullscreenenter"",""0"",""65228""
","
","
","""event"",""trial"",""time""
""fullscreenenter"",""0"",""65228""
","
","1266.6999999999534","run_exp/static/images/Set 6_rs/138a.jpg","86","","","","","","learn","SL",""
"","show_choice","86","175327","0.0-86.0","""event"",""trial"",""time""
""fullscreenenter"",""0"",""65228""
","
","
","""event"",""trial"",""time""
""fullscreenenter"",""0"",""65228""
","
","null","run_exp/static/images/Set 6_rs/138a.jpg","null","","","","","","learn","SL",""
"","html-keyboard-response","87","175831","0.0-87.0","""event"",""trial"",""time""
""fullscreenenter"",""0"",""65228""
","
","
","""event"",""trial"",""time""
""fullscreenenter"",""0"",""65228""
","
","null","<p></p>","null","","","","","","","",""
"","image","88","177840","0.0-88.0","""event"",""trial"",""time""
""fullscreenenter"",""0"",""65228""
","
","
","""event"",""trial"",""time""
""fullscreenenter"",""0"",""65228""
","
","null","run_exp/static/images/Set 6_rs/007a.jpg","null","","","","","","learn","SR",""
"","show_choice","89","179846","0.0-89.0","""event"",""trial"",""time""
""fullscreenenter"",""0"",""65228""
","
","
","""event"",""trial"",""time""
""fullscreenenter"",""0"",""65228""
","
","null","run_exp/static/images/blank.png","null","","","","","","learn","SR",""
"","html-keyboard-response","90","180355","0.0-90.0","""event"",""trial"",""time""
""fullscreenenter"",""0"",""65228""
","
","
","""event"",""trial"",""time""
""fullscreenenter"",""0"",""65228""
","
","null","<p></p>","null","","","","","","","",""
"","image","91","181572","0.0-91.0","""event"",""trial"",""time""
""fullscreenenter"",""0"",""65228""
","
","
","""event"",""trial"",""time""
""fullscreenenter"",""0"",""65228""
","
","1214.2000000000698","run_exp/static/images/Set 6_rs/116a.jpg","86","","","","","","learn","SL",""
"","show_choice","92","182371","0.0-92.0","""event"",""trial"",""time""
""fullscreenenter"",""0"",""65228""
","
","
","""event"",""trial"",""time""
""fullscreenenter"",""0"",""65228""
","
","null","run_exp/static/images/Set 6_rs/116a.jpg","null","","","","","","learn","SL",""
"","html-keyboard-response","93","182874","0.0-93.0","""event"",""trial"",""time""
""fullscreenenter"",""0"",""65228""
","
","
","""event"",""trial"",""time""
""fullscreenenter"",""0"",""65228""
","
","null","<p></p>","null","","","","","","","",""
"","image","94","184471","0.0-94.0","""event"",""trial"",""time""
""fullscreenenter"",""0"",""65228""
","
","
","""event"",""trial"",""time""
""fullscreenenter"",""0"",""65228""
","
","1600.6999999999534","run_exp/static/images/Set 6_rs/012a.jpg","78","","","","","","learn","SR",""
"","show_choice","95","184873","0.0-95.0","""event"",""trial"",""time""
""fullscreenenter"",""0"",""65228""
","
","
","""event"",""trial"",""time""
""fullscreenenter"",""0"",""65228""
","
","null","run_exp/static/images/Set 6_rs/012a.jpg","null","","","","","","learn","SR",""
"","html-keyboard-response","96","185384","0.0-96.0","""event"",""trial"",""time""
""fullscreenenter"",""0"",""65228""
","
","
","""event"",""trial"",""time""
""fullscreenenter"",""0"",""65228""
","
","null","<p></p>","null","","","","","","","",""
"","image","97","186771","0.0-97.0","""event"",""trial"",""time""
""fullscreenenter"",""0"",""65228""
","
","
","""event"",""trial"",""time""
""fullscreenenter"",""0"",""65228""
","
","1383.5","run_exp/static/images/Set 6_rs/085a.jpg","86","","","","","","learn","SL",""
"","show_choice","98","187406","0.0-98.0","""event"",""trial"",""time""
""fullscreenenter"",""0"",""65228""
","
","
","""event"",""trial"",""time""
""fullscreenenter"",""0"",""65228""
","
","null","run_exp/static/images/Set 6_rs/085a.jpg","null","","","","","","learn","SL",""
"","html-keyboard-response","99","187917","0.0-99.0","""event"",""trial"",""time""
""fullscreenenter"",""0"",""65228""
","
","
","""event"",""trial"",""time""
""fullscreenenter"",""0"",""65228""
","
","null","<p></p>","null","","","","","","","",""
"","image","100","189461","0.0-100.0","""event"",""trial"",""time""
""fullscreenenter"",""0"",""65228""
","
","
","""event"",""trial"",""time""
""fullscreenenter"",""0"",""65228""
","
","1541.0999999999767","run_exp/static/images/Set 6_rs/121a.jpg","78","","","","","","learn","SR",""
"","show_choice","101","189932","0.0-101.0","""event"",""trial"",""time""
""fullscreenenter"",""0"",""65228""
","
","
","""event"",""trial"",""time""
""fullscreenenter"",""0"",""65228""
","
","null","run_exp/static/images/Set 6_rs/121a.jpg","null","","","","","","learn","SR",""
"","html-keyboard-response","102","190434","0.0-102.0","""event"",""trial"",""time""
""fullscreenenter"",""0"",""65228""
","
","
","""event"",""trial"",""time""
""fullscreenenter"",""0"",""65228""
","
","null","<p></p>","null","","","","","","","",""
"","image","103","192164","0.0-103.0","""event"",""trial"",""time""
""fullscreenenter"",""0"",""65228""
","
","
","""event"",""trial"",""time""
""fullscreenenter"",""0"",""65228""
","
","1726.4000000000233","run_exp/static/images/Set 6_rs/010a.jpg","86","","","","","","learn","SR",""
"","show_choice","104","192443","0.0-104.0","""event"",""trial"",""time""
""fullscreenenter"",""0"",""65228""
","
","
","""event"",""trial"",""time""
""fullscreenenter"",""0"",""65228""
","
","null","run_exp/static/images/Set 6_rs/010a.jpg","null","","","","","","learn","SR",""
"","html-keyboard-response","105","192946","0.0-105.0","""event"",""trial"",""time""
""fullscreenenter"",""0"",""65228""
","
","
","""event"",""trial"",""time""
""fullscreenenter"",""0"",""65228""
","
","null","<p></p>","null","","","","","","","",""
"","image","106","194439","0.0-106.0","""event"",""trial"",""time""
""fullscreenenter"",""0"",""65228""
","
","
","""event"",""trial"",""time""
""fullscreenenter"",""0"",""65228""
","
","1489.5999999999767","run_exp/static/images/Set 6_rs/095a.jpg","86","","","","","","learn","SL",""
"","show_choice","107","194964","0.0-107.0","""event"",""trial"",""time""
""fullscreenenter"",""0"",""65228""
","
","
","""event"",""trial"",""time""
""fullscreenenter"",""0"",""65228""
","
","null","run_exp/static/images/Set 6_rs/095a.jpg","null","","","","","","learn","SL",""
"","html-keyboard-response","108","195479","0.0-108.0","""event"",""trial"",""time""
""fullscreenenter"",""0"",""65228""
","
","
","""event"",""trial"",""time""
""fullscreenenter"",""0"",""65228""
","
","null","<p></p>","null","","","","","","","",""
"","image","109","196933","0.0-109.0","""event"",""trial"",""time""
""fullscreenenter"",""0"",""65228""
","
","
","""event"",""trial"",""time""
""fullscreenenter"",""0"",""65228""
","
","1451.5999999999767","run_exp/static/images/Set 6_rs/126a.jpg","78","","","","","","learn","SR",""
"","show_choice","110","197493","0.0-110.0","""event"",""trial"",""time""
""fullscreenenter"",""0"",""65228""
","
","
","""event"",""trial"",""time""
""fullscreenenter"",""0"",""65228""
","
","null","run_exp/static/images/Set 6_rs/126a.jpg","null","","","","","","learn","SR",""
"","html-keyboard-response","111","197995","0.0-111.0","""event"",""trial"",""time""
""fullscreenenter"",""0"",""65228""
","
","
","""event"",""trial"",""time""
""fullscreenenter"",""0"",""65228""
","
","null","<p></p>","null","","","","","","","",""
"","image","112","199598","0.0-112.0","""event"",""trial"",""time""
""fullscreenenter"",""0"",""65228""
","
","
","""event"",""trial"",""time""
""fullscreenenter"",""0"",""65228""
","
","1599.9000000000233","run_exp/static/images/Set 6_rs/129a.jpg","86","","","","","","learn","SL",""
"","show_choice","113","200008","0.0-113.0","""event"",""trial"",""time""
""fullscreenenter"",""0"",""65228""
","
","
","""event"",""trial"",""time""
""fullscreenenter"",""0"",""65228""
","
","null","run_exp/static/images/Set 6_rs/129a.jpg","null","","","","","","learn","SL",""
"","html-keyboard-response","114","200510","0.0-114.0","""event"",""trial"",""time""
""fullscreenenter"",""0"",""65228""
","
","
","""event"",""trial"",""time""
""fullscreenenter"",""0"",""65228""
","
","null","<p></p>","null","","","","","","","",""
"","image","115","202049","0.0-115.0","""event"",""trial"",""time""
""fullscreenenter"",""0"",""65228""
","
","
","""event"",""trial"",""time""
""fullscreenenter"",""0"",""65228""
","
","1534.7000000000698","run_exp/static/images/Set 6_rs/061a.jpg","78","","","","","","learn","SR",""
"","show_choice","116","202526","0.0-116.0","""event"",""trial"",""time""
""fullscreenenter"",""0"",""65228""
","
","
","""event"",""trial"",""time""
""fullscreenenter"",""0"",""65228""
","
","null","run_exp/static/images/Set 6_rs/061a.jpg","null","","","","","","learn","SR",""
"","html-keyboard-response","117","203029","0.0-117.0","""event"",""trial"",""time""
""fullscreenenter"",""0"",""65228""
","
","
","""event"",""trial"",""time""
""fullscreenenter"",""0"",""65228""
","
","null","<p></p>","null","","","","","","","",""
"","image","118","203956","0.0-118.0","""event"",""trial"",""time""
""fullscreenenter"",""0"",""65228""
","
","
","""event"",""trial"",""time""
""fullscreenenter"",""0"",""65228""
","
","923.5999999999767","run_exp/static/images/Set 6_rs/169a.jpg","78","","","","","","learn","SR",""
"","show_choice","119","205040","0.0-119.0","""event"",""trial"",""time""
""fullscreenenter"",""0"",""65228""
","
","
","""event"",""trial"",""time""
""fullscreenenter"",""0"",""65228""
","
","null","run_exp/static/images/Set 6_rs/169a.jpg","null","","","","","","learn","SR",""
"","html-keyboard-response","120","205544","0.0-120.0","""event"",""trial"",""time""
""fullscreenenter"",""0"",""65228""
","
","
","""event"",""trial"",""time""
""fullscreenenter"",""0"",""65228""
","
","null","<p></p>","null","","","","","","","",""
"","image","121","206983","0.0-121.0","""event"",""trial"",""time""
""fullscreenenter"",""0"",""65228""
","
","
","""event"",""trial"",""time""
""fullscreenenter"",""0"",""65228""
","
","1435.5999999999767","run_exp/static/images/Set 6_rs/168a.jpg","78","","","","","","learn","SL",""
"","show_choice","122","207556","0.0-122.0","""event"",""trial"",""time""
""fullscreenenter"",""0"",""65228""
","
","
","""event"",""trial"",""time""
""fullscreenenter"",""0"",""65228""
","
","null","run_exp/static/images/Set 6_rs/168a.jpg","null","","","","","","learn","SL",""
"","html-keyboard-response","123","208059","0.0-123.0","""event"",""trial"",""time""
""fullscreenenter"",""0"",""65228""
","
","
","""event"",""trial"",""time""
""fullscreenenter"",""0"",""65228""
","
","null","<p></p>","null","","","","","","","",""
"","image","124","209690","0.0-124.0","""event"",""trial"",""time""
""fullscreenenter"",""0"",""65228""
","
","
","""event"",""trial"",""time""
""fullscreenenter"",""0"",""65228""
","
","1628","run_exp/static/images/Set 6_rs/131a.jpg","78","","","","","","learn","SR",""
"","show_choice","125","210067","0.0-125.0","""event"",""trial"",""time""
""fullscreenenter"",""0"",""65228""
","
","
","""event"",""trial"",""time""
""fullscreenenter"",""0"",""65228""
","
","null","run_exp/static/images/Set 6_rs/131a.jpg","null","","","","","","learn","SR",""
"","html-keyboard-response","126","210579","0.0-126.0","""event"",""trial"",""time""
""fullscreenenter"",""0"",""65228""
","
","
","""event"",""trial"",""time""
""fullscreenenter"",""0"",""65228""
","
","null","<p></p>","null","","","","","","","",""
"","image","127","212592","0.0-127.0","""event"",""trial"",""time""
""fullscreenenter"",""0"",""65228""
","
","
","""event"",""trial"",""time""
""fullscreenenter"",""0"",""65228""
","
","null","run_exp/static/images/Set 6_rs/019a.jpg","null","","","","","","learn","SL",""
"","show_choice","128","214598","0.0-128.0","""event"",""trial"",""time""
""fullscreenenter"",""0"",""65228""
","
","
","""event"",""trial"",""time""
""fullscreenenter"",""0"",""65228""
","
","null","run_exp/static/images/blank.png","null","","","","","","learn","SL",""
"","html-keyboard-response","129","215112","0.0-129.0","""event"",""trial"",""time""
""fullscreenenter"",""0"",""65228""
","
","
","""event"",""trial"",""time""
""fullscreenenter"",""0"",""65228""
","
","null","<p></p>","null","","","","","","","",""
"","image","130","216344","0.0-130.0","""event"",""trial"",""time""
""fullscreenenter"",""0"",""65228""
","
","
","""event"",""trial"",""time""
""fullscreenenter"",""0"",""65228""
","
","1228.9000000000233","run_exp/static/images/Set 6_rs/070a.jpg","86","","","","","","learn","SR",""
"","show_choice","131","217123","0.0-131.0","""event"",""trial"",""time""
""fullscreenenter"",""0"",""65228""
","
","
","""event"",""trial"",""time""
""fullscreenenter"",""0"",""65228""
","
","null","run_exp/static/images/Set 6_rs/070a.jpg","null","","","","","","learn","SR",""
"","html-keyboard-response","132","217626","0.0-132.0","""event"",""trial"",""time""
""fullscreenenter"",""0"",""65228""
","
","
","""event"",""trial"",""time""
""fullscreenenter"",""0"",""65228""
","
","null","<p></p>","null","","","","","","","",""
"","image","133","219294","0.0-133.0","""event"",""trial"",""time""
""fullscreenenter"",""0"",""65228""
","
","
","""event"",""trial"",""time""
""fullscreenenter"",""0"",""65228""
","
","1666.6000000000931","run_exp/static/images/Set 6_rs/112a.jpg","78","","","","","","learn","SR",""
"","show_choice","134","219634","0.0-134.0","""event"",""trial"",""time""
""fullscreenenter"",""0"",""65228""
","
","
","""event"",""trial"",""time""
""fullscreenenter"",""0"",""65228""
","
","null","run_exp/static/images/Set 6_rs/112a.jpg","null","","","","","","learn","SR",""
"","html-keyboard-response","135","220137","0.0-135.0","""event"",""trial"",""time""
""fullscreenenter"",""0"",""65228""
","
","
","""event"",""trial"",""time""
""fullscreenenter"",""0"",""65228""
","
","null","<p></p>","null","","","","","","","",""
"","image","136","221342","0.0-136.0","""event"",""trial"",""time""
""fullscreenenter"",""0"",""65228""
","
","
","""event"",""trial"",""time""
""fullscreenenter"",""0"",""65228""
","
","1200.9000000000233","run_exp/static/images/Set 6_rs/111a.jpg","78","","","","","","learn","SL",""
"","show_choice","137","222149","0.0-137.0","""event"",""trial"",""time""
""fullscreenenter"",""0"",""65228""
","
","
","""event"",""trial"",""time""
""fullscreenenter"",""0"",""65228""
","
","null","run_exp/static/images/Set 6_rs/111a.jpg","null","","","","","","learn","SL",""
"","html-keyboard-response","138","222651","0.0-138.0","""event"",""trial"",""time""
""fullscreenenter"",""0"",""65228""
","
","
","""event"",""trial"",""time""
""fullscreenenter"",""0"",""65228""
","
","null","<p></p>","null","","","","","","","",""
"","image","139","223954","0.0-139.0","""event"",""trial"",""time""
""fullscreenenter"",""0"",""65228""
","
","
","""event"",""trial"",""time""
""fullscreenenter"",""0"",""65228""
","
","1299.5999999999767","run_exp/static/images/Set 6_rs/066a.jpg","78","","","","","","learn","SL",""
"","show_choice","140","224670","0.0-140.0","""event"",""trial"",""time""
""fullscreenenter"",""0"",""65228""
","
","
","""event"",""trial"",""time""
""fullscreenenter"",""0"",""65228""
","
","null","run_exp/static/images/Set 6_rs/066a.jpg","null","","","","","","learn","SL",""
"","html-keyboard-response","141","225173","0.0-141.0","""event"",""trial"",""time""
""fullscreenenter"",""0"",""65228""
","
","
","""event"",""trial"",""time""
""fullscreenenter"",""0"",""65228""
","
","null","<p></p>","null","","","","","","","",""
"","image","142","226805","0.0-142.0","""event"",""trial"",""time""
""fullscreenenter"",""0"",""65228""
","
","
","""event"",""trial"",""time""
""fullscreenenter"",""0"",""65228""
","
","1629.1000000000931","run_exp/static/images/Set 6_rs/073a.jpg","86","","","","","","learn","SL",""
"","show_choice","143","227193","0.0-143.0","""event"",""trial"",""time""
""fullscreenenter"",""0"",""65228""
","
","
","""event"",""trial"",""time""
""fullscreenenter"",""0"",""65228""
","
","null","run_exp/static/images/Set 6_rs/073a.jpg","null","","","","","","learn","SL",""
"","html-keyboard-response","144","227705","0.0-144.0","""event"",""trial"",""time""
""fullscreenenter"",""0"",""65228""
","
","
","""event"",""trial"",""time""
""fullscreenenter"",""0"",""65228""
","
","null","<p></p>","null","","","","","","","",""
"","image","145","229489","0.0-145.0","""event"",""trial"",""time""
""fullscreenenter"",""0"",""65228""
","
","
","""event"",""trial"",""time""
""fullscreenenter"",""0"",""65228""
","
","1780.6999999999534","run_exp/static/images/Set 6_rs/045a.jpg","78","","","","","","learn","SR",""
"","show_choice","146","229726","0.0-146.0","""event"",""trial"",""time""
""fullscreenenter"",""0"",""65228""
","
","
","""event"",""trial"",""time""
""fullscreenenter"",""0"",""65228""
","
","null","run_exp/static/images/Set 6_rs/045a.jpg","null","","","","","","learn","SR",""
"","html-keyboard-response","147","230238","0.0-147.0","""event"",""trial"",""time""
""fullscreenenter"",""0"",""65228""
","
","
","""event"",""trial"",""time""
""fullscreenenter"",""0"",""65228""
","
","null","<p></p>","null","","","","","","","",""
"","image","148","231800","0.0-148.0","""event"",""trial"",""time""
""fullscreenenter"",""0"",""65228""
","
","
","""event"",""trial"",""time""
""fullscreenenter"",""0"",""65228""
","
","1560.0999999999767","run_exp/static/images/Set 6_rs/088a.jpg","86","","","","","","learn","SR",""
"","show_choice","149","232251","0.0-149.0","""event"",""trial"",""time""
""fullscreenenter"",""0"",""65228""
","
","
","""event"",""trial"",""time""
""fullscreenenter"",""0"",""65228""
","
","null","run_exp/static/images/Set 6_rs/088a.jpg","null","","","","","","learn","SR",""
"","html-keyboard-response","150","232754","0.0-150.0","""event"",""trial"",""time""
""fullscreenenter"",""0"",""65228""
","
","
","""event"",""trial"",""time""
""fullscreenenter"",""0"",""65228""
","
","null","<p></p>","null","","","","","","","",""
"","image","151","234408","0.0-151.0","""event"",""trial"",""time""
""fullscreenenter"",""0"",""65228""
","
","
","""event"",""trial"",""time""
""fullscreenenter"",""0"",""65228""
","
","1650.3999999999069","run_exp/static/images/Set 6_rs/122a.jpg","78","","","","","","learn","SR",""
"","show_choice","152","234763","0.0-152.0","""event"",""trial"",""time""
""fullscreenenter"",""0"",""65228""
","
","
","""event"",""trial"",""time""
""fullscreenenter"",""0"",""65228""
","
","null","run_exp/static/images/Set 6_rs/122a.jpg","null","","","","","","learn","SR",""
"","html-keyboard-response","153","235267","0.0-153.0","""event"",""trial"",""time""
""fullscreenenter"",""0"",""65228""
","
","
","""event"",""trial"",""time""
""fullscreenenter"",""0"",""65228""
","
","null","<p></p>","null","","","","","","","",""
"","image","154","237274","0.0-154.0","""event"",""trial"",""time""
""fullscreenenter"",""0"",""65228""
","
","
","""event"",""trial"",""time""
""fullscreenenter"",""0"",""65228""
","
","null","run_exp/static/images/Set 6_rs/177a.jpg","null","","","","","","learn","SR",""
"","show_choice","155","239288","0.0-155.0","""event"",""trial"",""time""
""fullscreenenter"",""0"",""65228""
","
","
","""event"",""trial"",""time""
""fullscreenenter"",""0"",""65228""
","
","null","run_exp/static/images/blank.png","null","","","","","","learn","SR",""
"","html-keyboard-response","156","239795","0.0-156.0","""event"",""trial"",""time""
""fullscreenenter"",""0"",""65228""
","
","
","""event"",""trial"",""time""
""fullscreenenter"",""0"",""65228""
","
","null","<p></p>","null","","","","","","","",""
"","image","157","241798","0.0-157.0","""event"",""trial"",""time""
""fullscreenenter"",""0"",""65228""
","
","
","""event"",""trial"",""time""
""fullscreenenter"",""0"",""65228""
","
","null","run_exp/static/images/Set 6_rs/016a.jpg","null","","","","","","learn","SL",""
"","show_choice","158","243810","0.0-158.0","""event"",""trial"",""time""
""fullscreenenter"",""0"",""65228""
","
","
","""event"",""trial"",""time""
""fullscreenenter"",""0"",""65228""
","
","null","run_exp/static/images/blank.png","null","","","","","","learn","SL",""
"","html-keyboard-response","159","244313","0.0-159.0","""event"",""trial"",""time""
""fullscreenenter"",""0"",""65228""
","
","
","""event"",""trial"",""time""
""fullscreenenter"",""0"",""65228""
","
","null","<p></p>","null","","","","","","","",""
"","image","160","245605","0.0-160.0","""event"",""trial"",""time""
""fullscreenenter"",""0"",""65228""
","
","
","""event"",""trial"",""time""
""fullscreenenter"",""0"",""65228""
","
","1286.5","run_exp/static/images/Set 6_rs/075a.jpg","78","","","","","","learn","SR",""
"","show_choice","161","246336","0.0-161.0","""event"",""trial"",""time""
""fullscreenenter"",""0"",""65228""
","
","
","""event"",""trial"",""time""
""fullscreenenter"",""0"",""65228""
","
","null","run_exp/static/images/Set 6_rs/075a.jpg","null","","","","","","learn","SR",""
"","html-keyboard-response","162","246848","0.0-162.0","""event"",""trial"",""time""
""fullscreenenter"",""0"",""65228""
","
","
","""event"",""trial"",""time""
""fullscreenenter"",""0"",""65228""
","
","null","<p></p>","null","","","","","","","",""
"","image","163","248424","0.0-163.0","""event"",""trial"",""time""
""fullscreenenter"",""0"",""65228""
","
","
","""event"",""trial"",""time""
""fullscreenenter"",""0"",""65228""
","
","1572.3999999999069","run_exp/static/images/Set 6_rs/187a.jpg","86","","","","","","learn","SR",""
"","show_choice","164","248862","0.0-164.0","""event"",""trial"",""time""
""fullscreenenter"",""0"",""65228""
","
","
","""event"",""trial"",""time""
""fullscreenenter"",""0"",""65228""
","
","null","run_exp/static/images/Set 6_rs/187a.jpg","null","","","","","","learn","SR",""
"","html-keyboard-response","165","249365","0.0-165.0","""event"",""trial"",""time""
""fullscreenenter"",""0"",""65228""
","
","
","""event"",""trial"",""time""
""fullscreenenter"",""0"",""65228""
","
","null","<p></p>","null","","","","","","","",""
"","image","166","250665","0.0-166.0","""event"",""trial"",""time""
""fullscreenenter"",""0"",""65228""
","
","
","""event"",""trial"",""time""
""fullscreenenter"",""0"",""65228""
","
","1296.5","run_exp/static/images/Set 6_rs/186a.jpg","78","","","","","","learn","SR",""
"","show_choice","167","251379","0.0-167.0","""event"",""trial"",""time""
""fullscreenenter"",""0"",""65228""
","
","
","""event"",""trial"",""time""
""fullscreenenter"",""0"",""65228""
","
","null","run_exp/static/images/Set 6_rs/186a.jpg","null","","","","","","learn","SR",""
"","html-keyboard-response","168","251882","0.0-168.0","""event"",""trial"",""time""
""fullscreenenter"",""0"",""65228""
","
","
","""event"",""trial"",""time""
""fullscreenenter"",""0"",""65228""
","
","null","<p></p>","null","","","","","","","",""
"","image","169","253147","0.0-169.0","""event"",""trial"",""time""
""fullscreenenter"",""0"",""65228""
","
","
","""event"",""trial"",""time""
""fullscreenenter"",""0"",""65228""
","
","1261.5999999999767","run_exp/static/images/Set 6_rs/036a.jpg","78","","","","","","learn","SL",""
"","show_choice","170","253892","0.0-170.0","""event"",""trial"",""time""
""fullscreenenter"",""0"",""65228""
","
","
","""event"",""trial"",""time""
""fullscreenenter"",""0"",""65228""
","
","null","run_exp/static/images/Set 6_rs/036a.jpg","null","","","","","","learn","SL",""
"","html-keyboard-response","171","254405","0.0-171.0","""event"",""trial"",""time""
""fullscreenenter"",""0"",""65228""
","
","
","""event"",""trial"",""time""
""fullscreenenter"",""0"",""65228""
","
","null","<p></p>","null","","","","","","","",""
"","image","172","255395","0.0-172.0","""event"",""trial"",""time""
""fullscreenenter"",""0"",""65228""
","
","
","""event"",""trial"",""time""
""fullscreenenter"",""0"",""65228""
","
","986.9000000000233","run_exp/static/images/Set 6_rs/023a.jpg","86","","","","","","learn","SR",""
"","show_choice","173","256427","0.0-173.0","""event"",""trial"",""time""
""fullscreenenter"",""0"",""65228""
","
","
","""event"",""trial"",""time""
""fullscreenenter"",""0"",""65228""
","
","null","run_exp/static/images/Set 6_rs/023a.jpg","null","","","","","","learn","SR",""
"","html-keyboard-response","174","256929","0.0-174.0","""event"",""trial"",""time""
""fullscreenenter"",""0"",""65228""
","
","
","""event"",""trial"",""time""
""fullscreenenter"",""0"",""65228""
","
","null","<p></p>","null","","","","","","","",""
"","image","175","258093","0.0-175.0","""event"",""trial"",""time""
""fullscreenenter"",""0"",""65228""
","
","
","""event"",""trial"",""time""
""fullscreenenter"",""0"",""65228""
","
","1160.5","run_exp/static/images/Set 6_rs/123a.jpg","78","","","","","","learn","SL",""
"","show_choice","176","258948","0.0-176.0","""event"",""trial"",""time""
""fullscreenenter"",""0"",""65228""
","
","
","""event"",""trial"",""time""
""fullscreenenter"",""0"",""65228""
","
","null","run_exp/static/images/Set 6_rs/123a.jpg","null","","","","","","learn","SL",""
"","html-keyboard-response","177","259452","0.0-177.0","""event"",""trial"",""time""
""fullscreenenter"",""0"",""65228""
","
","
","""event"",""trial"",""time""
""fullscreenenter"",""0"",""65228""
","
","null","<p></p>","null","","","","","","","",""
"","image","178","260621","0.0-178.0","""event"",""trial"",""time""
""fullscreenenter"",""0"",""65228""
","
","
","""event"",""trial"",""time""
""fullscreenenter"",""0"",""65228""
","
","1166.9000000000233","run_exp/static/images/Set 6_rs/024a.jpg","86","","","","","","learn","SR",""
"","show_choice","179","261468","0.0-179.0","""event"",""trial"",""time""
""fullscreenenter"",""0"",""65228""
","
","
","""event"",""trial"",""time""
""fullscreenenter"",""0"",""65228""
","
","null","run_exp/static/images/Set 6_rs/024a.jpg","null","","","","","","learn","SR",""
"","html-keyboard-response","180","261978","0.0-180.0","""event"",""trial"",""time""
""fullscreenenter"",""0"",""65228""
","
","
","""event"",""trial"",""time""
""fullscreenenter"",""0"",""65228""
","
","null","<p></p>","null","","","","","","","",""
"","image","181","263343","0.0-181.0","""event"",""trial"",""time""
""fullscreenenter"",""0"",""65228""
","
","
","""event"",""trial"",""time""
""fullscreenenter"",""0"",""65228""
","
","1361.2000000000698","run_exp/static/images/Set 6_rs/154a.jpg","86","","","","","","learn","SR",""
"","show_choice","182","263994","0.0-182.0","""event"",""trial"",""time""
""fullscreenenter"",""0"",""65228""
","
","
","""event"",""trial"",""time""
""fullscreenenter"",""0"",""65228""
","
","null","run_exp/static/images/Set 6_rs/154a.jpg","null","","","","","","learn","SR",""
"","html-keyboard-response","183","264505","0.0-183.0","""event"",""trial"",""time""
""fullscreenenter"",""0"",""65228""
","
","
","""event"",""trial"",""time""
""fullscreenenter"",""0"",""65228""
","
","null","<p></p>","null","","","","","","","",""
"","image","184","265680","0.0-184.0","""event"",""trial"",""time""
""fullscreenenter"",""0"",""65228""
","
","
","""event"",""trial"",""time""
""fullscreenenter"",""0"",""65228""
","
","1170.7999999999302","run_exp/static/images/Set 6_rs/074a.jpg","78","","","","","","learn","SL",""
"","show_choice","185","266518","0.0-185.0","""event"",""trial"",""time""
""fullscreenenter"",""0"",""65228""
","
","
","""event"",""trial"",""time""
""fullscreenenter"",""0"",""65228""
","
","null","run_exp/static/images/Set 6_rs/074a.jpg","null","","","","","","learn","SL",""
"","html-keyboard-response","186","267021","0.0-186.0","""event"",""trial"",""time""
""fullscreenenter"",""0"",""65228""
","
","
","""event"",""trial"",""time""
""fullscreenenter"",""0"",""65228""
","
","null","<p></p>","null","","","","","","","",""
"","image","187","268601","0.0-187.0","""event"",""trial"",""time""
""fullscreenenter"",""0"",""65228""
","
","
","""event"",""trial"",""time""
""fullscreenenter"",""0"",""65228""
","
","1577.5","run_exp/static/images/Set 6_rs/117a.jpg","86","","","","","","learn","SL",""
"","show_choice","188","269039","0.0-188.0","""event"",""trial"",""time""
""fullscreenenter"",""0"",""65228""
","
","
","""event"",""trial"",""time""
""fullscreenenter"",""0"",""65228""
","
","null","run_exp/static/images/Set 6_rs/117a.jpg","null","","","","","","learn","SL",""
"","html-keyboard-response","189","269550","0.0-189.0","""event"",""trial"",""time""
""fullscreenenter"",""0"",""65228""
","
","
","""event"",""trial"",""time""
""fullscreenenter"",""0"",""65228""
","
","null","<p></p>","null","","","","","","","",""
"","image","190","271122","0.0-190.0","""event"",""trial"",""time""
""fullscreenenter"",""0"",""65228""
","
","
","""event"",""trial"",""time""
""fullscreenenter"",""0"",""65228""
","
","1568.2999999999302","run_exp/static/images/Set 6_rs/014a.jpg","86","","","","","","learn","SL",""
"","show_choice","191","271563","0.0-191.0","""event"",""trial"",""time""
""fullscreenenter"",""0"",""65228""
","
","
","""event"",""trial"",""time""
""fullscreenenter"",""0"",""65228""
","
","null","run_exp/static/images/Set 6_rs/014a.jpg","null","","","","","","learn","SL",""
"","html-keyboard-response","192","272074","0.0-192.0","""event"",""trial"",""time""
""fullscreenenter"",""0"",""65228""
","
","
","""event"",""trial"",""time""
""fullscreenenter"",""0"",""65228""
","
","null","<p></p>","null","","","","","","","",""
"","image","193","273180","0.0-193.0","""event"",""trial"",""time""
""fullscreenenter"",""0"",""65228""
","
","
","""event"",""trial"",""time""
""fullscreenenter"",""0"",""65228""
","
","1102.9000000000233","run_exp/static/images/Set 6_rs/152a.jpg","86","","","","","","learn","SR",""
"","show_choice","194","274082","0.0-194.0","""event"",""trial"",""time""
""fullscreenenter"",""0"",""65228""
","
","
","""event"",""trial"",""time""
""fullscreenenter"",""0"",""65228""
","
","null","run_exp/static/images/Set 6_rs/152a.jpg","null","","","","","","learn","SR",""
"","html-keyboard-response","195","274585","0.0-195.0","""event"",""trial"",""time""
""fullscreenenter"",""0"",""65228""
","
","
","""event"",""trial"",""time""
""fullscreenenter"",""0"",""65228""
","
","null","<p></p>","null","","","","","","","",""
"","test_intro","196","312131","0.0-196.0","""event"",""trial"",""time""
""fullscreenenter"",""0"",""65228""
","
","
","""event"",""trial"",""time""
""fullscreenenter"",""0"",""65228""
","
","null","run_exp/static/audio/clip_2_memory.m4a","null","","","","","<div class='center'><p>Now, lets see how much you remember about the items you just saw.  For each item, you need to indicate if it was <b>old</b> by pressing the <b>v</b> key, <b>similar</b> by pressing the <b>b</b> key, or <b>new</b> by pressing the <b>n</b> key.</p><p>Old refers to an item that you saw before in the indoor/outdoor game that you just played, new refers to an item you have <b>not</b> seen before within the indoor/outdoor game, and similar refers to an item that is similar to an item youve seen before but is not exactly the same. </p><p>Before we begin, lets go over some brief demonstrations to make sure you understand.</p></div>","","",""
"","html-keyboard-response","197","314070","0.0-197.0","""event"",""trial"",""time""
""fullscreenenter"",""0"",""65228""
","
","
","""event"",""trial"",""time""
""fullscreenenter"",""0"",""65228""
","
","1935.8000000000466","<div class='center'><p>Now, lets see how much you remember about the items you just saw.  For each item, you need to indicate if it was <b>old</b> by pressing the <b>v</b> key, <b>similar</b> by pressing the <b>b</b> key, or <b>new</b> by pressing the <b>n</b> key.</p><p>Old refers to an item that you saw before in the indoor/outdoor game that you just played, new refers to an item you have <b>not</b> seen before within the indoor/outdoor game, and similar refers to an item that is similar to an item youve seen before but is not exactly the same. </p><p>Before we begin, lets go over some brief demonstrations to make sure you understand.</p><div><p><b>[Press the space bar to continue]</b></p></div>","32","","","","","","","",""
"","items","198","321589","0.0-198.0","""event"",""trial"",""time""
""fullscreenenter"",""0"",""65228""
","
","
","""event"",""trial"",""time""
""fullscreenenter"",""0"",""65228""
","
","null","run_exp/static/audio/clip_3_items.m4a","null","","","","","","","",""
"","mop","199","326098","0.0-199.0","""event"",""trial"",""time""
""fullscreenenter"",""0"",""65228""
","
","
","""event"",""trial"",""time""
""fullscreenenter"",""0"",""65228""
","
","null","run_exp/static/audio/clip_4_mop.m4a","null","","","","","","","",""
"","baseball","200","329609","0.0-200.0","""event"",""trial"",""time""
""fullscreenenter"",""0"",""65228""
","
","
","""event"",""trial"",""time""
""fullscreenenter"",""0"",""65228""
","
","null","run_exp/static/audio/clip_5_baseball.m4a","null","","","","","","","",""
"","trumpet","201","333119","0.0-201.0","""event"",""trial"",""time""
""fullscreenenter"",""0"",""65228""
","
","
","""event"",""trial"",""time""
""fullscreenenter"",""0"",""65228""
","
","null","run_exp/static/audio/clip_6_trumpet.m4a","null","","","","","","","",""
"","gummies","202","336628","0.0-202.0","""event"",""trial"",""time""
""fullscreenenter"",""0"",""65228""
","
","
","""event"",""trial"",""time""
""fullscreenenter"",""0"",""65228""
","
","null","run_exp/static/audio/clip_7_gummies.m4a","null","","","","","","","",""
"","osn","203","341139","0.0-203.0","""event"",""trial"",""time""
""fullscreenenter"",""0"",""65228""
","
","
","""event"",""trial"",""time""
""fullscreenenter"",""0"",""65228""
","
","null","run_exp/static/audio/clip_8_osn.m4a","null","","","","","","","",""
"","old_1","204","347649","0.0-204.0","""event"",""trial"",""time""
""fullscreenenter"",""0"",""65228""
","
","
","""event"",""trial"",""time""
""fullscreenenter"",""0"",""65228""
","
","null","run_exp/static/audio/clip_9_old_trumpet.m4a","null","","","","","","","",""
"","new_1","205","355169","0.0-205.0","""event"",""trial"",""time""
""fullscreenenter"",""0"",""65228""
","
","
","""event"",""trial"",""time""
""fullscreenenter"",""0"",""65228""
","
","null","run_exp/static/audio/clip_10_new_balloon.m4a","null","","","","","","","",""
"","similar_1a","206","359689","0.0-206.0","""event"",""trial"",""time""
""fullscreenenter"",""0"",""65228""
","
","
","""event"",""trial"",""time""
""fullscreenenter"",""0"",""65228""
","
","null","run_exp/static/audio/clip_11a_similar_mop.m4a","null","","","","","","","",""
"","similar_1b","207","366199","0.0-207.0","""event"",""trial"",""time""
""fullscreenenter"",""0"",""65228""
","
","
","""event"",""trial"",""time""
""fullscreenenter"",""0"",""65228""
","
","null","run_exp/static/audio/clip_11b_similar_mop.m4a","null","","","","","","","",""
"","new_2","208","369709","0.0-208.0","""event"",""trial"",""time""
""fullscreenenter"",""0"",""65228""
","
","
","""event"",""trial"",""time""
""fullscreenenter"",""0"",""65228""
","
","null","run_exp/static/audio/clip_12_new_stoplight.m4a","null","","","","","","","",""
"","old_2","209","373221","0.0-209.0","""event"",""trial"",""time""
""fullscreenenter"",""0"",""65228""
","
","
","""event"",""trial"",""time""
""fullscreenenter"",""0"",""65228""
","
","null","run_exp/static/audio/clip_13_old_baseball.m4a","null","","","","","","","",""
"","similar_2a","210","376731","0.0-210.0","""event"",""trial"",""time""
""fullscreenenter"",""0"",""65228""
","
","
","""event"",""trial"",""time""
""fullscreenenter"",""0"",""65228""
","
","null","run_exp/static/audio/clip_14a_similar_gummies.m4a","null","","","","","","","",""
"","similar_2b","211","384251","0.0-211.0","""event"",""trial"",""time""
""fullscreenenter"",""0"",""65228""
","
","
","""event"",""trial"",""time""
""fullscreenenter"",""0"",""65228""
","
","null","run_exp/static/audio/clip_14b_similar_gummies.m4a","null","","","","","","","",""
"","practice","212","426373","0.0-212.0","""event"",""trial"",""time""
""fullscreenenter"",""0"",""65228""
","
","
","""event"",""trial"",""time""
""fullscreenenter"",""0"",""65228""
","
","null","run_exp/static/audio/clip_15_practice.m4a","null","","","","","<div class='center'><p>Lets practice a little to make sure you understand the difference between new, similar, and old. Lets say you saw these three items in the indoor/outdoor game.</p><p> Try your best to remember these images because youll soon be tested on them in a practice game. In the practice game, youll be shown images and youll have to say if they are old (one of the three images belows), similar (similar to one of the images below but not exactly the same), or new (are not one of the images below nor similar to them).</p><p>Once you press the space bar youll be shown these images again but one at time. Then youll begin the practice game.</p><p><img src='run_exp/static/images/tutorial/test/three_indoor_outdoor.png' height='300'></p></div>","","",""
"","html-keyboard-response","213","427361","0.0-213.0","""event"",""trial"",""time""
""fullscreenenter"",""0"",""65228""
","
","
","""event"",""trial"",""time""
""fullscreenenter"",""0"",""65228""
","
","983.0999999999767","<div class='center'><p>Lets practice a little to make sure you understand the difference between new, similar, and old. Lets say you saw these three items in the indoor/outdoor game.</p><p> Try your best to remember these images because youll soon be tested on them in a practice game. In the practice game, youll be shown images and youll have to say if they are old (one of the three images belows), similar (similar to one of the images below but not exactly the same), or new (are not one of the images below nor similar to them).</p><p>Once you press the space bar youll be shown these images again but one at time. Then youll begin the practice game.</p><p><img src='run_exp/static/images/tutorial/test/three_indoor_outdoor.png' height='300'></p><div><p><b>[Press the space bar to continue]</b></p></div>","32","","","","","","","",""
"","planet","214","429381","0.0-214.0","""event"",""trial"",""time""
""fullscreenenter"",""0"",""65228""
","
","
","""event"",""trial"",""time""
""fullscreenenter"",""0"",""65228""
","
","null","run_exp/static/images/tutorial/test/008a.jpg","null","","","","","","","",""
"","boot","215","431392","0.0-215.0","""event"",""trial"",""time""
""fullscreenenter"",""0"",""65228""
","
","
","""event"",""trial"",""time""
""fullscreenenter"",""0"",""65228""
","
","null","run_exp/static/images/tutorial/test/011a.jpg","null","","","","","","","",""
"","lemon","216","433402","0.0-216.0","""event"",""trial"",""time""
""fullscreenenter"",""0"",""65228""
","
","
","""event"",""trial"",""time""
""fullscreenenter"",""0"",""65228""
","
","null","run_exp/static/images/tutorial/test/018a.jpg","null","","","","","","","",""
"","practice_q1","217","436132","0.0-217.0","""event"",""trial"",""time""
""fullscreenenter"",""0"",""65228""
","
","
","""event"",""trial"",""time""
""fullscreenenter"",""0"",""65228""
","
","2726.5","run_exp/static/audio/clip_16_practice_question.m4a","78","","","","","","","",""
"","correct","218","438053","0.0-218.0-0.0","""event"",""trial"",""time""
""fullscreenenter"",""0"",""65228""
","
","
","""event"",""trial"",""time""
""fullscreenenter"",""0"",""65228""
","
","null","run_exp/static/audio/clip_17_correct.m4a","null","","","","","<div class='center'><p>That's correct!</p></div>","","",""
"","html-keyboard-response","219","439450","0.0-218.0-1.0","""event"",""trial"",""time""
""fullscreenenter"",""0"",""65228""
","
","
","""event"",""trial"",""time""
""fullscreenenter"",""0"",""65228""
","
","1394.3999999999069","<div class='center'><p>That's correct!</p><div><p><b>[Press the space bar to continue]</b></p></div>","32","","","","","","","",""
"","practice_q2","220","440832","0.0-218.0-2.0","""event"",""trial"",""time""
""fullscreenenter"",""0"",""65228""
","
","
","""event"",""trial"",""time""
""fullscreenenter"",""0"",""65228""
","
","1378.2999999999302","run_exp/static/audio/clip_16_practice_question.m4a","86","","","","","","","",""
"","correct","221","442733","0.0-219.0-0.0","""event"",""trial"",""time""
""fullscreenenter"",""0"",""65228""
","
","
","""event"",""trial"",""time""
""fullscreenenter"",""0"",""65228""
","
","null","run_exp/static/audio/clip_17_correct.m4a","null","","","","","<div class='center'><p>That's correct!</p></div>","","",""
"","html-keyboard-response","222","443331","0.0-219.0-1.0","""event"",""trial"",""time""
""fullscreenenter"",""0"",""65228""
","
","
","""event"",""trial"",""time""
""fullscreenenter"",""0"",""65228""
","
","595.1999999999534","<div class='center'><p>That's correct!</p><div><p><b>[Press the space bar to continue]</b></p></div>","32","","","","","","","",""
"","practice_q3","223","445579","0.0-219.0-2.0","""event"",""trial"",""time""
""fullscreenenter"",""0"",""65228""
","
","
","""event"",""trial"",""time""
""fullscreenenter"",""0"",""65228""
","
","2244.1999999999534","run_exp/static/audio/clip_16_practice_question.m4a","86","","","","","","","",""
"","incorrect_q3","224","448333","0.0-220.0-0.0","""event"",""trial"",""time""
""fullscreenenter"",""0"",""65228""
","
","
","""event"",""trial"",""time""
""fullscreenenter"",""0"",""65228""
","
","null","run_exp/static/audio/clip_20_incorrect_similar.m4a","null","","","","","<div class='center'><p>Thats incorrect. Its similar.</p><p><img src='run_exp/static/images/tutorial/test/boot_comparison.png' height='300'></p></div>","","",""
"","html-keyboard-response","225","449330","0.0-220.0-1.0","""event"",""trial"",""time""
""fullscreenenter"",""0"",""65228""
","
","
","""event"",""trial"",""time""
""fullscreenenter"",""0"",""65228""
","
","991.2000000000698","<div class='center'><p>Thats incorrect. Its similar.</p><p><img src='run_exp/static/images/tutorial/test/boot_comparison.png' height='300'></p><div><p><b>[Press the space bar to continue]</b></p></div>","32","","","","","","","",""
"","repeat","226","454093","0.0-221.0-0.0","""event"",""trial"",""time""
""fullscreenenter"",""0"",""65228""
","
","
","""event"",""trial"",""time""
""fullscreenenter"",""0"",""65228""
","
","null","run_exp/static/audio/clip_21_practice_again.m4a","null","","","","","<div class='center'><p>Oops. you missed at least one of these questions. Let's try practicing again. </p></div>","","",""
"","html-keyboard-response","227","454844","0.0-221.0-1.0","""event"",""trial"",""time""
""fullscreenenter"",""0"",""65228""
","
","
","""event"",""trial"",""time""
""fullscreenenter"",""0"",""65228""
","
","747.7999999999302","<div class='center'><p>Oops. you missed at least one of these questions. Let's try practicing again. </p><div><p><b>[Press the space bar to continue]</b></p></div>","32","","","","","","","",""
"","practice_q1","228","457041","0.0-221.0-2.0","""event"",""trial"",""time""
""fullscreenenter"",""0"",""65228""
","
","
","""event"",""trial"",""time""
""fullscreenenter"",""0"",""65228""
","
","2193.0999999999767","run_exp/static/audio/clip_16_practice_question.m4a","78","","","","","","","",""
"","correct","229","458933","0.0-222.0-0.0","""event"",""trial"",""time""
""fullscreenenter"",""0"",""65228""
","
","
","""event"",""trial"",""time""
""fullscreenenter"",""0"",""65228""
","
","null","run_exp/static/audio/clip_17_correct.m4a","null","","","","","<div class='center'><p>That's correct!</p></div>","","",""
"","html-keyboard-response","230","459526","0.0-222.0-1.0","""event"",""trial"",""time""
""fullscreenenter"",""0"",""65228""
","
","
","""event"",""trial"",""time""
""fullscreenenter"",""0"",""65228""
","
","589.8000000000466","<div class='center'><p>That's correct!</p><div><p><b>[Press the space bar to continue]</b></p></div>","32","","","","","","","",""
"","practice_q2","231","460744","0.0-222.0-2.0","""event"",""trial"",""time""
""fullscreenenter"",""0"",""65228""
","
","
","""event"",""trial"",""time""
""fullscreenenter"",""0"",""65228""
","
","1214","run_exp/static/audio/clip_16_practice_question.m4a","86","","","","","","","",""
"","correct","232","462654","0.0-223.0-0.0","""event"",""trial"",""time""
""fullscreenenter"",""0"",""65228""
","
","
","""event"",""trial"",""time""
""fullscreenenter"",""0"",""65228""
","
","null","run_exp/static/audio/clip_17_correct.m4a","null","","","","","<div class='center'><p>That's correct!</p></div>","","",""
"","html-keyboard-response","233","463312","0.0-223.0-1.0","""event"",""trial"",""time""
""fullscreenenter"",""0"",""65228""
","
","
","""event"",""trial"",""time""
""fullscreenenter"",""0"",""65228""
","
","655.5","<div class='center'><p>That's correct!</p><div><p><b>[Press the space bar to continue]</b></p></div>","32","","","","","","","",""
"","practice_q3","234","465354","0.0-223.0-2.0","""event"",""trial"",""time""
""fullscreenenter"",""0"",""65228""
","
","
","""event"",""trial"",""time""
""fullscreenenter"",""0"",""65228""
","
","2039.6999999999534","run_exp/static/audio/clip_16_practice_question.m4a","66","","","","","","","",""
"","correct","235","467515","0.0-224.0-0.0","""event"",""trial"",""time""
""fullscreenenter"",""0"",""65228""
","
","
","""event"",""trial"",""time""
""fullscreenenter"",""0"",""65228""
","
","null","run_exp/static/audio/clip_17_correct.m4a","null","","","","","<div class='center'><p>That's correct!</p></div>","","",""
"","html-keyboard-response","236","468449","0.0-224.0-1.0","""event"",""trial"",""time""
""fullscreenenter"",""0"",""65228""
","
","
","""event"",""trial"",""time""
""fullscreenenter"",""0"",""65228""
","
","932.0999999999767","<div class='center'><p>That's correct!</p><div><p><b>[Press the space bar to continue]</b></p></div>","32","","","","","","","",""
"","begin_text","237","486933","0.0-225.0-0.0","""event"",""trial"",""time""
""fullscreenenter"",""0"",""65228""
","
","
","""event"",""trial"",""time""
""fullscreenenter"",""0"",""65228""
","
","null","run_exp/static/audio/clip_22_begin_test.m4a","null","","","","","<div class='center'><p>On to the real game where well test your memory of items from the indoor/outdoor game. For each item, you need to indicate if the item is <b>old</b> by pressing the <b>v</b> key, <b>similar</b> by pressing the <b>b</b> key, or <b>new</b> by pressing the <b>n</b> key. </p></div>","","",""
"","html-keyboard-response","238","488238","0.0-225.0-1.0","""event"",""trial"",""time""
""fullscreenenter"",""0"",""65228""
","
","
","""event"",""trial"",""time""
""fullscreenenter"",""0"",""65228""
","
","1302","<div class='center'><p>On to the real game where well test your memory of items from the indoor/outdoor game. For each item, you need to indicate if the item is <b>old</b> by pressing the <b>v</b> key, <b>similar</b> by pressing the <b>b</b> key, or <b>new</b> by pressing the <b>n</b> key. </p><div><p><b>[Press the space bar to continue]</b></p></div>","32","","","","","","","",""
"","image","239","489315","0.0-226.0-0.0","""event"",""trial"",""time""
""fullscreenenter"",""0"",""65228""
","
","
","""event"",""trial"",""time""
""fullscreenenter"",""0"",""65228""
","
","1071.8999999999069","run_exp/static/images/Set 6_rs/006b.jpg","86","","","","","","test","TL","2"
"","show_choice","240","489831","0.0-226.0-1.0","""event"",""trial"",""time""
""fullscreenenter"",""0"",""65228""
","
","
","""event"",""trial"",""time""
""fullscreenenter"",""0"",""65228""
","
","null","run_exp/static/images/Set 6_rs/006b.jpg","null","","","","","","test","TL",""
"","html-keyboard-response","241","490342","0.0-226.0-2.0","""event"",""trial"",""time""
""fullscreenenter"",""0"",""65228""
","
","
","""event"",""trial"",""time""
""fullscreenenter"",""0"",""65228""
","
","null","<p></p>","null","","","","","","","",""
"","image","242","492123","0.0-227.0-0.0","""event"",""trial"",""time""
""fullscreenenter"",""0"",""65228""
","
","
","""event"",""trial"",""time""
""fullscreenenter"",""0"",""65228""
","
","1777.5999999999767","run_exp/static/images/Set 6_rs/079b.jpg","66","","","","","","test","TL","5"
"","show_choice","243","492627","0.0-227.0-1.0","""event"",""trial"",""time""
""fullscreenenter"",""0"",""65228""
","
","
","""event"",""trial"",""time""
""fullscreenenter"",""0"",""65228""
","
","null","run_exp/static/images/Set 6_rs/079b.jpg","null","","","","","","test","TL",""
"","html-keyboard-response","244","493137","0.0-227.0-2.0","""event"",""trial"",""time""
""fullscreenenter"",""0"",""65228""
","
","
","""event"",""trial"",""time""
""fullscreenenter"",""0"",""65228""
","
","null","<p></p>","null","","","","","","","",""
"","image","245","494543","0.0-228.0-0.0","""event"",""trial"",""time""
""fullscreenenter"",""0"",""65228""
","
","
","""event"",""trial"",""time""
""fullscreenenter"",""0"",""65228""
","
","1406.5","run_exp/static/images/Set 6_rs/171a.jpg","86","","","","","","test","TF","1"
"","show_choice","246","495058","0.0-228.0-1.0","""event"",""trial"",""time""
""fullscreenenter"",""0"",""65228""
","
","
","""event"",""trial"",""time""
""fullscreenenter"",""0"",""65228""
","
","null","run_exp/static/images/Set 6_rs/171a.jpg","null","","","","","","test","TF",""
"","html-keyboard-response","247","495578","0.0-228.0-2.0","""event"",""trial"",""time""
""fullscreenenter"",""0"",""65228""
","
","
","""event"",""trial"",""time""
""fullscreenenter"",""0"",""65228""
","
","null","<p></p>","null","","","","","","","",""
"","image","248","496923","0.0-229.0-0.0","""event"",""trial"",""time""
""fullscreenenter"",""0"",""65228""
","
","
","""event"",""trial"",""time""
""fullscreenenter"",""0"",""65228""
","
","1341.7000000000698","run_exp/static/images/Set 6_rs/121a.jpg","86","","","","","","test","TR","4"
"","show_choice","249","497431","0.0-229.0-1.0","""event"",""trial"",""time""
""fullscreenenter"",""0"",""65228""
","
","
","""event"",""trial"",""time""
""fullscreenenter"",""0"",""65228""
","
","null","run_exp/static/images/Set 6_rs/121a.jpg","null","","","","","","test","TR",""
"","html-keyboard-response","250","497936","0.0-229.0-2.0","""event"",""trial"",""time""
""fullscreenenter"",""0"",""65228""
","
","
","""event"",""trial"",""time""
""fullscreenenter"",""0"",""65228""
","
","null","<p></p>","null","","","","","","","",""
"","image","251","499513","0.0-230.0-0.0","""event"",""trial"",""time""
""fullscreenenter"",""0"",""65228""
","
","
","""event"",""trial"",""time""
""fullscreenenter"",""0"",""65228""
","
","1573.2999999999302","run_exp/static/images/Set 6_rs/047a.jpg","78","","","","","","test","TF","3"
"","show_choice","252","500017","0.0-230.0-1.0","""event"",""trial"",""time""
""fullscreenenter"",""0"",""65228""
","
","
","""event"",""trial"",""time""
""fullscreenenter"",""0"",""65228""
","
","null","run_exp/static/images/Set 6_rs/047a.jpg","null","","","","","","test","TF",""
"","html-keyboard-response","253","500534","0.0-230.0-2.0","""event"",""trial"",""time""
""fullscreenenter"",""0"",""65228""
","
","
","""event"",""trial"",""time""
""fullscreenenter"",""0"",""65228""
","
","null","<p></p>","null","","","","","","","",""
"","image","254","502187","0.0-231.0-0.0","""event"",""trial"",""time""
""fullscreenenter"",""0"",""65228""
","
","
","""event"",""trial"",""time""
""fullscreenenter"",""0"",""65228""
","
","1650.3000000000466","run_exp/static/images/Set 6_rs/070a.jpg","86","","","","","","test","TR","2"
"","show_choice","255","502698","0.0-231.0-1.0","""event"",""trial"",""time""
""fullscreenenter"",""0"",""65228""
","
","
","""event"",""trial"",""time""
""fullscreenenter"",""0"",""65228""
","
","null","run_exp/static/images/Set 6_rs/070a.jpg","null","","","","","","test","TR",""
"","html-keyboard-response","256","503209","0.0-231.0-2.0","""event"",""trial"",""time""
""fullscreenenter"",""0"",""65228""
","
","
","""event"",""trial"",""time""
""fullscreenenter"",""0"",""65228""
","
","null","<p></p>","null","","","","","","","",""
"","image","257","504459","0.0-232.0-0.0","""event"",""trial"",""time""
""fullscreenenter"",""0"",""65228""
","
","
","""event"",""trial"",""time""
""fullscreenenter"",""0"",""65228""
","
","1246.5","run_exp/static/images/Set 6_rs/170a.jpg","66","","","","","","test","TF","2"
"","show_choice","258","504963","0.0-232.0-1.0","""event"",""trial"",""time""
""fullscreenenter"",""0"",""65228""
","
","
","""event"",""trial"",""time""
""fullscreenenter"",""0"",""65228""
","
","null","run_exp/static/images/Set 6_rs/170a.jpg","null","","","","","","test","TF",""
"","html-keyboard-response","259","505466","0.0-232.0-2.0","""event"",""trial"",""time""
""fullscreenenter"",""0"",""65228""
","
","
","""event"",""trial"",""time""
""fullscreenenter"",""0"",""65228""
","
","null","<p></p>","null","","","","","","","",""
"","image","260","506545","0.0-233.0-0.0","""event"",""trial"",""time""
""fullscreenenter"",""0"",""65228""
","
","
","""event"",""trial"",""time""
""fullscreenenter"",""0"",""65228""
","
","1074.9000000000233","run_exp/static/images/Set 6_rs/166a.jpg","86","","","","","","test","TR","1"
"","show_choice","261","507057","0.0-233.0-1.0","""event"",""trial"",""time""
""fullscreenenter"",""0"",""65228""
","
","
","""event"",""trial"",""time""
""fullscreenenter"",""0"",""65228""
","
","null","run_exp/static/images/Set 6_rs/166a.jpg","null","","","","","","test","TR",""
"","html-keyboard-response","262","507561","0.0-233.0-2.0","""event"",""trial"",""time""
""fullscreenenter"",""0"",""65228""
","
","
","""event"",""trial"",""time""
""fullscreenenter"",""0"",""65228""
","
","null","<p></p>","null","","","","","","","",""
"","image","263","509939","0.0-234.0-0.0","""event"",""trial"",""time""
""fullscreenenter"",""0"",""65228""
","
","
","""event"",""trial"",""time""
""fullscreenenter"",""0"",""65228""
","
","2374.3000000000466","run_exp/static/images/Set 6_rs/108a.jpg","86","","","","","","test","TR","5"
"","show_choice","264","510457","0.0-234.0-1.0","""event"",""trial"",""time""
""fullscreenenter"",""0"",""65228""
","
","
","""event"",""trial"",""time""
""fullscreenenter"",""0"",""65228""
","
","null","run_exp/static/images/Set 6_rs/108a.jpg","null","","","","","","test","TR",""
"","html-keyboard-response","265","510960","0.0-234.0-2.0","""event"",""trial"",""time""
""fullscreenenter"",""0"",""65228""
","
","
","""event"",""trial"",""time""
""fullscreenenter"",""0"",""65228""
","
","null","<p></p>","null","","","","","","","",""
"","image","266","512728","0.0-235.0-0.0","""event"",""trial"",""time""
""fullscreenenter"",""0"",""65228""
","
","
","""event"",""trial"",""time""
""fullscreenenter"",""0"",""65228""
","
","1764.7000000000116","run_exp/static/images/Set 6_rs/025b.jpg","66","","","","","","test","TL","5"
"","show_choice","267","513242","0.0-235.0-1.0","""event"",""trial"",""time""
""fullscreenenter"",""0"",""65228""
","
","
","""event"",""trial"",""time""
""fullscreenenter"",""0"",""65228""
","
","null","run_exp/static/images/Set 6_rs/025b.jpg","null","","","","","","test","TL",""
"","html-keyboard-response","268","513746","0.0-235.0-2.0","""event"",""trial"",""time""
""fullscreenenter"",""0"",""65228""
","
","
","""event"",""trial"",""time""
""fullscreenenter"",""0"",""65228""
","
","null","<p></p>","null","","","","","","","",""
"","image","269","515480","0.0-236.0-0.0","""event"",""trial"",""time""
""fullscreenenter"",""0"",""65228""
","
","
","""event"",""trial"",""time""
""fullscreenenter"",""0"",""65228""
","
","1727.6999999999534","run_exp/static/images/Set 6_rs/074b.jpg","86","","","","","","test","TL","4"
"","show_choice","270","515992","0.0-236.0-1.0","""event"",""trial"",""time""
""fullscreenenter"",""0"",""65228""
","
","
","""event"",""trial"",""time""
""fullscreenenter"",""0"",""65228""
","
","null","run_exp/static/images/Set 6_rs/074b.jpg","null","","","","","","test","TL",""
"","html-keyboard-response","271","516495","0.0-236.0-2.0","""event"",""trial"",""time""
""fullscreenenter"",""0"",""65228""
","
","
","""event"",""trial"",""time""
""fullscreenenter"",""0"",""65228""
","
","null","<p></p>","null","","","","","","","",""
"","image","272","517489","0.0-237.0-0.0","""event"",""trial"",""time""
""fullscreenenter"",""0"",""65228""
","
","
","""event"",""trial"",""time""
""fullscreenenter"",""0"",""65228""
","
","990.8000000000466","run_exp/static/images/Set 6_rs/112a.jpg","86","","","","","","test","TR","5"
"","show_choice","273","518003","0.0-237.0-1.0","""event"",""trial"",""time""
""fullscreenenter"",""0"",""65228""
","
","
","""event"",""trial"",""time""
""fullscreenenter"",""0"",""65228""
","
","null","run_exp/static/images/Set 6_rs/112a.jpg","null","","","","","","test","TR",""
"","html-keyboard-response","274","518506","0.0-237.0-2.0","""event"",""trial"",""time""
""fullscreenenter"",""0"",""65228""
","
","
","""event"",""trial"",""time""
""fullscreenenter"",""0"",""65228""
","
","null","<p></p>","null","","","","","","","",""
"","image","275","520658","0.0-238.0-0.0","""event"",""trial"",""time""
""fullscreenenter"",""0"",""65228""
","
","
","""event"",""trial"",""time""
""fullscreenenter"",""0"",""65228""
","
","2147.6999999999534","run_exp/static/images/Set 6_rs/111b.jpg","66","","","","","","test","TL","3"
"","show_choice","276","521169","0.0-238.0-1.0","""event"",""trial"",""time""
""fullscreenenter"",""0"",""65228""
","
","
","""event"",""trial"",""time""
""fullscreenenter"",""0"",""65228""
","
","null","run_exp/static/images/Set 6_rs/111b.jpg","null","","","","","","test","TL",""
"","html-keyboard-response","277","521672","0.0-238.0-2.0","""event"",""trial"",""time""
""fullscreenenter"",""0"",""65228""
","
","
","""event"",""trial"",""time""
""fullscreenenter"",""0"",""65228""
","
","null","<p></p>","null","","","","","","","",""
"","image","278","523180","0.0-239.0-0.0","""event"",""trial"",""time""
""fullscreenenter"",""0"",""65228""
","
","
","""event"",""trial"",""time""
""fullscreenenter"",""0"",""65228""
","
","1504.2999999998137","run_exp/static/images/Set 6_rs/050b.jpg","86","","","","","","test","TL","3"
"","show_choice","279","523692","0.0-239.0-1.0","""event"",""trial"",""time""
""fullscreenenter"",""0"",""65228""
","
","
","""event"",""trial"",""time""
""fullscreenenter"",""0"",""65228""
","
","null","run_exp/static/images/Set 6_rs/050b.jpg","null","","","","","","test","TL",""
"","html-keyboard-response","280","524202","0.0-239.0-2.0","""event"",""trial"",""time""
""fullscreenenter"",""0"",""65228""
","
","
","""event"",""trial"",""time""
""fullscreenenter"",""0"",""65228""
","
","null","<p></p>","null","","","","","","","",""
"","image","281","525708","0.0-240.0-0.0","""event"",""trial"",""time""
""fullscreenenter"",""0"",""65228""
","
","
","""event"",""trial"",""time""
""fullscreenenter"",""0"",""65228""
","
","1502.5","run_exp/static/images/Set 6_rs/126a.jpg","86","","","","","","test","TR","2"
"","show_choice","282","526226","0.0-240.0-1.0","""event"",""trial"",""time""
""fullscreenenter"",""0"",""65228""
","
","
","""event"",""trial"",""time""
""fullscreenenter"",""0"",""65228""
","
","null","run_exp/static/images/Set 6_rs/126a.jpg","null","","","","","","test","TR",""
"","html-keyboard-response","283","526739","0.0-240.0-2.0","""event"",""trial"",""time""
""fullscreenenter"",""0"",""65228""
","
","
","""event"",""trial"",""time""
""fullscreenenter"",""0"",""65228""
","
","null","<p></p>","null","","","","","","","",""
"","image","284","527745","0.0-241.0-0.0","""event"",""trial"",""time""
""fullscreenenter"",""0"",""65228""
","
","
","""event"",""trial"",""time""
""fullscreenenter"",""0"",""65228""
","
","1001.8999999999069","run_exp/static/images/Set 6_rs/023a.jpg","86","","","","","","test","TR","3"
"","show_choice","285","528255","0.0-241.0-1.0","""event"",""trial"",""time""
""fullscreenenter"",""0"",""65228""
","
","
","""event"",""trial"",""time""
""fullscreenenter"",""0"",""65228""
","
","null","run_exp/static/images/Set 6_rs/023a.jpg","null","","","","","","test","TR",""
"","html-keyboard-response","286","528759","0.0-241.0-2.0","""event"",""trial"",""time""
""fullscreenenter"",""0"",""65228""
","
","
","""event"",""trial"",""time""
""fullscreenenter"",""0"",""65228""
","
","null","<p></p>","null","","","","","","","",""
"","image","287","529852","0.0-242.0-0.0","""event"",""trial"",""time""
""fullscreenenter"",""0"",""65228""
","
","
","""event"",""trial"",""time""
""fullscreenenter"",""0"",""65228""
","
","1090.5","run_exp/static/images/Set 6_rs/063a.jpg","86","","","","","","test","TR","2"
"","show_choice","288","530355","0.0-242.0-1.0","""event"",""trial"",""time""
""fullscreenenter"",""0"",""65228""
","
","
","""event"",""trial"",""time""
""fullscreenenter"",""0"",""65228""
","
","null","run_exp/static/images/Set 6_rs/063a.jpg","null","","","","","","test","TR",""
"","html-keyboard-response","289","530868","0.0-242.0-2.0","""event"",""trial"",""time""
""fullscreenenter"",""0"",""65228""
","
","
","""event"",""trial"",""time""
""fullscreenenter"",""0"",""65228""
","
","null","<p></p>","null","","","","","","","",""
"","image","290","531767","0.0-243.0-0.0","""event"",""trial"",""time""
""fullscreenenter"",""0"",""65228""
","
","
","""event"",""trial"",""time""
""fullscreenenter"",""0"",""65228""
","
","895.1999999999534","run_exp/static/images/Set 6_rs/012a.jpg","86","","","","","","test","TR","1"
"","show_choice","291","532285","0.0-243.0-1.0","""event"",""trial"",""time""
""fullscreenenter"",""0"",""65228""
","
","
","""event"",""trial"",""time""
""fullscreenenter"",""0"",""65228""
","
","null","run_exp/static/images/Set 6_rs/012a.jpg","null","","","","","","test","TR",""
"","html-keyboard-response","292","532788","0.0-243.0-2.0","""event"",""trial"",""time""
""fullscreenenter"",""0"",""65228""
","
","
","""event"",""trial"",""time""
""fullscreenenter"",""0"",""65228""
","
","null","<p></p>","null","","","","","","","",""
"","image","293","533662","0.0-244.0-0.0","""event"",""trial"",""time""
""fullscreenenter"",""0"",""65228""
","
","
","""event"",""trial"",""time""
""fullscreenenter"",""0"",""65228""
","
","870.1999999999534","run_exp/static/images/Set 6_rs/152a.jpg","86","","","","","","test","TR","2"
"","show_choice","294","534173","0.0-244.0-1.0","""event"",""trial"",""time""
""fullscreenenter"",""0"",""65228""
","
","
","""event"",""trial"",""time""
""fullscreenenter"",""0"",""65228""
","
","null","run_exp/static/images/Set 6_rs/152a.jpg","null","","","","","","test","TR",""
"","html-keyboard-response","295","534680","0.0-244.0-2.0","""event"",""trial"",""time""
""fullscreenenter"",""0"",""65228""
","
","
","""event"",""trial"",""time""
""fullscreenenter"",""0"",""65228""
","
","null","<p></p>","null","","","","","","","",""
"","image","296","535816","0.0-245.0-0.0","""event"",""trial"",""time""
""fullscreenenter"",""0"",""65228""
","
","
","""event"",""trial"",""time""
""fullscreenenter"",""0"",""65228""
","
","1132","run_exp/static/images/Set 6_rs/071b.jpg","66","","","","","","test","TL","4"
"","show_choice","297","536331","0.0-245.0-1.0","""event"",""trial"",""time""
""fullscreenenter"",""0"",""65228""
","
","
","""event"",""trial"",""time""
""fullscreenenter"",""0"",""65228""
","
","null","run_exp/static/images/Set 6_rs/071b.jpg","null","","","","","","test","TL",""
"","html-keyboard-response","298","536834","0.0-245.0-2.0","""event"",""trial"",""time""
""fullscreenenter"",""0"",""65228""
","
","
","""event"",""trial"",""time""
""fullscreenenter"",""0"",""65228""
","
","null","<p></p>","null","","","","","","","",""
"","image","299","537949","0.0-246.0-0.0","""event"",""trial"",""time""
""fullscreenenter"",""0"",""65228""
","
","
","""event"",""trial"",""time""
""fullscreenenter"",""0"",""65228""
","
","1112.8999999999069","run_exp/static/images/Set 6_rs/086a.jpg","66","","","","","","test","TF","1"
"","show_choice","300","538452","0.0-246.0-1.0","""event"",""trial"",""time""
""fullscreenenter"",""0"",""65228""
","
","
","""event"",""trial"",""time""
""fullscreenenter"",""0"",""65228""
","
","null","run_exp/static/images/Set 6_rs/086a.jpg","null","","","","","","test","TF",""
"","html-keyboard-response","301","538964","0.0-246.0-2.0","""event"",""trial"",""time""
""fullscreenenter"",""0"",""65228""
","
","
","""event"",""trial"",""time""
""fullscreenenter"",""0"",""65228""
","
","null","<p></p>","null","","","","","","","",""
"","image","302","539751","0.0-247.0-0.0","""event"",""trial"",""time""
""fullscreenenter"",""0"",""65228""
","
","
","""event"",""trial"",""time""
""fullscreenenter"",""0"",""65228""
","
","783.5999999998603","run_exp/static/images/Set 6_rs/178a.jpg","86","","","","","","test","TR","3"
"","show_choice","303","540262","0.0-247.0-1.0","""event"",""trial"",""time""
""fullscreenenter"",""0"",""65228""
","
","
","""event"",""trial"",""time""
""fullscreenenter"",""0"",""65228""
","
","null","run_exp/static/images/Set 6_rs/178a.jpg","null","","","","","","test","TR",""
"","html-keyboard-response","304","540765","0.0-247.0-2.0","""event"",""trial"",""time""
""fullscreenenter"",""0"",""65228""
","
","
","""event"",""trial"",""time""
""fullscreenenter"",""0"",""65228""
","
","null","<p></p>","null","","","","","","","",""
"","image","305","541649","0.0-248.0-0.0","""event"",""trial"",""time""
""fullscreenenter"",""0"",""65228""
","
","
","""event"",""trial"",""time""
""fullscreenenter"",""0"",""65228""
","
","880.6999999999534","run_exp/static/images/Set 6_rs/132a.jpg","86","","","","","","test","TR","5"
"","show_choice","306","542162","0.0-248.0-1.0","""event"",""trial"",""time""
""fullscreenenter"",""0"",""65228""
","
","
","""event"",""trial"",""time""
""fullscreenenter"",""0"",""65228""
","
","null","run_exp/static/images/Set 6_rs/132a.jpg","null","","","","","","test","TR",""
"","html-keyboard-response","307","542666","0.0-248.0-2.0","""event"",""trial"",""time""
""fullscreenenter"",""0"",""65228""
","
","
","""event"",""trial"",""time""
""fullscreenenter"",""0"",""65228""
","
","null","<p></p>","null","","","","","","","",""
"","image","308","543787","0.0-249.0-0.0","""event"",""trial"",""time""
""fullscreenenter"",""0"",""65228""
","
","
","""event"",""trial"",""time""
""fullscreenenter"",""0"",""65228""
","
","1117.3999999999069","run_exp/static/images/Set 6_rs/085b.jpg","86","","","","","","test","TL","1"
"","show_choice","309","544297","0.0-249.0-1.0","""event"",""trial"",""time""
""fullscreenenter"",""0"",""65228""
","
","
","""event"",""trial"",""time""
""fullscreenenter"",""0"",""65228""
","
","null","run_exp/static/images/Set 6_rs/085b.jpg","null","","","","","","test","TL",""
"","html-keyboard-response","310","544801","0.0-249.0-2.0","""event"",""trial"",""time""
""fullscreenenter"",""0"",""65228""
","
","
","""event"",""trial"",""time""
""fullscreenenter"",""0"",""65228""
","
","null","<p></p>","null","","","","","","","",""
"","image","311","546235","0.0-250.0-0.0","""event"",""trial"",""time""
""fullscreenenter"",""0"",""65228""
","
","
","""event"",""trial"",""time""
""fullscreenenter"",""0"",""65228""
","
","1429.3000000000466","run_exp/static/images/Set 6_rs/017b.jpg","78","","","","","","test","TL","3"
"","show_choice","312","546752","0.0-250.0-1.0","""event"",""trial"",""time""
""fullscreenenter"",""0"",""65228""
","
","
","""event"",""trial"",""time""
""fullscreenenter"",""0"",""65228""
","
","null","run_exp/static/images/Set 6_rs/017b.jpg","null","","","","","","test","TL",""
"","html-keyboard-response","313","547260","0.0-250.0-2.0","""event"",""trial"",""time""
""fullscreenenter"",""0"",""65228""
","
","
","""event"",""trial"",""time""
""fullscreenenter"",""0"",""65228""
","
","null","<p></p>","null","","","","","","","",""
"","image","314","548394","0.0-251.0-0.0","""event"",""trial"",""time""
""fullscreenenter"",""0"",""65228""
","
","
","""event"",""trial"",""time""
""fullscreenenter"",""0"",""65228""
","
","1130.6000000000931","run_exp/static/images/Set 6_rs/052a.jpg","78","","","","","","test","TF","1"
"","show_choice","315","548910","0.0-251.0-1.0","""event"",""trial"",""time""
""fullscreenenter"",""0"",""65228""
","
","
","""event"",""trial"",""time""
""fullscreenenter"",""0"",""65228""
","
","null","run_exp/static/images/Set 6_rs/052a.jpg","null","","","","","","test","TF",""
"","html-keyboard-response","316","549413","0.0-251.0-2.0","""event"",""trial"",""time""
""fullscreenenter"",""0"",""65228""
","
","
","""event"",""trial"",""time""
""fullscreenenter"",""0"",""65228""
","
","null","<p></p>","null","","","","","","","",""
"","image","317","550609","0.0-252.0-0.0","""event"",""trial"",""time""
""fullscreenenter"",""0"",""65228""
","
","
","""event"",""trial"",""time""
""fullscreenenter"",""0"",""65228""
","
","1192.1999999999534","run_exp/static/images/Set 6_rs/016b.jpg","86","","","","","","test","TL","1"
"","show_choice","318","551127","0.0-252.0-1.0","""event"",""trial"",""time""
""fullscreenenter"",""0"",""65228""
","
","
","""event"",""trial"",""time""
""fullscreenenter"",""0"",""65228""
","
","null","run_exp/static/images/Set 6_rs/016b.jpg","null","","","","","","test","TL",""
"","html-keyboard-response","319","551630","0.0-252.0-2.0","""event"",""trial"",""time""
""fullscreenenter"",""0"",""65228""
","
","
","""event"",""trial"",""time""
""fullscreenenter"",""0"",""65228""
","
","null","<p></p>","null","","","","","","","",""
"","image","320","552851","0.0-253.0-0.0","""event"",""trial"",""time""
""fullscreenenter"",""0"",""65228""
","
","
","""event"",""trial"",""time""
""fullscreenenter"",""0"",""65228""
","
","1218.3000000000466","run_exp/static/images/Set 6_rs/062b.jpg","86","","","","","","test","TL","1"
"","show_choice","321","553363","0.0-253.0-1.0","""event"",""trial"",""time""
""fullscreenenter"",""0"",""65228""
","
","
","""event"",""trial"",""time""
""fullscreenenter"",""0"",""65228""
","
","null","run_exp/static/images/Set 6_rs/062b.jpg","null","","","","","","test","TL",""
"","html-keyboard-response","322","553874","0.0-253.0-2.0","""event"",""trial"",""time""
""fullscreenenter"",""0"",""65228""
","
","
","""event"",""trial"",""time""
""fullscreenenter"",""0"",""65228""
","
","null","<p></p>","null","","","","","","","",""
"","image","323","555630","0.0-254.0-0.0","""event"",""trial"",""time""
""fullscreenenter"",""0"",""65228""
","
","
","""event"",""trial"",""time""
""fullscreenenter"",""0"",""65228""
","
","1758.3999999999069","run_exp/static/images/Set 6_rs/089b.jpg","66","","","","","","test","TL","4"
"","show_choice","324","556148","0.0-254.0-1.0","""event"",""trial"",""time""
""fullscreenenter"",""0"",""65228""
","
","
","""event"",""trial"",""time""
""fullscreenenter"",""0"",""65228""
","
","null","run_exp/static/images/Set 6_rs/089b.jpg","null","","","","","","test","TL",""
"","html-keyboard-response","325","556659","0.0-254.0-2.0","""event"",""trial"",""time""
""fullscreenenter"",""0"",""65228""
","
","
","""event"",""trial"",""time""
""fullscreenenter"",""0"",""65228""
","
","null","<p></p>","null","","","","","","","",""
"","image","326","558165","0.0-255.0-0.0","""event"",""trial"",""time""
""fullscreenenter"",""0"",""65228""
","
","
","""event"",""trial"",""time""
""fullscreenenter"",""0"",""65228""
","
","1502.1999999999534","run_exp/static/images/Set 6_rs/007a.jpg","66","","","","","","test","TR","3"
"","show_choice","327","558676","0.0-255.0-1.0","""event"",""trial"",""time""
""fullscreenenter"",""0"",""65228""
","
","
","""event"",""trial"",""time""
""fullscreenenter"",""0"",""65228""
","
","null","run_exp/static/images/Set 6_rs/007a.jpg","null","","","","","","test","TR",""
"","html-keyboard-response","328","559189","0.0-255.0-2.0","""event"",""trial"",""time""
""fullscreenenter"",""0"",""65228""
","
","
","""event"",""trial"",""time""
""fullscreenenter"",""0"",""65228""
","
","null","<p></p>","null","","","","","","","",""
"","image","329","560311","0.0-256.0-0.0","""event"",""trial"",""time""
""fullscreenenter"",""0"",""65228""
","
","
","""event"",""trial"",""time""
""fullscreenenter"",""0"",""65228""
","
","1119.9000000001397","run_exp/static/images/Set 6_rs/075a.jpg","86","","","","","","test","TR","1"
"","show_choice","330","560820","0.0-256.0-1.0","""event"",""trial"",""time""
""fullscreenenter"",""0"",""65228""
","
","
","""event"",""trial"",""time""
""fullscreenenter"",""0"",""65228""
","
","null","run_exp/static/images/Set 6_rs/075a.jpg","null","","","","","","test","TR",""
"","html-keyboard-response","331","561323","0.0-256.0-2.0","""event"",""trial"",""time""
""fullscreenenter"",""0"",""65228""
","
","
","""event"",""trial"",""time""
""fullscreenenter"",""0"",""65228""
","
","null","<p></p>","null","","","","","","","",""
"","image","332","562766","0.0-257.0-0.0","""event"",""trial"",""time""
""fullscreenenter"",""0"",""65228""
","
","
","""event"",""trial"",""time""
""fullscreenenter"",""0"",""65228""
","
","1438.8999999999069","run_exp/static/images/Set 6_rs/055b.jpg","66","","","","","","test","TL","4"
"","show_choice","333","563282","0.0-257.0-1.0","""event"",""trial"",""time""
""fullscreenenter"",""0"",""65228""
","
","
","""event"",""trial"",""time""
""fullscreenenter"",""0"",""65228""
","
","null","run_exp/static/images/Set 6_rs/055b.jpg","null","","","","","","test","TL",""
"","html-keyboard-response","334","563785","0.0-257.0-2.0","""event"",""trial"",""time""
""fullscreenenter"",""0"",""65228""
","
","
","""event"",""trial"",""time""
""fullscreenenter"",""0"",""65228""
","
","null","<p></p>","null","","","","","","","",""
"","image","335","564880","0.0-258.0-0.0","""event"",""trial"",""time""
""fullscreenenter"",""0"",""65228""
","
","
