"success","trial_type","trial_index","time_elapsed","internal_node_id","interactions","blur_events","focus_events","fullscreenenter_events","fullscreenexit_events","rt","stimulus","key_press","subject_id","participant_id","age","gender","prompt","phase","condition","lure_bin"
"true","fullscreen","0","2598","0.0-0.0","""event"",""trial"",""time""
""fullscreenenter"",""0"",""1641""
","
","
","""event"",""trial"",""time""
""fullscreenenter"",""0"",""1641""
","
","","","","","","","","","","",""
"","pavlovia","1","2601","0.0-1.0","""event"",""trial"",""time""
""fullscreenenter"",""0"",""1641""
","
","
","""event"",""trial"",""time""
""fullscreenenter"",""0"",""1641""
","
","","","","","","","","","","",""
"","welcome","2","37523","0.0-2.0","""event"",""trial"",""time""
""fullscreenenter"",""0"",""1641""
","
","
","""event"",""trial"",""time""
""fullscreenenter"",""0"",""1641""
","
","null","run_exp/static/audio/clip_1_welcome.m4a","null","1275","1059","22","Male","<div class='center'><p>Welcome to the third part of the study! First, you'll be shown pictures of items one at a time. For each picture, you have to decide if the item is typically found indoors or outdoors.</p><p>If you think it's usually found indoors, then press <b>v</b> key on your keyboard. If you think it's usually found outdoors, then press the <b>n</b> key.There will be reminders on the screen to help you remember which keys to press. </p><p>If you're not sure whether the item is an indoor item or an outdoor item, go ahead and take a guess but try your best not to skip that choice. </p></div>","","",""
"","html-keyboard-response","3","38360","0.0-3.0","""event"",""trial"",""time""
""fullscreenenter"",""0"",""1641""
","
","
","""event"",""trial"",""time""
""fullscreenenter"",""0"",""1641""
","
","833.5","<div class='center'><p>Welcome to the third part of the study! First, you'll be shown pictures of items one at a time. For each picture, you have to decide if the item is typically found indoors or outdoors.</p><p>If you think it's usually found indoors, then press <b>v</b> key on your keyboard. If you think it's usually found outdoors, then press the <b>n</b> key.There will be reminders on the screen to help you remember which keys to press. </p><p>If you're not sure whether the item is an indoor item or an outdoor item, go ahead and take a guess but try your best not to skip that choice. </p><div><p><b>[Press the space bar to continue]</b></p></div>","32","","","","","","","",""
"","image","4","40367","0.0-4.0","""event"",""trial"",""time""
""fullscreenenter"",""0"",""1641""
","
","
","""event"",""trial"",""time""
""fullscreenenter"",""0"",""1641""
","
","null","run_exp/static/images/Set 6_rs/122a.jpg","null","","","","","","learn","SR",""
"","show_choice","5","42373","0.0-5.0","""event"",""trial"",""time""
""fullscreenenter"",""0"",""1641""
","
","
","""event"",""trial"",""time""
""fullscreenenter"",""0"",""1641""
","
","null","run_exp/static/images/blank.png","null","","","","","","learn","SR",""
"","html-keyboard-response","6","42880","0.0-6.0","""event"",""trial"",""time""
""fullscreenenter"",""0"",""1641""
","
","
","""event"",""trial"",""time""
""fullscreenenter"",""0"",""1641""
","
","null","<p></p>","null","","","","","","","",""
"","image","7","44082","0.0-7.0","""event"",""trial"",""time""
""fullscreenenter"",""0"",""1641""
","
","
","""event"",""trial"",""time""
""fullscreenenter"",""0"",""1641""
","
","1201.8000000000175","run_exp/static/images/Set 6_rs/066a.jpg","86","","","","","","learn","SL",""
"","show_choice","8","44882","0.0-8.0","""event"",""trial"",""time""
""fullscreenenter"",""0"",""1641""
","
","
","""event"",""trial"",""time""
""fullscreenenter"",""0"",""1641""
","
","null","run_exp/static/images/Set 6_rs/066a.jpg","null","","","","","","learn","SL",""
"","html-keyboard-response","9","45388","0.0-9.0","""event"",""trial"",""time""
""fullscreenenter"",""0"",""1641""
","
","
","""event"",""trial"",""time""
""fullscreenenter"",""0"",""1641""
","
","null","<p></p>","null","","","","","","","",""
"","image","10","46758","0.0-10.0","""event"",""trial"",""time""
""fullscreenenter"",""0"",""1641""
","
","
","""event"",""trial"",""time""
""fullscreenenter"",""0"",""1641""
","
","1368.7999999999884","run_exp/static/images/Set 6_rs/144a.jpg","86","","","","","","learn","SL",""
"","show_choice","11","47390","0.0-11.0","""event"",""trial"",""time""
""fullscreenenter"",""0"",""1641""
","
","
","""event"",""trial"",""time""
""fullscreenenter"",""0"",""1641""
","
","null","run_exp/static/images/Set 6_rs/144a.jpg","null","","","","","","learn","SL",""
"","html-keyboard-response","12","47893","0.0-12.0","""event"",""trial"",""time""
""fullscreenenter"",""0"",""1641""
","
","
","""event"",""trial"",""time""
""fullscreenenter"",""0"",""1641""
","
","null","<p></p>","null","","","","","","","",""
"","image","13","49749","0.0-13.0","""event"",""trial"",""time""
""fullscreenenter"",""0"",""1641""
","
","
","""event"",""trial"",""time""
""fullscreenenter"",""0"",""1641""
","
","1855.3000000000175","run_exp/static/images/Set 6_rs/061a.jpg","78","","","","","","learn","SR",""
"","show_choice","14","49897","0.0-14.0","""event"",""trial"",""time""
""fullscreenenter"",""0"",""1641""
","
","
","""event"",""trial"",""time""
""fullscreenenter"",""0"",""1641""
","
","null","run_exp/static/images/Set 6_rs/061a.jpg","null","","","","","","learn","SR",""
"","html-keyboard-response","15","50397","0.0-15.0","""event"",""trial"",""time""
""fullscreenenter"",""0"",""1641""
","
","
","""event"",""trial"",""time""
""fullscreenenter"",""0"",""1641""
","
","null","<p></p>","null","","","","","","","",""
"","image","16","51589","0.0-16.0","""event"",""trial"",""time""
""fullscreenenter"",""0"",""1641""
","
","
","""event"",""trial"",""time""
""fullscreenenter"",""0"",""1641""
","
","1190.9000000000233","run_exp/static/images/Set 6_rs/012a.jpg","86","","","","","","learn","SR",""
"","show_choice","17","52400","0.0-17.0","""event"",""trial"",""time""
""fullscreenenter"",""0"",""1641""
","
","
","""event"",""trial"",""time""
""fullscreenenter"",""0"",""1641""
","
","null","run_exp/static/images/Set 6_rs/012a.jpg","null","","","","","","learn","SR",""
"","html-keyboard-response","18","52903","0.0-18.0","""event"",""trial"",""time""
""fullscreenenter"",""0"",""1641""
","
","
","""event"",""trial"",""time""
""fullscreenenter"",""0"",""1641""
","
","null","<p></p>","null","","","","","","","",""
"","image","19","54157","0.0-19.0","""event"",""trial"",""time""
""fullscreenenter"",""0"",""1641""
","
","
","""event"",""trial"",""time""
""fullscreenenter"",""0"",""1641""
","
","1253.2000000000116","run_exp/static/images/Set 6_rs/178a.jpg","78","","","","","","learn","SR",""
"","show_choice","20","54907","0.0-20.0","""event"",""trial"",""time""
""fullscreenenter"",""0"",""1641""
","
","
","""event"",""trial"",""time""
""fullscreenenter"",""0"",""1641""
","
","null","run_exp/static/images/Set 6_rs/178a.jpg","null","","","","","","learn","SR",""
"","html-keyboard-response","21","55408","0.0-21.0","""event"",""trial"",""time""
""fullscreenenter"",""0"",""1641""
","
","
","""event"",""trial"",""time""
""fullscreenenter"",""0"",""1641""
","
","null","<p></p>","null","","","","","","","",""
"","image","22","56966","0.0-22.0","""event"",""trial"",""time""
""fullscreenenter"",""0"",""1641""
","
","
","""event"",""trial"",""time""
""fullscreenenter"",""0"",""1641""
","
","1557.3000000000175","run_exp/static/images/Set 6_rs/191a.jpg","78","","","","","","learn","SL",""
"","show_choice","23","57409","0.0-23.0","""event"",""trial"",""time""
""fullscreenenter"",""0"",""1641""
","
","
","""event"",""trial"",""time""
""fullscreenenter"",""0"",""1641""
","
","null","run_exp/static/images/Set 6_rs/191a.jpg","null","","","","","","learn","SL",""
"","html-keyboard-response","24","57912","0.0-24.0","""event"",""trial"",""time""
""fullscreenenter"",""0"",""1641""
","
","
","""event"",""trial"",""time""
""fullscreenenter"",""0"",""1641""
","
","null","<p></p>","null","","","","","","","",""
"","image","25","59913","0.0-25.0","""event"",""trial"",""time""
""fullscreenenter"",""0"",""1641""
","
","
","""event"",""trial"",""time""
""fullscreenenter"",""0"",""1641""
","
","null","run_exp/static/images/Set 6_rs/168a.jpg","null","","","","","","learn","SL",""
"","show_choice","26","61915","0.0-26.0","""event"",""trial"",""time""
""fullscreenenter"",""0"",""1641""
","
","
","""event"",""trial"",""time""
""fullscreenenter"",""0"",""1641""
","
","null","run_exp/static/images/blank.png","null","","","","","","learn","SL",""
"","html-keyboard-response","27","62416","0.0-27.0","""event"",""trial"",""time""
""fullscreenenter"",""0"",""1641""
","
","
","""event"",""trial"",""time""
""fullscreenenter"",""0"",""1641""
","
","null","<p></p>","null","","","","","","","",""
"","image","28","64417","0.0-28.0","""event"",""trial"",""time""
""fullscreenenter"",""0"",""1641""
","
","
","""event"",""trial"",""time""
""fullscreenenter"",""0"",""1641""
","
","null","run_exp/static/images/Set 6_rs/017a.jpg","null","","","","","","learn","SL",""
"","show_choice","29","66422","0.0-29.0","""event"",""trial"",""time""
""fullscreenenter"",""0"",""1641""
","
","
","""event"",""trial"",""time""
""fullscreenenter"",""0"",""1641""
","
","null","run_exp/static/images/blank.png","null","","","","","","learn","SL",""
"","html-keyboard-response","30","66924","0.0-30.0","""event"",""trial"",""time""
""fullscreenenter"",""0"",""1641""
","
","
","""event"",""trial"",""time""
""fullscreenenter"",""0"",""1641""
","
","null","<p></p>","null","","","","","","","",""
"","image","31","68389","0.0-31.0","""event"",""trial"",""time""
""fullscreenenter"",""0"",""1641""
","
","
","""event"",""trial"",""time""
""fullscreenenter"",""0"",""1641""
","
","1463.8999999999942","run_exp/static/images/Set 6_rs/150a.jpg","86","","","","","","learn","SR",""
"","show_choice","32","68927","0.0-32.0","""event"",""trial"",""time""
""fullscreenenter"",""0"",""1641""
","
","
","""event"",""trial"",""time""
""fullscreenenter"",""0"",""1641""
","
","null","run_exp/static/images/Set 6_rs/150a.jpg","null","","","","","","learn","SR",""
"","html-keyboard-response","33","69432","0.0-33.0","""event"",""trial"",""time""
""fullscreenenter"",""0"",""1641""
","
","
","""event"",""trial"",""time""
""fullscreenenter"",""0"",""1641""
","
","null","<p></p>","null","","","","","","","",""
"","image","34","70334","0.0-34.0","""event"",""trial"",""time""
""fullscreenenter"",""0"",""1641""
","
","
","""event"",""trial"",""time""
""fullscreenenter"",""0"",""1641""
","
","901.2000000000116","run_exp/static/images/Set 6_rs/088a.jpg","86","","","","","","learn","SR",""
"","show_choice","35","71433","0.0-35.0","""event"",""trial"",""time""
""fullscreenenter"",""0"",""1641""
","
","
","""event"",""trial"",""time""
""fullscreenenter"",""0"",""1641""
","
","null","run_exp/static/images/Set 6_rs/088a.jpg","null","","","","","","learn","SR",""
"","html-keyboard-response","36","71935","0.0-36.0","""event"",""trial"",""time""
""fullscreenenter"",""0"",""1641""
","
","
","""event"",""trial"",""time""
""fullscreenenter"",""0"",""1641""
","
","null","<p></p>","null","","","","","","","",""
"","image","37","72821","0.0-37.0","""event"",""trial"",""time""
""fullscreenenter"",""0"",""1641""
","
","
","""event"",""trial"",""time""
""fullscreenenter"",""0"",""1641""
","
","885.0999999999767","run_exp/static/images/Set 6_rs/014a.jpg","86","","","","","","learn","SL",""
"","show_choice","38","73939","0.0-38.0","""event"",""trial"",""time""
""fullscreenenter"",""0"",""1641""
","
","
","""event"",""trial"",""time""
""fullscreenenter"",""0"",""1641""
","
","null","run_exp/static/images/Set 6_rs/014a.jpg","null","","","","","","learn","SL",""
"","html-keyboard-response","39","74442","0.0-39.0","""event"",""trial"",""time""
""fullscreenenter"",""0"",""1641""
","
","
","""event"",""trial"",""time""
""fullscreenenter"",""0"",""1641""
","
","null","<p></p>","null","","","","","","","",""
"","image","40","75534","0.0-40.0","""event"",""trial"",""time""
""fullscreenenter"",""0"",""1641""
","
","
","""event"",""trial"",""time""
""fullscreenenter"",""0"",""1641""
","
","1091.5","run_exp/static/images/Set 6_rs/138a.jpg","78","","","","","","learn","SL",""
"","show_choice","41","76443","0.0-41.0","""event"",""trial"",""time""
""fullscreenenter"",""0"",""1641""
","
","
","""event"",""trial"",""time""
""fullscreenenter"",""0"",""1641""
","
","null","run_exp/static/images/Set 6_rs/138a.jpg","null","","","","","","learn","SL",""
"","html-keyboard-response","42","76947","0.0-42.0","""event"",""trial"",""time""
""fullscreenenter"",""0"",""1641""
","
","
","""event"",""trial"",""time""
""fullscreenenter"",""0"",""1641""
","
","null","<p></p>","null","","","","","","","",""
"","image","43","78118","0.0-43.0","""event"",""trial"",""time""
""fullscreenenter"",""0"",""1641""
","
","
","""event"",""trial"",""time""
""fullscreenenter"",""0"",""1641""
","
","1170.0999999999767","run_exp/static/images/Set 6_rs/062a.jpg","78","","","","","","learn","SL",""
"","show_choice","44","78951","0.0-44.0","""event"",""trial"",""time""
""fullscreenenter"",""0"",""1641""
","
","
","""event"",""trial"",""time""
""fullscreenenter"",""0"",""1641""
","
","null","run_exp/static/images/Set 6_rs/062a.jpg","null","","","","","","learn","SL",""
"","html-keyboard-response","45","79453","0.0-45.0","""event"",""trial"",""time""
""fullscreenenter"",""0"",""1641""
","
","
","""event"",""trial"",""time""
""fullscreenenter"",""0"",""1641""
","
","null","<p></p>","null","","","","","","","",""
"","image","46","80342","0.0-46.0","""event"",""trial"",""time""
""fullscreenenter"",""0"",""1641""
","
","
","""event"",""trial"",""time""
""fullscreenenter"",""0"",""1641""
","
","888.1000000000058","run_exp/static/images/Set 6_rs/166a.jpg","86","","","","","","learn","SR",""
"","show_choice","47","81454","0.0-47.0","""event"",""trial"",""time""
""fullscreenenter"",""0"",""1641""
","
","
","""event"",""trial"",""time""
""fullscreenenter"",""0"",""1641""
","
","null","run_exp/static/images/Set 6_rs/166a.jpg","null","","","","","","learn","SR",""
"","html-keyboard-response","48","81955","0.0-48.0","""event"",""trial"",""time""
""fullscreenenter"",""0"",""1641""
","
","
","""event"",""trial"",""time""
""fullscreenenter"",""0"",""1641""
","
","null","<p></p>","null","","","","","","","",""
"","image","49","83029","0.0-49.0","""event"",""trial"",""time""
""fullscreenenter"",""0"",""1641""
","
","
","""event"",""trial"",""time""
""fullscreenenter"",""0"",""1641""
","
","1073.6000000000058","run_exp/static/images/Set 6_rs/055a.jpg","86","","","","","","learn","SL",""
"","show_choice","50","83957","0.0-50.0","""event"",""trial"",""time""
""fullscreenenter"",""0"",""1641""
","
","
","""event"",""trial"",""time""
""fullscreenenter"",""0"",""1641""
","
","null","run_exp/static/images/Set 6_rs/055a.jpg","null","","","","","","learn","SL",""
"","html-keyboard-response","51","84459","0.0-51.0","""event"",""trial"",""time""
""fullscreenenter"",""0"",""1641""
","
","
","""event"",""trial"",""time""
""fullscreenenter"",""0"",""1641""
","
","null","<p></p>","null","","","","","","","",""
"","image","52","85438","0.0-52.0","""event"",""trial"",""time""
""fullscreenenter"",""0"",""1641""
","
","
","""event"",""trial"",""time""
""fullscreenenter"",""0"",""1641""
","
","978.2000000000116","run_exp/static/images/Set 6_rs/007a.jpg","86","","","","","","learn","SR",""
"","show_choice","53","86464","0.0-53.0","""event"",""trial"",""time""
""fullscreenenter"",""0"",""1641""
","
","
","""event"",""trial"",""time""
""fullscreenenter"",""0"",""1641""
","
","null","run_exp/static/images/Set 6_rs/007a.jpg","null","","","","","","learn","SR",""
"","html-keyboard-response","54","86965","0.0-54.0","""event"",""trial"",""time""
""fullscreenenter"",""0"",""1641""
","
","
","""event"",""trial"",""time""
""fullscreenenter"",""0"",""1641""
","
","null","<p></p>","null","","","","","","","",""
"","image","55","87718","0.0-55.0","""event"",""trial"",""time""
""fullscreenenter"",""0"",""1641""
","
","
","""event"",""trial"",""time""
""fullscreenenter"",""0"",""1641""
","
","752.8000000000175","run_exp/static/images/Set 6_rs/023a.jpg","86","","","","","","learn","SR",""
"","show_choice","56","88966","0.0-56.0","""event"",""trial"",""time""
""fullscreenenter"",""0"",""1641""
","
","
","""event"",""trial"",""time""
""fullscreenenter"",""0"",""1641""
","
","null","run_exp/static/images/Set 6_rs/023a.jpg","null","","","","","","learn","SR",""
"","html-keyboard-response","57","89468","0.0-57.0","""event"",""trial"",""time""
""fullscreenenter"",""0"",""1641""
","
","
","""event"",""trial"",""time""
""fullscreenenter"",""0"",""1641""
","
","null","<p></p>","null","","","","","","","",""
"","image","58","90686","0.0-58.0","""event"",""trial"",""time""
""fullscreenenter"",""0"",""1641""
","
","
","""event"",""trial"",""time""
""fullscreenenter"",""0"",""1641""
","
","1217.5","run_exp/static/images/Set 6_rs/131a.jpg","86","","","","","","learn","SR",""
"","show_choice","59","91473","0.0-59.0","""event"",""trial"",""time""
""fullscreenenter"",""0"",""1641""
","
","
","""event"",""trial"",""time""
""fullscreenenter"",""0"",""1641""
","
","null","run_exp/static/images/Set 6_rs/131a.jpg","null","","","","","","learn","SR",""
"","html-keyboard-response","60","91974","0.0-60.0","""event"",""trial"",""time""
""fullscreenenter"",""0"",""1641""
","
","
","""event"",""trial"",""time""
""fullscreenenter"",""0"",""1641""
","
","null","<p></p>","null","","","","","","","",""
"","image","61","92845","0.0-61.0","""event"",""trial"",""time""
""fullscreenenter"",""0"",""1641""
","
","
","""event"",""trial"",""time""
""fullscreenenter"",""0"",""1641""
","
","870.2999999999884","run_exp/static/images/Set 6_rs/057a.jpg","86","","","","","","learn","SL",""
"","show_choice","62","93977","0.0-62.0","""event"",""trial"",""time""
""fullscreenenter"",""0"",""1641""
","
","
","""event"",""trial"",""time""
""fullscreenenter"",""0"",""1641""
","
","null","run_exp/static/images/Set 6_rs/057a.jpg","null","","","","","","learn","SL",""
"","html-keyboard-response","63","94478","0.0-63.0","""event"",""trial"",""time""
""fullscreenenter"",""0"",""1641""
","
","
","""event"",""trial"",""time""
""fullscreenenter"",""0"",""1641""
","
","null","<p></p>","null","","","","","","","",""
"","image","64","95941","0.0-64.0","""event"",""trial"",""time""
""fullscreenenter"",""0"",""1641""
","
","
","""event"",""trial"",""time""
""fullscreenenter"",""0"",""1641""
","
","1462.7999999999884","run_exp/static/images/Set 6_rs/167a.jpg","86","","","","","","learn","SL",""
"","show_choice","65","96479","0.0-65.0","""event"",""trial"",""time""
""fullscreenenter"",""0"",""1641""
","
","
","""event"",""trial"",""time""
""fullscreenenter"",""0"",""1641""
","
","null","run_exp/static/images/Set 6_rs/167a.jpg","null","","","","","","learn","SL",""
"","html-keyboard-response","66","96980","0.0-66.0","""event"",""trial"",""time""
""fullscreenenter"",""0"",""1641""
","
","
","""event"",""trial"",""time""
""fullscreenenter"",""0"",""1641""
","
","null","<p></p>","null","","","","","","","",""
"","image","67","98430","0.0-67.0","""event"",""trial"",""time""
""fullscreenenter"",""0"",""1641""
","
","
","""event"",""trial"",""time""
""fullscreenenter"",""0"",""1641""
","
","1449.1000000000058","run_exp/static/images/Set 6_rs/006a.jpg","86","","","","","","learn","SL",""
"","show_choice","68","98981","0.0-68.0","""event"",""trial"",""time""
""fullscreenenter"",""0"",""1641""
","
","
","""event"",""trial"",""time""
""fullscreenenter"",""0"",""1641""
","
","null","run_exp/static/images/Set 6_rs/006a.jpg","null","","","","","","learn","SL",""
"","html-keyboard-response","69","99483","0.0-69.0","""event"",""trial"",""time""
""fullscreenenter"",""0"",""1641""
","
","
","""event"",""trial"",""time""
""fullscreenenter"",""0"",""1641""
","
","null","<p></p>","null","","","","","","","",""
"","image","70","100326","0.0-70.0","""event"",""trial"",""time""
""fullscreenenter"",""0"",""1641""
","
","
","""event"",""trial"",""time""
""fullscreenenter"",""0"",""1641""
","
","841.7999999999884","run_exp/static/images/Set 6_rs/126a.jpg","78","","","","","","learn","SR",""
"","show_choice","71","101485","0.0-71.0","""event"",""trial"",""time""
""fullscreenenter"",""0"",""1641""
","
","
","""event"",""trial"",""time""
""fullscreenenter"",""0"",""1641""
","
","null","run_exp/static/images/Set 6_rs/126a.jpg","null","","","","","","learn","SR",""
"","html-keyboard-response","72","101987","0.0-72.0","""event"",""trial"",""time""
""fullscreenenter"",""0"",""1641""
","
","
","""event"",""trial"",""time""
""fullscreenenter"",""0"",""1641""
","
","null","<p></p>","null","","","","","","","",""
"","image","73","103614","0.0-73.0","""event"",""trial"",""time""
""fullscreenenter"",""0"",""1641""
","
","
","""event"",""trial"",""time""
""fullscreenenter"",""0"",""1641""
","
","1625.8000000000175","run_exp/static/images/Set 6_rs/085a.jpg","78","","","","","","learn","SL",""
"","show_choice","74","103988","0.0-74.0","""event"",""trial"",""time""
""fullscreenenter"",""0"",""1641""
","
","
","""event"",""trial"",""time""
""fullscreenenter"",""0"",""1641""
","
","null","run_exp/static/images/Set 6_rs/085a.jpg","null","","","","","","learn","SL",""
"","html-keyboard-response","75","104490","0.0-75.0","""event"",""trial"",""time""
""fullscreenenter"",""0"",""1641""
","
","
","""event"",""trial"",""time""
""fullscreenenter"",""0"",""1641""
","
","null","<p></p>","null","","","","","","","",""
"","image","76","105254","0.0-76.0","""event"",""trial"",""time""
""fullscreenenter"",""0"",""1641""
","
","
","""event"",""trial"",""time""
""fullscreenenter"",""0"",""1641""
","
","762.5","run_exp/static/images/Set 6_rs/063a.jpg","86","","","","","","learn","SR",""
"","show_choice","77","106491","0.0-77.0","""event"",""trial"",""time""
""fullscreenenter"",""0"",""1641""
","
","
","""event"",""trial"",""time""
""fullscreenenter"",""0"",""1641""
","
","null","run_exp/static/images/Set 6_rs/063a.jpg","null","","","","","","learn","SR",""
"","html-keyboard-response","78","106994","0.0-78.0","""event"",""trial"",""time""
""fullscreenenter"",""0"",""1641""
","
","
","""event"",""trial"",""time""
""fullscreenenter"",""0"",""1641""
","
","null","<p></p>","null","","","","","","","",""
"","image","79","107805","0.0-79.0","""event"",""trial"",""time""
""fullscreenenter"",""0"",""1641""
","
","
","""event"",""trial"",""time""
""fullscreenenter"",""0"",""1641""
","
","810.2000000000116","run_exp/static/images/Set 6_rs/079a.jpg","86","","","","","","learn","SL",""
"","show_choice","80","108996","0.0-80.0","""event"",""trial"",""time""
""fullscreenenter"",""0"",""1641""
","
","
","""event"",""trial"",""time""
""fullscreenenter"",""0"",""1641""
","
","null","run_exp/static/images/Set 6_rs/079a.jpg","null","","","","","","learn","SL",""
"","html-keyboard-response","81","109496","0.0-81.0","""event"",""trial"",""time""
""fullscreenenter"",""0"",""1641""
","
","
","""event"",""trial"",""time""
""fullscreenenter"",""0"",""1641""
","
","null","<p></p>","null","","","","","","","",""
"","image","82","110334","0.0-82.0","""event"",""trial"",""time""
""fullscreenenter"",""0"",""1641""
","
","
","""event"",""trial"",""time""
""fullscreenenter"",""0"",""1641""
","
","836.3999999999942","run_exp/static/images/Set 6_rs/169a.jpg","78","","","","","","learn","SR",""
"","show_choice","83","111499","0.0-83.0","""event"",""trial"",""time""
""fullscreenenter"",""0"",""1641""
","
","
","""event"",""trial"",""time""
""fullscreenenter"",""0"",""1641""
","
","null","run_exp/static/images/Set 6_rs/169a.jpg","null","","","","","","learn","SR",""
"","html-keyboard-response","84","112001","0.0-84.0","""event"",""trial"",""time""
""fullscreenenter"",""0"",""1641""
","
","
","""event"",""trial"",""time""
""fullscreenenter"",""0"",""1641""
","
","null","<p></p>","null","","","","","","","",""
"","image","85","113349","0.0-85.0","""event"",""trial"",""time""
""fullscreenenter"",""0"",""1641""
","
","
","""event"",""trial"",""time""
""fullscreenenter"",""0"",""1641""
","
","1347.6000000000058","run_exp/static/images/Set 6_rs/075a.jpg","78","","","","","","learn","SR",""
"","show_choice","86","114002","0.0-86.0","""event"",""trial"",""time""
""fullscreenenter"",""0"",""1641""
","
","
","""event"",""trial"",""time""
""fullscreenenter"",""0"",""1641""
","
","null","run_exp/static/images/Set 6_rs/075a.jpg","null","","","","","","learn","SR",""
"","html-keyboard-response","87","114507","0.0-87.0","""event"",""trial"",""time""
""fullscreenenter"",""0"",""1641""
","
","
","""event"",""trial"",""time""
""fullscreenenter"",""0"",""1641""
","
","null","<p></p>","null","","","","","","","",""
"","image","88","115390","0.0-88.0","""event"",""trial"",""time""
""fullscreenenter"",""0"",""1641""
","
","
","""event"",""trial"",""time""
""fullscreenenter"",""0"",""1641""
","
","881.9000000000233","run_exp/static/images/Set 6_rs/111a.jpg","86","","","","","","learn","SL",""
"","show_choice","89","116509","0.0-89.0","""event"",""trial"",""time""
""fullscreenenter"",""0"",""1641""
","
","
","""event"",""trial"",""time""
""fullscreenenter"",""0"",""1641""
","
","null","run_exp/static/images/Set 6_rs/111a.jpg","null","","","","","","learn","SL",""
"","html-keyboard-response","90","117011","0.0-90.0","""event"",""trial"",""time""
""fullscreenenter"",""0"",""1641""
","
","
","""event"",""trial"",""time""
""fullscreenenter"",""0"",""1641""
","
","null","<p></p>","null","","","","","","","",""
"","image","91","117997","0.0-91.0","""event"",""trial"",""time""
""fullscreenenter"",""0"",""1641""
","
","
","""event"",""trial"",""time""
""fullscreenenter"",""0"",""1641""
","
","985.7000000000116","run_exp/static/images/Set 6_rs/073a.jpg","86","","","","","","learn","SL",""
"","show_choice","92","119012","0.0-92.0","""event"",""trial"",""time""
""fullscreenenter"",""0"",""1641""
","
","
","""event"",""trial"",""time""
""fullscreenenter"",""0"",""1641""
","
","null","run_exp/static/images/Set 6_rs/073a.jpg","null","","","","","","learn","SL",""
"","html-keyboard-response","93","119515","0.0-93.0","""event"",""trial"",""time""
""fullscreenenter"",""0"",""1641""
","
","
","""event"",""trial"",""time""
""fullscreenenter"",""0"",""1641""
","
","null","<p></p>","null","","","","","","","",""
"","image","94","121029","0.0-94.0","""event"",""trial"",""time""
""fullscreenenter"",""0"",""1641""
","
","
","""event"",""trial"",""time""
""fullscreenenter"",""0"",""1641""
","
","1512.7000000000116","run_exp/static/images/Set 6_rs/091a.jpg","78","","","","","","learn","SL",""
"","show_choice","95","121521","0.0-95.0","""event"",""trial"",""time""
""fullscreenenter"",""0"",""1641""
","
","
","""event"",""trial"",""time""
""fullscreenenter"",""0"",""1641""
","
","null","run_exp/static/images/Set 6_rs/091a.jpg","null","","","","","","learn","SL",""
"","html-keyboard-response","96","122022","0.0-96.0","""event"",""trial"",""time""
""fullscreenenter"",""0"",""1641""
","
","
","""event"",""trial"",""time""
""fullscreenenter"",""0"",""1641""
","
","null","<p></p>","null","","","","","","","",""
"","image","97","122829","0.0-97.0","""event"",""trial"",""time""
""fullscreenenter"",""0"",""1641""
","
","
","""event"",""trial"",""time""
""fullscreenenter"",""0"",""1641""
","
","805.7000000000116","run_exp/static/images/Set 6_rs/095a.jpg","86","","","","","","learn","SL",""
"","show_choice","98","124025","0.0-98.0","""event"",""trial"",""time""
""fullscreenenter"",""0"",""1641""
","
","
","""event"",""trial"",""time""
""fullscreenenter"",""0"",""1641""
","
","null","run_exp/static/images/Set 6_rs/095a.jpg","null","","","","","","learn","SL",""
"","html-keyboard-response","99","124526","0.0-99.0","""event"",""trial"",""time""
""fullscreenenter"",""0"",""1641""
","
","
","""event"",""trial"",""time""
""fullscreenenter"",""0"",""1641""
","
","null","<p></p>","null","","","","","","","",""
"","image","100","125605","0.0-100.0","""event"",""trial"",""time""
""fullscreenenter"",""0"",""1641""
","
","
","""event"",""trial"",""time""
""fullscreenenter"",""0"",""1641""
","
","1078.5","run_exp/static/images/Set 6_rs/036a.jpg","86","","","","","","learn","SL",""
"","show_choice","101","126527","0.0-101.0","""event"",""trial"",""time""
""fullscreenenter"",""0"",""1641""
","
","
","""event"",""trial"",""time""
""fullscreenenter"",""0"",""1641""
","
","null","run_exp/static/images/Set 6_rs/036a.jpg","null","","","","","","learn","SL",""
"","html-keyboard-response","102","127032","0.0-102.0","""event"",""trial"",""time""
""fullscreenenter"",""0"",""1641""
","
","
","""event"",""trial"",""time""
""fullscreenenter"",""0"",""1641""
","
","null","<p></p>","null","","","","","","","",""
"","image","103","128005","0.0-103.0","""event"",""trial"",""time""
""fullscreenenter"",""0"",""1641""
","
","
","""event"",""trial"",""time""
""fullscreenenter"",""0"",""1641""
","
","971.8999999999651","run_exp/static/images/Set 6_rs/121a.jpg","86","","","","","","learn","SR",""
"","show_choice","104","129038","0.0-104.0","""event"",""trial"",""time""
""fullscreenenter"",""0"",""1641""
","
","
","""event"",""trial"",""time""
""fullscreenenter"",""0"",""1641""
","
","null","run_exp/static/images/Set 6_rs/121a.jpg","null","","","","","","learn","SR",""
"","html-keyboard-response","105","129539","0.0-105.0","""event"",""trial"",""time""
""fullscreenenter"",""0"",""1641""
","
","
","""event"",""trial"",""time""
""fullscreenenter"",""0"",""1641""
","
","null","<p></p>","null","","","","","","","",""
"","image","106","130485","0.0-106.0","""event"",""trial"",""time""
""fullscreenenter"",""0"",""1641""
","
","
","""event"",""trial"",""time""
""fullscreenenter"",""0"",""1641""
","
","945.2999999999884","run_exp/static/images/Set 6_rs/132a.jpg","86","","","","","","learn","SR",""
"","show_choice","107","131540","0.0-107.0","""event"",""trial"",""time""
""fullscreenenter"",""0"",""1641""
","
","
","""event"",""trial"",""time""
""fullscreenenter"",""0"",""1641""
","
","null","run_exp/static/images/Set 6_rs/132a.jpg","null","","","","","","learn","SR",""
"","html-keyboard-response","108","132042","0.0-108.0","""event"",""trial"",""time""
""fullscreenenter"",""0"",""1641""
","
","
","""event"",""trial"",""time""
""fullscreenenter"",""0"",""1641""
","
","null","<p></p>","null","","","","","","","",""
"","image","109","133037","0.0-109.0","""event"",""trial"",""time""
""fullscreenenter"",""0"",""1641""
","
","
","""event"",""trial"",""time""
""fullscreenenter"",""0"",""1641""
","
","995.1000000000349","run_exp/static/images/Set 6_rs/074a.jpg","78","","","","","","learn","SL",""
"","show_choice","110","134046","0.0-110.0","""event"",""trial"",""time""
""fullscreenenter"",""0"",""1641""
","
","
","""event"",""trial"",""time""
""fullscreenenter"",""0"",""1641""
","
","null","run_exp/static/images/Set 6_rs/074a.jpg","null","","","","","","learn","SL",""
"","html-keyboard-response","111","134547","0.0-111.0","""event"",""trial"",""time""
""fullscreenenter"",""0"",""1641""
","
","
","""event"",""trial"",""time""
""fullscreenenter"",""0"",""1641""
","
","null","<p></p>","null","","","","","","","",""
"","image","112","135430","0.0-112.0","""event"",""trial"",""time""
""fullscreenenter"",""0"",""1641""
","
","
","""event"",""trial"",""time""
""fullscreenenter"",""0"",""1641""
","
","882.0999999999767","run_exp/static/images/Set 6_rs/076a.jpg","78","","","","","","learn","SR",""
"","show_choice","113","136548","0.0-113.0","""event"",""trial"",""time""
""fullscreenenter"",""0"",""1641""
","
","
","""event"",""trial"",""time""
""fullscreenenter"",""0"",""1641""
","
","null","run_exp/static/images/Set 6_rs/076a.jpg","null","","","","","","learn","SR",""
"","html-keyboard-response","114","137049","0.0-114.0","""event"",""trial"",""time""
""fullscreenenter"",""0"",""1641""
","
","
","""event"",""trial"",""time""
""fullscreenenter"",""0"",""1641""
","
","null","<p></p>","null","","","","","","","",""
"","image","115","138270","0.0-115.0","""event"",""trial"",""time""
""fullscreenenter"",""0"",""1641""
","
","
","""event"",""trial"",""time""
""fullscreenenter"",""0"",""1641""
","
","1219.899999999965","run_exp/static/images/Set 6_rs/045a.jpg","86","","","","","","learn","SR",""
"","show_choice","116","139055","0.0-116.0","""event"",""trial"",""time""
""fullscreenenter"",""0"",""1641""
","
","
","""event"",""trial"",""time""
""fullscreenenter"",""0"",""1641""
","
","null","run_exp/static/images/Set 6_rs/045a.jpg","null","","","","","","learn","SR",""
"","html-keyboard-response","117","139558","0.0-117.0","""event"",""trial"",""time""
""fullscreenenter"",""0"",""1641""
","
","
","""event"",""trial"",""time""
""fullscreenenter"",""0"",""1641""
","
","null","<p></p>","null","","","","","","","",""
"","image","118","140646","0.0-118.0","""event"",""trial"",""time""
""fullscreenenter"",""0"",""1641""
","
","
","""event"",""trial"",""time""
""fullscreenenter"",""0"",""1641""
","
","1086.5","run_exp/static/images/Set 6_rs/187a.jpg","86","","","","","","learn","SR",""
"","show_choice","119","141563","0.0-119.0","""event"",""trial"",""time""
""fullscreenenter"",""0"",""1641""
","
","
","""event"",""trial"",""time""
""fullscreenenter"",""0"",""1641""
","
","null","run_exp/static/images/Set 6_rs/187a.jpg","null","","","","","","learn","SR",""
"","html-keyboard-response","120","142064","0.0-120.0","""event"",""trial"",""time""
""fullscreenenter"",""0"",""1641""
","
","
","""event"",""trial"",""time""
""fullscreenenter"",""0"",""1641""
","
","null","<p></p>","null","","","","","","","",""
"","image","121","143062","0.0-121.0","""event"",""trial"",""time""
""fullscreenenter"",""0"",""1641""
","
","
","""event"",""trial"",""time""
""fullscreenenter"",""0"",""1641""
","
","997.2999999999884","run_exp/static/images/Set 6_rs/141a.jpg","78","","","","","","learn","SR",""
"","show_choice","122","144066","0.0-122.0","""event"",""trial"",""time""
""fullscreenenter"",""0"",""1641""
","
","
","""event"",""trial"",""time""
""fullscreenenter"",""0"",""1641""
","
","null","run_exp/static/images/Set 6_rs/141a.jpg","null","","","","","","learn","SR",""
"","html-keyboard-response","123","144567","0.0-123.0","""event"",""trial"",""time""
""fullscreenenter"",""0"",""1641""
","
","
","""event"",""trial"",""time""
""fullscreenenter"",""0"",""1641""
","
","null","<p></p>","null","","","","","","","",""
"","image","124","145470","0.0-124.0","""event"",""trial"",""time""
""fullscreenenter"",""0"",""1641""
","
","
","""event"",""trial"",""time""
""fullscreenenter"",""0"",""1641""
","
","901.8000000000466","run_exp/static/images/Set 6_rs/016a.jpg","86","","","","","","learn","SL",""
"","show_choice","125","146571","0.0-125.0","""event"",""trial"",""time""
""fullscreenenter"",""0"",""1641""
","
","
","""event"",""trial"",""time""
""fullscreenenter"",""0"",""1641""
","
","null","run_exp/static/images/Set 6_rs/016a.jpg","null","","","","","","learn","SL",""
"","html-keyboard-response","126","147072","0.0-126.0","""event"",""trial"",""time""
""fullscreenenter"",""0"",""1641""
","
","
","""event"",""trial"",""time""
""fullscreenenter"",""0"",""1641""
","
","null","<p></p>","null","","","","","","","",""
"","image","127","147950","0.0-127.0","""event"",""trial"",""time""
""fullscreenenter"",""0"",""1641""
","
","
","""event"",""trial"",""time""
""fullscreenenter"",""0"",""1641""
","
","877.3999999999651","run_exp/static/images/Set 6_rs/010a.jpg","86","","","","","","learn","SR",""
"","show_choice","128","149078","0.0-128.0","""event"",""trial"",""time""
""fullscreenenter"",""0"",""1641""
","
","
","""event"",""trial"",""time""
""fullscreenenter"",""0"",""1641""
","
","null","run_exp/static/images/Set 6_rs/010a.jpg","null","","","","","","learn","SR",""
"","html-keyboard-response","129","149579","0.0-129.0","""event"",""trial"",""time""
""fullscreenenter"",""0"",""1641""
","
","
","""event"",""trial"",""time""
""fullscreenenter"",""0"",""1641""
","
","null","<p></p>","null","","","","","","","",""
"","image","130","150629","0.0-130.0","""event"",""trial"",""time""
""fullscreenenter"",""0"",""1641""
","
","
","""event"",""trial"",""time""
""fullscreenenter"",""0"",""1641""
","
","1049.399999999965","run_exp/static/images/Set 6_rs/129a.jpg","86","","","","","","learn","SL",""
"","show_choice","131","151582","0.0-131.0","""event"",""trial"",""time""
""fullscreenenter"",""0"",""1641""
","
","
","""event"",""trial"",""time""
""fullscreenenter"",""0"",""1641""
","
","null","run_exp/static/images/Set 6_rs/129a.jpg","null","","","","","","learn","SL",""
"","html-keyboard-response","132","152083","0.0-132.0","""event"",""trial"",""time""
""fullscreenenter"",""0"",""1641""
","
","
","""event"",""trial"",""time""
""fullscreenenter"",""0"",""1641""
","
","null","<p></p>","null","","","","","","","",""
"","image","133","153550","0.0-133.0","""event"",""trial"",""time""
""fullscreenenter"",""0"",""1641""
","
","
","""event"",""trial"",""time""
""fullscreenenter"",""0"",""1641""
","
","1466.2000000000116","run_exp/static/images/Set 6_rs/134a.jpg","86","","","","","","learn","SR",""
"","show_choice","134","154087","0.0-134.0","""event"",""trial"",""time""
""fullscreenenter"",""0"",""1641""
","
","
","""event"",""trial"",""time""
""fullscreenenter"",""0"",""1641""
","
","null","run_exp/static/images/Set 6_rs/134a.jpg","null","","","","","","learn","SR",""
"","html-keyboard-response","135","154591","0.0-135.0","""event"",""trial"",""time""
""fullscreenenter"",""0"",""1641""
","
","
","""event"",""trial"",""time""
""fullscreenenter"",""0"",""1641""
","
","null","<p></p>","null","","","","","","","",""
"","image","136","155573","0.0-136.0","""event"",""trial"",""time""
""fullscreenenter"",""0"",""1641""
","
","
","""event"",""trial"",""time""
""fullscreenenter"",""0"",""1641""
","
","981","run_exp/static/images/Set 6_rs/019a.jpg","86","","","","","","learn","SL",""
"","show_choice","137","156593","0.0-137.0","""event"",""trial"",""time""
""fullscreenenter"",""0"",""1641""
","
","
","""event"",""trial"",""time""
""fullscreenenter"",""0"",""1641""
","
","null","run_exp/static/images/Set 6_rs/019a.jpg","null","","","","","","learn","SL",""
"","html-keyboard-response","138","157094","0.0-138.0","""event"",""trial"",""time""
""fullscreenenter"",""0"",""1641""
","
","
","""event"",""trial"",""time""
""fullscreenenter"",""0"",""1641""
","
","null","<p></p>","null","","","","","","","",""
"","image","139","158325","0.0-139.0","""event"",""trial"",""time""
""fullscreenenter"",""0"",""1641""
","
","
","""event"",""trial"",""time""
""fullscreenenter"",""0"",""1641""
","
","1230.600000000035","run_exp/static/images/Set 6_rs/152a.jpg","86","","","","","","learn","SR",""
"","show_choice","140","159096","0.0-140.0","""event"",""trial"",""time""
""fullscreenenter"",""0"",""1641""
","
","
","""event"",""trial"",""time""
""fullscreenenter"",""0"",""1641""
","
","null","run_exp/static/images/Set 6_rs/152a.jpg","null","","","","","","learn","SR",""
"","html-keyboard-response","141","159601","0.0-141.0","""event"",""trial"",""time""
""fullscreenenter"",""0"",""1641""
","
","
","""event"",""trial"",""time""
""fullscreenenter"",""0"",""1641""
","
","null","<p></p>","null","","","","","","","",""
"","image","142","160494","0.0-142.0","""event"",""trial"",""time""
""fullscreenenter"",""0"",""1641""
","
","
","""event"",""trial"",""time""
""fullscreenenter"",""0"",""1641""
","
","891.6000000000349","run_exp/static/images/Set 6_rs/108a.jpg","78","","","","","","learn","SR",""
"","show_choice","143","161603","0.0-143.0","""event"",""trial"",""time""
""fullscreenenter"",""0"",""1641""
","
","
","""event"",""trial"",""time""
""fullscreenenter"",""0"",""1641""
","
","null","run_exp/static/images/Set 6_rs/108a.jpg","null","","","","","","learn","SR",""
"","html-keyboard-response","144","162104","0.0-144.0","""event"",""trial"",""time""
""fullscreenenter"",""0"",""1641""
","
","
","""event"",""trial"",""time""
""fullscreenenter"",""0"",""1641""
","
","null","<p></p>","null","","","","","","","",""
"","image","145","163525","0.0-145.0","""event"",""trial"",""time""
""fullscreenenter"",""0"",""1641""
","
","
","""event"",""trial"",""time""
""fullscreenenter"",""0"",""1641""
","
","1420.899999999965","run_exp/static/images/Set 6_rs/071a.jpg","78","","","","","","learn","SL",""
"","show_choice","146","164107","0.0-146.0","""event"",""trial"",""time""
""fullscreenenter"",""0"",""1641""
","
","
","""event"",""trial"",""time""
""fullscreenenter"",""0"",""1641""
","
","null","run_exp/static/images/Set 6_rs/071a.jpg","null","","","","","","learn","SL",""
"","html-keyboard-response","147","164611","0.0-147.0","""event"",""trial"",""time""
""fullscreenenter"",""0"",""1641""
","
","
","""event"",""trial"",""time""
""fullscreenenter"",""0"",""1641""
","
","null","<p></p>","null","","","","","","","",""
"","image","148","165869","0.0-148.0","""event"",""trial"",""time""
""fullscreenenter"",""0"",""1641""
","
","
","""event"",""trial"",""time""
""fullscreenenter"",""0"",""1641""
","
","1257.2000000000116","run_exp/static/images/Set 6_rs/008a.jpg","78","","","","","","learn","SL",""
"","show_choice","149","166614","0.0-149.0","""event"",""trial"",""time""
""fullscreenenter"",""0"",""1641""
","
","
","""event"",""trial"",""time""
""fullscreenenter"",""0"",""1641""
","
","null","run_exp/static/images/Set 6_rs/008a.jpg","null","","","","","","learn","SL",""
"","html-keyboard-response","150","167114","0.0-150.0","""event"",""trial"",""time""
""fullscreenenter"",""0"",""1641""
","
","
","""event"",""trial"",""time""
""fullscreenenter"",""0"",""1641""
","
","null","<p></p>","null","","","","","","","",""
"","image","151","168230","0.0-151.0","""event"",""trial"",""time""
""fullscreenenter"",""0"",""1641""
","
","
","""event"",""trial"",""time""
""fullscreenenter"",""0"",""1641""
","
","1114.399999999965","run_exp/static/images/Set 6_rs/064a.jpg","86","","","","","","learn","SR",""
"","show_choice","152","169119","0.0-152.0","""event"",""trial"",""time""
""fullscreenenter"",""0"",""1641""
","
","
","""event"",""trial"",""time""
""fullscreenenter"",""0"",""1641""
","
","null","run_exp/static/images/Set 6_rs/064a.jpg","null","","","","","","learn","SR",""
"","html-keyboard-response","153","169623","0.0-153.0","""event"",""trial"",""time""
""fullscreenenter"",""0"",""1641""
","
","
","""event"",""trial"",""time""
""fullscreenenter"",""0"",""1641""
","
","null","<p></p>","null","","","","","","","",""
"","image","154","170718","0.0-154.0","""event"",""trial"",""time""
""fullscreenenter"",""0"",""1641""
","
","
","""event"",""trial"",""time""
""fullscreenenter"",""0"",""1641""
","
","1093.7999999999884","run_exp/static/images/Set 6_rs/177a.jpg","78","","","","","","learn","SR",""
"","show_choice","155","171624","0.0-155.0","""event"",""trial"",""time""
""fullscreenenter"",""0"",""1641""
","
","
","""event"",""trial"",""time""
""fullscreenenter"",""0"",""1641""
","
","null","run_exp/static/images/Set 6_rs/177a.jpg","null","","","","","","learn","SR",""
"","html-keyboard-response","156","172129","0.0-156.0","""event"",""trial"",""time""
""fullscreenenter"",""0"",""1641""
","
","
","""event"",""trial"",""time""
""fullscreenenter"",""0"",""1641""
","
","null","<p></p>","null","","","","","","","",""
"","image","157","172917","0.0-157.0","""event"",""trial"",""time""
""fullscreenenter"",""0"",""1641""
","
","
","""event"",""trial"",""time""
""fullscreenenter"",""0"",""1641""
","
","787.9000000000233","run_exp/static/images/Set 6_rs/123a.jpg","86","","","","","","learn","SL",""
"","show_choice","158","174135","0.0-158.0","""event"",""trial"",""time""
""fullscreenenter"",""0"",""1641""
","
","
","""event"",""trial"",""time""
""fullscreenenter"",""0"",""1641""
","
","null","run_exp/static/images/Set 6_rs/123a.jpg","null","","","","","","learn","SL",""
"","html-keyboard-response","159","174639","0.0-159.0","""event"",""trial"",""time""
""fullscreenenter"",""0"",""1641""
","
","
","""event"",""trial"",""time""
""fullscreenenter"",""0"",""1641""
","
","null","<p></p>","null","","","","","","","",""
"","image","160","175517","0.0-160.0","""event"",""trial"",""time""
""fullscreenenter"",""0"",""1641""
","
","
","""event"",""trial"",""time""
""fullscreenenter"",""0"",""1641""
","
","876.5999999999767","run_exp/static/images/Set 6_rs/024a.jpg","86","","","","","","learn","SR",""
"","show_choice","161","176642","0.0-161.0","""event"",""trial"",""time""
""fullscreenenter"",""0"",""1641""
","
","
","""event"",""trial"",""time""
""fullscreenenter"",""0"",""1641""
","
","null","run_exp/static/images/Set 6_rs/024a.jpg","null","","","","","","learn","SR",""
"","html-keyboard-response","162","177143","0.0-162.0","""event"",""trial"",""time""
""fullscreenenter"",""0"",""1641""
","
","
","""event"",""trial"",""time""
""fullscreenenter"",""0"",""1641""
","
","null","<p></p>","null","","","","","","","",""
"","image","163","177958","0.0-163.0","""event"",""trial"",""time""
""fullscreenenter"",""0"",""1641""
","
","
","""event"",""trial"",""time""
""fullscreenenter"",""0"",""1641""
","
","814.5999999999767","run_exp/static/images/Set 6_rs/181a.jpg","78","","","","","","learn","SL",""
"","show_choice","164","179144","0.0-164.0","""event"",""trial"",""time""
""fullscreenenter"",""0"",""1641""
","
","
","""event"",""trial"",""time""
""fullscreenenter"",""0"",""1641""
","
","null","run_exp/static/images/Set 6_rs/181a.jpg","null","","","","","","learn","SL",""
"","html-keyboard-response","165","179647","0.0-165.0","""event"",""trial"",""time""
""fullscreenenter"",""0"",""1641""
","
","
","""event"",""trial"",""time""
""fullscreenenter"",""0"",""1641""
","
","null","<p></p>","null","","","","","","","",""
"","image","166","181094","0.0-166.0","""event"",""trial"",""time""
""fullscreenenter"",""0"",""1641""
","
","
","""event"",""trial"",""time""
""fullscreenenter"",""0"",""1641""
","
","1446.5999999999767","run_exp/static/images/Set 6_rs/117a.jpg","86","","","","","","learn","SL",""
"","show_choice","167","181648","0.0-167.0","""event"",""trial"",""time""
""fullscreenenter"",""0"",""1641""
","
","
","""event"",""trial"",""time""
""fullscreenenter"",""0"",""1641""
","
","null","run_exp/static/images/Set 6_rs/117a.jpg","null","","","","","","learn","SL",""
"","html-keyboard-response","168","182150","0.0-168.0","""event"",""trial"",""time""
""fullscreenenter"",""0"",""1641""
","
","
","""event"",""trial"",""time""
""fullscreenenter"",""0"",""1641""
","
","null","<p></p>","null","","","","","","","",""
"","image","169","183438","0.0-169.0","""event"",""trial"",""time""
""fullscreenenter"",""0"",""1641""
","
","
","""event"",""trial"",""time""
""fullscreenenter"",""0"",""1641""
","
","1287.2999999999884","run_exp/static/images/Set 6_rs/070a.jpg","86","","","","","","learn","SR",""
"","show_choice","170","184153","0.0-170.0","""event"",""trial"",""time""
""fullscreenenter"",""0"",""1641""
","
","
","""event"",""trial"",""time""
""fullscreenenter"",""0"",""1641""
","
","null","run_exp/static/images/Set 6_rs/070a.jpg","null","","","","","","learn","SR",""
"","html-keyboard-response","171","184656","0.0-171.0","""event"",""trial"",""time""
""fullscreenenter"",""0"",""1641""
","
","
","""event"",""trial"",""time""
""fullscreenenter"",""0"",""1641""
","
","null","<p></p>","null","","","","","","","",""
"","image","172","186095","0.0-172.0","""event"",""trial"",""time""
""fullscreenenter"",""0"",""1641""
","
","
","""event"",""trial"",""time""
""fullscreenenter"",""0"",""1641""
","
","1436.600000000035","run_exp/static/images/Set 6_rs/154a.jpg","86","","","","","","learn","SR",""
"","show_choice","173","186658","0.0-173.0","""event"",""trial"",""time""
""fullscreenenter"",""0"",""1641""
","
","
","""event"",""trial"",""time""
""fullscreenenter"",""0"",""1641""
","
","null","run_exp/static/images/Set 6_rs/154a.jpg","null","","","","","","learn","SR",""
"","html-keyboard-response","174","187164","0.0-174.0","""event"",""trial"",""time""
""fullscreenenter"",""0"",""1641""
","
","
","""event"",""trial"",""time""
""fullscreenenter"",""0"",""1641""
","
","null","<p></p>","null","","","","","","","",""
"","image","175","188294","0.0-175.0","""event"",""trial"",""time""
""fullscreenenter"",""0"",""1641""
","
","
","""event"",""trial"",""time""
""fullscreenenter"",""0"",""1641""
","
","1128.6999999999534","run_exp/static/images/Set 6_rs/089a.jpg","86","","","","","","learn","SL",""
"","show_choice","176","189167","0.0-176.0","""event"",""trial"",""time""
""fullscreenenter"",""0"",""1641""
","
","
","""event"",""trial"",""time""
""fullscreenenter"",""0"",""1641""
","
","null","run_exp/static/images/Set 6_rs/089a.jpg","null","","","","","","learn","SL",""
"","html-keyboard-response","177","189669","0.0-177.0","""event"",""trial"",""time""
""fullscreenenter"",""0"",""1641""
","
","
","""event"",""trial"",""time""
""fullscreenenter"",""0"",""1641""
","
","null","<p></p>","null","","","","","","","",""
"","image","178","190486","0.0-178.0","""event"",""trial"",""time""
""fullscreenenter"",""0"",""1641""
","
","
","""event"",""trial"",""time""
""fullscreenenter"",""0"",""1641""
","
","816.7999999999884","run_exp/static/images/Set 6_rs/050a.jpg","86","","","","","","learn","SL",""
"","show_choice","179","191670","0.0-179.0","""event"",""trial"",""time""
""fullscreenenter"",""0"",""1641""
","
","
","""event"",""trial"",""time""
""fullscreenenter"",""0"",""1641""
","
","null","run_exp/static/images/Set 6_rs/050a.jpg","null","","","","","","learn","SL",""
"","html-keyboard-response","180","192170","0.0-180.0","""event"",""trial"",""time""
""fullscreenenter"",""0"",""1641""
","
","
","""event"",""trial"",""time""
""fullscreenenter"",""0"",""1641""
","
","null","<p></p>","null","","","","","","","",""
"","image","181","192998","0.0-181.0","""event"",""trial"",""time""
""fullscreenenter"",""0"",""1641""
","
","
","""event"",""trial"",""time""
""fullscreenenter"",""0"",""1641""
","
","826.5","run_exp/static/images/Set 6_rs/172a.jpg","78","","","","","","learn","SR",""
"","show_choice","182","194172","0.0-182.0","""event"",""trial"",""time""
""fullscreenenter"",""0"",""1641""
","
","
","""event"",""trial"",""time""
""fullscreenenter"",""0"",""1641""
","
","null","run_exp/static/images/Set 6_rs/172a.jpg","null","","","","","","learn","SR",""
"","html-keyboard-response","183","194676","0.0-183.0","""event"",""trial"",""time""
""fullscreenenter"",""0"",""1641""
","
","
","""event"",""trial"",""time""
""fullscreenenter"",""0"",""1641""
","
","null","<p></p>","null","","","","","","","",""
"","image","184","195462","0.0-184.0","""event"",""trial"",""time""
""fullscreenenter"",""0"",""1641""
","
","
","""event"",""trial"",""time""
""fullscreenenter"",""0"",""1641""
","
","784.7999999999884","run_exp/static/images/Set 6_rs/112a.jpg","86","","","","","","learn","SR",""
"","show_choice","185","196682","0.0-185.0","""event"",""trial"",""time""
""fullscreenenter"",""0"",""1641""
","
","
","""event"",""trial"",""time""
""fullscreenenter"",""0"",""1641""
","
","null","run_exp/static/images/Set 6_rs/112a.jpg","null","","","","","","learn","SR",""
"","html-keyboard-response","186","197185","0.0-186.0","""event"",""trial"",""time""
""fullscreenenter"",""0"",""1641""
","
","
","""event"",""trial"",""time""
""fullscreenenter"",""0"",""1641""
","
","null","<p></p>","null","","","","","","","",""
"","image","187","198045","0.0-187.0","""event"",""trial"",""time""
""fullscreenenter"",""0"",""1641""
","
","
","""event"",""trial"",""time""
""fullscreenenter"",""0"",""1641""
","
","860","run_exp/static/images/Set 6_rs/186a.jpg","86","","","","","","learn","SR",""
"","show_choice","188","199186","0.0-188.0","""event"",""trial"",""time""
""fullscreenenter"",""0"",""1641""
","
","
","""event"",""trial"",""time""
""fullscreenenter"",""0"",""1641""
","
","null","run_exp/static/images/Set 6_rs/186a.jpg","null","","","","","","learn","SR",""
"","html-keyboard-response","189","199687","0.0-189.0","""event"",""trial"",""time""
""fullscreenenter"",""0"",""1641""
","
","
","""event"",""trial"",""time""
""fullscreenenter"",""0"",""1641""
","
","null","<p></p>","null","","","","","","","",""
"","image","190","200366","0.0-190.0","""event"",""trial"",""time""
""fullscreenenter"",""0"",""1641""
","
","
","""event"",""trial"",""time""
""fullscreenenter"",""0"",""1641""
","
","677.4000000000233","run_exp/static/images/Set 6_rs/025a.jpg","78","","","","","","learn","SL",""
"","show_choice","191","201689","0.0-191.0","""event"",""trial"",""time""
""fullscreenenter"",""0"",""1641""
","
","
","""event"",""trial"",""time""
""fullscreenenter"",""0"",""1641""
","
","null","run_exp/static/images/Set 6_rs/025a.jpg","null","","","","","","learn","SL",""
"","html-keyboard-response","192","202189","0.0-192.0","""event"",""trial"",""time""
""fullscreenenter"",""0"",""1641""
","
","
","""event"",""trial"",""time""
""fullscreenenter"",""0"",""1641""
","
","null","<p></p>","null","","","","","","","",""
"","image","193","203717","0.0-193.0","""event"",""trial"",""time""
""fullscreenenter"",""0"",""1641""
","
","
","""event"",""trial"",""time""
""fullscreenenter"",""0"",""1641""
","
","1527.2000000000116","run_exp/static/images/Set 6_rs/116a.jpg","86","","","","","","learn","SL",""
"","show_choice","194","204190","0.0-194.0","""event"",""trial"",""time""
""fullscreenenter"",""0"",""1641""
","
","
","""event"",""trial"",""time""
""fullscreenenter"",""0"",""1641""
","
","null","run_exp/static/images/Set 6_rs/116a.jpg","null","","","","","","learn","SL",""
"","html-keyboard-response","195","204696","0.0-195.0","""event"",""trial"",""time""
""fullscreenenter"",""0"",""1641""
","
","
","""event"",""trial"",""time""
""fullscreenenter"",""0"",""1641""
","
","null","<p></p>","null","","","","","","","",""
"","test_intro","196","241614","0.0-196.0","""event"",""trial"",""time""
""fullscreenenter"",""0"",""1641""
","
","
","""event"",""trial"",""time""
""fullscreenenter"",""0"",""1641""
","
","null","run_exp/static/audio/clip_2_memory.m4a","null","","","","","<div class='center'><p>Now, lets see how much you remember about the items you just saw.  For each item, you need to indicate if it was <b>old</b> by pressing the <b>v</b> key, <b>similar</b> by pressing the <b>b</b> key, or <b>new</b> by pressing the <b>n</b> key.</p><p>Old refers to an item that you saw before in the indoor/outdoor game that you just played, new refers to an item you have <b>not</b> seen before within the indoor/outdoor game, and similar refers to an item that is similar to an item youve seen before but is not exactly the same. </p><p>Before we begin, lets go over some brief demonstrations to make sure you understand.</p></div>","","",""
"","html-keyboard-response","197","242246","0.0-197.0","""event"",""trial"",""time""
""fullscreenenter"",""0"",""1641""
","
","
","""event"",""trial"",""time""
""fullscreenenter"",""0"",""1641""
","
","631","<div class='center'><p>Now, lets see how much you remember about the items you just saw.  For each item, you need to indicate if it was <b>old</b> by pressing the <b>v</b> key, <b>similar</b> by pressing the <b>b</b> key, or <b>new</b> by pressing the <b>n</b> key.</p><p>Old refers to an item that you saw before in the indoor/outdoor game that you just played, new refers to an item you have <b>not</b> seen before within the indoor/outdoor game, and similar refers to an item that is similar to an item youve seen before but is not exactly the same. </p><p>Before we begin, lets go over some brief demonstrations to make sure you understand.</p><div><p><b>[Press the space bar to continue]</b></p></div>","32","","","","","","","",""
"","items","198","249751","0.0-198.0","""event"",""trial"",""time""
""fullscreenenter"",""0"",""1641""
","
","
","""event"",""trial"",""time""
""fullscreenenter"",""0"",""1641""
","
","null","run_exp/static/audio/clip_3_items.m4a","null","","","","","","","",""
"","mop","199","254253","0.0-199.0","""event"",""trial"",""time""
""fullscreenenter"",""0"",""1641""
","
","
","""event"",""trial"",""time""
""fullscreenenter"",""0"",""1641""
","
","null","run_exp/static/audio/clip_4_mop.m4a","null","","","","","","","",""
"","baseball","200","257757","0.0-200.0","""event"",""trial"",""time""
""fullscreenenter"",""0"",""1641""
","
","
","""event"",""trial"",""time""
""fullscreenenter"",""0"",""1641""
","
","null","run_exp/static/audio/clip_5_baseball.m4a","null","","","","","","","",""
"","trumpet","201","261259","0.0-201.0","""event"",""trial"",""time""
""fullscreenenter"",""0"",""1641""
","
","
","""event"",""trial"",""time""
""fullscreenenter"",""0"",""1641""
","
","null","run_exp/static/audio/clip_6_trumpet.m4a","null","","","","","","","",""
"","gummies","202","264762","0.0-202.0","""event"",""trial"",""time""
""fullscreenenter"",""0"",""1641""
","
","
","""event"",""trial"",""time""
""fullscreenenter"",""0"",""1641""
","
","null","run_exp/static/audio/clip_7_gummies.m4a","null","","","","","","","",""
"","osn","203","269267","0.0-203.0","""event"",""trial"",""time""
""fullscreenenter"",""0"",""1641""
","
","
","""event"",""trial"",""time""
""fullscreenenter"",""0"",""1641""
","
","null","run_exp/static/audio/clip_8_osn.m4a","null","","","","","","","",""
"","old_1","204","275770","0.0-204.0","""event"",""trial"",""time""
""fullscreenenter"",""0"",""1641""
","
","
","""event"",""trial"",""time""
""fullscreenenter"",""0"",""1641""
","
","null","run_exp/static/audio/clip_9_old_trumpet.m4a","null","","","","","","","",""
"","new_1","205","283273","0.0-205.0","""event"",""trial"",""time""
""fullscreenenter"",""0"",""1641""
","
","
","""event"",""trial"",""time""
""fullscreenenter"",""0"",""1641""
","
","null","run_exp/static/audio/clip_10_new_balloon.m4a","null","","","","","","","",""
"","similar_1a","206","287777","0.0-206.0","""event"",""trial"",""time""
""fullscreenenter"",""0"",""1641""
","
","
","""event"",""trial"",""time""
""fullscreenenter"",""0"",""1641""
","
","null","run_exp/static/audio/clip_11a_similar_mop.m4a","null","","","","","","","",""
"","similar_1b","207","294283","0.0-207.0","""event"",""trial"",""time""
""fullscreenenter"",""0"",""1641""
","
","
","""event"",""trial"",""time""
""fullscreenenter"",""0"",""1641""
","
","null","run_exp/static/audio/clip_11b_similar_mop.m4a","null","","","","","","","",""
"","new_2","208","297790","0.0-208.0","""event"",""trial"",""time""
""fullscreenenter"",""0"",""1641""
","
","
","""event"",""trial"",""time""
""fullscreenenter"",""0"",""1641""
","
","null","run_exp/static/audio/clip_12_new_stoplight.m4a","null","","","","","","","",""
"","old_2","209","301296","0.0-209.0","""event"",""trial"",""time""
""fullscreenenter"",""0"",""1641""
","
","
","""event"",""trial"",""time""
""fullscreenenter"",""0"",""1641""
","
","null","run_exp/static/audio/clip_13_old_baseball.m4a","null","","","","","","","",""
"","similar_2a","210","304803","0.0-210.0","""event"",""trial"",""time""
""fullscreenenter"",""0"",""1641""
","
","
","""event"",""trial"",""time""
""fullscreenenter"",""0"",""1641""
","
","null","run_exp/static/audio/clip_14a_similar_gummies.m4a","null","","","","","","","",""
"","similar_2b","211","312309","0.0-211.0","""event"",""trial"",""time""
""fullscreenenter"",""0"",""1641""
","
","
","""event"",""trial"",""time""
""fullscreenenter"",""0"",""1641""
","
","null","run_exp/static/audio/clip_14b_similar_gummies.m4a","null","","","","","","","",""
"","practice","212","354417","0.0-212.0","""event"",""trial"",""time""
""fullscreenenter"",""0"",""1641""
","
","
","""event"",""trial"",""time""
""fullscreenenter"",""0"",""1641""
","
","null","run_exp/static/audio/clip_15_practice.m4a","null","","","","","<div class='center'><p>Lets practice a little to make sure you understand the difference between new, similar, and old. Lets say you saw these three items in the indoor/outdoor game.</p><p> Try your best to remember these images because youll soon be tested on them in a practice game. In the practice game, youll be shown images and youll have to say if they are old (one of the three images belows), similar (similar to one of the images below but not exactly the same), or new (are not one of the images below nor similar to them).</p><p>Once you press the space bar youll be shown these images again but one at time. Then youll begin the practice game.</p><p><img src='run_exp/static/images/tutorial/test/three_indoor_outdoor.png' height='300'></p></div>","","",""
"","html-keyboard-response","213","355014","0.0-213.0","""event"",""trial"",""time""
""fullscreenenter"",""0"",""1641""
","
","
","""event"",""trial"",""time""
""fullscreenenter"",""0"",""1641""
","
","596.5999999999767","<div class='center'><p>Lets practice a little to make sure you understand the difference between new, similar, and old. Lets say you saw these three items in the indoor/outdoor game.</p><p> Try your best to remember these images because youll soon be tested on them in a practice game. In the practice game, youll be shown images and youll have to say if they are old (one of the three images belows), similar (similar to one of the images below but not exactly the same), or new (are not one of the images below nor similar to them).</p><p>Once you press the space bar youll be shown these images again but one at time. Then youll begin the practice game.</p><p><img src='run_exp/static/images/tutorial/test/three_indoor_outdoor.png' height='300'></p><div><p><b>[Press the space bar to continue]</b></p></div>","32","","","","","","","",""
"","planet","214","357017","0.0-214.0","""event"",""trial"",""time""
""fullscreenenter"",""0"",""1641""
","
","
","""event"",""trial"",""time""
""fullscreenenter"",""0"",""1641""
","
","null","run_exp/static/images/tutorial/test/008a.jpg","null","","","","","","","",""
"","boot","215","359023","0.0-215.0","""event"",""trial"",""time""
""fullscreenenter"",""0"",""1641""
","
","
","""event"",""trial"",""time""
""fullscreenenter"",""0"",""1641""
","
","null","run_exp/static/images/tutorial/test/011a.jpg","null","","","","","","","",""
"","lemon","216","361029","0.0-216.0","""event"",""trial"",""time""
""fullscreenenter"",""0"",""1641""
","
","
","""event"",""trial"",""time""
""fullscreenenter"",""0"",""1641""
","
","null","run_exp/static/images/tutorial/test/018a.jpg","null","","","","","","","",""
"","practice_q1","217","365942","0.0-217.0","""event"",""trial"",""time""
""fullscreenenter"",""0"",""1641""
","
","
","""event"",""trial"",""time""
""fullscreenenter"",""0"",""1641""
","
","4912","run_exp/static/audio/clip_16_practice_question.m4a","78","","","","","","","",""
"","correct","218","367815","0.0-218.0-0.0","""event"",""trial"",""time""
""fullscreenenter"",""0"",""1641""
","
","
","""event"",""trial"",""time""
""fullscreenenter"",""0"",""1641""
","
","null","run_exp/static/audio/clip_17_correct.m4a","null","","","","","<div class='center'><p>That's correct!</p></div>","","",""
"","html-keyboard-response","219","368918","0.0-218.0-1.0","""event"",""trial"",""time""
""fullscreenenter"",""0"",""1641""
","
","
","""event"",""trial"",""time""
""fullscreenenter"",""0"",""1641""
","
","1102.2000000000116","<div class='center'><p>That's correct!</p><div><p><b>[Press the space bar to continue]</b></p></div>","32","","","","","","","",""
"","practice_q2","220","371638","0.0-218.0-2.0","""event"",""trial"",""time""
""fullscreenenter"",""0"",""1641""
","
","
","""event"",""trial"",""time""
""fullscreenenter"",""0"",""1641""
","
","2718.9000000000233","run_exp/static/audio/clip_16_practice_question.m4a","86","","","","","","","",""
"","correct","221","373504","0.0-219.0-0.0","""event"",""trial"",""time""
""fullscreenenter"",""0"",""1641""
","
","
","""event"",""trial"",""time""
""fullscreenenter"",""0"",""1641""
","
","null","run_exp/static/audio/clip_17_correct.m4a","null","","","","","<div class='center'><p>That's correct!</p></div>","","",""
"","html-keyboard-response","222","374646","0.0-219.0-1.0","""event"",""trial"",""time""
""fullscreenenter"",""0"",""1641""
","
","
","""event"",""trial"",""time""
""fullscreenenter"",""0"",""1641""
","
","1141.5999999999767","<div class='center'><p>That's correct!</p><div><p><b>[Press the space bar to continue]</b></p></div>","32","","","","","","","",""
"","practice_q3","223","377198","0.0-219.0-2.0","""event"",""trial"",""time""
""fullscreenenter"",""0"",""1641""
","
","
","""event"",""trial"",""time""
""fullscreenenter"",""0"",""1641""
","
","2551","run_exp/static/audio/clip_16_practice_question.m4a","66","","","","","","","",""
"","correct","224","379193","0.0-220.0-0.0","""event"",""trial"",""time""
""fullscreenenter"",""0"",""1641""
","
","
","""event"",""trial"",""time""
""fullscreenenter"",""0"",""1641""
","
","null","run_exp/static/audio/clip_17_correct.m4a","null","","","","","<div class='center'><p>That's correct!</p></div>","","",""
"","html-keyboard-response","225","380022","0.0-220.0-1.0","""event"",""trial"",""time""
""fullscreenenter"",""0"",""1641""
","
","
","""event"",""trial"",""time""
""fullscreenenter"",""0"",""1641""
","
","828.5999999999767","<div class='center'><p>That's correct!</p><div><p><b>[Press the space bar to continue]</b></p></div>","32","","","","","","","",""
"","begin_text","226","398488","0.0-221.0-0.0","""event"",""trial"",""time""
""fullscreenenter"",""0"",""1641""
","
","
","""event"",""trial"",""time""
""fullscreenenter"",""0"",""1641""
","
","null","run_exp/static/audio/clip_22_begin_test.m4a","null","","","","","<div class='center'><p>On to the real game where well test your memory of items from the indoor/outdoor game. For each item, you need to indicate if the item is <b>old</b> by pressing the <b>v</b> key, <b>similar</b> by pressing the <b>b</b> key, or <b>new</b> by pressing the <b>n</b> key. </p></div>","","",""
"","html-keyboard-response","227","399335","0.0-221.0-1.0","""event"",""trial"",""time""
""fullscreenenter"",""0"",""1641""
","
","
","""event"",""trial"",""time""
""fullscreenenter"",""0"",""1641""
","
","844.9000000000233","<div class='center'><p>On to the real game where well test your memory of items from the indoor/outdoor game. For each item, you need to indicate if the item is <b>old</b> by pressing the <b>v</b> key, <b>similar</b> by pressing the <b>b</b> key, or <b>new</b> by pressing the <b>n</b> key. </p><div><p><b>[Press the space bar to continue]</b></p></div>","32","","","","","","","",""
"","image","228","400774","0.0-222.0-0.0","""event"",""trial"",""time""
""fullscreenenter"",""0"",""1641""
","
","
","""event"",""trial"",""time""
""fullscreenenter"",""0"",""1641""
","
","1438.5999999999767","run_exp/static/images/Set 6_rs/187a.jpg","86","","","","","","test","TR","3"
"","show_choice","229","401279","0.0-222.0-1.0","""event"",""trial"",""time""
""fullscreenenter"",""0"",""1641""
","
","
","""event"",""trial"",""time""
""fullscreenenter"",""0"",""1641""
","
","null","run_exp/static/images/Set 6_rs/187a.jpg","null","","","","","","test","TR",""
"","html-keyboard-response","230","401780","0.0-222.0-2.0","""event"",""trial"",""time""
""fullscreenenter"",""0"",""1641""
","
","
","""event"",""trial"",""time""
""fullscreenenter"",""0"",""1641""
","
","null","<p></p>","null","","","","","","","",""
"","image","231","403262","0.0-223.0-0.0","""event"",""trial"",""time""
""fullscreenenter"",""0"",""1641""
","
","
","""event"",""trial"",""time""
""fullscreenenter"",""0"",""1641""
","
","1480.9000000000233","run_exp/static/images/Set 6_rs/108a.jpg","86","","","","","","test","TR","5"
"","show_choice","232","403767","0.0-223.0-1.0","""event"",""trial"",""time""
""fullscreenenter"",""0"",""1641""
","
","
","""event"",""trial"",""time""
""fullscreenenter"",""0"",""1641""
","
","null","run_exp/static/images/Set 6_rs/108a.jpg","null","","","","","","test","TR",""
"","html-keyboard-response","233","404273","0.0-223.0-2.0","""event"",""trial"",""time""
""fullscreenenter"",""0"",""1641""
","
","
","""event"",""trial"",""time""
""fullscreenenter"",""0"",""1641""
","
","null","<p></p>","null","","","","","","","",""
"","image","234","405838","0.0-224.0-0.0","""event"",""trial"",""time""
""fullscreenenter"",""0"",""1641""
","
","
","""event"",""trial"",""time""
""fullscreenenter"",""0"",""1641""
","
","1564.1000000000931","run_exp/static/images/Set 6_rs/028a.jpg","78","","","","","","test","TF","1"
"","show_choice","235","406343","0.0-224.0-1.0","""event"",""trial"",""time""
""fullscreenenter"",""0"",""1641""
","
","
","""event"",""trial"",""time""
""fullscreenenter"",""0"",""1641""
","
","null","run_exp/static/images/Set 6_rs/028a.jpg","null","","","","","","test","TF",""
"","html-keyboard-response","236","406845","0.0-224.0-2.0","""event"",""trial"",""time""
""fullscreenenter"",""0"",""1641""
","
","
","""event"",""trial"",""time""
""fullscreenenter"",""0"",""1641""
","
","null","<p></p>","null","","","","","","","",""
"","image","237","409494","0.0-225.0-0.0","""event"",""trial"",""time""
""fullscreenenter"",""0"",""1641""
","
","
","""event"",""trial"",""time""
""fullscreenenter"",""0"",""1641""
","
","2648.3000000000466","run_exp/static/images/Set 6_rs/086a.jpg","78","","","","","","test","TF","1"
"","show_choice","238","410000","0.0-225.0-1.0","""event"",""trial"",""time""
""fullscreenenter"",""0"",""1641""
","
","
","""event"",""trial"",""time""
""fullscreenenter"",""0"",""1641""
","
","null","run_exp/static/images/Set 6_rs/086a.jpg","null","","","","","","test","TF",""
"","html-keyboard-response","239","410501","0.0-225.0-2.0","""event"",""trial"",""time""
""fullscreenenter"",""0"",""1641""
","
","
","""event"",""trial"",""time""
""fullscreenenter"",""0"",""1641""
","
","null","<p></p>","null","","","","","","","",""
"","image","240","411910","0.0-226.0-0.0","""event"",""trial"",""time""
""fullscreenenter"",""0"",""1641""
","
","
","""event"",""trial"",""time""
""fullscreenenter"",""0"",""1641""
","
","1408","run_exp/static/images/Set 6_rs/191b.jpg","86","","","","","","test","TL","2"
"","show_choice","241","412415","0.0-226.0-1.0","""event"",""trial"",""time""
""fullscreenenter"",""0"",""1641""
","
","
","""event"",""trial"",""time""
""fullscreenenter"",""0"",""1641""
","
","null","run_exp/static/images/Set 6_rs/191b.jpg","null","","","","","","test","TL",""
"","html-keyboard-response","242","412921","0.0-226.0-2.0","""event"",""trial"",""time""
""fullscreenenter"",""0"",""1641""
","
","
","""event"",""trial"",""time""
""fullscreenenter"",""0"",""1641""
","
","null","<p></p>","null","","","","","","","",""
"","image","243","414990","0.0-227.0-0.0","""event"",""trial"",""time""
""fullscreenenter"",""0"",""1641""
","
","
","""event"",""trial"",""time""
""fullscreenenter"",""0"",""1641""
","
","2068","run_exp/static/images/Set 6_rs/100a.jpg","78","","","","","","test","TF","2"
"","show_choice","244","415495","0.0-227.0-1.0","""event"",""trial"",""time""
""fullscreenenter"",""0"",""1641""
","
","
","""event"",""trial"",""time""
""fullscreenenter"",""0"",""1641""
","
","null","run_exp/static/images/Set 6_rs/100a.jpg","null","","","","","","test","TF",""
"","html-keyboard-response","245","415997","0.0-227.0-2.0","""event"",""trial"",""time""
""fullscreenenter"",""0"",""1641""
","
","
","""event"",""trial"",""time""
""fullscreenenter"",""0"",""1641""
","
","null","<p></p>","null","","","","","","","",""
"","image","246","417094","0.0-228.0-0.0","""event"",""trial"",""time""
""fullscreenenter"",""0"",""1641""
","
","
","""event"",""trial"",""time""
""fullscreenenter"",""0"",""1641""
","
","1096.5","run_exp/static/images/Set 6_rs/012a.jpg","86","","","","","","test","TR","1"
"","show_choice","247","417597","0.0-228.0-1.0","""event"",""trial"",""time""
""fullscreenenter"",""0"",""1641""
","
","
","""event"",""trial"",""time""
""fullscreenenter"",""0"",""1641""
","
","null","run_exp/static/images/Set 6_rs/012a.jpg","null","","","","","","test","TR",""
"","html-keyboard-response","248","418098","0.0-228.0-2.0","""event"",""trial"",""time""
""fullscreenenter"",""0"",""1641""
","
","
","""event"",""trial"",""time""
""fullscreenenter"",""0"",""1641""
","
","null","<p></p>","null","","","","","","","",""
"","image","249","419118","0.0-229.0-0.0","""event"",""trial"",""time""
""fullscreenenter"",""0"",""1641""
","
","
","""event"",""trial"",""time""
""fullscreenenter"",""0"",""1641""
","
","1019.1999999999534","run_exp/static/images/Set 6_rs/170a.jpg","78","","","","","","test","TF","2"
"","show_choice","250","419619","0.0-229.0-1.0","""event"",""trial"",""time""
""fullscreenenter"",""0"",""1641""
","
","
","""event"",""trial"",""time""
""fullscreenenter"",""0"",""1641""
","
","null","run_exp/static/images/Set 6_rs/170a.jpg","null","","","","","","test","TF",""
"","html-keyboard-response","251","420121","0.0-229.0-2.0","""event"",""trial"",""time""
""fullscreenenter"",""0"",""1641""
","
","
","""event"",""trial"",""time""
""fullscreenenter"",""0"",""1641""
","
","null","<p></p>","null","","","","","","","",""
"","image","252","421894","0.0-230.0-0.0","""event"",""trial"",""time""
""fullscreenenter"",""0"",""1641""
","
","
","""event"",""trial"",""time""
""fullscreenenter"",""0"",""1641""
","
","1772.7000000000698","run_exp/static/images/Set 6_rs/150a.jpg","86","","","","","","test","TR","1"
"","show_choice","253","422396","0.0-230.0-1.0","""event"",""trial"",""time""
""fullscreenenter"",""0"",""1641""
","
","
","""event"",""trial"",""time""
""fullscreenenter"",""0"",""1641""
","
","null","run_exp/static/images/Set 6_rs/150a.jpg","null","","","","","","test","TR",""
"","html-keyboard-response","254","422898","0.0-230.0-2.0","""event"",""trial"",""time""
""fullscreenenter"",""0"",""1641""
","
","
","""event"",""trial"",""time""
""fullscreenenter"",""0"",""1641""
","
","null","<p></p>","null","","","","","","","",""
"","image","255","423774","0.0-231.0-0.0","""event"",""trial"",""time""
""fullscreenenter"",""0"",""1641""
","
","
","""event"",""trial"",""time""
""fullscreenenter"",""0"",""1641""
","
","875.1999999999534","run_exp/static/images/Set 6_rs/088a.jpg","86","","","","","","test","TR","2"
"","show_choice","256","424279","0.0-231.0-1.0","""event"",""trial"",""time""
""fullscreenenter"",""0"",""1641""
","
","
","""event"",""trial"",""time""
""fullscreenenter"",""0"",""1641""
","
","null","run_exp/static/images/Set 6_rs/088a.jpg","null","","","","","","test","TR",""
"","html-keyboard-response","257","424785","0.0-231.0-2.0","""event"",""trial"",""time""
""fullscreenenter"",""0"",""1641""
","
","
","""event"",""trial"",""time""
""fullscreenenter"",""0"",""1641""
","
","null","<p></p>","null","","","","","","","",""
"","image","258","425886","0.0-232.0-0.0","""event"",""trial"",""time""
""fullscreenenter"",""0"",""1641""
","
","
","""event"",""trial"",""time""
""fullscreenenter"",""0"",""1641""
","
","1099.7000000000698","run_exp/static/images/Set 6_rs/015a.jpg","78","","","","","","test","TF","4"
"","show_choice","259","426391","0.0-232.0-1.0","""event"",""trial"",""time""
""fullscreenenter"",""0"",""1641""
","
","
","""event"",""trial"",""time""
""fullscreenenter"",""0"",""1641""
","
","null","run_exp/static/images/Set 6_rs/015a.jpg","null","","","","","","test","TF",""
"","html-keyboard-response","260","426897","0.0-232.0-2.0","""event"",""trial"",""time""
""fullscreenenter"",""0"",""1641""
","
","
","""event"",""trial"",""time""
""fullscreenenter"",""0"",""1641""
","
","null","<p></p>","null","","","","","","","",""
"","image","261","428286","0.0-233.0-0.0","""event"",""trial"",""time""
""fullscreenenter"",""0"",""1641""
","
","
","""event"",""trial"",""time""
""fullscreenenter"",""0"",""1641""
","
","1387.7000000000698","run_exp/static/images/Set 6_rs/006b.jpg","86","","","","","","test","TL","2"
"","show_choice","262","428791","0.0-233.0-1.0","""event"",""trial"",""time""
""fullscreenenter"",""0"",""1641""
","
","
","""event"",""trial"",""time""
""fullscreenenter"",""0"",""1641""
","
","null","run_exp/static/images/Set 6_rs/006b.jpg","null","","","","","","test","TL",""
"","html-keyboard-response","263","429293","0.0-233.0-2.0","""event"",""trial"",""time""
""fullscreenenter"",""0"",""1641""
","
","
","""event"",""trial"",""time""
""fullscreenenter"",""0"",""1641""
","
","null","<p></p>","null","","","","","","","",""
"","image","264","431038","0.0-234.0-0.0","""event"",""trial"",""time""
""fullscreenenter"",""0"",""1641""
","
","
","""event"",""trial"",""time""
""fullscreenenter"",""0"",""1641""
","
","1743.9000000000233","run_exp/static/images/Set 6_rs/073b.jpg","66","","","","","","test","TL","3"
"","show_choice","265","431543","0.0-234.0-1.0","""event"",""trial"",""time""
""fullscreenenter"",""0"",""1641""
","
","
","""event"",""trial"",""time""
""fullscreenenter"",""0"",""1641""
","
","null","run_exp/static/images/Set 6_rs/073b.jpg","null","","","","","","test","TL",""
"","html-keyboard-response","266","432049","0.0-234.0-2.0","""event"",""trial"",""time""
""fullscreenenter"",""0"",""1641""
","
","
","""event"",""trial"",""time""
""fullscreenenter"",""0"",""1641""
","
","null","<p></p>","null","","","","","","","",""
"","image","267","433254","0.0-235.0-0.0","""event"",""trial"",""time""
""fullscreenenter"",""0"",""1641""
","
","
","""event"",""trial"",""time""
""fullscreenenter"",""0"",""1641""
","
","1204.1000000000931","run_exp/static/images/Set 6_rs/188a.jpg","78","","","","","","test","TF","3"
"","show_choice","268","433760","0.0-235.0-1.0","""event"",""trial"",""time""
""fullscreenenter"",""0"",""1641""
","
","
","""event"",""trial"",""time""
""fullscreenenter"",""0"",""1641""
","
","null","run_exp/static/images/Set 6_rs/188a.jpg","null","","","","","","test","TF",""
"","html-keyboard-response","269","434260","0.0-235.0-2.0","""event"",""trial"",""time""
""fullscreenenter"",""0"",""1641""
","
","
","""event"",""trial"",""time""
""fullscreenenter"",""0"",""1641""
","
","null","<p></p>","null","","","","","","","",""
"","image","270","435662","0.0-236.0-0.0","""event"",""trial"",""time""
""fullscreenenter"",""0"",""1641""
","
","
","""event"",""trial"",""time""
""fullscreenenter"",""0"",""1641""
","
","1400.6999999999534","run_exp/static/images/Set 6_rs/036b.jpg","66","","","","","","test","TL","4"
"","show_choice","271","436167","0.0-236.0-1.0","""event"",""trial"",""time""
""fullscreenenter"",""0"",""1641""
","
","
","""event"",""trial"",""time""
""fullscreenenter"",""0"",""1641""
","
","null","run_exp/static/images/Set 6_rs/036b.jpg","null","","","","","","test","TL",""
"","html-keyboard-response","272","436669","0.0-236.0-2.0","""event"",""trial"",""time""
""fullscreenenter"",""0"",""1641""
","
","
","""event"",""trial"",""time""
""fullscreenenter"",""0"",""1641""
","
","null","<p></p>","null","","","","","","","",""
"","image","273","438118","0.0-237.0-0.0","""event"",""trial"",""time""
""fullscreenenter"",""0"",""1641""
","
","
","""event"",""trial"",""time""
""fullscreenenter"",""0"",""1641""
","
","1448.5","run_exp/static/images/Set 6_rs/022a.jpg","78","","","","","","test","TF","4"
"","show_choice","274","438623","0.0-237.0-1.0","""event"",""trial"",""time""
""fullscreenenter"",""0"",""1641""
","
","
","""event"",""trial"",""time""
""fullscreenenter"",""0"",""1641""
","
","null","run_exp/static/images/Set 6_rs/022a.jpg","null","","","","","","test","TF",""
"","html-keyboard-response","275","439129","0.0-237.0-2.0","""event"",""trial"",""time""
""fullscreenenter"",""0"",""1641""
","
","
","""event"",""trial"",""time""
""fullscreenenter"",""0"",""1641""
","
","null","<p></p>","null","","","","","","","",""
"","image","276","440414","0.0-238.0-0.0","""event"",""trial"",""time""
""fullscreenenter"",""0"",""1641""
","
","
","""event"",""trial"",""time""
""fullscreenenter"",""0"",""1641""
","
","1283.8000000000466","run_exp/static/images/Set 6_rs/131a.jpg","86","","","","","","test","TR","5"
"","show_choice","277","440919","0.0-238.0-1.0","""event"",""trial"",""time""
""fullscreenenter"",""0"",""1641""
","
","
","""event"",""trial"",""time""
""fullscreenenter"",""0"",""1641""
","
","null","run_exp/static/images/Set 6_rs/131a.jpg","null","","","","","","test","TR",""
"","html-keyboard-response","278","441425","0.0-238.0-2.0","""event"",""trial"",""time""
""fullscreenenter"",""0"",""1641""
","
","
","""event"",""trial"",""time""
""fullscreenenter"",""0"",""1641""
","
","null","<p></p>","null","","","","","","","",""
"","image","279","442446","0.0-239.0-0.0","""event"",""trial"",""time""
""fullscreenenter"",""0"",""1641""
","
","
","""event"",""trial"",""time""
""fullscreenenter"",""0"",""1641""
","
","1019.9000000000233","run_exp/static/images/Set 6_rs/129b.jpg","86","","","","","","test","TL","1"
"","show_choice","280","442951","0.0-239.0-1.0","""event"",""trial"",""time""
""fullscreenenter"",""0"",""1641""
","
","
","""event"",""trial"",""time""
""fullscreenenter"",""0"",""1641""
","
","null","run_exp/static/images/Set 6_rs/129b.jpg","null","","","","","","test","TL",""
"","html-keyboard-response","281","443452","0.0-239.0-2.0","""event"",""trial"",""time""
""fullscreenenter"",""0"",""1641""
","
","
","""event"",""trial"",""time""
""fullscreenenter"",""0"",""1641""
","
","null","<p></p>","null","","","","","","","",""
"","image","282","444190","0.0-240.0-0.0","""event"",""trial"",""time""
""fullscreenenter"",""0"",""1641""
","
","
","""event"",""trial"",""time""
""fullscreenenter"",""0"",""1641""
","
","737.1999999999534","run_exp/static/images/Set 6_rs/166a.jpg","86","","","","","","test","TR","1"
"","show_choice","283","444696","0.0-240.0-1.0","""event"",""trial"",""time""
""fullscreenenter"",""0"",""1641""
","
","
","""event"",""trial"",""time""
""fullscreenenter"",""0"",""1641""
","
","null","run_exp/static/images/Set 6_rs/166a.jpg","null","","","","","","test","TR",""
"","html-keyboard-response","284","445201","0.0-240.0-2.0","""event"",""trial"",""time""
""fullscreenenter"",""0"",""1641""
","
","
","""event"",""trial"",""time""
""fullscreenenter"",""0"",""1641""
","
","null","<p></p>","null","","","","","","","",""
"","image","285","446174","0.0-241.0-0.0","""event"",""trial"",""time""
""fullscreenenter"",""0"",""1641""
","
","
","""event"",""trial"",""time""
""fullscreenenter"",""0"",""1641""
","
","971.6999999999534","run_exp/static/images/Set 6_rs/169a.jpg","86","","","","","","test","TR","4"
"","show_choice","286","446679","0.0-241.0-1.0","""event"",""trial"",""time""
""fullscreenenter"",""0"",""1641""
","
","
","""event"",""trial"",""time""
""fullscreenenter"",""0"",""1641""
","
","null","run_exp/static/images/Set 6_rs/169a.jpg","null","","","","","","test","TR",""
"","html-keyboard-response","287","447185","0.0-241.0-2.0","""event"",""trial"",""time""
""fullscreenenter"",""0"",""1641""
","
","
","""event"",""trial"",""time""
""fullscreenenter"",""0"",""1641""
","
","null","<p></p>","null","","","","","","","",""
"","image","288","448926","0.0-242.0-0.0","""event"",""trial"",""time""
""fullscreenenter"",""0"",""1641""
","
","
","""event"",""trial"",""time""
""fullscreenenter"",""0"",""1641""
","
","1739.8000000000466","run_exp/static/images/Set 6_rs/065a.jpg","66","","","","","","test","TF","3"
"","show_choice","289","449431","0.0-242.0-1.0","""event"",""trial"",""time""
""fullscreenenter"",""0"",""1641""
","
","
","""event"",""trial"",""time""
""fullscreenenter"",""0"",""1641""
","
","null","run_exp/static/images/Set 6_rs/065a.jpg","null","","","","","","test","TF",""
"","html-keyboard-response","290","449933","0.0-242.0-2.0","""event"",""trial"",""time""
""fullscreenenter"",""0"",""1641""
","
","
","""event"",""trial"",""time""
""fullscreenenter"",""0"",""1641""
","
","null","<p></p>","null","","","","","","","",""
"","image","291","451670","0.0-243.0-0.0","""event"",""trial"",""time""
""fullscreenenter"",""0"",""1641""
","
","
","""event"",""trial"",""time""
""fullscreenenter"",""0"",""1641""
","
","1736.2000000000698","run_exp/static/images/Set 6_rs/077a.jpg","78","","","","","","test","TF","3"
"","show_choice","292","452175","0.0-243.0-1.0","""event"",""trial"",""time""
""fullscreenenter"",""0"",""1641""
","
","
","""event"",""trial"",""time""
""fullscreenenter"",""0"",""1641""
","
","null","run_exp/static/images/Set 6_rs/077a.jpg","null","","","","","","test","TF",""
"","html-keyboard-response","293","452681","0.0-243.0-2.0","""event"",""trial"",""time""
""fullscreenenter"",""0"",""1641""
","
","
","""event"",""trial"",""time""
""fullscreenenter"",""0"",""1641""
","
","null","<p></p>","null","","","","","","","",""
"","image","294","454279","0.0-244.0-0.0","""event"",""trial"",""time""
""fullscreenenter"",""0"",""1641""
","
","
","""event"",""trial"",""time""
""fullscreenenter"",""0"",""1641""
","
","1596.4000000000233","run_exp/static/images/Set 6_rs/055b.jpg","78","","","","","","test","TL","4"
"","show_choice","295","454780","0.0-244.0-1.0","""event"",""trial"",""time""
""fullscreenenter"",""0"",""1641""
","
","
","""event"",""trial"",""time""
""fullscreenenter"",""0"",""1641""
","
","null","run_exp/static/images/Set 6_rs/055b.jpg","null","","","","","","test","TL",""
"","html-keyboard-response","296","455284","0.0-244.0-2.0","""event"",""trial"",""time""
""fullscreenenter"",""0"",""1641""
","
","
","""event"",""trial"",""time""
""fullscreenenter"",""0"",""1641""
","
","null","<p></p>","null","","","","","","","",""
"","image","297","456966","0.0-245.0-0.0","""event"",""trial"",""time""
""fullscreenenter"",""0"",""1641""
","
","
","""event"",""trial"",""time""
""fullscreenenter"",""0"",""1641""
","
","1680.5999999999767","run_exp/static/images/Set 6_rs/016b.jpg","66","","","","","","test","TL","1"
"","show_choice","298","457471","0.0-245.0-1.0","""event"",""trial"",""time""
""fullscreenenter"",""0"",""1641""
","
","
","""event"",""trial"",""time""
""fullscreenenter"",""0"",""1641""
","
","null","run_exp/static/images/Set 6_rs/016b.jpg","null","","","","","","test","TL",""
"","html-keyboard-response","299","457977","0.0-245.0-2.0","""event"",""trial"",""time""
""fullscreenenter"",""0"",""1641""
","
","
","""event"",""trial"",""time""
""fullscreenenter"",""0"",""1641""
","
","null","<p></p>","null","","","","","","","",""
"","image","300","459094","0.0-246.0-0.0","""event"",""trial"",""time""
""fullscreenenter"",""0"",""1641""
","
","
","""event"",""trial"",""time""
""fullscreenenter"",""0"",""1641""
","
","1115.9000000000233","run_exp/static/images/Set 6_rs/062b.jpg","86","","","","","","test","TL","1"
"","show_choice","301","459599","0.0-246.0-1.0","""event"",""trial"",""time""
""fullscreenenter"",""0"",""1641""
","
","
","""event"",""trial"",""time""
""fullscreenenter"",""0"",""1641""
","
","null","run_exp/static/images/Set 6_rs/062b.jpg","null","","","","","","test","TL",""
"","html-keyboard-response","302","460105","0.0-246.0-2.0","""event"",""trial"",""time""
""fullscreenenter"",""0"",""1641""
","
","
","""event"",""trial"",""time""
""fullscreenenter"",""0"",""1641""
","
","null","<p></p>","null","","","","","","","",""
"","image","303","461670","0.0-247.0-0.0","""event"",""trial"",""time""
""fullscreenenter"",""0"",""1641""
","
","
","""event"",""trial"",""time""
""fullscreenenter"",""0"",""1641""
","
","1563.8000000000466","run_exp/static/images/Set 6_rs/025b.jpg","66","","","","","","test","TL","5"
"","show_choice","304","462175","0.0-247.0-1.0","""event"",""trial"",""time""
""fullscreenenter"",""0"",""1641""
","
","
","""event"",""trial"",""time""
""fullscreenenter"",""0"",""1641""
","
","null","run_exp/static/images/Set 6_rs/025b.jpg","null","","","","","","test","TL",""
"","html-keyboard-response","305","462677","0.0-247.0-2.0","""event"",""trial"",""time""
""fullscreenenter"",""0"",""1641""
","
","
","""event"",""trial"",""time""
""fullscreenenter"",""0"",""1641""
","
","null","<p></p>","null","","","","","","","",""
"","image","306","463574","0.0-248.0-0.0","""event"",""trial"",""time""
""fullscreenenter"",""0"",""1641""
","
","
","""event"",""trial"",""time""
""fullscreenenter"",""0"",""1641""
","
","896.5999999999767","run_exp/static/images/Set 6_rs/014b.jpg","86","","","","","","test","TL","5"
"","show_choice","307","464079","0.0-248.0-1.0","""event"",""trial"",""time""
""fullscreenenter"",""0"",""1641""
","
","
","""event"",""trial"",""time""
""fullscreenenter"",""0"",""1641""
","
","null","run_exp/static/images/Set 6_rs/014b.jpg","null","","","","","","test","TL",""
"","html-keyboard-response","308","464585","0.0-248.0-2.0","""event"",""trial"",""time""
""fullscreenenter"",""0"",""1641""
","
","
","""event"",""trial"",""time""
""fullscreenenter"",""0"",""1641""
","
","null","<p></p>","null","","","","","","","",""
"","image","309","465374","0.0-249.0-0.0","""event"",""trial"",""time""
""fullscreenenter"",""0"",""1641""
","
","
","""event"",""trial"",""time""
""fullscreenenter"",""0"",""1641""
","
","788.0999999999767","run_exp/static/images/Set 6_rs/121a.jpg","86","","","","","","test","TR","4"
"","show_choice","310","465880","0.0-249.0-1.0","""event"",""trial"",""time""
""fullscreenenter"",""0"",""1641""
","
","
","""event"",""trial"",""time""
""fullscreenenter"",""0"",""1641""
","
","null","run_exp/static/images/Set 6_rs/121a.jpg","null","","","","","","test","TR",""
"","html-keyboard-response","311","466386","0.0-249.0-2.0","""event"",""trial"",""time""
""fullscreenenter"",""0"",""1641""
","
","
","""event"",""trial"",""time""
""fullscreenenter"",""0"",""1641""
","
","null","<p></p>","null","","","","","","","",""
"","image","312","467350","0.0-250.0-0.0","""event"",""trial"",""time""
""fullscreenenter"",""0"",""1641""
","
","
","""event"",""trial"",""time""
""fullscreenenter"",""0"",""1641""
","
","962.8000000000466","run_exp/static/images/Set 6_rs/122a.jpg","86","","","","","","test","TR","5"
"","show_choice","313","467855","0.0-250.0-1.0","""event"",""trial"",""time""
""fullscreenenter"",""0"",""1641""
","
","
","""event"",""trial"",""time""
""fullscreenenter"",""0"",""1641""
","
","null","run_exp/static/images/Set 6_rs/122a.jpg","null","","","","","","test","TR",""
"","html-keyboard-response","314","468361","0.0-250.0-2.0","""event"",""trial"",""time""
""fullscreenenter"",""0"",""1641""
","
","
","""event"",""trial"",""time""
""fullscreenenter"",""0"",""1641""
","
","null","<p></p>","null","","","","","","","",""
"","image","315","469614","0.0-251.0-0.0","""event"",""trial"",""time""
""fullscreenenter"",""0"",""1641""
","
","
","""event"",""trial"",""time""
""fullscreenenter"",""0"",""1641""
","
","1251.9000000000233","run_exp/static/images/Set 6_rs/061a.jpg","86","","","","","","test","TR","5"
"","show_choice","316","470120","0.0-251.0-1.0","""event"",""trial"",""time""
""fullscreenenter"",""0"",""1641""
","
","
","""event"",""trial"",""time""
""fullscreenenter"",""0"",""1641""
","
","null","run_exp/static/images/Set 6_rs/061a.jpg","null","","","","","","test","TR",""
"","html-keyboard-response","317","470625","0.0-251.0-2.0","""event"",""trial"",""time""
""fullscreenenter"",""0"",""1641""
","
","
","""event"",""trial"",""time""
""fullscreenenter"",""0"",""1641""
","
","null","<p></p>","null","","","","","","","",""
"","image","318","471774","0.0-252.0-0.0","""event"",""trial"",""time""
""fullscreenenter"",""0"",""1641""
","
","
","""event"",""trial"",""time""
""fullscreenenter"",""0"",""1641""
","
","1147.5999999999767","run_exp/static/images/Set 6_rs/118a.jpg","78","","","","","","test","TF","5"
"","show_choice","319","472277","0.0-252.0-1.0","""event"",""trial"",""time""
""fullscreenenter"",""0"",""1641""
","
","
","""event"",""trial"",""time""
""fullscreenenter"",""0"",""1641""
","
","null","run_exp/static/images/Set 6_rs/118a.jpg","null","","","","","","test","TF",""
"","html-keyboard-response","320","472781","0.0-252.0-2.0","""event"",""trial"",""time""
""fullscreenenter"",""0"",""1641""
","
","
","""event"",""trial"",""time""
""fullscreenenter"",""0"",""1641""
","
","null","<p></p>","null","","","","","","","",""
"","image","321","474198","0.0-253.0-0.0","""event"",""trial"",""time""
""fullscreenenter"",""0"",""1641""
","
","
","""event"",""trial"",""time""
""fullscreenenter"",""0"",""1641""
","
","1415.8000000000466","run_exp/static/images/Set 6_rs/177a.jpg","66","","","","","","test","TR","5"
"","show_choice","322","474703","0.0-253.0-1.0","""event"",""trial"",""time""
""fullscreenenter"",""0"",""1641""
","
","
","""event"",""trial"",""time""
""fullscreenenter"",""0"",""1641""
","
","null","run_exp/static/images/Set 6_rs/177a.jpg","null","","","","","","test","TR",""
"","html-keyboard-response","323","475209","0.0-253.0-2.0","""event"",""trial"",""time""
""fullscreenenter"",""0"",""1641""
","
","
","""event"",""trial"",""time""
""fullscreenenter"",""0"",""1641""
","
","null","<p></p>","null","","","","","","","",""
"","image","324","476182","0.0-254.0-0.0","""event"",""trial"",""time""
""fullscreenenter"",""0"",""1641""
","
","
","""event"",""trial"",""time""
""fullscreenenter"",""0"",""1641""
","
","972.7000000000698","run_exp/static/images/Set 6_rs/045a.jpg","86","","","","","","test","TR","2"
"","show_choice","325","476688","0.0-254.0-1.0","""event"",""trial"",""time""
""fullscreenenter"",""0"",""1641""
","
","
","""event"",""trial"",""time""
""fullscreenenter"",""0"",""1641""
","
","null","run_exp/static/images/Set 6_rs/045a.jpg","null","","","","","","test","TR",""
"","html-keyboard-response","326","477194","0.0-254.0-2.0","""event"",""trial"",""time""
""fullscreenenter"",""0"",""1641""
","
","
","""event"",""trial"",""time""
""fullscreenenter"",""0"",""1641""
","
","null","<p></p>","null","","","","","","","",""
"","image","327","478206","0.0-255.0-0.0","""event"",""trial"",""time""
""fullscreenenter"",""0"",""1641""
","
","
","""event"",""trial"",""time""
""fullscreenenter"",""0"",""1641""
","
","1011.5999999999767","run_exp/static/images/Set 6_rs/105a.jpg","78","","","","","","test","TF","5"
"","show_choice","328","478711","0.0-255.0-1.0","""event"",""trial"",""time""
""fullscreenenter"",""0"",""1641""
","
","
","""event"",""trial"",""time""
""fullscreenenter"",""0"",""1641""
","
","null","run_exp/static/images/Set 6_rs/105a.jpg","null","","","","","","test","TF",""
"","html-keyboard-response","329","479215","0.0-255.0-2.0","""event"",""trial"",""time""
""fullscreenenter"",""0"",""1641""
","
","
","""event"",""trial"",""time""
""fullscreenenter"",""0"",""1641""
","
","null","<p></p>","null","","","","","","","",""
"","image","330","480518","0.0-256.0-0.0","""event"",""trial"",""time""
""fullscreenenter"",""0"",""1641""
","
","
","""event"",""trial"",""time""
""fullscreenenter"",""0"",""1641""
","
","1302.0999999999767","run_exp/static/images/Set 6_rs/134a.jpg","86","","","","","","test","TR","3"
"","show_choice","331","481023","0.0-256.0-1.0","""event"",""trial"",""time""
""fullscreenenter"",""0"",""1641""
","
","
","""event"",""trial"",""time""
""fullscreenenter"",""0"",""1641""
","
","null","run_exp/static/images/Set 6_rs/134a.jpg","null","","","","","","test","TR",""
"","html-keyboard-response","332","481529","0.0-256.0-2.0","""event"",""trial"",""time""
""fullscreenenter"",""0"",""1641""
","
","
","""event"",""trial"",""time""
""fullscreenenter"",""0"",""1641""
","
","null","<p></p>","null","","","","","","","",""
"","image","333","482694","0.0-257.0-0.0","""event"",""trial"",""time""
""fullscreenenter"",""0"",""1641""
","
","
","""event"",""trial"",""time""
""fullscreenenter"",""0"",""1641""
","
","1163.8000000000466","run_exp/static/images/Set 6_rs/140a.jpg","78","","","","","","test","TF","1"
"","show_choice","334","483199","0.0-257.0-1.0","""event"",""trial"",""time""
""fullscreenenter"",""0"",""1641""
","
","
","""event"",""trial"",""time""
""fullscreenenter"",""0"",""1641""
","
","null","run_exp/static/images/Set 6_rs/140a.jpg","null","","","","","","test","TF",""
"","html-keyboard-response","335","483705","0.0-257.0-2.0","""event"",""trial"",""time""
""fullscreenenter"",""0"",""1641""
","
","
","""event"",""trial"",""time""
""fullscreenenter"",""0"",""1641""
","
","null","<p></p>","null","","","","","","","",""
"","image","336","484694","0.0-258.0-0.0","""event"",""trial"",""time""
""fullscreenenter"",""0"",""1641""
","
","
","""event"",""trial"",""time""
""fullscreenenter"",""0"",""1641""
","
","987.5999999999767","run_exp/static/images/Set 6_rs/154a.jpg","86","","","","","","test","TR","3"
"","show_choice","337","485199","0.0-258.0-1.0","""event"",""trial"",""time""
""fullscreenenter"",""0"",""1641""
","
","
","""event"",""trial"",""time""
""fullscreenenter"",""0"",""1641""
","
","null","run_exp/static/images/Set 6_rs/154a.jpg","null","","","","","","test","TR",""
"","html-keyboard-response","338","485701","0.0-258.0-2.0","""event"",""trial"",""time""
""fullscreenenter"",""0"",""1641""
","
","
","""event"",""trial"",""time""
""fullscreenenter"",""0"",""1641""
","
","null","<p></p>","null","","","","","","","",""
"","image","339","486462","0.0-259.0-0.0","""event"",""trial"",""time""
""fullscreenenter"",""0"",""1641""
","
","
","""event"",""trial"",""time""
""fullscreenenter"",""0"",""1641""
","
","760.5","run_exp/static/images/Set 6_rs/057b.jpg","86","","","","","","test","TL","1"
"","show_choice","340","486967","0.0-259.0-1.0","""event"",""trial"",""time""
""fullscreenenter"",""0"",""1641""
","
","
","""event"",""trial"",""time""
""fullscreenenter"",""0"",""1641""
","
","null","run_exp/static/images/Set 6_rs/057b.jpg","null","","","","","","test","TL",""
