"success","trial_type","trial_index","time_elapsed","internal_node_id","interactions","blur_events","focus_events","fullscreenenter_events","fullscreenexit_events","rt","stimulus","key_press","subject_id","participant_id","age","gender","prompt","phase","condition","lure_bin"
"true","fullscreen","0","6887","0.0-0.0","""event"",""trial"",""time""
""fullscreenenter"",""0"",""5920""
","
","
","""event"",""trial"",""time""
""fullscreenenter"",""0"",""5920""
","
","","","","","","","","","","",""
"","pavlovia","1","6891","0.0-1.0","""event"",""trial"",""time""
""fullscreenenter"",""0"",""5920""
","
","
","""event"",""trial"",""time""
""fullscreenenter"",""0"",""5920""
","
","","","","","","","","","","",""
"","welcome","2","41813","0.0-2.0","""event"",""trial"",""time""
""fullscreenenter"",""0"",""5920""
","
","
","""event"",""trial"",""time""
""fullscreenenter"",""0"",""5920""
","
","null","run_exp/static/audio/clip_1_welcome.m4a","null","1102","1245","25","Male","<div class='center'><p>Welcome to the third part of the study! First, you'll be shown pictures of items one at a time. For each picture, you have to decide if the item is typically found indoors or outdoors.</p><p>If you think it's usually found indoors, then press <b>v</b> key on your keyboard. If you think it's usually found outdoors, then press the <b>n</b> key.There will be reminders on the screen to help you remember which keys to press. </p><p>If you're not sure whether the item is an indoor item or an outdoor item, go ahead and take a guess but try your best not to skip that choice. </p></div>","","",""
"","html-keyboard-response","3","44887","0.0-3.0","""event"",""trial"",""time""
""fullscreenenter"",""0"",""5920""
","
","
","""event"",""trial"",""time""
""fullscreenenter"",""0"",""5920""
","
","3073.1999999999825","<div class='center'><p>Welcome to the third part of the study! First, you'll be shown pictures of items one at a time. For each picture, you have to decide if the item is typically found indoors or outdoors.</p><p>If you think it's usually found indoors, then press <b>v</b> key on your keyboard. If you think it's usually found outdoors, then press the <b>n</b> key.There will be reminders on the screen to help you remember which keys to press. </p><p>If you're not sure whether the item is an indoor item or an outdoor item, go ahead and take a guess but try your best not to skip that choice. </p><div><p><b>[Press the space bar to continue]</b></p></div>","32","","","","","","","",""
"","image","4","46891","0.0-4.0","""event"",""trial"",""time""
""fullscreenenter"",""0"",""5920""
","
","
","""event"",""trial"",""time""
""fullscreenenter"",""0"",""5920""
","
","null","run_exp/static/images/Set 6_rs/057a.jpg","null","","","","","","learn","SL",""
"","show_choice","5","48893","0.0-5.0","""event"",""trial"",""time""
""fullscreenenter"",""0"",""5920""
","
","
","""event"",""trial"",""time""
""fullscreenenter"",""0"",""5920""
","
","null","run_exp/static/images/blank.png","null","","","","","","learn","SL",""
"","html-keyboard-response","6","49394","0.0-6.0","""event"",""trial"",""time""
""fullscreenenter"",""0"",""5920""
","
","
","""event"",""trial"",""time""
""fullscreenenter"",""0"",""5920""
","
","null","<p></p>","null","","","","","","","",""
"","image","7","50523","0.0-7.0","""event"",""trial"",""time""
""fullscreenenter"",""0"",""5920""
","
","
","""event"",""trial"",""time""
""fullscreenenter"",""0"",""5920""
","
","1127.1000000000058","run_exp/static/images/Set 6_rs/121a.jpg","78","","","","","","learn","SR",""
"","show_choice","8","51396","0.0-8.0","""event"",""trial"",""time""
""fullscreenenter"",""0"",""5920""
","
","
","""event"",""trial"",""time""
""fullscreenenter"",""0"",""5920""
","
","null","run_exp/static/images/Set 6_rs/121a.jpg","null","","","","","","learn","SR",""
"","html-keyboard-response","9","51899","0.0-9.0","""event"",""trial"",""time""
""fullscreenenter"",""0"",""5920""
","
","
","""event"",""trial"",""time""
""fullscreenenter"",""0"",""5920""
","
","null","<p></p>","null","","","","","","","",""
"","image","10","52819","0.0-10.0","""event"",""trial"",""time""
""fullscreenenter"",""0"",""5920""
","
","
","""event"",""trial"",""time""
""fullscreenenter"",""0"",""5920""
","
","919","run_exp/static/images/Set 6_rs/014a.jpg","86","","","","","","learn","SL",""
"","show_choice","11","53902","0.0-11.0","""event"",""trial"",""time""
""fullscreenenter"",""0"",""5920""
","
","
","""event"",""trial"",""time""
""fullscreenenter"",""0"",""5920""
","
","null","run_exp/static/images/Set 6_rs/014a.jpg","null","","","","","","learn","SL",""
"","html-keyboard-response","12","54408","0.0-12.0","""event"",""trial"",""time""
""fullscreenenter"",""0"",""5920""
","
","
","""event"",""trial"",""time""
""fullscreenenter"",""0"",""5920""
","
","null","<p></p>","null","","","","","","","",""
"","image","13","55100","0.0-13.0","""event"",""trial"",""time""
""fullscreenenter"",""0"",""5920""
","
","
","""event"",""trial"",""time""
""fullscreenenter"",""0"",""5920""
","
","690.1999999999825","run_exp/static/images/Set 6_rs/134a.jpg","78","","","","","","learn","SR",""
"","show_choice","14","56415","0.0-14.0","""event"",""trial"",""time""
""fullscreenenter"",""0"",""5920""
","
","
","""event"",""trial"",""time""
""fullscreenenter"",""0"",""5920""
","
","null","run_exp/static/images/Set 6_rs/134a.jpg","null","","","","","","learn","SR",""
"","html-keyboard-response","15","56921","0.0-15.0","""event"",""trial"",""time""
""fullscreenenter"",""0"",""5920""
","
","
","""event"",""trial"",""time""
""fullscreenenter"",""0"",""5920""
","
","null","<p></p>","null","","","","","","","",""
"","image","16","58115","0.0-16.0","""event"",""trial"",""time""
""fullscreenenter"",""0"",""5920""
","
","
","""event"",""trial"",""time""
""fullscreenenter"",""0"",""5920""
","
","1193.3999999999942","run_exp/static/images/Set 6_rs/008a.jpg","86","","","","","","learn","SL",""
"","show_choice","17","58923","0.0-17.0","""event"",""trial"",""time""
""fullscreenenter"",""0"",""5920""
","
","
","""event"",""trial"",""time""
""fullscreenenter"",""0"",""5920""
","
","null","run_exp/static/images/Set 6_rs/008a.jpg","null","","","","","","learn","SL",""
"","html-keyboard-response","18","59426","0.0-18.0","""event"",""trial"",""time""
""fullscreenenter"",""0"",""5920""
","
","
","""event"",""trial"",""time""
""fullscreenenter"",""0"",""5920""
","
","null","<p></p>","null","","","","","","","",""
"","image","19","60355","0.0-19.0","""event"",""trial"",""time""
""fullscreenenter"",""0"",""5920""
","
","
","""event"",""trial"",""time""
""fullscreenenter"",""0"",""5920""
","
","928.2999999999884","run_exp/static/images/Set 6_rs/045a.jpg","86","","","","","","learn","SR",""
"","show_choice","20","61432","0.0-20.0","""event"",""trial"",""time""
""fullscreenenter"",""0"",""5920""
","
","
","""event"",""trial"",""time""
""fullscreenenter"",""0"",""5920""
","
","null","run_exp/static/images/Set 6_rs/045a.jpg","null","","","","","","learn","SR",""
"","html-keyboard-response","21","61933","0.0-21.0","""event"",""trial"",""time""
""fullscreenenter"",""0"",""5920""
","
","
","""event"",""trial"",""time""
""fullscreenenter"",""0"",""5920""
","
","null","<p></p>","null","","","","","","","",""
"","image","22","62515","0.0-22.0","""event"",""trial"",""time""
""fullscreenenter"",""0"",""5920""
","
","
","""event"",""trial"",""time""
""fullscreenenter"",""0"",""5920""
","
","581.3000000000175","run_exp/static/images/Set 6_rs/007a.jpg","86","","","","","","learn","SR",""
"","show_choice","23","63939","0.0-23.0","""event"",""trial"",""time""
""fullscreenenter"",""0"",""5920""
","
","
","""event"",""trial"",""time""
""fullscreenenter"",""0"",""5920""
","
","null","run_exp/static/images/Set 6_rs/007a.jpg","null","","","","","","learn","SR",""
"","html-keyboard-response","24","64444","0.0-24.0","""event"",""trial"",""time""
""fullscreenenter"",""0"",""5920""
","
","
","""event"",""trial"",""time""
""fullscreenenter"",""0"",""5920""
","
","null","<p></p>","null","","","","","","","",""
"","image","25","65395","0.0-25.0","""event"",""trial"",""time""
""fullscreenenter"",""0"",""5920""
","
","
","""event"",""trial"",""time""
""fullscreenenter"",""0"",""5920""
","
","949.8000000000175","run_exp/static/images/Set 6_rs/178a.jpg","86","","","","","","learn","SR",""
"","show_choice","26","66451","0.0-26.0","""event"",""trial"",""time""
""fullscreenenter"",""0"",""5920""
","
","
","""event"",""trial"",""time""
""fullscreenenter"",""0"",""5920""
","
","null","run_exp/static/images/Set 6_rs/178a.jpg","null","","","","","","learn","SR",""
"","html-keyboard-response","27","66956","0.0-27.0","""event"",""trial"",""time""
""fullscreenenter"",""0"",""5920""
","
","
","""event"",""trial"",""time""
""fullscreenenter"",""0"",""5920""
","
","null","<p></p>","null","","","","","","","",""
"","image","28","68211","0.0-28.0","""event"",""trial"",""time""
""fullscreenenter"",""0"",""5920""
","
","
","""event"",""trial"",""time""
""fullscreenenter"",""0"",""5920""
","
","1253.5","run_exp/static/images/Set 6_rs/112a.jpg","86","","","","","","learn","SR",""
"","show_choice","29","68963","0.0-29.0","""event"",""trial"",""time""
""fullscreenenter"",""0"",""5920""
","
","
","""event"",""trial"",""time""
""fullscreenenter"",""0"",""5920""
","
","null","run_exp/static/images/Set 6_rs/112a.jpg","null","","","","","","learn","SR",""
"","html-keyboard-response","30","69467","0.0-30.0","""event"",""trial"",""time""
""fullscreenenter"",""0"",""5920""
","
","
","""event"",""trial"",""time""
""fullscreenenter"",""0"",""5920""
","
","null","<p></p>","null","","","","","","","",""
"","image","31","70667","0.0-31.0","""event"",""trial"",""time""
""fullscreenenter"",""0"",""5920""
","
","
","""event"",""trial"",""time""
""fullscreenenter"",""0"",""5920""
","
","1198.6999999999825","run_exp/static/images/Set 6_rs/061a.jpg","78","","","","","","learn","SR",""
"","show_choice","32","71471","0.0-32.0","""event"",""trial"",""time""
""fullscreenenter"",""0"",""5920""
","
","
","""event"",""trial"",""time""
""fullscreenenter"",""0"",""5920""
","
","null","run_exp/static/images/Set 6_rs/061a.jpg","null","","","","","","learn","SR",""
"","html-keyboard-response","33","71973","0.0-33.0","""event"",""trial"",""time""
""fullscreenenter"",""0"",""5920""
","
","
","""event"",""trial"",""time""
""fullscreenenter"",""0"",""5920""
","
","null","<p></p>","null","","","","","","","",""
"","image","34","72739","0.0-34.0","""event"",""trial"",""time""
""fullscreenenter"",""0"",""5920""
","
","
","""event"",""trial"",""time""
""fullscreenenter"",""0"",""5920""
","
","765.2999999999884","run_exp/static/images/Set 6_rs/023a.jpg","86","","","","","","learn","SR",""
"","show_choice","35","73979","0.0-35.0","""event"",""trial"",""time""
""fullscreenenter"",""0"",""5920""
","
","
","""event"",""trial"",""time""
""fullscreenenter"",""0"",""5920""
","
","null","run_exp/static/images/Set 6_rs/023a.jpg","null","","","","","","learn","SR",""
"","html-keyboard-response","36","74485","0.0-36.0","""event"",""trial"",""time""
""fullscreenenter"",""0"",""5920""
","
","
","""event"",""trial"",""time""
""fullscreenenter"",""0"",""5920""
","
","null","<p></p>","null","","","","","","","",""
"","image","37","75211","0.0-37.0","""event"",""trial"",""time""
""fullscreenenter"",""0"",""5920""
","
","
","""event"",""trial"",""time""
""fullscreenenter"",""0"",""5920""
","
","725","run_exp/static/images/Set 6_rs/168a.jpg","86","","","","","","learn","SL",""
"","show_choice","38","76492","0.0-38.0","""event"",""trial"",""time""
""fullscreenenter"",""0"",""5920""
","
","
","""event"",""trial"",""time""
""fullscreenenter"",""0"",""5920""
","
","null","run_exp/static/images/Set 6_rs/168a.jpg","null","","","","","","learn","SL",""
"","html-keyboard-response","39","76995","0.0-39.0","""event"",""trial"",""time""
""fullscreenenter"",""0"",""5920""
","
","
","""event"",""trial"",""time""
""fullscreenenter"",""0"",""5920""
","
","null","<p></p>","null","","","","","","","",""
"","image","40","78011","0.0-40.0","""event"",""trial"",""time""
""fullscreenenter"",""0"",""5920""
","
","
","""event"",""trial"",""time""
""fullscreenenter"",""0"",""5920""
","
","1015.5","run_exp/static/images/Set 6_rs/191a.jpg","78","","","","","","learn","SL",""
"","show_choice","41","79001","0.0-41.0","""event"",""trial"",""time""
""fullscreenenter"",""0"",""5920""
","
","
","""event"",""trial"",""time""
""fullscreenenter"",""0"",""5920""
","
","null","run_exp/static/images/Set 6_rs/191a.jpg","null","","","","","","learn","SL",""
"","html-keyboard-response","42","79507","0.0-42.0","""event"",""trial"",""time""
""fullscreenenter"",""0"",""5920""
","
","
","""event"",""trial"",""time""
""fullscreenenter"",""0"",""5920""
","
","null","<p></p>","null","","","","","","","",""
"","image","43","80147","0.0-43.0","""event"",""trial"",""time""
""fullscreenenter"",""0"",""5920""
","
","
","""event"",""trial"",""time""
""fullscreenenter"",""0"",""5920""
","
","638.5999999999767","run_exp/static/images/Set 6_rs/085a.jpg","78","","","","","","learn","SL",""
"","show_choice","44","81514","0.0-44.0","""event"",""trial"",""time""
""fullscreenenter"",""0"",""5920""
","
","
","""event"",""trial"",""time""
""fullscreenenter"",""0"",""5920""
","
","null","run_exp/static/images/Set 6_rs/085a.jpg","null","","","","","","learn","SL",""
"","html-keyboard-response","45","82019","0.0-45.0","""event"",""trial"",""time""
""fullscreenenter"",""0"",""5920""
","
","
","""event"",""trial"",""time""
""fullscreenenter"",""0"",""5920""
","
","null","<p></p>","null","","","","","","","",""
"","image","46","82963","0.0-46.0","""event"",""trial"",""time""
""fullscreenenter"",""0"",""5920""
","
","
","""event"",""trial"",""time""
""fullscreenenter"",""0"",""5920""
","
","943.2999999999884","run_exp/static/images/Set 6_rs/089a.jpg","86","","","","","","learn","SL",""
"","show_choice","47","84024","0.0-47.0","""event"",""trial"",""time""
""fullscreenenter"",""0"",""5920""
","
","
","""event"",""trial"",""time""
""fullscreenenter"",""0"",""5920""
","
","null","run_exp/static/images/Set 6_rs/089a.jpg","null","","","","","","learn","SL",""
"","html-keyboard-response","48","84528","0.0-48.0","""event"",""trial"",""time""
""fullscreenenter"",""0"",""5920""
","
","
","""event"",""trial"",""time""
""fullscreenenter"",""0"",""5920""
","
","null","<p></p>","null","","","","","","","",""
"","image","49","85739","0.0-49.0","""event"",""trial"",""time""
""fullscreenenter"",""0"",""5920""
","
","
","""event"",""trial"",""time""
""fullscreenenter"",""0"",""5920""
","
","1209.600000000035","run_exp/static/images/Set 6_rs/070a.jpg","78","","","","","","learn","SR",""
"","show_choice","50","86532","0.0-50.0","""event"",""trial"",""time""
""fullscreenenter"",""0"",""5920""
","
","
","""event"",""trial"",""time""
""fullscreenenter"",""0"",""5920""
","
","null","run_exp/static/images/Set 6_rs/070a.jpg","null","","","","","","learn","SR",""
"","html-keyboard-response","51","87037","0.0-51.0","""event"",""trial"",""time""
""fullscreenenter"",""0"",""5920""
","
","
","""event"",""trial"",""time""
""fullscreenenter"",""0"",""5920""
","
","null","<p></p>","null","","","","","","","",""
"","image","52","87819","0.0-52.0","""event"",""trial"",""time""
""fullscreenenter"",""0"",""5920""
","
","
","""event"",""trial"",""time""
""fullscreenenter"",""0"",""5920""
","
","781","run_exp/static/images/Set 6_rs/024a.jpg","86","","","","","","learn","SR",""
"","show_choice","53","89039","0.0-53.0","""event"",""trial"",""time""
""fullscreenenter"",""0"",""5920""
","
","
","""event"",""trial"",""time""
""fullscreenenter"",""0"",""5920""
","
","null","run_exp/static/images/Set 6_rs/024a.jpg","null","","","","","","learn","SR",""
"","html-keyboard-response","54","89545","0.0-54.0","""event"",""trial"",""time""
""fullscreenenter"",""0"",""5920""
","
","
","""event"",""trial"",""time""
""fullscreenenter"",""0"",""5920""
","
","null","<p></p>","null","","","","","","","",""
"","image","55","90331","0.0-55.0","""event"",""trial"",""time""
""fullscreenenter"",""0"",""5920""
","
","
","""event"",""trial"",""time""
""fullscreenenter"",""0"",""5920""
","
","785.5","run_exp/static/images/Set 6_rs/186a.jpg","86","","","","","","learn","SR",""
"","show_choice","56","91551","0.0-56.0","""event"",""trial"",""time""
""fullscreenenter"",""0"",""5920""
","
","
","""event"",""trial"",""time""
""fullscreenenter"",""0"",""5920""
","
","null","run_exp/static/images/Set 6_rs/186a.jpg","null","","","","","","learn","SR",""
"","html-keyboard-response","57","92057","0.0-57.0","""event"",""trial"",""time""
""fullscreenenter"",""0"",""5920""
","
","
","""event"",""trial"",""time""
""fullscreenenter"",""0"",""5920""
","
","null","<p></p>","null","","","","","","","",""
"","image","58","92883","0.0-58.0","""event"",""trial"",""time""
""fullscreenenter"",""0"",""5920""
","
","
","""event"",""trial"",""time""
""fullscreenenter"",""0"",""5920""
","
","824.7999999999884","run_exp/static/images/Set 6_rs/108a.jpg","78","","","","","","learn","SR",""
"","show_choice","59","94064","0.0-59.0","""event"",""trial"",""time""
""fullscreenenter"",""0"",""5920""
","
","
","""event"",""trial"",""time""
""fullscreenenter"",""0"",""5920""
","
","null","run_exp/static/images/Set 6_rs/108a.jpg","null","","","","","","learn","SR",""
"","html-keyboard-response","60","94568","0.0-60.0","""event"",""trial"",""time""
""fullscreenenter"",""0"",""5920""
","
","
","""event"",""trial"",""time""
""fullscreenenter"",""0"",""5920""
","
","null","<p></p>","null","","","","","","","",""
"","image","61","95515","0.0-61.0","""event"",""trial"",""time""
""fullscreenenter"",""0"",""5920""
","
","
","""event"",""trial"",""time""
""fullscreenenter"",""0"",""5920""
","
","946.2999999999884","run_exp/static/images/Set 6_rs/071a.jpg","78","","","","","","learn","SL",""
"","show_choice","62","96572","0.0-62.0","""event"",""trial"",""time""
""fullscreenenter"",""0"",""5920""
","
","
","""event"",""trial"",""time""
""fullscreenenter"",""0"",""5920""
","
","null","run_exp/static/images/Set 6_rs/071a.jpg","null","","","","","","learn","SL",""
"","html-keyboard-response","63","97075","0.0-63.0","""event"",""trial"",""time""
""fullscreenenter"",""0"",""5920""
","
","
","""event"",""trial"",""time""
""fullscreenenter"",""0"",""5920""
","
","null","<p></p>","null","","","","","","","",""
"","image","64","97835","0.0-64.0","""event"",""trial"",""time""
""fullscreenenter"",""0"",""5920""
","
","
","""event"",""trial"",""time""
""fullscreenenter"",""0"",""5920""
","
","759.2000000000116","run_exp/static/images/Set 6_rs/111a.jpg","86","","","","","","learn","SL",""
"","show_choice","65","99076","0.0-65.0","""event"",""trial"",""time""
""fullscreenenter"",""0"",""5920""
","
","
","""event"",""trial"",""time""
""fullscreenenter"",""0"",""5920""
","
","null","run_exp/static/images/Set 6_rs/111a.jpg","null","","","","","","learn","SL",""
"","html-keyboard-response","66","99578","0.0-66.0","""event"",""trial"",""time""
""fullscreenenter"",""0"",""5920""
","
","
","""event"",""trial"",""time""
""fullscreenenter"",""0"",""5920""
","
","null","<p></p>","null","","","","","","","",""
"","image","67","100259","0.0-67.0","""event"",""trial"",""time""
""fullscreenenter"",""0"",""5920""
","
","
","""event"",""trial"",""time""
""fullscreenenter"",""0"",""5920""
","
","680","run_exp/static/images/Set 6_rs/138a.jpg","78","","","","","","learn","SL",""
"","show_choice","68","101585","0.0-68.0","""event"",""trial"",""time""
""fullscreenenter"",""0"",""5920""
","
","
","""event"",""trial"",""time""
""fullscreenenter"",""0"",""5920""
","
","null","run_exp/static/images/Set 6_rs/138a.jpg","null","","","","","","learn","SL",""
"","html-keyboard-response","69","102091","0.0-69.0","""event"",""trial"",""time""
""fullscreenenter"",""0"",""5920""
","
","
","""event"",""trial"",""time""
""fullscreenenter"",""0"",""5920""
","
","null","<p></p>","null","","","","","","","",""
"","image","70","102915","0.0-70.0","""event"",""trial"",""time""
""fullscreenenter"",""0"",""5920""
","
","
","""event"",""trial"",""time""
""fullscreenenter"",""0"",""5920""
","
","823.5","run_exp/static/images/Set 6_rs/123a.jpg","86","","","","","","learn","SL",""
"","show_choice","71","104094","0.0-71.0","""event"",""trial"",""time""
""fullscreenenter"",""0"",""5920""
","
","
","""event"",""trial"",""time""
""fullscreenenter"",""0"",""5920""
","
","null","run_exp/static/images/Set 6_rs/123a.jpg","null","","","","","","learn","SL",""
"","html-keyboard-response","72","104599","0.0-72.0","""event"",""trial"",""time""
""fullscreenenter"",""0"",""5920""
","
","
","""event"",""trial"",""time""
""fullscreenenter"",""0"",""5920""
","
","null","<p></p>","null","","","","","","","",""
"","image","73","105707","0.0-73.0","""event"",""trial"",""time""
""fullscreenenter"",""0"",""5920""
","
","
","""event"",""trial"",""time""
""fullscreenenter"",""0"",""5920""
","
","1106.7999999999884","run_exp/static/images/Set 6_rs/076a.jpg","78","","","","","","learn","SR",""
"","show_choice","74","106601","0.0-74.0","""event"",""trial"",""time""
""fullscreenenter"",""0"",""5920""
","
","
","""event"",""trial"",""time""
""fullscreenenter"",""0"",""5920""
","
","null","run_exp/static/images/Set 6_rs/076a.jpg","null","","","","","","learn","SR",""
"","html-keyboard-response","75","107107","0.0-75.0","""event"",""trial"",""time""
""fullscreenenter"",""0"",""5920""
","
","
","""event"",""trial"",""time""
""fullscreenenter"",""0"",""5920""
","
","null","<p></p>","null","","","","","","","",""
"","image","76","108515","0.0-76.0","""event"",""trial"",""time""
""fullscreenenter"",""0"",""5920""
","
","
","""event"",""trial"",""time""
""fullscreenenter"",""0"",""5920""
","
","1407","run_exp/static/images/Set 6_rs/075a.jpg","86","","","","","","learn","SR",""
"","show_choice","77","109111","0.0-77.0","""event"",""trial"",""time""
""fullscreenenter"",""0"",""5920""
","
","
","""event"",""trial"",""time""
""fullscreenenter"",""0"",""5920""
","
","null","run_exp/static/images/Set 6_rs/075a.jpg","null","","","","","","learn","SR",""
"","html-keyboard-response","78","109612","0.0-78.0","""event"",""trial"",""time""
""fullscreenenter"",""0"",""5920""
","
","
","""event"",""trial"",""time""
""fullscreenenter"",""0"",""5920""
","
","null","<p></p>","null","","","","","","","",""
"","image","79","110291","0.0-79.0","""event"",""trial"",""time""
""fullscreenenter"",""0"",""5920""
","
","
","""event"",""trial"",""time""
""fullscreenenter"",""0"",""5920""
","
","678.2999999999884","run_exp/static/images/Set 6_rs/019a.jpg","86","","","","","","learn","SL",""
"","show_choice","80","111615","0.0-80.0","""event"",""trial"",""time""
""fullscreenenter"",""0"",""5920""
","
","
","""event"",""trial"",""time""
""fullscreenenter"",""0"",""5920""
","
","null","run_exp/static/images/Set 6_rs/019a.jpg","null","","","","","","learn","SL",""
"","html-keyboard-response","81","112121","0.0-81.0","""event"",""trial"",""time""
""fullscreenenter"",""0"",""5920""
","
","
","""event"",""trial"",""time""
""fullscreenenter"",""0"",""5920""
","
","null","<p></p>","null","","","","","","","",""
"","image","82","112699","0.0-82.0","""event"",""trial"",""time""
""fullscreenenter"",""0"",""5920""
","
","
","""event"",""trial"",""time""
""fullscreenenter"",""0"",""5920""
","
","577.3000000000466","run_exp/static/images/Set 6_rs/172a.jpg","78","","","","","","learn","SR",""
"","show_choice","83","114124","0.0-83.0","""event"",""trial"",""time""
""fullscreenenter"",""0"",""5920""
","
","
","""event"",""trial"",""time""
""fullscreenenter"",""0"",""5920""
","
","null","run_exp/static/images/Set 6_rs/172a.jpg","null","","","","","","learn","SR",""
"","html-keyboard-response","84","114630","0.0-84.0","""event"",""trial"",""time""
""fullscreenenter"",""0"",""5920""
","
","
","""event"",""trial"",""time""
""fullscreenenter"",""0"",""5920""
","
","null","<p></p>","null","","","","","","","",""
"","image","85","115275","0.0-85.0","""event"",""trial"",""time""
""fullscreenenter"",""0"",""5920""
","
","
","""event"",""trial"",""time""
""fullscreenenter"",""0"",""5920""
","
","644.1000000000349","run_exp/static/images/Set 6_rs/126a.jpg","78","","","","","","learn","SR",""
"","show_choice","86","116636","0.0-86.0","""event"",""trial"",""time""
""fullscreenenter"",""0"",""5920""
","
","
","""event"",""trial"",""time""
""fullscreenenter"",""0"",""5920""
","
","null","run_exp/static/images/Set 6_rs/126a.jpg","null","","","","","","learn","SR",""
"","html-keyboard-response","87","117142","0.0-87.0","""event"",""trial"",""time""
""fullscreenenter"",""0"",""5920""
","
","
","""event"",""trial"",""time""
""fullscreenenter"",""0"",""5920""
","
","null","<p></p>","null","","","","","","","",""
"","image","88","118083","0.0-88.0","""event"",""trial"",""time""
""fullscreenenter"",""0"",""5920""
","
","
","""event"",""trial"",""time""
""fullscreenenter"",""0"",""5920""
","
","940.5999999999767","run_exp/static/images/Set 6_rs/017a.jpg","78","","","","","","learn","SL",""
"","show_choice","89","119146","0.0-89.0","""event"",""trial"",""time""
""fullscreenenter"",""0"",""5920""
","
","
","""event"",""trial"",""time""
""fullscreenenter"",""0"",""5920""
","
","null","run_exp/static/images/Set 6_rs/017a.jpg","null","","","","","","learn","SL",""
"","html-keyboard-response","90","119652","0.0-90.0","""event"",""trial"",""time""
""fullscreenenter"",""0"",""5920""
","
","
","""event"",""trial"",""time""
""fullscreenenter"",""0"",""5920""
","
","null","<p></p>","null","","","","","","","",""
"","image","91","121299","0.0-91.0","""event"",""trial"",""time""
""fullscreenenter"",""0"",""5920""
","
","
","""event"",""trial"",""time""
""fullscreenenter"",""0"",""5920""
","
","1646.2999999999884","run_exp/static/images/Set 6_rs/177a.jpg","78","","","","","","learn","SR",""
"","show_choice","92","121653","0.0-92.0","""event"",""trial"",""time""
""fullscreenenter"",""0"",""5920""
","
","
","""event"",""trial"",""time""
""fullscreenenter"",""0"",""5920""
","
","null","run_exp/static/images/Set 6_rs/177a.jpg","null","","","","","","learn","SR",""
"","html-keyboard-response","93","122155","0.0-93.0","""event"",""trial"",""time""
""fullscreenenter"",""0"",""5920""
","
","
","""event"",""trial"",""time""
""fullscreenenter"",""0"",""5920""
","
","null","<p></p>","null","","","","","","","",""
"","image","94","123467","0.0-94.0","""event"",""trial"",""time""
""fullscreenenter"",""0"",""5920""
","
","
","""event"",""trial"",""time""
""fullscreenenter"",""0"",""5920""
","
","1311.2000000000116","run_exp/static/images/Set 6_rs/064a.jpg","78","","","","","","learn","SR",""
"","show_choice","95","124157","0.0-95.0","""event"",""trial"",""time""
""fullscreenenter"",""0"",""5920""
","
","
","""event"",""trial"",""time""
""fullscreenenter"",""0"",""5920""
","
","null","run_exp/static/images/Set 6_rs/064a.jpg","null","","","","","","learn","SR",""
"","html-keyboard-response","96","124659","0.0-96.0","""event"",""trial"",""time""
""fullscreenenter"",""0"",""5920""
","
","
","""event"",""trial"",""time""
""fullscreenenter"",""0"",""5920""
","
","null","<p></p>","null","","","","","","","",""
"","image","97","125691","0.0-97.0","""event"",""trial"",""time""
""fullscreenenter"",""0"",""5920""
","
","
","""event"",""trial"",""time""
""fullscreenenter"",""0"",""5920""
","
","1031.5","run_exp/static/images/Set 6_rs/116a.jpg","86","","","","","","learn","SL",""
"","show_choice","98","126661","0.0-98.0","""event"",""trial"",""time""
""fullscreenenter"",""0"",""5920""
","
","
","""event"",""trial"",""time""
""fullscreenenter"",""0"",""5920""
","
","null","run_exp/static/images/Set 6_rs/116a.jpg","null","","","","","","learn","SL",""
"","html-keyboard-response","99","127166","0.0-99.0","""event"",""trial"",""time""
""fullscreenenter"",""0"",""5920""
","
","
","""event"",""trial"",""time""
""fullscreenenter"",""0"",""5920""
","
","null","<p></p>","null","","","","","","","",""
"","image","100","127819","0.0-100.0","""event"",""trial"",""time""
""fullscreenenter"",""0"",""5920""
","
","
","""event"",""trial"",""time""
""fullscreenenter"",""0"",""5920""
","
","651.8999999999651","run_exp/static/images/Set 6_rs/016a.jpg","86","","","","","","learn","SL",""
"","show_choice","101","129173","0.0-101.0","""event"",""trial"",""time""
""fullscreenenter"",""0"",""5920""
","
","
","""event"",""trial"",""time""
""fullscreenenter"",""0"",""5920""
","
","null","run_exp/static/images/Set 6_rs/016a.jpg","null","","","","","","learn","SL",""
"","html-keyboard-response","102","129674","0.0-102.0","""event"",""trial"",""time""
""fullscreenenter"",""0"",""5920""
","
","
","""event"",""trial"",""time""
""fullscreenenter"",""0"",""5920""
","
","null","<p></p>","null","","","","","","","",""
"","image","103","130442","0.0-103.0","""event"",""trial"",""time""
""fullscreenenter"",""0"",""5920""
","
","
","""event"",""trial"",""time""
""fullscreenenter"",""0"",""5920""
","
","767.4000000000233","run_exp/static/images/Set 6_rs/012a.jpg","86","","","","","","learn","SR",""
"","show_choice","104","131680","0.0-104.0","""event"",""trial"",""time""
""fullscreenenter"",""0"",""5920""
","
","
","""event"",""trial"",""time""
""fullscreenenter"",""0"",""5920""
","
","null","run_exp/static/images/Set 6_rs/012a.jpg","null","","","","","","learn","SR",""
"","html-keyboard-response","105","132184","0.0-105.0","""event"",""trial"",""time""
""fullscreenenter"",""0"",""5920""
","
","
","""event"",""trial"",""time""
""fullscreenenter"",""0"",""5920""
","
","null","<p></p>","null","","","","","","","",""
"","image","106","133547","0.0-106.0","""event"",""trial"",""time""
""fullscreenenter"",""0"",""5920""
","
","
","""event"",""trial"",""time""
""fullscreenenter"",""0"",""5920""
","
","1362.0999999999767","run_exp/static/images/Set 6_rs/167a.jpg","78","","","","","","learn","SL",""
"","show_choice","107","134188","0.0-107.0","""event"",""trial"",""time""
""fullscreenenter"",""0"",""5920""
","
","
","""event"",""trial"",""time""
""fullscreenenter"",""0"",""5920""
","
","null","run_exp/static/images/Set 6_rs/167a.jpg","null","","","","","","learn","SL",""
"","html-keyboard-response","108","134689","0.0-108.0","""event"",""trial"",""time""
""fullscreenenter"",""0"",""5920""
","
","
","""event"",""trial"",""time""
""fullscreenenter"",""0"",""5920""
","
","null","<p></p>","null","","","","","","","",""
"","image","109","135475","0.0-109.0","""event"",""trial"",""time""
""fullscreenenter"",""0"",""5920""
","
","
","""event"",""trial"",""time""
""fullscreenenter"",""0"",""5920""
","
","785.3999999999651","run_exp/static/images/Set 6_rs/062a.jpg","86","","","","","","learn","SL",""
"","show_choice","110","136695","0.0-110.0","""event"",""trial"",""time""
""fullscreenenter"",""0"",""5920""
","
","
","""event"",""trial"",""time""
""fullscreenenter"",""0"",""5920""
","
","null","run_exp/static/images/Set 6_rs/062a.jpg","null","","","","","","learn","SL",""
"","html-keyboard-response","111","137201","0.0-111.0","""event"",""trial"",""time""
""fullscreenenter"",""0"",""5920""
","
","
","""event"",""trial"",""time""
""fullscreenenter"",""0"",""5920""
","
","null","<p></p>","null","","","","","","","",""
"","image","112","137868","0.0-112.0","""event"",""trial"",""time""
""fullscreenenter"",""0"",""5920""
","
","
","""event"",""trial"",""time""
""fullscreenenter"",""0"",""5920""
","
","665.9000000000233","run_exp/static/images/Set 6_rs/074a.jpg","78","","","","","","learn","SL",""
"","show_choice","113","139208","0.0-113.0","""event"",""trial"",""time""
""fullscreenenter"",""0"",""5920""
","
","
","""event"",""trial"",""time""
""fullscreenenter"",""0"",""5920""
","
","null","run_exp/static/images/Set 6_rs/074a.jpg","null","","","","","","learn","SL",""
"","html-keyboard-response","114","139712","0.0-114.0","""event"",""trial"",""time""
""fullscreenenter"",""0"",""5920""
","
","
","""event"",""trial"",""time""
""fullscreenenter"",""0"",""5920""
","
","null","<p></p>","null","","","","","","","",""
"","image","115","141491","0.0-115.0","""event"",""trial"",""time""
""fullscreenenter"",""0"",""5920""
","
","
","""event"",""trial"",""time""
""fullscreenenter"",""0"",""5920""
","
","1777.2999999999884","run_exp/static/images/Set 6_rs/117a.jpg","86","","","","","","learn","SL",""
"","show_choice","116","141719","0.0-116.0","""event"",""trial"",""time""
""fullscreenenter"",""0"",""5920""
","
","
","""event"",""trial"",""time""
""fullscreenenter"",""0"",""5920""
","
","null","run_exp/static/images/Set 6_rs/117a.jpg","null","","","","","","learn","SL",""
"","html-keyboard-response","117","142224","0.0-117.0","""event"",""trial"",""time""
""fullscreenenter"",""0"",""5920""
","
","
","""event"",""trial"",""time""
""fullscreenenter"",""0"",""5920""
","
","null","<p></p>","null","","","","","","","",""
"","image","118","143323","0.0-118.0","""event"",""trial"",""time""
""fullscreenenter"",""0"",""5920""
","
","
","""event"",""trial"",""time""
""fullscreenenter"",""0"",""5920""
","
","1097.399999999965","run_exp/static/images/Set 6_rs/152a.jpg","86","","","","","","learn","SR",""
"","show_choice","119","144225","0.0-119.0","""event"",""trial"",""time""
""fullscreenenter"",""0"",""5920""
","
","
","""event"",""trial"",""time""
""fullscreenenter"",""0"",""5920""
","
","null","run_exp/static/images/Set 6_rs/152a.jpg","null","","","","","","learn","SR",""
"","html-keyboard-response","120","144726","0.0-120.0","""event"",""trial"",""time""
""fullscreenenter"",""0"",""5920""
","
","
","""event"",""trial"",""time""
""fullscreenenter"",""0"",""5920""
","
","null","<p></p>","null","","","","","","","",""
"","image","121","145699","0.0-121.0","""event"",""trial"",""time""
""fullscreenenter"",""0"",""5920""
","
","
","""event"",""trial"",""time""
""fullscreenenter"",""0"",""5920""
","
","972.0999999999767","run_exp/static/images/Set 6_rs/010a.jpg","86","","","","","","learn","SR",""
"","show_choice","122","146732","0.0-122.0","""event"",""trial"",""time""
""fullscreenenter"",""0"",""5920""
","
","
","""event"",""trial"",""time""
""fullscreenenter"",""0"",""5920""
","
","null","run_exp/static/images/Set 6_rs/010a.jpg","null","","","","","","learn","SR",""
"","html-keyboard-response","123","147238","0.0-123.0","""event"",""trial"",""time""
""fullscreenenter"",""0"",""5920""
","
","
","""event"",""trial"",""time""
""fullscreenenter"",""0"",""5920""
","
","null","<p></p>","null","","","","","","","",""
"","image","124","148187","0.0-124.0","""event"",""trial"",""time""
""fullscreenenter"",""0"",""5920""
","
","
","""event"",""trial"",""time""
""fullscreenenter"",""0"",""5920""
","
","948.2999999999884","run_exp/static/images/Set 6_rs/091a.jpg","78","","","","","","learn","SL",""
"","show_choice","125","149242","0.0-125.0","""event"",""trial"",""time""
""fullscreenenter"",""0"",""5920""
","
","
","""event"",""trial"",""time""
""fullscreenenter"",""0"",""5920""
","
","null","run_exp/static/images/Set 6_rs/091a.jpg","null","","","","","","learn","SL",""
"","html-keyboard-response","126","149744","0.0-126.0","""event"",""trial"",""time""
""fullscreenenter"",""0"",""5920""
","
","
","""event"",""trial"",""time""
""fullscreenenter"",""0"",""5920""
","
","null","<p></p>","null","","","","","","","",""
"","image","127","150363","0.0-127.0","""event"",""trial"",""time""
""fullscreenenter"",""0"",""5920""
","
","
","""event"",""trial"",""time""
""fullscreenenter"",""0"",""5920""
","
","618.5","run_exp/static/images/Set 6_rs/079a.jpg","86","","","","","","learn","SL",""
"","show_choice","128","151750","0.0-128.0","""event"",""trial"",""time""
""fullscreenenter"",""0"",""5920""
","
","
","""event"",""trial"",""time""
""fullscreenenter"",""0"",""5920""
","
","null","run_exp/static/images/Set 6_rs/079a.jpg","null","","","","","","learn","SL",""
"","html-keyboard-response","129","152256","0.0-129.0","""event"",""trial"",""time""
""fullscreenenter"",""0"",""5920""
","
","
","""event"",""trial"",""time""
""fullscreenenter"",""0"",""5920""
","
","null","<p></p>","null","","","","","","","",""
"","image","130","153043","0.0-130.0","""event"",""trial"",""time""
""fullscreenenter"",""0"",""5920""
","
","
","""event"",""trial"",""time""
""fullscreenenter"",""0"",""5920""
","
","786.2000000000116","run_exp/static/images/Set 6_rs/166a.jpg","86","","","","","","learn","SR",""
"","show_choice","131","154260","0.0-131.0","""event"",""trial"",""time""
""fullscreenenter"",""0"",""5920""
","
","
","""event"",""trial"",""time""
""fullscreenenter"",""0"",""5920""
","
","null","run_exp/static/images/Set 6_rs/166a.jpg","null","","","","","","learn","SR",""
"","html-keyboard-response","132","154763","0.0-132.0","""event"",""trial"",""time""
""fullscreenenter"",""0"",""5920""
","
","
","""event"",""trial"",""time""
""fullscreenenter"",""0"",""5920""
","
","null","<p></p>","null","","","","","","","",""
"","image","133","155731","0.0-133.0","""event"",""trial"",""time""
""fullscreenenter"",""0"",""5920""
","
","
","""event"",""trial"",""time""
""fullscreenenter"",""0"",""5920""
","
","967.1000000000349","run_exp/static/images/Set 6_rs/122a.jpg","86","","","","","","learn","SR",""
"","show_choice","134","156768","0.0-134.0","""event"",""trial"",""time""
""fullscreenenter"",""0"",""5920""
","
","
","""event"",""trial"",""time""
""fullscreenenter"",""0"",""5920""
","
","null","run_exp/static/images/Set 6_rs/122a.jpg","null","","","","","","learn","SR",""
"","html-keyboard-response","135","157273","0.0-135.0","""event"",""trial"",""time""
""fullscreenenter"",""0"",""5920""
","
","
","""event"",""trial"",""time""
""fullscreenenter"",""0"",""5920""
","
","null","<p></p>","null","","","","","","","",""
"","image","136","157947","0.0-136.0","""event"",""trial"",""time""
""fullscreenenter"",""0"",""5920""
","
","
","""event"",""trial"",""time""
""fullscreenenter"",""0"",""5920""
","
","672.7000000000116","run_exp/static/images/Set 6_rs/055a.jpg","86","","","","","","learn","SL",""
"","show_choice","137","159280","0.0-137.0","""event"",""trial"",""time""
""fullscreenenter"",""0"",""5920""
","
","
","""event"",""trial"",""time""
""fullscreenenter"",""0"",""5920""
","
","null","run_exp/static/images/Set 6_rs/055a.jpg","null","","","","","","learn","SL",""
"","html-keyboard-response","138","159786","0.0-138.0","""event"",""trial"",""time""
""fullscreenenter"",""0"",""5920""
","
","
","""event"",""trial"",""time""
""fullscreenenter"",""0"",""5920""
","
","null","<p></p>","null","","","","","","","",""
"","image","139","160539","0.0-139.0","""event"",""trial"",""time""
""fullscreenenter"",""0"",""5920""
","
","
","""event"",""trial"",""time""
""fullscreenenter"",""0"",""5920""
","
","752.7999999999884","run_exp/static/images/Set 6_rs/036a.jpg","86","","","","","","learn","SL",""
"","show_choice","140","161792","0.0-140.0","""event"",""trial"",""time""
""fullscreenenter"",""0"",""5920""
","
","
","""event"",""trial"",""time""
""fullscreenenter"",""0"",""5920""
","
","null","run_exp/static/images/Set 6_rs/036a.jpg","null","","","","","","learn","SL",""
"","html-keyboard-response","141","162298","0.0-141.0","""event"",""trial"",""time""
""fullscreenenter"",""0"",""5920""
","
","
","""event"",""trial"",""time""
""fullscreenenter"",""0"",""5920""
","
","null","<p></p>","null","","","","","","","",""
"","image","142","163291","0.0-142.0","""event"",""trial"",""time""
""fullscreenenter"",""0"",""5920""
","
","
","""event"",""trial"",""time""
""fullscreenenter"",""0"",""5920""
","
","991.8999999999651","run_exp/static/images/Set 6_rs/154a.jpg","86","","","","","","learn","SR",""
"","show_choice","143","164301","0.0-143.0","""event"",""trial"",""time""
""fullscreenenter"",""0"",""5920""
","
","
","""event"",""trial"",""time""
""fullscreenenter"",""0"",""5920""
","
","null","run_exp/static/images/Set 6_rs/154a.jpg","null","","","","","","learn","SR",""
"","html-keyboard-response","144","164807","0.0-144.0","""event"",""trial"",""time""
""fullscreenenter"",""0"",""5920""
","
","
","""event"",""trial"",""time""
""fullscreenenter"",""0"",""5920""
","
","null","<p></p>","null","","","","","","","",""
"","image","145","165395","0.0-145.0","""event"",""trial"",""time""
""fullscreenenter"",""0"",""5920""
","
","
","""event"",""trial"",""time""
""fullscreenenter"",""0"",""5920""
","
","586.9000000000233","run_exp/static/images/Set 6_rs/095a.jpg","86","","","","","","learn","SL",""
"","show_choice","146","166811","0.0-146.0","""event"",""trial"",""time""
""fullscreenenter"",""0"",""5920""
","
","
","""event"",""trial"",""time""
""fullscreenenter"",""0"",""5920""
","
","null","run_exp/static/images/Set 6_rs/095a.jpg","null","","","","","","learn","SL",""
"","html-keyboard-response","147","167314","0.0-147.0","""event"",""trial"",""time""
""fullscreenenter"",""0"",""5920""
","
","
","""event"",""trial"",""time""
""fullscreenenter"",""0"",""5920""
","
","null","<p></p>","null","","","","","","","",""
"","image","148","167819","0.0-148.0","""event"",""trial"",""time""
""fullscreenenter"",""0"",""5920""
","
","
","""event"",""trial"",""time""
""fullscreenenter"",""0"",""5920""
","
","504.30000000004657","run_exp/static/images/Set 6_rs/144a.jpg","86","","","","","","learn","SL",""
"","show_choice","149","169316","0.0-149.0","""event"",""trial"",""time""
""fullscreenenter"",""0"",""5920""
","
","
","""event"",""trial"",""time""
""fullscreenenter"",""0"",""5920""
","
","null","run_exp/static/images/Set 6_rs/144a.jpg","null","","","","","","learn","SL",""
"","html-keyboard-response","150","169817","0.0-150.0","""event"",""trial"",""time""
""fullscreenenter"",""0"",""5920""
","
","
","""event"",""trial"",""time""
""fullscreenenter"",""0"",""5920""
","
","null","<p></p>","null","","","","","","","",""
"","image","151","170442","0.0-151.0","""event"",""trial"",""time""
""fullscreenenter"",""0"",""5920""
","
","
","""event"",""trial"",""time""
""fullscreenenter"",""0"",""5920""
","
","625.0999999999767","run_exp/static/images/Set 6_rs/088a.jpg","86","","","","","","learn","SR",""
"","show_choice","152","171818","0.0-152.0","""event"",""trial"",""time""
""fullscreenenter"",""0"",""5920""
","
","
","""event"",""trial"",""time""
""fullscreenenter"",""0"",""5920""
","
","null","run_exp/static/images/Set 6_rs/088a.jpg","null","","","","","","learn","SR",""
"","html-keyboard-response","153","172324","0.0-153.0","""event"",""trial"",""time""
""fullscreenenter"",""0"",""5920""
","
","
","""event"",""trial"",""time""
""fullscreenenter"",""0"",""5920""
","
","null","<p></p>","null","","","","","","","",""
"","image","154","172987","0.0-154.0","""event"",""trial"",""time""
""fullscreenenter"",""0"",""5920""
","
","
","""event"",""trial"",""time""
""fullscreenenter"",""0"",""5920""
","
","662.3000000000466","run_exp/static/images/Set 6_rs/073a.jpg","86","","","","","","learn","SL",""
"","show_choice","155","174325","0.0-155.0","""event"",""trial"",""time""
""fullscreenenter"",""0"",""5920""
","
","
","""event"",""trial"",""time""
""fullscreenenter"",""0"",""5920""
","
","null","run_exp/static/images/Set 6_rs/073a.jpg","null","","","","","","learn","SL",""
"","html-keyboard-response","156","174827","0.0-156.0","""event"",""trial"",""time""
""fullscreenenter"",""0"",""5920""
","
","
","""event"",""trial"",""time""
""fullscreenenter"",""0"",""5920""
","
","null","<p></p>","null","","","","","","","",""
"","image","157","175459","0.0-157.0","""event"",""trial"",""time""
""fullscreenenter"",""0"",""5920""
","
","
","""event"",""trial"",""time""
""fullscreenenter"",""0"",""5920""
","
","630.7999999999884","run_exp/static/images/Set 6_rs/132a.jpg","86","","","","","","learn","SR",""
"","show_choice","158","176829","0.0-158.0","""event"",""trial"",""time""
""fullscreenenter"",""0"",""5920""
","
","
","""event"",""trial"",""time""
""fullscreenenter"",""0"",""5920""
","
","null","run_exp/static/images/Set 6_rs/132a.jpg","null","","","","","","learn","SR",""
"","html-keyboard-response","159","177332","0.0-159.0","""event"",""trial"",""time""
""fullscreenenter"",""0"",""5920""
","
","
","""event"",""trial"",""time""
""fullscreenenter"",""0"",""5920""
","
","null","<p></p>","null","","","","","","","",""
"","image","160","178147","0.0-160.0","""event"",""trial"",""time""
""fullscreenenter"",""0"",""5920""
","
","
","""event"",""trial"",""time""
""fullscreenenter"",""0"",""5920""
","
","814.0999999999767","run_exp/static/images/Set 6_rs/181a.jpg","78","","","","","","learn","SL",""
"","show_choice","161","179336","0.0-161.0","""event"",""trial"",""time""
""fullscreenenter"",""0"",""5920""
","
","
","""event"",""trial"",""time""
""fullscreenenter"",""0"",""5920""
","
","null","run_exp/static/images/Set 6_rs/181a.jpg","null","","","","","","learn","SL",""
"","html-keyboard-response","162","179836","0.0-162.0","""event"",""trial"",""time""
""fullscreenenter"",""0"",""5920""
","
","
","""event"",""trial"",""time""
""fullscreenenter"",""0"",""5920""
","
","null","<p></p>","null","","","","","","","",""
"","image","163","180635","0.0-163.0","""event"",""trial"",""time""
""fullscreenenter"",""0"",""5920""
","
","
","""event"",""trial"",""time""
""fullscreenenter"",""0"",""5920""
","
","797.3999999999651","run_exp/static/images/Set 6_rs/066a.jpg","86","","","","","","learn","SL",""
"","show_choice","164","181840","0.0-164.0","""event"",""trial"",""time""
""fullscreenenter"",""0"",""5920""
","
","
","""event"",""trial"",""time""
""fullscreenenter"",""0"",""5920""
","
","null","run_exp/static/images/Set 6_rs/066a.jpg","null","","","","","","learn","SL",""
"","html-keyboard-response","165","182343","0.0-165.0","""event"",""trial"",""time""
""fullscreenenter"",""0"",""5920""
","
","
","""event"",""trial"",""time""
""fullscreenenter"",""0"",""5920""
","
","null","<p></p>","null","","","","","","","",""
"","image","166","183611","0.0-166.0","""event"",""trial"",""time""
""fullscreenenter"",""0"",""5920""
","
","
","""event"",""trial"",""time""
""fullscreenenter"",""0"",""5920""
","
","1267","run_exp/static/images/Set 6_rs/131a.jpg","86","","","","","","learn","SR",""
"","show_choice","167","184346","0.0-167.0","""event"",""trial"",""time""
""fullscreenenter"",""0"",""5920""
","
","
","""event"",""trial"",""time""
""fullscreenenter"",""0"",""5920""
","
","null","run_exp/static/images/Set 6_rs/131a.jpg","null","","","","","","learn","SR",""
"","html-keyboard-response","168","184848","0.0-168.0","""event"",""trial"",""time""
""fullscreenenter"",""0"",""5920""
","
","
","""event"",""trial"",""time""
""fullscreenenter"",""0"",""5920""
","
","null","<p></p>","null","","","","","","","",""
"","image","169","185795","0.0-169.0","""event"",""trial"",""time""
""fullscreenenter"",""0"",""5920""
","
","
","""event"",""trial"",""time""
""fullscreenenter"",""0"",""5920""
","
","946.5999999999767","run_exp/static/images/Set 6_rs/169a.jpg","78","","","","","","learn","SR",""
"","show_choice","170","186853","0.0-170.0","""event"",""trial"",""time""
""fullscreenenter"",""0"",""5920""
","
","
","""event"",""trial"",""time""
""fullscreenenter"",""0"",""5920""
","
","null","run_exp/static/images/Set 6_rs/169a.jpg","null","","","","","","learn","SR",""
"","html-keyboard-response","171","187354","0.0-171.0","""event"",""trial"",""time""
""fullscreenenter"",""0"",""5920""
","
","
","""event"",""trial"",""time""
""fullscreenenter"",""0"",""5920""
","
","null","<p></p>","null","","","","","","","",""
"","image","172","187931","0.0-172.0","""event"",""trial"",""time""
""fullscreenenter"",""0"",""5920""
","
","
","""event"",""trial"",""time""
""fullscreenenter"",""0"",""5920""
","
","575.5","run_exp/static/images/Set 6_rs/141a.jpg","78","","","","","","learn","SR",""
"","show_choice","173","189356","0.0-173.0","""event"",""trial"",""time""
""fullscreenenter"",""0"",""5920""
","
","
","""event"",""trial"",""time""
""fullscreenenter"",""0"",""5920""
","
","null","run_exp/static/images/Set 6_rs/141a.jpg","null","","","","","","learn","SR",""
"","html-keyboard-response","174","189861","0.0-174.0","""event"",""trial"",""time""
""fullscreenenter"",""0"",""5920""
","
","
","""event"",""trial"",""time""
""fullscreenenter"",""0"",""5920""
","
","null","<p></p>","null","","","","","","","",""
"","image","175","190435","0.0-175.0","""event"",""trial"",""time""
""fullscreenenter"",""0"",""5920""
","
","
","""event"",""trial"",""time""
""fullscreenenter"",""0"",""5920""
","
","573.1000000000349","run_exp/static/images/Set 6_rs/187a.jpg","86","","","","","","learn","SR",""
"","show_choice","176","191865","0.0-176.0","""event"",""trial"",""time""
""fullscreenenter"",""0"",""5920""
","
","
","""event"",""trial"",""time""
""fullscreenenter"",""0"",""5920""
","
","null","run_exp/static/images/Set 6_rs/187a.jpg","null","","","","","","learn","SR",""
"","html-keyboard-response","177","192368","0.0-177.0","""event"",""trial"",""time""
""fullscreenenter"",""0"",""5920""
","
","
","""event"",""trial"",""time""
""fullscreenenter"",""0"",""5920""
","
","null","<p></p>","null","","","","","","","",""
"","image","178","193010","0.0-178.0","""event"",""trial"",""time""
""fullscreenenter"",""0"",""5920""
","
","
","""event"",""trial"",""time""
""fullscreenenter"",""0"",""5920""
","
","641.5","run_exp/static/images/Set 6_rs/050a.jpg","86","","","","","","learn","SL",""
"","show_choice","179","194370","0.0-179.0","""event"",""trial"",""time""
""fullscreenenter"",""0"",""5920""
","
","
","""event"",""trial"",""time""
""fullscreenenter"",""0"",""5920""
","
","null","run_exp/static/images/Set 6_rs/050a.jpg","null","","","","","","learn","SL",""
"","html-keyboard-response","180","194873","0.0-180.0","""event"",""trial"",""time""
""fullscreenenter"",""0"",""5920""
","
","
","""event"",""trial"",""time""
""fullscreenenter"",""0"",""5920""
","
","null","<p></p>","null","","","","","","","",""
"","image","181","195619","0.0-181.0","""event"",""trial"",""time""
""fullscreenenter"",""0"",""5920""
","
","
","""event"",""trial"",""time""
""fullscreenenter"",""0"",""5920""
","
","745.4000000000233","run_exp/static/images/Set 6_rs/025a.jpg","78","","","","","","learn","SL",""
"","show_choice","182","196874","0.0-182.0","""event"",""trial"",""time""
""fullscreenenter"",""0"",""5920""
","
","
","""event"",""trial"",""time""
""fullscreenenter"",""0"",""5920""
","
","null","run_exp/static/images/Set 6_rs/025a.jpg","null","","","","","","learn","SL",""
"","html-keyboard-response","183","197375","0.0-183.0","""event"",""trial"",""time""
""fullscreenenter"",""0"",""5920""
","
","
","""event"",""trial"",""time""
""fullscreenenter"",""0"",""5920""
","
","null","<p></p>","null","","","","","","","",""
"","image","184","198803","0.0-184.0","""event"",""trial"",""time""
""fullscreenenter"",""0"",""5920""
","
","
","""event"",""trial"",""time""
""fullscreenenter"",""0"",""5920""
","
","1426.899999999965","run_exp/static/images/Set 6_rs/006a.jpg","86","","","","","","learn","SL",""
"","show_choice","185","199377","0.0-185.0","""event"",""trial"",""time""
""fullscreenenter"",""0"",""5920""
","
","
","""event"",""trial"",""time""
""fullscreenenter"",""0"",""5920""
","
","null","run_exp/static/images/Set 6_rs/006a.jpg","null","","","","","","learn","SL",""
"","html-keyboard-response","186","199879","0.0-186.0","""event"",""trial"",""time""
""fullscreenenter"",""0"",""5920""
","
","
","""event"",""trial"",""time""
""fullscreenenter"",""0"",""5920""
","
","null","<p></p>","null","","","","","","","",""
"","image","187","201036","0.0-187.0","""event"",""trial"",""time""
""fullscreenenter"",""0"",""5920""
","
","
","""event"",""trial"",""time""
""fullscreenenter"",""0"",""5920""
","
","1156.600000000035","run_exp/static/images/Set 6_rs/150a.jpg","86","","","","","","learn","SR",""
"","show_choice","188","201884","0.0-188.0","""event"",""trial"",""time""
""fullscreenenter"",""0"",""5920""
","
","
","""event"",""trial"",""time""
""fullscreenenter"",""0"",""5920""
","
","null","run_exp/static/images/Set 6_rs/150a.jpg","null","","","","","","learn","SR",""
"","html-keyboard-response","189","202385","0.0-189.0","""event"",""trial"",""time""
""fullscreenenter"",""0"",""5920""
","
","
","""event"",""trial"",""time""
""fullscreenenter"",""0"",""5920""
","
","null","<p></p>","null","","","","","","","",""
"","image","190","204010","0.0-190.0","""event"",""trial"",""time""
""fullscreenenter"",""0"",""5920""
","
","
","""event"",""trial"",""time""
""fullscreenenter"",""0"",""5920""
","
","1625","run_exp/static/images/Set 6_rs/129a.jpg","78","","","","","","learn","SL",""
"","show_choice","191","204386","0.0-191.0","""event"",""trial"",""time""
""fullscreenenter"",""0"",""5920""
","
","
","""event"",""trial"",""time""
""fullscreenenter"",""0"",""5920""
","
","null","run_exp/static/images/Set 6_rs/129a.jpg","null","","","","","","learn","SL",""
"","html-keyboard-response","192","204888","0.0-192.0","""event"",""trial"",""time""
""fullscreenenter"",""0"",""5920""
","
","
","""event"",""trial"",""time""
""fullscreenenter"",""0"",""5920""
","
","null","<p></p>","null","","","","","","","",""
"","image","193","206099","0.0-193.0","""event"",""trial"",""time""
""fullscreenenter"",""0"",""5920""
","
","
","""event"",""trial"",""time""
""fullscreenenter"",""0"",""5920""
","
","1210.0999999999767","run_exp/static/images/Set 6_rs/063a.jpg","86","","","","","","learn","SR",""
"","show_choice","194","206889","0.0-194.0","""event"",""trial"",""time""
""fullscreenenter"",""0"",""5920""
","
","
","""event"",""trial"",""time""
""fullscreenenter"",""0"",""5920""
","
","null","run_exp/static/images/Set 6_rs/063a.jpg","null","","","","","","learn","SR",""
"","html-keyboard-response","195","207390","0.0-195.0","""event"",""trial"",""time""
""fullscreenenter"",""0"",""5920""
","
","
","""event"",""trial"",""time""
""fullscreenenter"",""0"",""5920""
","
","null","<p></p>","null","","","","","","","",""
"","test_intro","196","244293","0.0-196.0","""event"",""trial"",""time""
""fullscreenenter"",""0"",""5920""
","
","
","""event"",""trial"",""time""
""fullscreenenter"",""0"",""5920""
","
","null","run_exp/static/audio/clip_2_memory.m4a","null","","","","","<div class='center'><p>Now, lets see how much you remember about the items you just saw.  For each item, you need to indicate if it was <b>old</b> by pressing the <b>v</b> key, <b>similar</b> by pressing the <b>b</b> key, or <b>new</b> by pressing the <b>n</b> key.</p><p>Old refers to an item that you saw before in the indoor/outdoor game that you just played, new refers to an item you have <b>not</b> seen before within the indoor/outdoor game, and similar refers to an item that is similar to an item youve seen before but is not exactly the same. </p><p>Before we begin, lets go over some brief demonstrations to make sure you understand.</p></div>","","",""
"","html-keyboard-response","197","252146","0.0-197.0","""event"",""trial"",""time""
""fullscreenenter"",""0"",""5920""
","
","
","""event"",""trial"",""time""
""fullscreenenter"",""0"",""5920""
","
","7852","<div class='center'><p>Now, lets see how much you remember about the items you just saw.  For each item, you need to indicate if it was <b>old</b> by pressing the <b>v</b> key, <b>similar</b> by pressing the <b>b</b> key, or <b>new</b> by pressing the <b>n</b> key.</p><p>Old refers to an item that you saw before in the indoor/outdoor game that you just played, new refers to an item you have <b>not</b> seen before within the indoor/outdoor game, and similar refers to an item that is similar to an item youve seen before but is not exactly the same. </p><p>Before we begin, lets go over some brief demonstrations to make sure you understand.</p><div><p><b>[Press the space bar to continue]</b></p></div>","32","","","","","","","",""
"","items","198","259647","0.0-198.0","""event"",""trial"",""time""
""fullscreenenter"",""0"",""5920""
","
","
","""event"",""trial"",""time""
""fullscreenenter"",""0"",""5920""
","
","null","run_exp/static/audio/clip_3_items.m4a","null","","","","","","","",""
"","mop","199","264149","0.0-199.0","""event"",""trial"",""time""
""fullscreenenter"",""0"",""5920""
","
","
","""event"",""trial"",""time""
""fullscreenenter"",""0"",""5920""
","
","null","run_exp/static/audio/clip_4_mop.m4a","null","","","","","","","",""
"","baseball","200","267651","0.0-200.0","""event"",""trial"",""time""
""fullscreenenter"",""0"",""5920""
","
","
","""event"",""trial"",""time""
""fullscreenenter"",""0"",""5920""
","
","null","run_exp/static/audio/clip_5_baseball.m4a","null","","","","","","","",""
"","trumpet","201","271156","0.0-201.0","""event"",""trial"",""time""
""fullscreenenter"",""0"",""5920""
","
","
","""event"",""trial"",""time""
""fullscreenenter"",""0"",""5920""
","
","null","run_exp/static/audio/clip_6_trumpet.m4a","null","","","","","","","",""
"","gummies","202","274658","0.0-202.0","""event"",""trial"",""time""
""fullscreenenter"",""0"",""5920""
","
","
","""event"",""trial"",""time""
""fullscreenenter"",""0"",""5920""
","
","null","run_exp/static/audio/clip_7_gummies.m4a","null","","","","","","","",""
"","osn","203","279163","0.0-203.0","""event"",""trial"",""time""
""fullscreenenter"",""0"",""5920""
","
","
","""event"",""trial"",""time""
""fullscreenenter"",""0"",""5920""
","
","null","run_exp/static/audio/clip_8_osn.m4a","null","","","","","","","",""
"","old_1","204","285665","0.0-204.0","""event"",""trial"",""time""
""fullscreenenter"",""0"",""5920""
","
","
","""event"",""trial"",""time""
""fullscreenenter"",""0"",""5920""
","
","null","run_exp/static/audio/clip_9_old_trumpet.m4a","null","","","","","","","",""
"","new_1","205","293170","0.0-205.0","""event"",""trial"",""time""
""fullscreenenter"",""0"",""5920""
","
","
","""event"",""trial"",""time""
""fullscreenenter"",""0"",""5920""
","
","null","run_exp/static/audio/clip_10_new_balloon.m4a","null","","","","","","","",""
"","similar_1a","206","297674","0.0-206.0","""event"",""trial"",""time""
""fullscreenenter"",""0"",""5920""
","
","
","""event"",""trial"",""time""
""fullscreenenter"",""0"",""5920""
","
","null","run_exp/static/audio/clip_11a_similar_mop.m4a","null","","","","","","","",""
"","similar_1b","207","304177","0.0-207.0","""event"",""trial"",""time""
""fullscreenenter"",""0"",""5920""
","
","
","""event"",""trial"",""time""
""fullscreenenter"",""0"",""5920""
","
","null","run_exp/static/audio/clip_11b_similar_mop.m4a","null","","","","","","","",""
"","new_2","208","307680","0.0-208.0","""event"",""trial"",""time""
""fullscreenenter"",""0"",""5920""
","
","
","""event"",""trial"",""time""
""fullscreenenter"",""0"",""5920""
","
","null","run_exp/static/audio/clip_12_new_stoplight.m4a","null","","","","","","","",""
"","old_2","209","311181","0.0-209.0","""event"",""trial"",""time""
""fullscreenenter"",""0"",""5920""
","
","
","""event"",""trial"",""time""
""fullscreenenter"",""0"",""5920""
","
","null","run_exp/static/audio/clip_13_old_baseball.m4a","null","","","","","","","",""
"","similar_2a","210","314684","0.0-210.0","""event"",""trial"",""time""
""fullscreenenter"",""0"",""5920""
","
","
","""event"",""trial"",""time""
""fullscreenenter"",""0"",""5920""
","
","null","run_exp/static/audio/clip_14a_similar_gummies.m4a","null","","","","","","","",""
"","similar_2b","211","322185","0.0-211.0","""event"",""trial"",""time""
""fullscreenenter"",""0"",""5920""
","
","
","""event"",""trial"",""time""
""fullscreenenter"",""0"",""5920""
","
","null","run_exp/static/audio/clip_14b_similar_gummies.m4a","null","","","","","","","",""
"","practice","212","364271","0.0-212.0","""event"",""trial"",""time""
""fullscreenenter"",""0"",""5920""
","
","
","""event"",""trial"",""time""
""fullscreenenter"",""0"",""5920""
","
","null","run_exp/static/audio/clip_15_practice.m4a","null","","","","","<div class='center'><p>Lets practice a little to make sure you understand the difference between new, similar, and old. Lets say you saw these three items in the indoor/outdoor game.</p><p> Try your best to remember these images because youll soon be tested on them in a practice game. In the practice game, youll be shown images and youll have to say if they are old (one of the three images belows), similar (similar to one of the images below but not exactly the same), or new (are not one of the images below nor similar to them).</p><p>Once you press the space bar youll be shown these images again but one at time. Then youll begin the practice game.</p><p><img src='run_exp/static/images/tutorial/test/three_indoor_outdoor.png' height='300'></p></div>","","",""
"","html-keyboard-response","213","369386","0.0-213.0","""event"",""trial"",""time""
""fullscreenenter"",""0"",""5920""
","
","
","""event"",""trial"",""time""
""fullscreenenter"",""0"",""5920""
","
","5114.20000000007","<div class='center'><p>Lets practice a little to make sure you understand the difference between new, similar, and old. Lets say you saw these three items in the indoor/outdoor game.</p><p> Try your best to remember these images because youll soon be tested on them in a practice game. In the practice game, youll be shown images and youll have to say if they are old (one of the three images belows), similar (similar to one of the images below but not exactly the same), or new (are not one of the images below nor similar to them).</p><p>Once you press the space bar youll be shown these images again but one at time. Then youll begin the practice game.</p><p><img src='run_exp/static/images/tutorial/test/three_indoor_outdoor.png' height='300'></p><div><p><b>[Press the space bar to continue]</b></p></div>","32","","","","","","","",""
"","planet","214","371389","0.0-214.0","""event"",""trial"",""time""
""fullscreenenter"",""0"",""5920""
","
","
","""event"",""trial"",""time""
""fullscreenenter"",""0"",""5920""
","
","null","run_exp/static/images/tutorial/test/008a.jpg","null","","","","","","","",""
"","boot","215","373391","0.0-215.0","""event"",""trial"",""time""
""fullscreenenter"",""0"",""5920""
","
","
","""event"",""trial"",""time""
""fullscreenenter"",""0"",""5920""
","
","null","run_exp/static/images/tutorial/test/011a.jpg","null","","","","","","","",""
"","lemon","216","375394","0.0-216.0","""event"",""trial"",""time""
""fullscreenenter"",""0"",""5920""
","
","
","""event"",""trial"",""time""
""fullscreenenter"",""0"",""5920""
","
","null","run_exp/static/images/tutorial/test/018a.jpg","null","","","","","","","",""
"","practice_q1","217","380023","0.0-217.0","""event"",""trial"",""time""
""fullscreenenter"",""0"",""5920""
","
","
","""event"",""trial"",""time""
""fullscreenenter"",""0"",""5920""
","
","4628","run_exp/static/audio/clip_16_practice_question.m4a","78","","","","","","","",""
"","correct","218","381906","0.0-218.0-0.0","""event"",""trial"",""time""
""fullscreenenter"",""0"",""5920""
","
","
","""event"",""trial"",""time""
""fullscreenenter"",""0"",""5920""
","
","null","run_exp/static/audio/clip_17_correct.m4a","null","","","","","<div class='center'><p>That's correct!</p></div>","","",""
"","html-keyboard-response","219","383102","0.0-218.0-1.0","""event"",""trial"",""time""
""fullscreenenter"",""0"",""5920""
","
","
","""event"",""trial"",""time""
""fullscreenenter"",""0"",""5920""
","
","1195.5999999999767","<div class='center'><p>That's correct!</p><div><p><b>[Press the space bar to continue]</b></p></div>","32","","","","","","","",""
"","practice_q2","220","384206","0.0-218.0-2.0","""event"",""trial"",""time""
""fullscreenenter"",""0"",""5920""
","
","
","""event"",""trial"",""time""
""fullscreenenter"",""0"",""5920""
","
","1103.1999999999534","run_exp/static/audio/clip_16_practice_question.m4a","86","","","","","","","",""
"","correct","221","386085","0.0-219.0-0.0","""event"",""trial"",""time""
""fullscreenenter"",""0"",""5920""
","
","
","""event"",""trial"",""time""
""fullscreenenter"",""0"",""5920""
","
","null","run_exp/static/audio/clip_17_correct.m4a","null","","","","","<div class='center'><p>That's correct!</p></div>","","",""
"","html-keyboard-response","222","386558","0.0-219.0-1.0","""event"",""trial"",""time""
""fullscreenenter"",""0"",""5920""
","
","
","""event"",""trial"",""time""
""fullscreenenter"",""0"",""5920""
","
","472.5999999999767","<div class='center'><p>That's correct!</p><div><p><b>[Press the space bar to continue]</b></p></div>","32","","","","","","","",""
"","practice_q3","223","387806","0.0-219.0-2.0","""event"",""trial"",""time""
""fullscreenenter"",""0"",""5920""
","
","
","""event"",""trial"",""time""
""fullscreenenter"",""0"",""5920""
","
","1246.7999999999302","run_exp/static/audio/clip_16_practice_question.m4a","66","","","","","","","",""
"","correct","224","389824","0.0-220.0-0.0","""event"",""trial"",""time""
""fullscreenenter"",""0"",""5920""
","
","
","""event"",""trial"",""time""
""fullscreenenter"",""0"",""5920""
","
","null","run_exp/static/audio/clip_17_correct.m4a","null","","","","","<div class='center'><p>That's correct!</p></div>","","",""
"","html-keyboard-response","225","390391","0.0-220.0-1.0","""event"",""trial"",""time""
""fullscreenenter"",""0"",""5920""
","
","
","""event"",""trial"",""time""
""fullscreenenter"",""0"",""5920""
","
","566.4000000000233","<div class='center'><p>That's correct!</p><div><p><b>[Press the space bar to continue]</b></p></div>","32","","","","","","","",""
"","begin_text","226","408841","0.0-221.0-0.0","""event"",""trial"",""time""
""fullscreenenter"",""0"",""5920""
","
","
","""event"",""trial"",""time""
""fullscreenenter"",""0"",""5920""
","
","null","run_exp/static/audio/clip_22_begin_test.m4a","null","","","","","<div class='center'><p>On to the real game where well test your memory of items from the indoor/outdoor game. For each item, you need to indicate if the item is <b>old</b> by pressing the <b>v</b> key, <b>similar</b> by pressing the <b>b</b> key, or <b>new</b> by pressing the <b>n</b> key. </p></div>","","",""
"","html-keyboard-response","227","411392","0.0-221.0-1.0","""event"",""trial"",""time""
""fullscreenenter"",""0"",""5920""
","
","
","""event"",""trial"",""time""
""fullscreenenter"",""0"",""5920""
","
","2550.4000000000233","<div class='center'><p>On to the real game where well test your memory of items from the indoor/outdoor game. For each item, you need to indicate if the item is <b>old</b> by pressing the <b>v</b> key, <b>similar</b> by pressing the <b>b</b> key, or <b>new</b> by pressing the <b>n</b> key. </p><div><p><b>[Press the space bar to continue]</b></p></div>","32","","","","","","","",""
"","image","228","412319","0.0-222.0-0.0","""event"",""trial"",""time""
""fullscreenenter"",""0"",""5920""
","
","
","""event"",""trial"",""time""
""fullscreenenter"",""0"",""5920""
","
","926.6000000000931","run_exp/static/images/Set 6_rs/061a.jpg","86","","","","","","test","TR","5"
"","show_choice","229","412824","0.0-222.0-1.0","""event"",""trial"",""time""
""fullscreenenter"",""0"",""5920""
","
","
","""event"",""trial"",""time""
""fullscreenenter"",""0"",""5920""
","
","null","run_exp/static/images/Set 6_rs/061a.jpg","null","","","","","","test","TR",""
"","html-keyboard-response","230","413325","0.0-222.0-2.0","""event"",""trial"",""time""
""fullscreenenter"",""0"",""5920""
","
","
","""event"",""trial"",""time""
""fullscreenenter"",""0"",""5920""
","
","null","<p></p>","null","","","","","","","",""
"","image","231","414448","0.0-223.0-0.0","""event"",""trial"",""time""
""fullscreenenter"",""0"",""5920""
","
","
","""event"",""trial"",""time""
""fullscreenenter"",""0"",""5920""
","
","1121.5999999999767","run_exp/static/images/Set 6_rs/089b.jpg","66","","","","","","test","TL","4"
"","show_choice","232","414950","0.0-223.0-1.0","""event"",""trial"",""time""
""fullscreenenter"",""0"",""5920""
","
","
","""event"",""trial"",""time""
""fullscreenenter"",""0"",""5920""
","
","null","run_exp/static/images/Set 6_rs/089b.jpg","null","","","","","","test","TL",""
"","html-keyboard-response","233","415451","0.0-223.0-2.0","""event"",""trial"",""time""
""fullscreenenter"",""0"",""5920""
","
","
","""event"",""trial"",""time""
""fullscreenenter"",""0"",""5920""
","
","null","<p></p>","null","","","","","","","",""
"","image","234","416624","0.0-224.0-0.0","""event"",""trial"",""time""
""fullscreenenter"",""0"",""5920""
","
","
","""event"",""trial"",""time""
""fullscreenenter"",""0"",""5920""
","
","1171.8999999999069","run_exp/static/images/Set 6_rs/063a.jpg","66","","","","","","test","TR","2"
"","show_choice","235","417129","0.0-224.0-1.0","""event"",""trial"",""time""
""fullscreenenter"",""0"",""5920""
","
","
","""event"",""trial"",""time""
""fullscreenenter"",""0"",""5920""
","
","null","run_exp/static/images/Set 6_rs/063a.jpg","null","","","","","","test","TR",""
"","html-keyboard-response","236","417630","0.0-224.0-2.0","""event"",""trial"",""time""
""fullscreenenter"",""0"",""5920""
","
","
","""event"",""trial"",""time""
""fullscreenenter"",""0"",""5920""
","
","null","<p></p>","null","","","","","","","",""
"","image","237","419159","0.0-225.0-0.0","""event"",""trial"",""time""
""fullscreenenter"",""0"",""5920""
","
","
","""event"",""trial"",""time""
""fullscreenenter"",""0"",""5920""
","
","1528.6000000000931","run_exp/static/images/Set 6_rs/123b.jpg","86","","","","","","test","TL","2"
"","show_choice","238","419661","0.0-225.0-1.0","""event"",""trial"",""time""
""fullscreenenter"",""0"",""5920""
","
","
","""event"",""trial"",""time""
""fullscreenenter"",""0"",""5920""
","
","null","run_exp/static/images/Set 6_rs/123b.jpg","null","","","","","","test","TL",""
"","html-keyboard-response","239","420163","0.0-225.0-2.0","""event"",""trial"",""time""
""fullscreenenter"",""0"",""5920""
","
","
","""event"",""trial"",""time""
""fullscreenenter"",""0"",""5920""
","
","null","<p></p>","null","","","","","","","",""
"","image","240","421224","0.0-226.0-0.0","""event"",""trial"",""time""
""fullscreenenter"",""0"",""5920""
","
","
","""event"",""trial"",""time""
""fullscreenenter"",""0"",""5920""
","
","1059.4000000000233","run_exp/static/images/Set 6_rs/022a.jpg","66","","","","","","test","TF","4"
"","show_choice","241","421725","0.0-226.0-1.0","""event"",""trial"",""time""
""fullscreenenter"",""0"",""5920""
","
","
","""event"",""trial"",""time""
""fullscreenenter"",""0"",""5920""
","
","null","run_exp/static/images/Set 6_rs/022a.jpg","null","","","","","","test","TF",""
"","html-keyboard-response","242","422227","0.0-226.0-2.0","""event"",""trial"",""time""
""fullscreenenter"",""0"",""5920""
","
","
","""event"",""trial"",""time""
""fullscreenenter"",""0"",""5920""
","
","null","<p></p>","null","","","","","","","",""
"","image","243","423288","0.0-227.0-0.0","""event"",""trial"",""time""
""fullscreenenter"",""0"",""5920""
","
","
","""event"",""trial"",""time""
""fullscreenenter"",""0"",""5920""
","
","1059.2999999999302","run_exp/static/images/Set 6_rs/186a.jpg","86","","","","","","test","TR","5"
"","show_choice","244","423789","0.0-227.0-1.0","""event"",""trial"",""time""
""fullscreenenter"",""0"",""5920""
","
","
","""event"",""trial"",""time""
""fullscreenenter"",""0"",""5920""
","
","null","run_exp/static/images/Set 6_rs/186a.jpg","null","","","","","","test","TR",""
"","html-keyboard-response","245","424293","0.0-227.0-2.0","""event"",""trial"",""time""
""fullscreenenter"",""0"",""5920""
","
","
","""event"",""trial"",""time""
""fullscreenenter"",""0"",""5920""
","
","null","<p></p>","null","","","","","","","",""
"","image","246","425336","0.0-228.0-0.0","""event"",""trial"",""time""
""fullscreenenter"",""0"",""5920""
","
","
","""event"",""trial"",""time""
""fullscreenenter"",""0"",""5920""
","
","1041.9000000000233","run_exp/static/images/Set 6_rs/141a.jpg","86","","","","","","test","TR","2"
"","show_choice","247","425836","0.0-228.0-1.0","""event"",""trial"",""time""
""fullscreenenter"",""0"",""5920""
","
","
","""event"",""trial"",""time""
""fullscreenenter"",""0"",""5920""
","
","null","run_exp/static/images/Set 6_rs/141a.jpg","null","","","","","","test","TR",""
"","html-keyboard-response","248","426339","0.0-228.0-2.0","""event"",""trial"",""time""
""fullscreenenter"",""0"",""5920""
","
","
","""event"",""trial"",""time""
""fullscreenenter"",""0"",""5920""
","
","null","<p></p>","null","","","","","","","",""
"","image","249","427151","0.0-229.0-0.0","""event"",""trial"",""time""
""fullscreenenter"",""0"",""5920""
","
","
","""event"",""trial"",""time""
""fullscreenenter"",""0"",""5920""
","
","811","run_exp/static/images/Set 6_rs/075a.jpg","86","","","","","","test","TR","1"
"","show_choice","250","427656","0.0-229.0-1.0","""event"",""trial"",""time""
""fullscreenenter"",""0"",""5920""
","
","
","""event"",""trial"",""time""
""fullscreenenter"",""0"",""5920""
","
","null","run_exp/static/images/Set 6_rs/075a.jpg","null","","","","","","test","TR",""
"","html-keyboard-response","251","428158","0.0-229.0-2.0","""event"",""trial"",""time""
""fullscreenenter"",""0"",""5920""
","
","
","""event"",""trial"",""time""
""fullscreenenter"",""0"",""5920""
","
","null","<p></p>","null","","","","","","","",""
"","image","252","429384","0.0-230.0-0.0","""event"",""trial"",""time""
""fullscreenenter"",""0"",""5920""
","
","
","""event"",""trial"",""time""
""fullscreenenter"",""0"",""5920""
","
","1224.4000000000233","run_exp/static/images/Set 6_rs/024a.jpg","78","","","","","","test","TR","5"
"","show_choice","253","429889","0.0-230.0-1.0","""event"",""trial"",""time""
""fullscreenenter"",""0"",""5920""
","
","
","""event"",""trial"",""time""
""fullscreenenter"",""0"",""5920""
","
","null","run_exp/static/images/Set 6_rs/024a.jpg","null","","","","","","test","TR",""
"","html-keyboard-response","254","430389","0.0-230.0-2.0","""event"",""trial"",""time""
""fullscreenenter"",""0"",""5920""
","
","
","""event"",""trial"",""time""
""fullscreenenter"",""0"",""5920""
","
","null","<p></p>","null","","","","","","","",""
"","image","255","431503","0.0-231.0-0.0","""event"",""trial"",""time""
""fullscreenenter"",""0"",""5920""
","
","
","""event"",""trial"",""time""
""fullscreenenter"",""0"",""5920""
","
","1112.7999999999302","run_exp/static/images/Set 6_rs/035a.jpg","66","","","","","","test","TF","4"
"","show_choice","256","432004","0.0-231.0-1.0","""event"",""trial"",""time""
""fullscreenenter"",""0"",""5920""
","
","
","""event"",""trial"",""time""
""fullscreenenter"",""0"",""5920""
","
","null","run_exp/static/images/Set 6_rs/035a.jpg","null","","","","","","test","TF",""
"","html-keyboard-response","257","432507","0.0-231.0-2.0","""event"",""trial"",""time""
""fullscreenenter"",""0"",""5920""
","
","
","""event"",""trial"",""time""
""fullscreenenter"",""0"",""5920""
","
","null","<p></p>","null","","","","","","","",""
"","image","258","433448","0.0-232.0-0.0","""event"",""trial"",""time""
""fullscreenenter"",""0"",""5920""
","
","
","""event"",""trial"",""time""
""fullscreenenter"",""0"",""5920""
","
","939.8000000000466","run_exp/static/images/Set 6_rs/176a.jpg","66","","","","","","test","TF","4"
"","show_choice","259","433949","0.0-232.0-1.0","""event"",""trial"",""time""
""fullscreenenter"",""0"",""5920""
","
","
","""event"",""trial"",""time""
""fullscreenenter"",""0"",""5920""
","
","null","run_exp/static/images/Set 6_rs/176a.jpg","null","","","","","","test","TF",""
"","html-keyboard-response","260","434450","0.0-232.0-2.0","""event"",""trial"",""time""
""fullscreenenter"",""0"",""5920""
","
","
","""event"",""trial"",""time""
""fullscreenenter"",""0"",""5920""
","
","null","<p></p>","null","","","","","","","",""
"","image","261","435295","0.0-233.0-0.0","""event"",""trial"",""time""
""fullscreenenter"",""0"",""5920""
","
","
","""event"",""trial"",""time""
""fullscreenenter"",""0"",""5920""
","
","844.0999999999767","run_exp/static/images/Set 6_rs/017b.jpg","66","","","","","","test","TL","3"
"","show_choice","262","435796","0.0-233.0-1.0","""event"",""trial"",""time""
""fullscreenenter"",""0"",""5920""
","
","
","""event"",""trial"",""time""
""fullscreenenter"",""0"",""5920""
","
","null","run_exp/static/images/Set 6_rs/017b.jpg","null","","","","","","test","TL",""
"","html-keyboard-response","263","436299","0.0-233.0-2.0","""event"",""trial"",""time""
""fullscreenenter"",""0"",""5920""
","
","
","""event"",""trial"",""time""
""fullscreenenter"",""0"",""5920""
","
","null","<p></p>","null","","","","","","","",""
"","image","264","437304","0.0-234.0-0.0","""event"",""trial"",""time""
""fullscreenenter"",""0"",""5920""
","
","
","""event"",""trial"",""time""
""fullscreenenter"",""0"",""5920""
","
","1003.3000000000466","run_exp/static/images/Set 6_rs/111b.jpg","66","","","","","","test","TL","3"
"","show_choice","265","437809","0.0-234.0-1.0","""event"",""trial"",""time""
""fullscreenenter"",""0"",""5920""
","
","
","""event"",""trial"",""time""
""fullscreenenter"",""0"",""5920""
","
","null","run_exp/static/images/Set 6_rs/111b.jpg","null","","","","","","test","TL",""
"","html-keyboard-response","266","438310","0.0-234.0-2.0","""event"",""trial"",""time""
""fullscreenenter"",""0"",""5920""
","
","
","""event"",""trial"",""time""
""fullscreenenter"",""0"",""5920""
","
","null","<p></p>","null","","","","","","","",""
"","image","267","439079","0.0-235.0-0.0","""event"",""trial"",""time""
""fullscreenenter"",""0"",""5920""
","
","
","""event"",""trial"",""time""
""fullscreenenter"",""0"",""5920""
","
","768.1999999999534","run_exp/static/images/Set 6_rs/150a.jpg","86","","","","","","test","TR","1"
"","show_choice","268","439580","0.0-235.0-1.0","""event"",""trial"",""time""
""fullscreenenter"",""0"",""5920""
","
","
","""event"",""trial"",""time""
""fullscreenenter"",""0"",""5920""
","
","null","run_exp/static/images/Set 6_rs/150a.jpg","null","","","","","","test","TR",""
"","html-keyboard-response","269","440084","0.0-235.0-2.0","""event"",""trial"",""time""
""fullscreenenter"",""0"",""5920""
","
","
","""event"",""trial"",""time""
""fullscreenenter"",""0"",""5920""
","
","null","<p></p>","null","","","","","","","",""
"","image","270","440911","0.0-236.0-0.0","""event"",""trial"",""time""
""fullscreenenter"",""0"",""5920""
","
","
","""event"",""trial"",""time""
""fullscreenenter"",""0"",""5920""
","
","826.6999999999534","run_exp/static/images/Set 6_rs/070a.jpg","86","","","","","","test","TR","2"
"","show_choice","271","441416","0.0-236.0-1.0","""event"",""trial"",""time""
""fullscreenenter"",""0"",""5920""
","
","
","""event"",""trial"",""time""
""fullscreenenter"",""0"",""5920""
","
","null","run_exp/static/images/Set 6_rs/070a.jpg","null","","","","","","test","TR",""
"","html-keyboard-response","272","441917","0.0-236.0-2.0","""event"",""trial"",""time""
""fullscreenenter"",""0"",""5920""
","
","
","""event"",""trial"",""time""
""fullscreenenter"",""0"",""5920""
","
","null","<p></p>","null","","","","","","","",""
"","image","273","442711","0.0-237.0-0.0","""event"",""trial"",""time""
""fullscreenenter"",""0"",""5920""
","
","
","""event"",""trial"",""time""
""fullscreenenter"",""0"",""5920""
","
","793.0999999999767","run_exp/static/images/Set 6_rs/140a.jpg","66","","","","","","test","TF","1"
"","show_choice","274","443216","0.0-237.0-1.0","""event"",""trial"",""time""
""fullscreenenter"",""0"",""5920""
","
","
","""event"",""trial"",""time""
""fullscreenenter"",""0"",""5920""
","
","null","run_exp/static/images/Set 6_rs/140a.jpg","null","","","","","","test","TF",""
"","html-keyboard-response","275","443718","0.0-237.0-2.0","""event"",""trial"",""time""
""fullscreenenter"",""0"",""5920""
","
","
","""event"",""trial"",""time""
""fullscreenenter"",""0"",""5920""
","
","null","<p></p>","null","","","","","","","",""
"","image","276","444944","0.0-238.0-0.0","""event"",""trial"",""time""
""fullscreenenter"",""0"",""5920""
","
","
","""event"",""trial"",""time""
""fullscreenenter"",""0"",""5920""
","
","1225.4000000000233","run_exp/static/images/Set 6_rs/057b.jpg","86","","","","","","test","TL","1"
"","show_choice","277","445445","0.0-238.0-1.0","""event"",""trial"",""time""
""fullscreenenter"",""0"",""5920""
","
","
","""event"",""trial"",""time""
""fullscreenenter"",""0"",""5920""
","
","null","run_exp/static/images/Set 6_rs/057b.jpg","null","","","","","","test","TL",""
"","html-keyboard-response","278","445947","0.0-238.0-2.0","""event"",""trial"",""time""
""fullscreenenter"",""0"",""5920""
","
","
","""event"",""trial"",""time""
""fullscreenenter"",""0"",""5920""
","
","null","<p></p>","null","","","","","","","",""
"","image","279","446711","0.0-239.0-0.0","""event"",""trial"",""time""
""fullscreenenter"",""0"",""5920""
","
","
","""event"",""trial"",""time""
""fullscreenenter"",""0"",""5920""
","
","763.2000000000698","run_exp/static/images/Set 6_rs/187a.jpg","86","","","","","","test","TR","3"
"","show_choice","280","447216","0.0-239.0-1.0","""event"",""trial"",""time""
""fullscreenenter"",""0"",""5920""
","
","
","""event"",""trial"",""time""
""fullscreenenter"",""0"",""5920""
","
","null","run_exp/static/images/Set 6_rs/187a.jpg","null","","","","","","test","TR",""
"","html-keyboard-response","281","447717","0.0-239.0-2.0","""event"",""trial"",""time""
""fullscreenenter"",""0"",""5920""
","
","
","""event"",""trial"",""time""
""fullscreenenter"",""0"",""5920""
","
","null","<p></p>","null","","","","","","","",""
"","image","282","448407","0.0-240.0-0.0","""event"",""trial"",""time""
""fullscreenenter"",""0"",""5920""
","
","
","""event"",""trial"",""time""
""fullscreenenter"",""0"",""5920""
","
","688.8999999999069","run_exp/static/images/Set 6_rs/047a.jpg","66","","","","","","test","TF","3"
"","show_choice","283","448911","0.0-240.0-1.0","""event"",""trial"",""time""
""fullscreenenter"",""0"",""5920""
","
","
","""event"",""trial"",""time""
""fullscreenenter"",""0"",""5920""
","
","null","run_exp/static/images/Set 6_rs/047a.jpg","null","","","","","","test","TF",""
"","html-keyboard-response","284","449412","0.0-240.0-2.0","""event"",""trial"",""time""
""fullscreenenter"",""0"",""5920""
","
","
","""event"",""trial"",""time""
""fullscreenenter"",""0"",""5920""
","
","null","<p></p>","null","","","","","","","",""
"","image","285","450175","0.0-241.0-0.0","""event"",""trial"",""time""
""fullscreenenter"",""0"",""5920""
","
","
","""event"",""trial"",""time""
""fullscreenenter"",""0"",""5920""
","
","762.1000000000931","run_exp/static/images/Set 6_rs/168b.jpg","66","","","","","","test","TL","3"
"","show_choice","286","450677","0.0-241.0-1.0","""event"",""trial"",""time""
""fullscreenenter"",""0"",""5920""
","
","
","""event"",""trial"",""time""
""fullscreenenter"",""0"",""5920""
","
","null","run_exp/static/images/Set 6_rs/168b.jpg","null","","","","","","test","TL",""
"","html-keyboard-response","287","451177","0.0-241.0-2.0","""event"",""trial"",""time""
""fullscreenenter"",""0"",""5920""
","
","
","""event"",""trial"",""time""
""fullscreenenter"",""0"",""5920""
","
","null","<p></p>","null","","","","","","","",""
"","image","288","451975","0.0-242.0-0.0","""event"",""trial"",""time""
""fullscreenenter"",""0"",""5920""
","
","
","""event"",""trial"",""time""
""fullscreenenter"",""0"",""5920""
","
","797.3000000000466","run_exp/static/images/Set 6_rs/008b.jpg","66","","","","","","test","TL","2"
"","show_choice","289","452478","0.0-242.0-1.0","""event"",""trial"",""time""
""fullscreenenter"",""0"",""5920""
","
","
","""event"",""trial"",""time""
""fullscreenenter"",""0"",""5920""
","
","null","run_exp/static/images/Set 6_rs/008b.jpg","null","","","","","","test","TL",""
"","html-keyboard-response","290","452979","0.0-242.0-2.0","""event"",""trial"",""time""
""fullscreenenter"",""0"",""5920""
","
","
","""event"",""trial"",""time""
""fullscreenenter"",""0"",""5920""
","
","null","<p></p>","null","","","","","","","",""
"","image","291","454127","0.0-243.0-0.0","""event"",""trial"",""time""
""fullscreenenter"",""0"",""5920""
","
","
","""event"",""trial"",""time""
""fullscreenenter"",""0"",""5920""
","
","1147.5","run_exp/static/images/Set 6_rs/074b.jpg","66","","","","","","test","TL","4"
"","show_choice","292","454632","0.0-243.0-1.0","""event"",""trial"",""time""
""fullscreenenter"",""0"",""5920""
","
","
","""event"",""trial"",""time""
""fullscreenenter"",""0"",""5920""
","
","null","run_exp/static/images/Set 6_rs/074b.jpg","null","","","","","","test","TL",""
"","html-keyboard-response","293","455133","0.0-243.0-2.0","""event"",""trial"",""time""
""fullscreenenter"",""0"",""5920""
","
","
","""event"",""trial"",""time""
""fullscreenenter"",""0"",""5920""
","
","null","<p></p>","null","","","","","","","",""
"","image","294","456096","0.0-244.0-0.0","""event"",""trial"",""time""
""fullscreenenter"",""0"",""5920""
","
","
","""event"",""trial"",""time""
""fullscreenenter"",""0"",""5920""
","
","961.3999999999069","run_exp/static/images/Set 6_rs/073b.jpg","86","","","","","","test","TL","3"
"","show_choice","295","456601","0.0-244.0-1.0","""event"",""trial"",""time""
""fullscreenenter"",""0"",""5920""
","
","
","""event"",""trial"",""time""
""fullscreenenter"",""0"",""5920""
","
","null","run_exp/static/images/Set 6_rs/073b.jpg","null","","","","","","test","TL",""
"","html-keyboard-response","296","457103","0.0-244.0-2.0","""event"",""trial"",""time""
""fullscreenenter"",""0"",""5920""
","
","
","""event"",""trial"",""time""
""fullscreenenter"",""0"",""5920""
","
","null","<p></p>","null","","","","","","","",""
"","image","297","457775","0.0-245.0-0.0","""event"",""trial"",""time""
""fullscreenenter"",""0"",""5920""
","
","
","""event"",""trial"",""time""
""fullscreenenter"",""0"",""5920""
","
","671.8000000000466","run_exp/static/images/Set 6_rs/136a.jpg","66","","","","","","test","TF","4"
"","show_choice","298","458280","0.0-245.0-1.0","""event"",""trial"",""time""
""fullscreenenter"",""0"",""5920""
","
","
","""event"",""trial"",""time""
""fullscreenenter"",""0"",""5920""
","
","null","run_exp/static/images/Set 6_rs/136a.jpg","null","","","","","","test","TF",""
"","html-keyboard-response","299","458782","0.0-245.0-2.0","""event"",""trial"",""time""
""fullscreenenter"",""0"",""5920""
","
","
","""event"",""trial"",""time""
""fullscreenenter"",""0"",""5920""
","
","null","<p></p>","null","","","","","","","",""
"","image","300","460071","0.0-246.0-0.0","""event"",""trial"",""time""
""fullscreenenter"",""0"",""5920""
","
","
","""event"",""trial"",""time""
""fullscreenenter"",""0"",""5920""
","
","1288.8000000000466","run_exp/static/images/Set 6_rs/171a.jpg","78","","","","","","test","TF","1"
"","show_choice","301","460574","0.0-246.0-1.0","""event"",""trial"",""time""
""fullscreenenter"",""0"",""5920""
","
","
","""event"",""trial"",""time""
""fullscreenenter"",""0"",""5920""
","
","null","run_exp/static/images/Set 6_rs/171a.jpg","null","","","","","","test","TF",""
"","html-keyboard-response","302","461076","0.0-246.0-2.0","""event"",""trial"",""time""
""fullscreenenter"",""0"",""5920""
","
","
","""event"",""trial"",""time""
""fullscreenenter"",""0"",""5920""
","
","null","<p></p>","null","","","","","","","",""
"","image","303","462103","0.0-247.0-0.0","""event"",""trial"",""time""
""fullscreenenter"",""0"",""5920""
","
","
","""event"",""trial"",""time""
""fullscreenenter"",""0"",""5920""
","
","1026.1000000000931","run_exp/static/images/Set 6_rs/116b.jpg","66","","","","","","test","TL","2"
"","show_choice","304","462605","0.0-247.0-1.0","""event"",""trial"",""time""
""fullscreenenter"",""0"",""5920""
","
","
","""event"",""trial"",""time""
""fullscreenenter"",""0"",""5920""
","
","null","run_exp/static/images/Set 6_rs/116b.jpg","null","","","","","","test","TL",""
"","html-keyboard-response","305","463106","0.0-247.0-2.0","""event"",""trial"",""time""
""fullscreenenter"",""0"",""5920""
","
","
","""event"",""trial"",""time""
""fullscreenenter"",""0"",""5920""
","
","null","<p></p>","null","","","","","","","",""
"","image","306","463983","0.0-248.0-0.0","""event"",""trial"",""time""
""fullscreenenter"",""0"",""5920""
","
","
","""event"",""trial"",""time""
""fullscreenenter"",""0"",""5920""
","
","876.5","run_exp/static/images/Set 6_rs/010a.jpg","86","","","","","","test","TR","5"
"","show_choice","307","464488","0.0-248.0-1.0","""event"",""trial"",""time""
""fullscreenenter"",""0"",""5920""
","
","
","""event"",""trial"",""time""
""fullscreenenter"",""0"",""5920""
","
","null","run_exp/static/images/Set 6_rs/010a.jpg","null","","","","","","test","TR",""
"","html-keyboard-response","308","464990","0.0-248.0-2.0","""event"",""trial"",""time""
""fullscreenenter"",""0"",""5920""
","
","
","""event"",""trial"",""time""
""fullscreenenter"",""0"",""5920""
","
","null","<p></p>","null","","","","","","","",""
"","image","309","466023","0.0-249.0-0.0","""event"",""trial"",""time""
""fullscreenenter"",""0"",""5920""
","
","
","""event"",""trial"",""time""
""fullscreenenter"",""0"",""5920""
","
","1032.1000000000931","run_exp/static/images/Set 6_rs/118a.jpg","66","","","","","","test","TF","5"
"","show_choice","310","466527","0.0-249.0-1.0","""event"",""trial"",""time""
""fullscreenenter"",""0"",""5920""
","
","
","""event"",""trial"",""time""
""fullscreenenter"",""0"",""5920""
","
","null","run_exp/static/images/Set 6_rs/118a.jpg","null","","","","","","test","TF",""
"","html-keyboard-response","311","467028","0.0-249.0-2.0","""event"",""trial"",""time""
""fullscreenenter"",""0"",""5920""
","
","
","""event"",""trial"",""time""
""fullscreenenter"",""0"",""5920""
","
","null","<p></p>","null","","","","","","","",""
"","image","312","468440","0.0-250.0-0.0","""event"",""trial"",""time""
""fullscreenenter"",""0"",""5920""
","
","
","""event"",""trial"",""time""
""fullscreenenter"",""0"",""5920""
","
","1410.6999999999534","run_exp/static/images/Set 6_rs/097a.jpg","78","","","","","","test","TF","5"
"","show_choice","313","468945","0.0-250.0-1.0","""event"",""trial"",""time""
""fullscreenenter"",""0"",""5920""
","
","
","""event"",""trial"",""time""
""fullscreenenter"",""0"",""5920""
","
","null","run_exp/static/images/Set 6_rs/097a.jpg","null","","","","","","test","TF",""
"","html-keyboard-response","314","469446","0.0-250.0-2.0","""event"",""trial"",""time""
""fullscreenenter"",""0"",""5920""
","
","
","""event"",""trial"",""time""
""fullscreenenter"",""0"",""5920""
","
","null","<p></p>","null","","","","","","","",""
"","image","315","470399","0.0-251.0-0.0","""event"",""trial"",""time""
""fullscreenenter"",""0"",""5920""
","
","
","""event"",""trial"",""time""
""fullscreenenter"",""0"",""5920""
","
","951.9000000000233","run_exp/static/images/Set 6_rs/048a.jpg","66","","","","","","test","TF","4"
"","show_choice","316","470904","0.0-251.0-1.0","""event"",""trial"",""time""
""fullscreenenter"",""0"",""5920""
","
","
","""event"",""trial"",""time""
""fullscreenenter"",""0"",""5920""
","
","null","run_exp/static/images/Set 6_rs/048a.jpg","null","","","","","","test","TF",""
"","html-keyboard-response","317","471405","0.0-251.0-2.0","""event"",""trial"",""time""
""fullscreenenter"",""0"",""5920""
","
","
","""event"",""trial"",""time""
""fullscreenenter"",""0"",""5920""
","
","null","<p></p>","null","","","","","","","",""
"","image","318","472152","0.0-252.0-0.0","""event"",""trial"",""time""
""fullscreenenter"",""0"",""5920""
","
","
","""event"",""trial"",""time""
""fullscreenenter"",""0"",""5920""
","
","745.1999999999534","run_exp/static/images/Set 6_rs/050b.jpg","86","","","","","","test","TL","3"
"","show_choice","319","472657","0.0-252.0-1.0","""event"",""trial"",""time""
""fullscreenenter"",""0"",""5920""
","
","
","""event"",""trial"",""time""
""fullscreenenter"",""0"",""5920""
","
","null","run_exp/static/images/Set 6_rs/050b.jpg","null","","","","","","test","TL",""
"","html-keyboard-response","320","473158","0.0-252.0-2.0","""event"",""trial"",""time""
""fullscreenenter"",""0"",""5920""
","
","
","""event"",""trial"",""time""
""fullscreenenter"",""0"",""5920""
","
","null","<p></p>","null","","","","","","","",""
"","image","321","474055","0.0-253.0-0.0","""event"",""trial"",""time""
""fullscreenenter"",""0"",""5920""
","
","
","""event"",""trial"",""time""
""fullscreenenter"",""0"",""5920""
","
","896","run_exp/static/images/Set 6_rs/001a.jpg","66","","","","","","test","TF","1"
"","show_choice","322","474560","0.0-253.0-1.0","""event"",""trial"",""time""
""fullscreenenter"",""0"",""5920""
","
","
","""event"",""trial"",""time""
""fullscreenenter"",""0"",""5920""
","
","null","run_exp/static/images/Set 6_rs/001a.jpg","null","","","","","","test","TF",""
"","html-keyboard-response","323","475062","0.0-253.0-2.0","""event"",""trial"",""time""
""fullscreenenter"",""0"",""5920""
","
","
","""event"",""trial"",""time""
""fullscreenenter"",""0"",""5920""
","
","null","<p></p>","null","","","","","","","",""
"","image","324","475856","0.0-254.0-0.0","""event"",""trial"",""time""
""fullscreenenter"",""0"",""5920""
","
","
","""event"",""trial"",""time""
""fullscreenenter"",""0"",""5920""
","
","792.8000000000466","run_exp/static/images/Set 6_rs/144b.jpg","86","","","","","","test","TL","4"
"","show_choice","325","476361","0.0-254.0-1.0","""event"",""trial"",""time""
""fullscreenenter"",""0"",""5920""
","
","
","""event"",""trial"",""time""
""fullscreenenter"",""0"",""5920""
","
","null","run_exp/static/images/Set 6_rs/144b.jpg","null","","","","","","test","TL",""
"","html-keyboard-response","326","476862","0.0-254.0-2.0","""event"",""trial"",""time""
""fullscreenenter"",""0"",""5920""
","
","
","""event"",""trial"",""time""
""fullscreenenter"",""0"",""5920""
","
","null","<p></p>","null","","","","","","","",""
"","image","327","477711","0.0-255.0-0.0","""event"",""trial"",""time""
""fullscreenenter"",""0"",""5920""
","
","
","""event"",""trial"",""time""
""fullscreenenter"",""0"",""5920""
","
","848.8000000000466","run_exp/static/images/Set 6_rs/005a.jpg","66","","","","","","test","TF","5"
"","show_choice","328","478216","0.0-255.0-1.0","""event"",""trial"",""time""
""fullscreenenter"",""0"",""5920""
","
","
","""event"",""trial"",""time""
""fullscreenenter"",""0"",""5920""
","
","null","run_exp/static/images/Set 6_rs/005a.jpg","null","","","","","","test","TF",""
"","html-keyboard-response","329","478718","0.0-255.0-2.0","""event"",""trial"",""time""
""fullscreenenter"",""0"",""5920""
","
","
","""event"",""trial"",""time""
""fullscreenenter"",""0"",""5920""
","
","null","<p></p>","null","","","","","","","",""
"","image","330","480040","0.0-256.0-0.0","""event"",""trial"",""time""
""fullscreenenter"",""0"",""5920""
","
","
","""event"",""trial"",""time""
""fullscreenenter"",""0"",""5920""
","
","1320.8000000000466","run_exp/static/images/Set 6_rs/167b.jpg","66","","","","","","test","TL","2"
"","show_choice","331","480541","0.0-256.0-1.0","""event"",""trial"",""time""
""fullscreenenter"",""0"",""5920""
","
","
","""event"",""trial"",""time""
""fullscreenenter"",""0"",""5920""
","
","null","run_exp/static/images/Set 6_rs/167b.jpg","null","","","","","","test","TL",""
"","html-keyboard-response","332","481042","0.0-256.0-2.0","""event"",""trial"",""time""
""fullscreenenter"",""0"",""5920""
","
","
","""event"",""trial"",""time""
""fullscreenenter"",""0"",""5920""
","
","null","<p></p>","null","","","","","","","",""
"","image","333","481967","0.0-257.0-0.0","""event"",""trial"",""time""
""fullscreenenter"",""0"",""5920""
","
","
","""event"",""trial"",""time""
""fullscreenenter"",""0"",""5920""
","
","924.6000000000931","run_exp/static/images/Set 6_rs/021a.jpg","66","","","","","","test","TF","2"
"","show_choice","334","482472","0.0-257.0-1.0","""event"",""trial"",""time""
""fullscreenenter"",""0"",""5920""
","
","
","""event"",""trial"",""time""
""fullscreenenter"",""0"",""5920""
","
","null","run_exp/static/images/Set 6_rs/021a.jpg","null","","","","","","test","TF",""
"","html-keyboard-response","335","482974","0.0-257.0-2.0","""event"",""trial"",""time""
""fullscreenenter"",""0"",""5920""
","
","
","""event"",""trial"",""time""
""fullscreenenter"",""0"",""5920""
","
","null","<p></p>","null","","","","","","","",""
"","image","336","483815","0.0-258.0-0.0","""event"",""trial"",""time""
""fullscreenenter"",""0"",""5920""
","
","
","""event"",""trial"",""time""
""fullscreenenter"",""0"",""5920""
","
","839.9000000000233","run_exp/static/images/Set 6_rs/131a.jpg","86","","","","","","test","TR","5"
"","show_choice","337","484318","0.0-258.0-1.0","""event"",""trial"",""time""
""fullscreenenter"",""0"",""5920""
","
","
","""event"",""trial"",""time""
""fullscreenenter"",""0"",""5920""
","
","null","run_exp/static/images/Set 6_rs/131a.jpg","null","","","","","","test","TR",""
"","html-keyboard-response","338","484819","0.0-258.0-2.0","""event"",""trial"",""time""
""fullscreenenter"",""0"",""5920""
","
","
","""event"",""trial"",""time""
""fullscreenenter"",""0"",""5920""
","
","null","<p></p>","null","","","","","","","",""
"","image","339","485839","0.0-259.0-0.0","""event"",""trial"",""time""
""fullscreenenter"",""0"",""5920""
","
","
","""event"",""trial"",""time""
""fullscreenenter"",""0"",""5920""
","
","1019","run_exp/static/images/Set 6_rs/007a.jpg","86","","","","","","test","TR","3"
"","show_choice","340","486344","0.0-259.0-1.0","""event"",""trial"",""time""
""fullscreenenter"",""0"",""5920""
","
","
","""event"",""trial"",""time""
""fullscreenenter"",""0"",""5920""
","
","null","run_exp/static/images/Set 6_rs/007a.jpg","null","","","","","","test","TR",""
