"success","trial_type","trial_index","time_elapsed","internal_node_id","interactions","blur_events","focus_events","fullscreenenter_events","fullscreenexit_events","rt","stimulus","key_press","subject_id","participant_id","age","gender","prompt","phase","condition","lure_bin"
"true","fullscreen","0","84477","0.0-0.0","""event"",""trial"",""time""
""fullscreenenter"",""0"",""83483""
","
","
","""event"",""trial"",""time""
""fullscreenenter"",""0"",""83483""
","
","","","","","","","","","","",""
"","pavlovia","1","84486","0.0-1.0","""event"",""trial"",""time""
""fullscreenenter"",""0"",""83483""
","
","
","""event"",""trial"",""time""
""fullscreenenter"",""0"",""83483""
","
","","","","","","","","","","",""
"","welcome","2","119297","0.0-2.0","""event"",""trial"",""time""
""fullscreenenter"",""0"",""83483""
","
","
","""event"",""trial"",""time""
""fullscreenenter"",""0"",""83483""
","
","null","run_exp/static/audio/clip_1_welcome.m4a","null","535","233","17","Female","<div class='center'><p>Welcome to the third part of the study! First, you'll be shown pictures of items one at a time. For each picture, you have to decide if the item is typically found indoors or outdoors.</p><p>If you think it's usually found indoors, then press <b>v</b> key on your keyboard. If you think it's usually found outdoors, then press the <b>n</b> key.There will be reminders on the screen to help you remember which keys to press. </p><p>If you're not sure whether the item is an indoor item or an outdoor item, go ahead and take a guess but try your best not to skip that choice. </p></div>","","",""
"","html-keyboard-response","3","119330","0.0-3.0","""event"",""trial"",""time""
""fullscreenenter"",""0"",""83483""
","
","
","""event"",""trial"",""time""
""fullscreenenter"",""0"",""83483""
","
","28.09999999962747","<div class='center'><p>Welcome to the third part of the study! First, you'll be shown pictures of items one at a time. For each picture, you have to decide if the item is typically found indoors or outdoors.</p><p>If you think it's usually found indoors, then press <b>v</b> key on your keyboard. If you think it's usually found outdoors, then press the <b>n</b> key.There will be reminders on the screen to help you remember which keys to press. </p><p>If you're not sure whether the item is an indoor item or an outdoor item, go ahead and take a guess but try your best not to skip that choice. </p><div><p><b>[Press the space bar to continue]</b></p></div>","32","","","","","","","",""
"","image","4","121337","0.0-4.0","""event"",""trial"",""time""
""fullscreenenter"",""0"",""83483""
","
","
","""event"",""trial"",""time""
""fullscreenenter"",""0"",""83483""
","
","null","run_exp/static/images/Set 6_rs/045a.jpg","null","","","","","","learn","SR",""
"","show_choice","5","123345","0.0-5.0","""event"",""trial"",""time""
""fullscreenenter"",""0"",""83483""
","
","
","""event"",""trial"",""time""
""fullscreenenter"",""0"",""83483""
","
","null","run_exp/static/images/blank.png","null","","","","","","learn","SR",""
"","html-keyboard-response","6","123851","0.0-6.0","""event"",""trial"",""time""
""fullscreenenter"",""0"",""83483""
","
","
","""event"",""trial"",""time""
""fullscreenenter"",""0"",""83483""
","
","null","<p></p>","null","","","","","","","",""
"","image","7","124545","0.0-7.0","""event"",""trial"",""time""
""fullscreenenter"",""0"",""83483""
","
","
","""event"",""trial"",""time""
""fullscreenenter"",""0"",""83483""
","
","691.4000000003725","run_exp/static/images/Set 6_rs/007a.jpg","86","","","","","","learn","SR",""
"","show_choice","8","125856","0.0-8.0","""event"",""trial"",""time""
""fullscreenenter"",""0"",""83483""
","
","
","""event"",""trial"",""time""
""fullscreenenter"",""0"",""83483""
","
","null","run_exp/static/images/Set 6_rs/007a.jpg","null","","","","","","learn","SR",""
"","html-keyboard-response","9","126362","0.0-9.0","""event"",""trial"",""time""
""fullscreenenter"",""0"",""83483""
","
","
","""event"",""trial"",""time""
""fullscreenenter"",""0"",""83483""
","
","null","<p></p>","null","","","","","","","",""
"","image","10","127263","0.0-10.0","""event"",""trial"",""time""
""fullscreenenter"",""0"",""83483""
","
","
","""event"",""trial"",""time""
""fullscreenenter"",""0"",""83483""
","
","897.1999999992549","run_exp/static/images/Set 6_rs/108a.jpg","78","","","","","","learn","SR",""
"","show_choice","11","128368","0.0-11.0","""event"",""trial"",""time""
""fullscreenenter"",""0"",""83483""
","
","
","""event"",""trial"",""time""
""fullscreenenter"",""0"",""83483""
","
","null","run_exp/static/images/Set 6_rs/108a.jpg","null","","","","","","learn","SR",""
"","html-keyboard-response","12","128872","0.0-12.0","""event"",""trial"",""time""
""fullscreenenter"",""0"",""83483""
","
","
","""event"",""trial"",""time""
""fullscreenenter"",""0"",""83483""
","
","null","<p></p>","null","","","","","","","",""
"","image","13","129627","0.0-13.0","""event"",""trial"",""time""
""fullscreenenter"",""0"",""83483""
","
","
","""event"",""trial"",""time""
""fullscreenenter"",""0"",""83483""
","
","751.5999999996275","run_exp/static/images/Set 6_rs/012a.jpg","86","","","","","","learn","SR",""
"","show_choice","14","130877","0.0-14.0","""event"",""trial"",""time""
""fullscreenenter"",""0"",""83483""
","
","
","""event"",""trial"",""time""
""fullscreenenter"",""0"",""83483""
","
","null","run_exp/static/images/Set 6_rs/012a.jpg","null","","","","","","learn","SR",""
"","html-keyboard-response","15","131380","0.0-15.0","""event"",""trial"",""time""
""fullscreenenter"",""0"",""83483""
","
","
","""event"",""trial"",""time""
""fullscreenenter"",""0"",""83483""
","
","null","<p></p>","null","","","","","","","",""
"","image","16","132810","0.0-16.0","""event"",""trial"",""time""
""fullscreenenter"",""0"",""83483""
","
","
","""event"",""trial"",""time""
""fullscreenenter"",""0"",""83483""
","
","1427.7999999988824","run_exp/static/images/Set 6_rs/008a.jpg","86","","","","","","learn","SL",""
"","show_choice","17","133383","0.0-17.0","""event"",""trial"",""time""
""fullscreenenter"",""0"",""83483""
","
","
","""event"",""trial"",""time""
""fullscreenenter"",""0"",""83483""
","
","null","run_exp/static/images/Set 6_rs/008a.jpg","null","","","","","","learn","SL",""
"","html-keyboard-response","18","133888","0.0-18.0","""event"",""trial"",""time""
""fullscreenenter"",""0"",""83483""
","
","
","""event"",""trial"",""time""
""fullscreenenter"",""0"",""83483""
","
","null","<p></p>","null","","","","","","","",""
"","image","19","134679","0.0-19.0","""event"",""trial"",""time""
""fullscreenenter"",""0"",""83483""
","
","
","""event"",""trial"",""time""
""fullscreenenter"",""0"",""83483""
","
","788.2000000011176","run_exp/static/images/Set 6_rs/014a.jpg","86","","","","","","learn","SL",""
"","show_choice","20","135894","0.0-20.0","""event"",""trial"",""time""
""fullscreenenter"",""0"",""83483""
","
","
","""event"",""trial"",""time""
""fullscreenenter"",""0"",""83483""
","
","null","run_exp/static/images/Set 6_rs/014a.jpg","null","","","","","","learn","SL",""
"","html-keyboard-response","21","136396","0.0-21.0","""event"",""trial"",""time""
""fullscreenenter"",""0"",""83483""
","
","
","""event"",""trial"",""time""
""fullscreenenter"",""0"",""83483""
","
","null","<p></p>","null","","","","","","","",""
"","image","22","137493","0.0-22.0","""event"",""trial"",""time""
""fullscreenenter"",""0"",""83483""
","
","
","""event"",""trial"",""time""
""fullscreenenter"",""0"",""83483""
","
","1095","run_exp/static/images/Set 6_rs/061a.jpg","78","","","","","","learn","SR",""
"","show_choice","23","138401","0.0-23.0","""event"",""trial"",""time""
""fullscreenenter"",""0"",""83483""
","
","
","""event"",""trial"",""time""
""fullscreenenter"",""0"",""83483""
","
","null","run_exp/static/images/Set 6_rs/061a.jpg","null","","","","","","learn","SR",""
"","html-keyboard-response","24","138905","0.0-24.0","""event"",""trial"",""time""
""fullscreenenter"",""0"",""83483""
","
","
","""event"",""trial"",""time""
""fullscreenenter"",""0"",""83483""
","
","null","<p></p>","null","","","","","","","",""
"","image","25","140030","0.0-25.0","""event"",""trial"",""time""
""fullscreenenter"",""0"",""83483""
","
","
","""event"",""trial"",""time""
""fullscreenenter"",""0"",""83483""
","
","1122.7000000011176","run_exp/static/images/Set 6_rs/075a.jpg","86","","","","","","learn","SR",""
"","show_choice","26","140911","0.0-26.0","""event"",""trial"",""time""
""fullscreenenter"",""0"",""83483""
","
","
","""event"",""trial"",""time""
""fullscreenenter"",""0"",""83483""
","
","null","run_exp/static/images/Set 6_rs/075a.jpg","null","","","","","","learn","SR",""
"","html-keyboard-response","27","141417","0.0-27.0","""event"",""trial"",""time""
""fullscreenenter"",""0"",""83483""
","
","
","""event"",""trial"",""time""
""fullscreenenter"",""0"",""83483""
","
","null","<p></p>","null","","","","","","","",""
"","image","28","142394","0.0-28.0","""event"",""trial"",""time""
""fullscreenenter"",""0"",""83483""
","
","
","""event"",""trial"",""time""
""fullscreenenter"",""0"",""83483""
","
","974.9000000003725","run_exp/static/images/Set 6_rs/062a.jpg","86","","","","","","learn","SL",""
"","show_choice","29","143422","0.0-29.0","""event"",""trial"",""time""
""fullscreenenter"",""0"",""83483""
","
","
","""event"",""trial"",""time""
""fullscreenenter"",""0"",""83483""
","
","null","run_exp/static/images/Set 6_rs/062a.jpg","null","","","","","","learn","SL",""
"","html-keyboard-response","30","143924","0.0-30.0","""event"",""trial"",""time""
""fullscreenenter"",""0"",""83483""
","
","
","""event"",""trial"",""time""
""fullscreenenter"",""0"",""83483""
","
","null","<p></p>","null","","","","","","","",""
"","image","31","145175","0.0-31.0","""event"",""trial"",""time""
""fullscreenenter"",""0"",""83483""
","
","
","""event"",""trial"",""time""
""fullscreenenter"",""0"",""83483""
","
","1247.9000000003725","run_exp/static/images/Set 6_rs/063a.jpg","86","","","","","","learn","SR",""
"","show_choice","32","145932","0.0-32.0","""event"",""trial"",""time""
""fullscreenenter"",""0"",""83483""
","
","
","""event"",""trial"",""time""
""fullscreenenter"",""0"",""83483""
","
","null","run_exp/static/images/Set 6_rs/063a.jpg","null","","","","","","learn","SR",""
"","html-keyboard-response","33","146438","0.0-33.0","""event"",""trial"",""time""
""fullscreenenter"",""0"",""83483""
","
","
","""event"",""trial"",""time""
""fullscreenenter"",""0"",""83483""
","
","null","<p></p>","null","","","","","","","",""
"","image","34","147390","0.0-34.0","""event"",""trial"",""time""
""fullscreenenter"",""0"",""83483""
","
","
","""event"",""trial"",""time""
""fullscreenenter"",""0"",""83483""
","
","949.1000000014901","run_exp/static/images/Set 6_rs/129a.jpg","86","","","","","","learn","SL",""
"","show_choice","35","148447","0.0-35.0","""event"",""trial"",""time""
""fullscreenenter"",""0"",""83483""
","
","
","""event"",""trial"",""time""
""fullscreenenter"",""0"",""83483""
","
","null","run_exp/static/images/Set 6_rs/129a.jpg","null","","","","","","learn","SL",""
"","html-keyboard-response","36","148951","0.0-36.0","""event"",""trial"",""time""
""fullscreenenter"",""0"",""83483""
","
","
","""event"",""trial"",""time""
""fullscreenenter"",""0"",""83483""
","
","null","<p></p>","null","","","","","","","",""
"","image","37","149961","0.0-37.0","""event"",""trial"",""time""
""fullscreenenter"",""0"",""83483""
","
","
","""event"",""trial"",""time""
""fullscreenenter"",""0"",""83483""
","
","1006.5999999996275","run_exp/static/images/Set 6_rs/150a.jpg","78","","","","","","learn","SR",""
"","show_choice","38","150956","0.0-38.0","""event"",""trial"",""time""
""fullscreenenter"",""0"",""83483""
","
","
","""event"",""trial"",""time""
""fullscreenenter"",""0"",""83483""
","
","null","run_exp/static/images/Set 6_rs/150a.jpg","null","","","","","","learn","SR",""
"","html-keyboard-response","39","151459","0.0-39.0","""event"",""trial"",""time""
""fullscreenenter"",""0"",""83483""
","
","
","""event"",""trial"",""time""
""fullscreenenter"",""0"",""83483""
","
","null","<p></p>","null","","","","","","","",""
"","image","40","152173","0.0-40.0","""event"",""trial"",""time""
""fullscreenenter"",""0"",""83483""
","
","
","""event"",""trial"",""time""
""fullscreenenter"",""0"",""83483""
","
","711.5","run_exp/static/images/Set 6_rs/134a.jpg","78","","","","","","learn","SR",""
"","show_choice","41","153463","0.0-41.0","""event"",""trial"",""time""
""fullscreenenter"",""0"",""83483""
","
","
","""event"",""trial"",""time""
""fullscreenenter"",""0"",""83483""
","
","null","run_exp/static/images/Set 6_rs/134a.jpg","null","","","","","","learn","SR",""
"","html-keyboard-response","42","153967","0.0-42.0","""event"",""trial"",""time""
""fullscreenenter"",""0"",""83483""
","
","
","""event"",""trial"",""time""
""fullscreenenter"",""0"",""83483""
","
","null","<p></p>","null","","","","","","","",""
"","image","43","155395","0.0-43.0","""event"",""trial"",""time""
""fullscreenenter"",""0"",""83483""
","
","
","""event"",""trial"",""time""
""fullscreenenter"",""0"",""83483""
","
","1426.300000000745","run_exp/static/images/Set 6_rs/132a.jpg","86","","","","","","learn","SR",""
"","show_choice","44","155970","0.0-44.0","""event"",""trial"",""time""
""fullscreenenter"",""0"",""83483""
","
","
","""event"",""trial"",""time""
""fullscreenenter"",""0"",""83483""
","
","null","run_exp/static/images/Set 6_rs/132a.jpg","null","","","","","","learn","SR",""
"","html-keyboard-response","45","156475","0.0-45.0","""event"",""trial"",""time""
""fullscreenenter"",""0"",""83483""
","
","
","""event"",""trial"",""time""
""fullscreenenter"",""0"",""83483""
","
","null","<p></p>","null","","","","","","","",""
"","image","46","158341","0.0-46.0","""event"",""trial"",""time""
""fullscreenenter"",""0"",""83483""
","
","
","""event"",""trial"",""time""
""fullscreenenter"",""0"",""83483""
","
","1863.800000000745","run_exp/static/images/Set 6_rs/064a.jpg","86","","","","","","learn","SR",""
"","show_choice","47","158479","0.0-47.0","""event"",""trial"",""time""
""fullscreenenter"",""0"",""83483""
","
","
","""event"",""trial"",""time""
""fullscreenenter"",""0"",""83483""
","
","null","run_exp/static/images/Set 6_rs/064a.jpg","null","","","","","","learn","SR",""
"","html-keyboard-response","48","158982","0.0-48.0","""event"",""trial"",""time""
""fullscreenenter"",""0"",""83483""
","
","
","""event"",""trial"",""time""
""fullscreenenter"",""0"",""83483""
","
","null","<p></p>","null","","","","","","","",""
"","image","49","159847","0.0-49.0","""event"",""trial"",""time""
""fullscreenenter"",""0"",""83483""
","
","
","""event"",""trial"",""time""
""fullscreenenter"",""0"",""83483""
","
","862.2000000011176","run_exp/static/images/Set 6_rs/172a.jpg","78","","","","","","learn","SR",""
"","show_choice","50","160985","0.0-50.0","""event"",""trial"",""time""
""fullscreenenter"",""0"",""83483""
","
","
","""event"",""trial"",""time""
""fullscreenenter"",""0"",""83483""
","
","null","run_exp/static/images/Set 6_rs/172a.jpg","null","","","","","","learn","SR",""
"","html-keyboard-response","51","161491","0.0-51.0","""event"",""trial"",""time""
""fullscreenenter"",""0"",""83483""
","
","
","""event"",""trial"",""time""
""fullscreenenter"",""0"",""83483""
","
","null","<p></p>","null","","","","","","","",""
"","image","52","162711","0.0-52.0","""event"",""trial"",""time""
""fullscreenenter"",""0"",""83483""
","
","
","""event"",""trial"",""time""
""fullscreenenter"",""0"",""83483""
","
","1217.6000000014901","run_exp/static/images/Set 6_rs/091a.jpg","86","","","","","","learn","SL",""
"","show_choice","53","163498","0.0-53.0","""event"",""trial"",""time""
""fullscreenenter"",""0"",""83483""
","
","
","""event"",""trial"",""time""
""fullscreenenter"",""0"",""83483""
","
","null","run_exp/static/images/Set 6_rs/091a.jpg","null","","","","","","learn","SL",""
"","html-keyboard-response","54","164003","0.0-54.0","""event"",""trial"",""time""
""fullscreenenter"",""0"",""83483""
","
","
","""event"",""trial"",""time""
""fullscreenenter"",""0"",""83483""
","
","null","<p></p>","null","","","","","","","",""
"","image","55","164882","0.0-55.0","""event"",""trial"",""time""
""fullscreenenter"",""0"",""83483""
","
","
","""event"",""trial"",""time""
""fullscreenenter"",""0"",""83483""
","
","876.1999999992549","run_exp/static/images/Set 6_rs/168a.jpg","86","","","","","","learn","SL",""
"","show_choice","56","166007","0.0-56.0","""event"",""trial"",""time""
""fullscreenenter"",""0"",""83483""
","
","
","""event"",""trial"",""time""
""fullscreenenter"",""0"",""83483""
","
","null","run_exp/static/images/Set 6_rs/168a.jpg","null","","","","","","learn","SL",""
"","html-keyboard-response","57","166511","0.0-57.0","""event"",""trial"",""time""
""fullscreenenter"",""0"",""83483""
","
","
","""event"",""trial"",""time""
""fullscreenenter"",""0"",""83483""
","
","null","<p></p>","null","","","","","","","",""
"","image","58","168189","0.0-58.0","""event"",""trial"",""time""
""fullscreenenter"",""0"",""83483""
","
","
","""event"",""trial"",""time""
""fullscreenenter"",""0"",""83483""
","
","1674.9000000003725","run_exp/static/images/Set 6_rs/141a.jpg","78","","","","","","learn","SR",""
"","show_choice","59","168518","0.0-59.0","""event"",""trial"",""time""
""fullscreenenter"",""0"",""83483""
","
","
","""event"",""trial"",""time""
""fullscreenenter"",""0"",""83483""
","
","null","run_exp/static/images/Set 6_rs/141a.jpg","null","","","","","","learn","SR",""
"","html-keyboard-response","60","169024","0.0-60.0","""event"",""trial"",""time""
""fullscreenenter"",""0"",""83483""
","
","
","""event"",""trial"",""time""
""fullscreenenter"",""0"",""83483""
","
","null","<p></p>","null","","","","","","","",""
"","image","61","170142","0.0-61.0","""event"",""trial"",""time""
""fullscreenenter"",""0"",""83483""
","
","
","""event"",""trial"",""time""
""fullscreenenter"",""0"",""83483""
","
","1116.0999999996275","run_exp/static/images/Set 6_rs/167a.jpg","78","","","","","","learn","SL",""
"","show_choice","62","171031","0.0-62.0","""event"",""trial"",""time""
""fullscreenenter"",""0"",""83483""
","
","
","""event"",""trial"",""time""
""fullscreenenter"",""0"",""83483""
","
","null","run_exp/static/images/Set 6_rs/167a.jpg","null","","","","","","learn","SL",""
"","html-keyboard-response","63","171536","0.0-63.0","""event"",""trial"",""time""
""fullscreenenter"",""0"",""83483""
","
","
","""event"",""trial"",""time""
""fullscreenenter"",""0"",""83483""
","
","null","<p></p>","null","","","","","","","",""
"","image","64","172493","0.0-64.0","""event"",""trial"",""time""
""fullscreenenter"",""0"",""83483""
","
","
","""event"",""trial"",""time""
""fullscreenenter"",""0"",""83483""
","
","955.0999999996275","run_exp/static/images/Set 6_rs/023a.jpg","86","","","","","","learn","SR",""
"","show_choice","65","173541","0.0-65.0","""event"",""trial"",""time""
""fullscreenenter"",""0"",""83483""
","
","
","""event"",""trial"",""time""
""fullscreenenter"",""0"",""83483""
","
","null","run_exp/static/images/Set 6_rs/023a.jpg","null","","","","","","learn","SR",""
"","html-keyboard-response","66","174046","0.0-66.0","""event"",""trial"",""time""
""fullscreenenter"",""0"",""83483""
","
","
","""event"",""trial"",""time""
""fullscreenenter"",""0"",""83483""
","
","null","<p></p>","null","","","","","","","",""
"","image","67","174829","0.0-67.0","""event"",""trial"",""time""
""fullscreenenter"",""0"",""83483""
","
","
","""event"",""trial"",""time""
""fullscreenenter"",""0"",""83483""
","
","780.5999999996275","run_exp/static/images/Set 6_rs/071a.jpg","78","","","","","","learn","SL",""
"","show_choice","68","176049","0.0-68.0","""event"",""trial"",""time""
""fullscreenenter"",""0"",""83483""
","
","
","""event"",""trial"",""time""
""fullscreenenter"",""0"",""83483""
","
","null","run_exp/static/images/Set 6_rs/071a.jpg","null","","","","","","learn","SL",""
"","html-keyboard-response","69","176554","0.0-69.0","""event"",""trial"",""time""
""fullscreenenter"",""0"",""83483""
","
","
","""event"",""trial"",""time""
""fullscreenenter"",""0"",""83483""
","
","null","<p></p>","null","","","","","","","",""
"","image","70","177422","0.0-70.0","""event"",""trial"",""time""
""fullscreenenter"",""0"",""83483""
","
","
","""event"",""trial"",""time""
""fullscreenenter"",""0"",""83483""
","
","865.9000000003725","run_exp/static/images/Set 6_rs/066a.jpg","86","","","","","","learn","SL",""
"","show_choice","71","178557","0.0-71.0","""event"",""trial"",""time""
""fullscreenenter"",""0"",""83483""
","
","
","""event"",""trial"",""time""
""fullscreenenter"",""0"",""83483""
","
","null","run_exp/static/images/Set 6_rs/066a.jpg","null","","","","","","learn","SL",""
"","html-keyboard-response","72","179061","0.0-72.0","""event"",""trial"",""time""
""fullscreenenter"",""0"",""83483""
","
","
","""event"",""trial"",""time""
""fullscreenenter"",""0"",""83483""
","
","null","<p></p>","null","","","","","","","",""
"","image","73","180229","0.0-73.0","""event"",""trial"",""time""
""fullscreenenter"",""0"",""83483""
","
","
","""event"",""trial"",""time""
""fullscreenenter"",""0"",""83483""
","
","1167.2000000011176","run_exp/static/images/Set 6_rs/036a.jpg","86","","","","","","learn","SL",""
"","show_choice","74","181064","0.0-74.0","""event"",""trial"",""time""
""fullscreenenter"",""0"",""83483""
","
","
","""event"",""trial"",""time""
""fullscreenenter"",""0"",""83483""
","
","null","run_exp/static/images/Set 6_rs/036a.jpg","null","","","","","","learn","SL",""
"","html-keyboard-response","75","181569","0.0-75.0","""event"",""trial"",""time""
""fullscreenenter"",""0"",""83483""
","
","
","""event"",""trial"",""time""
""fullscreenenter"",""0"",""83483""
","
","null","<p></p>","null","","","","","","","",""
"","image","76","182496","0.0-76.0","""event"",""trial"",""time""
""fullscreenenter"",""0"",""83483""
","
","
","""event"",""trial"",""time""
""fullscreenenter"",""0"",""83483""
","
","924.7000000011176","run_exp/static/images/Set 6_rs/025a.jpg","78","","","","","","learn","SL",""
"","show_choice","77","183573","0.0-77.0","""event"",""trial"",""time""
""fullscreenenter"",""0"",""83483""
","
","
","""event"",""trial"",""time""
""fullscreenenter"",""0"",""83483""
","
","null","run_exp/static/images/Set 6_rs/025a.jpg","null","","","","","","learn","SL",""
"","html-keyboard-response","78","184077","0.0-78.0","""event"",""trial"",""time""
""fullscreenenter"",""0"",""83483""
","
","
","""event"",""trial"",""time""
""fullscreenenter"",""0"",""83483""
","
","null","<p></p>","null","","","","","","","",""
"","image","79","185256","0.0-79.0","""event"",""trial"",""time""
""fullscreenenter"",""0"",""83483""
","
","
","""event"",""trial"",""time""
""fullscreenenter"",""0"",""83483""
","
","1177.5999999996275","run_exp/static/images/Set 6_rs/144a.jpg","86","","","","","","learn","SL",""
"","show_choice","80","186081","0.0-80.0","""event"",""trial"",""time""
""fullscreenenter"",""0"",""83483""
","
","
","""event"",""trial"",""time""
""fullscreenenter"",""0"",""83483""
","
","null","run_exp/static/images/Set 6_rs/144a.jpg","null","","","","","","learn","SL",""
"","html-keyboard-response","81","186584","0.0-81.0","""event"",""trial"",""time""
""fullscreenenter"",""0"",""83483""
","
","
","""event"",""trial"",""time""
""fullscreenenter"",""0"",""83483""
","
","null","<p></p>","null","","","","","","","",""
"","image","82","187770","0.0-82.0","""event"",""trial"",""time""
""fullscreenenter"",""0"",""83483""
","
","
","""event"",""trial"",""time""
""fullscreenenter"",""0"",""83483""
","
","1184.5999999996275","run_exp/static/images/Set 6_rs/121a.jpg","78","","","","","","learn","SR",""
"","show_choice","83","188587","0.0-83.0","""event"",""trial"",""time""
""fullscreenenter"",""0"",""83483""
","
","
","""event"",""trial"",""time""
""fullscreenenter"",""0"",""83483""
","
","null","run_exp/static/images/Set 6_rs/121a.jpg","null","","","","","","learn","SR",""
"","html-keyboard-response","84","189092","0.0-84.0","""event"",""trial"",""time""
""fullscreenenter"",""0"",""83483""
","
","
","""event"",""trial"",""time""
""fullscreenenter"",""0"",""83483""
","
","null","<p></p>","null","","","","","","","",""
"","image","85","190109","0.0-85.0","""event"",""trial"",""time""
""fullscreenenter"",""0"",""83483""
","
","
","""event"",""trial"",""time""
""fullscreenenter"",""0"",""83483""
","
","1014.2000000011176","run_exp/static/images/Set 6_rs/177a.jpg","78","","","","","","learn","SR",""
"","show_choice","86","191096","0.0-86.0","""event"",""trial"",""time""
""fullscreenenter"",""0"",""83483""
","
","
","""event"",""trial"",""time""
""fullscreenenter"",""0"",""83483""
","
","null","run_exp/static/images/Set 6_rs/177a.jpg","null","","","","","","learn","SR",""
"","html-keyboard-response","87","191600","0.0-87.0","""event"",""trial"",""time""
""fullscreenenter"",""0"",""83483""
","
","
","""event"",""trial"",""time""
""fullscreenenter"",""0"",""83483""
","
","null","<p></p>","null","","","","","","","",""
"","image","88","192665","0.0-88.0","""event"",""trial"",""time""
""fullscreenenter"",""0"",""83483""
","
","
","""event"",""trial"",""time""
""fullscreenenter"",""0"",""83483""
","
","1063.0999999996275","run_exp/static/images/Set 6_rs/111a.jpg","78","","","","","","learn","SL",""
"","show_choice","89","193602","0.0-89.0","""event"",""trial"",""time""
""fullscreenenter"",""0"",""83483""
","
","
","""event"",""trial"",""time""
""fullscreenenter"",""0"",""83483""
","
","null","run_exp/static/images/Set 6_rs/111a.jpg","null","","","","","","learn","SL",""
"","html-keyboard-response","90","194107","0.0-90.0","""event"",""trial"",""time""
""fullscreenenter"",""0"",""83483""
","
","
","""event"",""trial"",""time""
""fullscreenenter"",""0"",""83483""
","
","null","<p></p>","null","","","","","","","",""
"","image","91","194964","0.0-91.0","""event"",""trial"",""time""
""fullscreenenter"",""0"",""83483""
","
","
","""event"",""trial"",""time""
""fullscreenenter"",""0"",""83483""
","
","854.5999999996275","run_exp/static/images/Set 6_rs/074a.jpg","78","","","","","","learn","SL",""
"","show_choice","92","196112","0.0-92.0","""event"",""trial"",""time""
""fullscreenenter"",""0"",""83483""
","
","
","""event"",""trial"",""time""
""fullscreenenter"",""0"",""83483""
","
","null","run_exp/static/images/Set 6_rs/074a.jpg","null","","","","","","learn","SL",""
"","html-keyboard-response","93","196618","0.0-93.0","""event"",""trial"",""time""
""fullscreenenter"",""0"",""83483""
","
","
","""event"",""trial"",""time""
""fullscreenenter"",""0"",""83483""
","
","null","<p></p>","null","","","","","","","",""
"","image","94","197360","0.0-94.0","""event"",""trial"",""time""
""fullscreenenter"",""0"",""83483""
","
","
","""event"",""trial"",""time""
""fullscreenenter"",""0"",""83483""
","
","740.2000000011176","run_exp/static/images/Set 6_rs/116a.jpg","86","","","","","","learn","SL",""
"","show_choice","95","198623","0.0-95.0","""event"",""trial"",""time""
""fullscreenenter"",""0"",""83483""
","
","
","""event"",""trial"",""time""
""fullscreenenter"",""0"",""83483""
","
","null","run_exp/static/images/Set 6_rs/116a.jpg","null","","","","","","learn","SL",""
"","html-keyboard-response","96","199129","0.0-96.0","""event"",""trial"",""time""
""fullscreenenter"",""0"",""83483""
","
","
","""event"",""trial"",""time""
""fullscreenenter"",""0"",""83483""
","
","null","<p></p>","null","","","","","","","",""
"","image","97","200080","0.0-97.0","""event"",""trial"",""time""
""fullscreenenter"",""0"",""83483""
","
","
","""event"",""trial"",""time""
""fullscreenenter"",""0"",""83483""
","
","948.4000000003725","run_exp/static/images/Set 6_rs/010a.jpg","86","","","","","","learn","SR",""
"","show_choice","98","201136","0.0-98.0","""event"",""trial"",""time""
""fullscreenenter"",""0"",""83483""
","
","
","""event"",""trial"",""time""
""fullscreenenter"",""0"",""83483""
","
","null","run_exp/static/images/Set 6_rs/010a.jpg","null","","","","","","learn","SR",""
"","html-keyboard-response","99","201642","0.0-99.0","""event"",""trial"",""time""
""fullscreenenter"",""0"",""83483""
","
","
","""event"",""trial"",""time""
""fullscreenenter"",""0"",""83483""
","
","null","<p></p>","null","","","","","","","",""
"","image","100","202307","0.0-100.0","""event"",""trial"",""time""
""fullscreenenter"",""0"",""83483""
","
","
","""event"",""trial"",""time""
""fullscreenenter"",""0"",""83483""
","
","663.8000000007451","run_exp/static/images/Set 6_rs/079a.jpg","86","","","","","","learn","SL",""
"","show_choice","101","203646","0.0-101.0","""event"",""trial"",""time""
""fullscreenenter"",""0"",""83483""
","
","
","""event"",""trial"",""time""
""fullscreenenter"",""0"",""83483""
","
","null","run_exp/static/images/Set 6_rs/079a.jpg","null","","","","","","learn","SL",""
"","html-keyboard-response","102","204150","0.0-102.0","""event"",""trial"",""time""
""fullscreenenter"",""0"",""83483""
","
","
","""event"",""trial"",""time""
""fullscreenenter"",""0"",""83483""
","
","null","<p></p>","null","","","","","","","",""
"","image","103","204862","0.0-103.0","""event"",""trial"",""time""
""fullscreenenter"",""0"",""83483""
","
","
","""event"",""trial"",""time""
""fullscreenenter"",""0"",""83483""
","
","709.5","run_exp/static/images/Set 6_rs/178a.jpg","78","","","","","","learn","SR",""
"","show_choice","104","206157","0.0-104.0","""event"",""trial"",""time""
""fullscreenenter"",""0"",""83483""
","
","
","""event"",""trial"",""time""
""fullscreenenter"",""0"",""83483""
","
","null","run_exp/static/images/Set 6_rs/178a.jpg","null","","","","","","learn","SR",""
"","html-keyboard-response","105","206659","0.0-105.0","""event"",""trial"",""time""
""fullscreenenter"",""0"",""83483""
","
","
","""event"",""trial"",""time""
""fullscreenenter"",""0"",""83483""
","
","null","<p></p>","null","","","","","","","",""
"","image","106","207377","0.0-106.0","""event"",""trial"",""time""
""fullscreenenter"",""0"",""83483""
","
","
","""event"",""trial"",""time""
""fullscreenenter"",""0"",""83483""
","
","715.4000000003725","run_exp/static/images/Set 6_rs/152a.jpg","86","","","","","","learn","SR",""
"","show_choice","107","208663","0.0-107.0","""event"",""trial"",""time""
""fullscreenenter"",""0"",""83483""
","
","
","""event"",""trial"",""time""
""fullscreenenter"",""0"",""83483""
","
","null","run_exp/static/images/Set 6_rs/152a.jpg","null","","","","","","learn","SR",""
"","html-keyboard-response","108","209165","0.0-108.0","""event"",""trial"",""time""
""fullscreenenter"",""0"",""83483""
","
","
","""event"",""trial"",""time""
""fullscreenenter"",""0"",""83483""
","
","null","<p></p>","null","","","","","","","",""
"","image","109","209890","0.0-109.0","""event"",""trial"",""time""
""fullscreenenter"",""0"",""83483""
","
","
","""event"",""trial"",""time""
""fullscreenenter"",""0"",""83483""
","
","722.5","run_exp/static/images/Set 6_rs/154a.jpg","86","","","","","","learn","SR",""
"","show_choice","110","211172","0.0-110.0","""event"",""trial"",""time""
""fullscreenenter"",""0"",""83483""
","
","
","""event"",""trial"",""time""
""fullscreenenter"",""0"",""83483""
","
","null","run_exp/static/images/Set 6_rs/154a.jpg","null","","","","","","learn","SR",""
"","html-keyboard-response","111","211674","0.0-111.0","""event"",""trial"",""time""
""fullscreenenter"",""0"",""83483""
","
","
","""event"",""trial"",""time""
""fullscreenenter"",""0"",""83483""
","
","null","<p></p>","null","","","","","","","",""
"","image","112","212974","0.0-112.0","""event"",""trial"",""time""
""fullscreenenter"",""0"",""83483""
","
","
","""event"",""trial"",""time""
""fullscreenenter"",""0"",""83483""
","
","1297.5999999996275","run_exp/static/images/Set 6_rs/076a.jpg","78","","","","","","learn","SR",""
"","show_choice","113","213681","0.0-113.0","""event"",""trial"",""time""
""fullscreenenter"",""0"",""83483""
","
","
","""event"",""trial"",""time""
""fullscreenenter"",""0"",""83483""
","
","null","run_exp/static/images/Set 6_rs/076a.jpg","null","","","","","","learn","SR",""
"","html-keyboard-response","114","214186","0.0-114.0","""event"",""trial"",""time""
""fullscreenenter"",""0"",""83483""
","
","
","""event"",""trial"",""time""
""fullscreenenter"",""0"",""83483""
","
","null","<p></p>","null","","","","","","","",""
"","image","115","215189","0.0-115.0","""event"",""trial"",""time""
""fullscreenenter"",""0"",""83483""
","
","
","""event"",""trial"",""time""
""fullscreenenter"",""0"",""83483""
","
","999.9000000003725","run_exp/static/images/Set 6_rs/123a.jpg","78","","","","","","learn","SL",""
"","show_choice","116","216193","0.0-116.0","""event"",""trial"",""time""
""fullscreenenter"",""0"",""83483""
","
","
","""event"",""trial"",""time""
""fullscreenenter"",""0"",""83483""
","
","null","run_exp/static/images/Set 6_rs/123a.jpg","null","","","","","","learn","SL",""
"","html-keyboard-response","117","216694","0.0-117.0","""event"",""trial"",""time""
""fullscreenenter"",""0"",""83483""
","
","
","""event"",""trial"",""time""
""fullscreenenter"",""0"",""83483""
","
","null","<p></p>","null","","","","","","","",""
"","image","118","217738","0.0-118.0","""event"",""trial"",""time""
""fullscreenenter"",""0"",""83483""
","
","
","""event"",""trial"",""time""
""fullscreenenter"",""0"",""83483""
","
","1043","run_exp/static/images/Set 6_rs/016a.jpg","86","","","","","","learn","SL",""
"","show_choice","119","218699","0.0-119.0","""event"",""trial"",""time""
""fullscreenenter"",""0"",""83483""
","
","
","""event"",""trial"",""time""
""fullscreenenter"",""0"",""83483""
","
","null","run_exp/static/images/Set 6_rs/016a.jpg","null","","","","","","learn","SL",""
"","html-keyboard-response","120","219202","0.0-120.0","""event"",""trial"",""time""
""fullscreenenter"",""0"",""83483""
","
","
","""event"",""trial"",""time""
""fullscreenenter"",""0"",""83483""
","
","null","<p></p>","null","","","","","","","",""
"","image","121","220139","0.0-121.0","""event"",""trial"",""time""
""fullscreenenter"",""0"",""83483""
","
","
","""event"",""trial"",""time""
""fullscreenenter"",""0"",""83483""
","
","934.3000000007451","run_exp/static/images/Set 6_rs/073a.jpg","86","","","","","","learn","SL",""
"","show_choice","122","221206","0.0-122.0","""event"",""trial"",""time""
""fullscreenenter"",""0"",""83483""
","
","
","""event"",""trial"",""time""
""fullscreenenter"",""0"",""83483""
","
","null","run_exp/static/images/Set 6_rs/073a.jpg","null","","","","","","learn","SL",""
"","html-keyboard-response","123","221710","0.0-123.0","""event"",""trial"",""time""
""fullscreenenter"",""0"",""83483""
","
","
","""event"",""trial"",""time""
""fullscreenenter"",""0"",""83483""
","
","null","<p></p>","null","","","","","","","",""
"","image","124","222514","0.0-124.0","""event"",""trial"",""time""
""fullscreenenter"",""0"",""83483""
","
","
","""event"",""trial"",""time""
""fullscreenenter"",""0"",""83483""
","
","801.9000000003725","run_exp/static/images/Set 6_rs/181a.jpg","78","","","","","","learn","SL",""
"","show_choice","125","223714","0.0-125.0","""event"",""trial"",""time""
""fullscreenenter"",""0"",""83483""
","
","
","""event"",""trial"",""time""
""fullscreenenter"",""0"",""83483""
","
","null","run_exp/static/images/Set 6_rs/181a.jpg","null","","","","","","learn","SL",""
"","html-keyboard-response","126","224217","0.0-126.0","""event"",""trial"",""time""
""fullscreenenter"",""0"",""83483""
","
","
","""event"",""trial"",""time""
""fullscreenenter"",""0"",""83483""
","
","null","<p></p>","null","","","","","","","",""
"","image","127","225246","0.0-127.0","""event"",""trial"",""time""
""fullscreenenter"",""0"",""83483""
","
","
","""event"",""trial"",""time""
""fullscreenenter"",""0"",""83483""
","
","1026.5999999996275","run_exp/static/images/Set 6_rs/122a.jpg","86","","","","","","learn","SR",""
"","show_choice","128","226225","0.0-128.0","""event"",""trial"",""time""
""fullscreenenter"",""0"",""83483""
","
","
","""event"",""trial"",""time""
""fullscreenenter"",""0"",""83483""
","
","null","run_exp/static/images/Set 6_rs/122a.jpg","null","","","","","","learn","SR",""
"","html-keyboard-response","129","226731","0.0-129.0","""event"",""trial"",""time""
""fullscreenenter"",""0"",""83483""
","
","
","""event"",""trial"",""time""
""fullscreenenter"",""0"",""83483""
","
","null","<p></p>","null","","","","","","","",""
"","image","130","227527","0.0-130.0","""event"",""trial"",""time""
""fullscreenenter"",""0"",""83483""
","
","
","""event"",""trial"",""time""
""fullscreenenter"",""0"",""83483""
","
","793.9000000003725","run_exp/static/images/Set 6_rs/169a.jpg","78","","","","","","learn","SR",""
"","show_choice","131","228736","0.0-131.0","""event"",""trial"",""time""
""fullscreenenter"",""0"",""83483""
","
","
","""event"",""trial"",""time""
""fullscreenenter"",""0"",""83483""
","
","null","run_exp/static/images/Set 6_rs/169a.jpg","null","","","","","","learn","SR",""
"","html-keyboard-response","132","229241","0.0-132.0","""event"",""trial"",""time""
""fullscreenenter"",""0"",""83483""
","
","
","""event"",""trial"",""time""
""fullscreenenter"",""0"",""83483""
","
","null","<p></p>","null","","","","","","","",""
"","image","133","229957","0.0-133.0","""event"",""trial"",""time""
""fullscreenenter"",""0"",""83483""
","
","
","""event"",""trial"",""time""
""fullscreenenter"",""0"",""83483""
","
","713.5999999996275","run_exp/static/images/Set 6_rs/112a.jpg","86","","","","","","learn","SR",""
"","show_choice","134","231247","0.0-134.0","""event"",""trial"",""time""
""fullscreenenter"",""0"",""83483""
","
","
","""event"",""trial"",""time""
""fullscreenenter"",""0"",""83483""
","
","null","run_exp/static/images/Set 6_rs/112a.jpg","null","","","","","","learn","SR",""
"","html-keyboard-response","135","231752","0.0-135.0","""event"",""trial"",""time""
""fullscreenenter"",""0"",""83483""
","
","
","""event"",""trial"",""time""
""fullscreenenter"",""0"",""83483""
","
","null","<p></p>","null","","","","","","","",""
"","image","136","232740","0.0-136.0","""event"",""trial"",""time""
""fullscreenenter"",""0"",""83483""
","
","
","""event"",""trial"",""time""
""fullscreenenter"",""0"",""83483""
","
","986.5999999996275","run_exp/static/images/Set 6_rs/166a.jpg","86","","","","","","learn","SR",""
"","show_choice","137","233755","0.0-137.0","""event"",""trial"",""time""
""fullscreenenter"",""0"",""83483""
","
","
","""event"",""trial"",""time""
""fullscreenenter"",""0"",""83483""
","
","null","run_exp/static/images/Set 6_rs/166a.jpg","null","","","","","","learn","SR",""
"","html-keyboard-response","138","234260","0.0-138.0","""event"",""trial"",""time""
""fullscreenenter"",""0"",""83483""
","
","
","""event"",""trial"",""time""
""fullscreenenter"",""0"",""83483""
","
","null","<p></p>","null","","","","","","","",""
"","image","139","235530","0.0-139.0","""event"",""trial"",""time""
""fullscreenenter"",""0"",""83483""
","
","
","""event"",""trial"",""time""
""fullscreenenter"",""0"",""83483""
","
","1268.300000000745","run_exp/static/images/Set 6_rs/095a.jpg","86","","","","","","learn","SL",""
"","show_choice","140","236263","0.0-140.0","""event"",""trial"",""time""
""fullscreenenter"",""0"",""83483""
","
","
","""event"",""trial"",""time""
""fullscreenenter"",""0"",""83483""
","
","null","run_exp/static/images/Set 6_rs/095a.jpg","null","","","","","","learn","SL",""
"","html-keyboard-response","141","236767","0.0-141.0","""event"",""trial"",""time""
""fullscreenenter"",""0"",""83483""
","
","
","""event"",""trial"",""time""
""fullscreenenter"",""0"",""83483""
","
","null","<p></p>","null","","","","","","","",""
"","image","142","238196","0.0-142.0","""event"",""trial"",""time""
""fullscreenenter"",""0"",""83483""
","
","
","""event"",""trial"",""time""
""fullscreenenter"",""0"",""83483""
","
","1426.5999999996275","run_exp/static/images/Set 6_rs/070a.jpg","86","","","","","","learn","SR",""
"","show_choice","143","238771","0.0-143.0","""event"",""trial"",""time""
""fullscreenenter"",""0"",""83483""
","
","
","""event"",""trial"",""time""
""fullscreenenter"",""0"",""83483""
","
","null","run_exp/static/images/Set 6_rs/070a.jpg","null","","","","","","learn","SR",""
"","html-keyboard-response","144","239275","0.0-144.0","""event"",""trial"",""time""
""fullscreenenter"",""0"",""83483""
","
","
","""event"",""trial"",""time""
""fullscreenenter"",""0"",""83483""
","
","null","<p></p>","null","","","","","","","",""
"","image","145","240845","0.0-145.0","""event"",""trial"",""time""
""fullscreenenter"",""0"",""83483""
","
","
","""event"",""trial"",""time""
""fullscreenenter"",""0"",""83483""
","
","1567.0999999996275","run_exp/static/images/Set 6_rs/138a.jpg","86","","","","","","learn","SL",""
"","show_choice","146","241278","0.0-146.0","""event"",""trial"",""time""
""fullscreenenter"",""0"",""83483""
","
","
","""event"",""trial"",""time""
""fullscreenenter"",""0"",""83483""
","
","null","run_exp/static/images/Set 6_rs/138a.jpg","null","","","","","","learn","SL",""
"","html-keyboard-response","147","241783","0.0-147.0","""event"",""trial"",""time""
""fullscreenenter"",""0"",""83483""
","
","
","""event"",""trial"",""time""
""fullscreenenter"",""0"",""83483""
","
","null","<p></p>","null","","","","","","","",""
"","image","148","242697","0.0-148.0","""event"",""trial"",""time""
""fullscreenenter"",""0"",""83483""
","
","
","""event"",""trial"",""time""
""fullscreenenter"",""0"",""83483""
","
","911.7999999988824","run_exp/static/images/Set 6_rs/186a.jpg","86","","","","","","learn","SR",""
"","show_choice","149","243786","0.0-149.0","""event"",""trial"",""time""
""fullscreenenter"",""0"",""83483""
","
","
","""event"",""trial"",""time""
""fullscreenenter"",""0"",""83483""
","
","null","run_exp/static/images/Set 6_rs/186a.jpg","null","","","","","","learn","SR",""
"","html-keyboard-response","150","244291","0.0-150.0","""event"",""trial"",""time""
""fullscreenenter"",""0"",""83483""
","
","
","""event"",""trial"",""time""
""fullscreenenter"",""0"",""83483""
","
","null","<p></p>","null","","","","","","","",""
"","image","151","245219","0.0-151.0","""event"",""trial"",""time""
""fullscreenenter"",""0"",""83483""
","
","
","""event"",""trial"",""time""
""fullscreenenter"",""0"",""83483""
","
","925.3000000007451","run_exp/static/images/Set 6_rs/187a.jpg","86","","","","","","learn","SR",""
"","show_choice","152","246295","0.0-152.0","""event"",""trial"",""time""
""fullscreenenter"",""0"",""83483""
","
","
","""event"",""trial"",""time""
""fullscreenenter"",""0"",""83483""
","
","null","run_exp/static/images/Set 6_rs/187a.jpg","null","","","","","","learn","SR",""
"","html-keyboard-response","153","246798","0.0-153.0","""event"",""trial"",""time""
""fullscreenenter"",""0"",""83483""
","
","
","""event"",""trial"",""time""
""fullscreenenter"",""0"",""83483""
","
","null","<p></p>","null","","","","","","","",""
"","image","154","248227","0.0-154.0","""event"",""trial"",""time""
""fullscreenenter"",""0"",""83483""
","
","
","""event"",""trial"",""time""
""fullscreenenter"",""0"",""83483""
","
","1427","run_exp/static/images/Set 6_rs/131a.jpg","86","","","","","","learn","SR",""
"","show_choice","155","248802","0.0-155.0","""event"",""trial"",""time""
""fullscreenenter"",""0"",""83483""
","
","
","""event"",""trial"",""time""
""fullscreenenter"",""0"",""83483""
","
","null","run_exp/static/images/Set 6_rs/131a.jpg","null","","","","","","learn","SR",""
"","html-keyboard-response","156","249306","0.0-156.0","""event"",""trial"",""time""
""fullscreenenter"",""0"",""83483""
","
","
","""event"",""trial"",""time""
""fullscreenenter"",""0"",""83483""
","
","null","<p></p>","null","","","","","","","",""
"","image","157","250255","0.0-157.0","""event"",""trial"",""time""
""fullscreenenter"",""0"",""83483""
","
","
","""event"",""trial"",""time""
""fullscreenenter"",""0"",""83483""
","
","946.9000000003725","run_exp/static/images/Set 6_rs/117a.jpg","86","","","","","","learn","SL",""
"","show_choice","158","251312","0.0-158.0","""event"",""trial"",""time""
""fullscreenenter"",""0"",""83483""
","
","
","""event"",""trial"",""time""
""fullscreenenter"",""0"",""83483""
","
","null","run_exp/static/images/Set 6_rs/117a.jpg","null","","","","","","learn","SL",""
"","html-keyboard-response","159","251819","0.0-159.0","""event"",""trial"",""time""
""fullscreenenter"",""0"",""83483""
","
","
","""event"",""trial"",""time""
""fullscreenenter"",""0"",""83483""
","
","null","<p></p>","null","","","","","","","",""
"","image","160","252519","0.0-160.0","""event"",""trial"",""time""
""fullscreenenter"",""0"",""83483""
","
","
","""event"",""trial"",""time""
""fullscreenenter"",""0"",""83483""
","
","698","run_exp/static/images/Set 6_rs/006a.jpg","86","","","","","","learn","SL",""
"","show_choice","161","253823","0.0-161.0","""event"",""trial"",""time""
""fullscreenenter"",""0"",""83483""
","
","
","""event"",""trial"",""time""
""fullscreenenter"",""0"",""83483""
","
","null","run_exp/static/images/Set 6_rs/006a.jpg","null","","","","","","learn","SL",""
"","html-keyboard-response","162","254327","0.0-162.0","""event"",""trial"",""time""
""fullscreenenter"",""0"",""83483""
","
","
","""event"",""trial"",""time""
""fullscreenenter"",""0"",""83483""
","
","null","<p></p>","null","","","","","","","",""
"","image","163","255504","0.0-163.0","""event"",""trial"",""time""
""fullscreenenter"",""0"",""83483""
","
","
","""event"",""trial"",""time""
""fullscreenenter"",""0"",""83483""
","
","1174.199999999255","run_exp/static/images/Set 6_rs/057a.jpg","86","","","","","","learn","SL",""
"","show_choice","164","256331","0.0-164.0","""event"",""trial"",""time""
""fullscreenenter"",""0"",""83483""
","
","
","""event"",""trial"",""time""
""fullscreenenter"",""0"",""83483""
","
","null","run_exp/static/images/Set 6_rs/057a.jpg","null","","","","","","learn","SL",""
"","html-keyboard-response","165","256835","0.0-165.0","""event"",""trial"",""time""
""fullscreenenter"",""0"",""83483""
","
","
","""event"",""trial"",""time""
""fullscreenenter"",""0"",""83483""
","
","null","<p></p>","null","","","","","","","",""
"","image","166","257741","0.0-166.0","""event"",""trial"",""time""
""fullscreenenter"",""0"",""83483""
","
","
","""event"",""trial"",""time""
""fullscreenenter"",""0"",""83483""
","
","903.9000000003725","run_exp/static/images/Set 6_rs/089a.jpg","86","","","","","","learn","SL",""
"","show_choice","167","258841","0.0-167.0","""event"",""trial"",""time""
""fullscreenenter"",""0"",""83483""
","
","
","""event"",""trial"",""time""
""fullscreenenter"",""0"",""83483""
","
","null","run_exp/static/images/Set 6_rs/089a.jpg","null","","","","","","learn","SL",""
"","html-keyboard-response","168","259343","0.0-168.0","""event"",""trial"",""time""
""fullscreenenter"",""0"",""83483""
","
","
","""event"",""trial"",""time""
""fullscreenenter"",""0"",""83483""
","
","null","<p></p>","null","","","","","","","",""
"","image","169","260157","0.0-169.0","""event"",""trial"",""time""
""fullscreenenter"",""0"",""83483""
","
","
","""event"",""trial"",""time""
""fullscreenenter"",""0"",""83483""
","
","812.2000000011176","run_exp/static/images/Set 6_rs/088a.jpg","86","","","","","","learn","SR",""
"","show_choice","170","261347","0.0-170.0","""event"",""trial"",""time""
""fullscreenenter"",""0"",""83483""
","
","
","""event"",""trial"",""time""
""fullscreenenter"",""0"",""83483""
","
","null","run_exp/static/images/Set 6_rs/088a.jpg","null","","","","","","learn","SR",""
"","html-keyboard-response","171","261850","0.0-171.0","""event"",""trial"",""time""
""fullscreenenter"",""0"",""83483""
","
","
","""event"",""trial"",""time""
""fullscreenenter"",""0"",""83483""
","
","null","<p></p>","null","","","","","","","",""
"","image","172","262579","0.0-172.0","""event"",""trial"",""time""
""fullscreenenter"",""0"",""83483""
","
","
","""event"",""trial"",""time""
""fullscreenenter"",""0"",""83483""
","
","727.0999999996275","run_exp/static/images/Set 6_rs/085a.jpg","78","","","","","","learn","SL",""
"","show_choice","173","263853","0.0-173.0","""event"",""trial"",""time""
""fullscreenenter"",""0"",""83483""
","
","
","""event"",""trial"",""time""
""fullscreenenter"",""0"",""83483""
","
","null","run_exp/static/images/Set 6_rs/085a.jpg","null","","","","","","learn","SL",""
"","html-keyboard-response","174","264358","0.0-174.0","""event"",""trial"",""time""
""fullscreenenter"",""0"",""83483""
","
","
","""event"",""trial"",""time""
""fullscreenenter"",""0"",""83483""
","
","null","<p></p>","null","","","","","","","",""
"","image","175","265212","0.0-175.0","""event"",""trial"",""time""
""fullscreenenter"",""0"",""83483""
","
","
","""event"",""trial"",""time""
""fullscreenenter"",""0"",""83483""
","
","851.8000000007451","run_exp/static/images/Set 6_rs/050a.jpg","86","","","","","","learn","SL",""
"","show_choice","176","266363","0.0-176.0","""event"",""trial"",""time""
""fullscreenenter"",""0"",""83483""
","
","
","""event"",""trial"",""time""
""fullscreenenter"",""0"",""83483""
","
","null","run_exp/static/images/Set 6_rs/050a.jpg","null","","","","","","learn","SL",""
"","html-keyboard-response","177","266866","0.0-177.0","""event"",""trial"",""time""
""fullscreenenter"",""0"",""83483""
","
","
","""event"",""trial"",""time""
""fullscreenenter"",""0"",""83483""
","
","null","<p></p>","null","","","","","","","",""
"","image","178","267557","0.0-178.0","""event"",""trial"",""time""
""fullscreenenter"",""0"",""83483""
","
","
","""event"",""trial"",""time""
""fullscreenenter"",""0"",""83483""
","
","688.5999999996275","run_exp/static/images/Set 6_rs/126a.jpg","86","","","","","","learn","SR",""
"","show_choice","179","268869","0.0-179.0","""event"",""trial"",""time""
""fullscreenenter"",""0"",""83483""
","
","
","""event"",""trial"",""time""
""fullscreenenter"",""0"",""83483""
","
","null","run_exp/static/images/Set 6_rs/126a.jpg","null","","","","","","learn","SR",""
"","html-keyboard-response","180","269373","0.0-180.0","""event"",""trial"",""time""
""fullscreenenter"",""0"",""83483""
","
","
","""event"",""trial"",""time""
""fullscreenenter"",""0"",""83483""
","
","null","<p></p>","null","","","","","","","",""
"","image","181","271376","0.0-181.0","""event"",""trial"",""time""
""fullscreenenter"",""0"",""83483""
","
","
","""event"",""trial"",""time""
""fullscreenenter"",""0"",""83483""
","
","null","run_exp/static/images/Set 6_rs/055a.jpg","null","","","","","","learn","SL",""
"","show_choice","182","273384","0.0-182.0","""event"",""trial"",""time""
""fullscreenenter"",""0"",""83483""
","
","
","""event"",""trial"",""time""
""fullscreenenter"",""0"",""83483""
","
","null","run_exp/static/images/blank.png","null","","","","","","learn","SL",""
"","html-keyboard-response","183","273890","0.0-183.0","""event"",""trial"",""time""
""fullscreenenter"",""0"",""83483""
","
","
","""event"",""trial"",""time""
""fullscreenenter"",""0"",""83483""
","
","null","<p></p>","null","","","","","","","",""
"","image","184","275392","0.0-184.0","""event"",""trial"",""time""
""fullscreenenter"",""0"",""83483""
","
","
","""event"",""trial"",""time""
""fullscreenenter"",""0"",""83483""
","
","1500.5","run_exp/static/images/Set 6_rs/017a.jpg","86","","","","","","learn","SL",""
"","show_choice","185","275894","0.0-185.0","""event"",""trial"",""time""
""fullscreenenter"",""0"",""83483""
","
","
","""event"",""trial"",""time""
""fullscreenenter"",""0"",""83483""
","
","null","run_exp/static/images/Set 6_rs/017a.jpg","null","","","","","","learn","SL",""
"","html-keyboard-response","186","276396","0.0-186.0","""event"",""trial"",""time""
""fullscreenenter"",""0"",""83483""
","
","
","""event"",""trial"",""time""
""fullscreenenter"",""0"",""83483""
","
","null","<p></p>","null","","","","","","","",""
"","image","187","277611","0.0-187.0","""event"",""trial"",""time""
""fullscreenenter"",""0"",""83483""
","
","
","""event"",""trial"",""time""
""fullscreenenter"",""0"",""83483""
","
","1212.5","run_exp/static/images/Set 6_rs/024a.jpg","86","","","","","","learn","SR",""
"","show_choice","188","278402","0.0-188.0","""event"",""trial"",""time""
""fullscreenenter"",""0"",""83483""
","
","
","""event"",""trial"",""time""
""fullscreenenter"",""0"",""83483""
","
","null","run_exp/static/images/Set 6_rs/024a.jpg","null","","","","","","learn","SR",""
"","html-keyboard-response","189","278905","0.0-189.0","""event"",""trial"",""time""
""fullscreenenter"",""0"",""83483""
","
","
","""event"",""trial"",""time""
""fullscreenenter"",""0"",""83483""
","
","null","<p></p>","null","","","","","","","",""
"","image","190","280248","0.0-190.0","""event"",""trial"",""time""
""fullscreenenter"",""0"",""83483""
","
","
","""event"",""trial"",""time""
""fullscreenenter"",""0"",""83483""
","
","1340.5","run_exp/static/images/Set 6_rs/019a.jpg","86","","","","","","learn","SL",""
"","show_choice","191","280910","0.0-191.0","""event"",""trial"",""time""
""fullscreenenter"",""0"",""83483""
","
","
","""event"",""trial"",""time""
""fullscreenenter"",""0"",""83483""
","
","null","run_exp/static/images/Set 6_rs/019a.jpg","null","","","","","","learn","SL",""
"","html-keyboard-response","192","281413","0.0-192.0","""event"",""trial"",""time""
""fullscreenenter"",""0"",""83483""
","
","
","""event"",""trial"",""time""
""fullscreenenter"",""0"",""83483""
","
","null","<p></p>","null","","","","","","","",""
"","image","193","282915","0.0-193.0","""event"",""trial"",""time""
""fullscreenenter"",""0"",""83483""
","
","
","""event"",""trial"",""time""
""fullscreenenter"",""0"",""83483""
","
","1499.5999999996275","run_exp/static/images/Set 6_rs/191a.jpg","86","","","","","","learn","SL",""
"","show_choice","194","283417","0.0-194.0","""event"",""trial"",""time""
""fullscreenenter"",""0"",""83483""
","
","
","""event"",""trial"",""time""
""fullscreenenter"",""0"",""83483""
","
","null","run_exp/static/images/Set 6_rs/191a.jpg","null","","","","","","learn","SL",""
"","html-keyboard-response","195","283921","0.0-195.0","""event"",""trial"",""time""
""fullscreenenter"",""0"",""83483""
","
","
","""event"",""trial"",""time""
""fullscreenenter"",""0"",""83483""
","
","null","<p></p>","null","","","","","","","",""
"","test_intro","196","320722","0.0-196.0","""event"",""trial"",""time""
""fullscreenenter"",""0"",""83483""
","
","
","""event"",""trial"",""time""
""fullscreenenter"",""0"",""83483""
","
","null","run_exp/static/audio/clip_2_memory.m4a","null","","","","","<div class='center'><p>Now, lets see how much you remember about the items you just saw.  For each item, you need to indicate if it was <b>old</b> by pressing the <b>v</b> key, <b>similar</b> by pressing the <b>b</b> key, or <b>new</b> by pressing the <b>n</b> key.</p><p>Old refers to an item that you saw before in the indoor/outdoor game that you just played, new refers to an item you have <b>not</b> seen before within the indoor/outdoor game, and similar refers to an item that is similar to an item youve seen before but is not exactly the same. </p><p>Before we begin, lets go over some brief demonstrations to make sure you understand.</p></div>","","",""
"","html-keyboard-response","197","322033","0.0-197.0","""event"",""trial"",""time""
""fullscreenenter"",""0"",""83483""
","
","
","""event"",""trial"",""time""
""fullscreenenter"",""0"",""83483""
","
","1307.9000000003725","<div class='center'><p>Now, lets see how much you remember about the items you just saw.  For each item, you need to indicate if it was <b>old</b> by pressing the <b>v</b> key, <b>similar</b> by pressing the <b>b</b> key, or <b>new</b> by pressing the <b>n</b> key.</p><p>Old refers to an item that you saw before in the indoor/outdoor game that you just played, new refers to an item you have <b>not</b> seen before within the indoor/outdoor game, and similar refers to an item that is similar to an item youve seen before but is not exactly the same. </p><p>Before we begin, lets go over some brief demonstrations to make sure you understand.</p><div><p><b>[Press the space bar to continue]</b></p></div>","32","","","","","","","",""
"","items","198","329536","0.0-198.0","""event"",""trial"",""time""
""fullscreenenter"",""0"",""83483""
","
","
","""event"",""trial"",""time""
""fullscreenenter"",""0"",""83483""
","
","null","run_exp/static/audio/clip_3_items.m4a","null","","","","","","","",""
"","mop","199","334040","0.0-199.0","""event"",""trial"",""time""
""fullscreenenter"",""0"",""83483""
","
","
","""event"",""trial"",""time""
""fullscreenenter"",""0"",""83483""
","
","null","run_exp/static/audio/clip_4_mop.m4a","null","","","","","","","",""
"","baseball","200","337546","0.0-200.0","""event"",""trial"",""time""
""fullscreenenter"",""0"",""83483""
","
","
","""event"",""trial"",""time""
""fullscreenenter"",""0"",""83483""
","
","null","run_exp/static/audio/clip_5_baseball.m4a","null","","","","","","","",""
"","trumpet","201","341052","0.0-201.0","""event"",""trial"",""time""
""fullscreenenter"",""0"",""83483""
","
","
","""event"",""trial"",""time""
""fullscreenenter"",""0"",""83483""
","
","null","run_exp/static/audio/clip_6_trumpet.m4a","null","","","","","","","",""
"","gummies","202","344559","0.0-202.0","""event"",""trial"",""time""
""fullscreenenter"",""0"",""83483""
","
","
","""event"",""trial"",""time""
""fullscreenenter"",""0"",""83483""
","
","null","run_exp/static/audio/clip_7_gummies.m4a","null","","","","","","","",""
"","osn","203","349065","0.0-203.0","""event"",""trial"",""time""
""fullscreenenter"",""0"",""83483""
","
","
","""event"",""trial"",""time""
""fullscreenenter"",""0"",""83483""
","
","null","run_exp/static/audio/clip_8_osn.m4a","null","","","","","","","",""
"","old_1","204","355570","0.0-204.0","""event"",""trial"",""time""
""fullscreenenter"",""0"",""83483""
","
","
","""event"",""trial"",""time""
""fullscreenenter"",""0"",""83483""
","
","null","run_exp/static/audio/clip_9_old_trumpet.m4a","null","","","","","","","",""
"","new_1","205","363076","0.0-205.0","""event"",""trial"",""time""
""fullscreenenter"",""0"",""83483""
","
","
","""event"",""trial"",""time""
""fullscreenenter"",""0"",""83483""
","
","null","run_exp/static/audio/clip_10_new_balloon.m4a","null","","","","","","","",""
"","similar_1a","206","367580","0.0-206.0","""event"",""trial"",""time""
""fullscreenenter"",""0"",""83483""
","
","
","""event"",""trial"",""time""
""fullscreenenter"",""0"",""83483""
","
","null","run_exp/static/audio/clip_11a_similar_mop.m4a","null","","","","","","","",""
"","similar_1b","207","374088","0.0-207.0","""event"",""trial"",""time""
""fullscreenenter"",""0"",""83483""
","
","
","""event"",""trial"",""time""
""fullscreenenter"",""0"",""83483""
","
","null","run_exp/static/audio/clip_11b_similar_mop.m4a","null","","","","","","","",""
"","new_2","208","377594","0.0-208.0","""event"",""trial"",""time""
""fullscreenenter"",""0"",""83483""
","
","
","""event"",""trial"",""time""
""fullscreenenter"",""0"",""83483""
","
","null","run_exp/static/audio/clip_12_new_stoplight.m4a","null","","","","","","","",""
"","old_2","209","381100","0.0-209.0","""event"",""trial"",""time""
""fullscreenenter"",""0"",""83483""
","
","
","""event"",""trial"",""time""
""fullscreenenter"",""0"",""83483""
","
","null","run_exp/static/audio/clip_13_old_baseball.m4a","null","","","","","","","",""
"","similar_2a","210","384602","0.0-210.0","""event"",""trial"",""time""
""fullscreenenter"",""0"",""83483""
","
","
","""event"",""trial"",""time""
""fullscreenenter"",""0"",""83483""
","
","null","run_exp/static/audio/clip_14a_similar_gummies.m4a","null","","","","","","","",""
"","similar_2b","211","392106","0.0-211.0","""event"",""trial"",""time""
""fullscreenenter"",""0"",""83483""
","
","
","""event"",""trial"",""time""
""fullscreenenter"",""0"",""83483""
","
","null","run_exp/static/audio/clip_14b_similar_gummies.m4a","null","","","","","","","",""
"","practice","212","434199","0.0-212.0","""event"",""trial"",""time""
""fullscreenenter"",""0"",""83483""
","
","
","""event"",""trial"",""time""
""fullscreenenter"",""0"",""83483""
","
","null","run_exp/static/audio/clip_15_practice.m4a","null","","","","","<div class='center'><p>Lets practice a little to make sure you understand the difference between new, similar, and old. Lets say you saw these three items in the indoor/outdoor game.</p><p> Try your best to remember these images because youll soon be tested on them in a practice game. In the practice game, youll be shown images and youll have to say if they are old (one of the three images belows), similar (similar to one of the images below but not exactly the same), or new (are not one of the images below nor similar to them).</p><p>Once you press the space bar youll be shown these images again but one at time. Then youll begin the practice game.</p><p><img src='run_exp/static/images/tutorial/test/three_indoor_outdoor.png' height='300'></p></div>","","",""
"","html-keyboard-response","213","434253","0.0-213.0","""event"",""trial"",""time""
""fullscreenenter"",""0"",""83483""
","
","
","""event"",""trial"",""time""
""fullscreenenter"",""0"",""83483""
","
","51.80000000074506","<div class='center'><p>Lets practice a little to make sure you understand the difference between new, similar, and old. Lets say you saw these three items in the indoor/outdoor game.</p><p> Try your best to remember these images because youll soon be tested on them in a practice game. In the practice game, youll be shown images and youll have to say if they are old (one of the three images belows), similar (similar to one of the images below but not exactly the same), or new (are not one of the images below nor similar to them).</p><p>Once you press the space bar youll be shown these images again but one at time. Then youll begin the practice game.</p><p><img src='run_exp/static/images/tutorial/test/three_indoor_outdoor.png' height='300'></p><div><p><b>[Press the space bar to continue]</b></p></div>","32","","","","","","","",""
"","planet","214","436258","0.0-214.0","""event"",""trial"",""time""
""fullscreenenter"",""0"",""83483""
","
","
","""event"",""trial"",""time""
""fullscreenenter"",""0"",""83483""
","
","null","run_exp/static/images/tutorial/test/008a.jpg","null","","","","","","","",""
"","boot","215","438261","0.0-215.0","""event"",""trial"",""time""
""fullscreenenter"",""0"",""83483""
","
","
","""event"",""trial"",""time""
""fullscreenenter"",""0"",""83483""
","
","null","run_exp/static/images/tutorial/test/011a.jpg","null","","","","","","","",""
"","lemon","216","440268","0.0-216.0","""event"",""trial"",""time""
""fullscreenenter"",""0"",""83483""
","
","
","""event"",""trial"",""time""
""fullscreenenter"",""0"",""83483""
","
","null","run_exp/static/images/tutorial/test/018a.jpg","null","","","","","","","",""
"","practice_q1","217","445537","0.0-217.0","""event"",""trial"",""time""
""fullscreenenter"",""0"",""83483""
","
","
","""event"",""trial"",""time""
""fullscreenenter"",""0"",""83483""
","
","5266.200000001118","run_exp/static/audio/clip_16_practice_question.m4a","78","","","","","","","",""
"","correct","218","447434","0.0-218.0-0.0","""event"",""trial"",""time""
""fullscreenenter"",""0"",""83483""
","
","
","""event"",""trial"",""time""
""fullscreenenter"",""0"",""83483""
","
","null","run_exp/static/audio/clip_17_correct.m4a","null","","","","","<div class='center'><p>That's correct!</p></div>","","",""
"","html-keyboard-response","219","448538","0.0-218.0-1.0","""event"",""trial"",""time""
""fullscreenenter"",""0"",""83483""
","
","
","""event"",""trial"",""time""
""fullscreenenter"",""0"",""83483""
","
","1101.699999999255","<div class='center'><p>That's correct!</p><div><p><b>[Press the space bar to continue]</b></p></div>","32","","","","","","","",""
"","practice_q2","220","455616","0.0-218.0-2.0","""event"",""trial"",""time""
""fullscreenenter"",""0"",""83483""
","
","
","""event"",""trial"",""time""
""fullscreenenter"",""0"",""83483""
","
","7075.699999999255","run_exp/static/audio/clip_16_practice_question.m4a","86","","","","","","","",""
"","correct","221","457488","0.0-219.0-0.0","""event"",""trial"",""time""
""fullscreenenter"",""0"",""83483""
","
","
","""event"",""trial"",""time""
""fullscreenenter"",""0"",""83483""
","
","null","run_exp/static/audio/clip_17_correct.m4a","null","","","","","<div class='center'><p>That's correct!</p></div>","","",""
"","html-keyboard-response","222","458530","0.0-219.0-1.0","""event"",""trial"",""time""
""fullscreenenter"",""0"",""83483""
","
","
","""event"",""trial"",""time""
""fullscreenenter"",""0"",""83483""
","
","1039.9000000003725","<div class='center'><p>That's correct!</p><div><p><b>[Press the space bar to continue]</b></p></div>","32","","","","","","","",""
"","practice_q3","223","461559","0.0-219.0-2.0","""event"",""trial"",""time""
""fullscreenenter"",""0"",""83483""
","
","
","""event"",""trial"",""time""
""fullscreenenter"",""0"",""83483""
","
","3026.5","run_exp/static/audio/clip_16_practice_question.m4a","86","","","","","","","",""
"","incorrect_q3","224","464292","0.0-220.0-0.0","""event"",""trial"",""time""
""fullscreenenter"",""0"",""83483""
","
","
","""event"",""trial"",""time""
""fullscreenenter"",""0"",""83483""
","
","null","run_exp/static/audio/clip_20_incorrect_similar.m4a","null","","","","","<div class='center'><p>Thats incorrect. Its similar.</p><p><img src='run_exp/static/images/tutorial/test/boot_comparison.png' height='300'></p></div>","","",""
"","html-keyboard-response","225","464402","0.0-220.0-1.0","""event"",""trial"",""time""
""fullscreenenter"",""0"",""83483""
","
","
","""event"",""trial"",""time""
""fullscreenenter"",""0"",""83483""
","
","108","<div class='center'><p>Thats incorrect. Its similar.</p><p><img src='run_exp/static/images/tutorial/test/boot_comparison.png' height='300'></p><div><p><b>[Press the space bar to continue]</b></p></div>","32","","","","","","","",""
"","repeat","226","469145","0.0-221.0-0.0","""event"",""trial"",""time""
""fullscreenenter"",""0"",""83483""
","
","
","""event"",""trial"",""time""
""fullscreenenter"",""0"",""83483""
","
","null","run_exp/static/audio/clip_21_practice_again.m4a","null","","","","","<div class='center'><p>Oops. you missed at least one of these questions. Let's try practicing again. </p></div>","","",""
"","html-keyboard-response","227","470002","0.0-221.0-1.0","""event"",""trial"",""time""
""fullscreenenter"",""0"",""83483""
","
","
","""event"",""trial"",""time""
""fullscreenenter"",""0"",""83483""
","
","854.8000000007451","<div class='center'><p>Oops. you missed at least one of these questions. Let's try practicing again. </p><div><p><b>[Press the space bar to continue]</b></p></div>","32","","","","","","","",""
"","practice_q1","228","471970","0.0-221.0-2.0","""event"",""trial"",""time""
""fullscreenenter"",""0"",""83483""
","
","
","""event"",""trial"",""time""
""fullscreenenter"",""0"",""83483""
","
","1966.0999999996275","run_exp/static/audio/clip_16_practice_question.m4a","78","","","","","","","",""
"","correct","229","473835","0.0-222.0-0.0","""event"",""trial"",""time""
""fullscreenenter"",""0"",""83483""
","
","
","""event"",""trial"",""time""
""fullscreenenter"",""0"",""83483""
","
","null","run_exp/static/audio/clip_17_correct.m4a","null","","","","","<div class='center'><p>That's correct!</p></div>","","",""
"","html-keyboard-response","230","474872","0.0-222.0-1.0","""event"",""trial"",""time""
""fullscreenenter"",""0"",""83483""
","
","
","""event"",""trial"",""time""
""fullscreenenter"",""0"",""83483""
","
","1035.2999999988824","<div class='center'><p>That's correct!</p><div><p><b>[Press the space bar to continue]</b></p></div>","32","","","","","","","",""
"","practice_q2","231","476033","0.0-222.0-2.0","""event"",""trial"",""time""
""fullscreenenter"",""0"",""83483""
","
","
","""event"",""trial"",""time""
""fullscreenenter"",""0"",""83483""
","
","1158.4000000003725","run_exp/static/audio/clip_16_practice_question.m4a","86","","","","","","","",""
"","correct","232","477899","0.0-223.0-0.0","""event"",""trial"",""time""
""fullscreenenter"",""0"",""83483""
","
","
","""event"",""trial"",""time""
""fullscreenenter"",""0"",""83483""
","
","null","run_exp/static/audio/clip_17_correct.m4a","null","","","","","<div class='center'><p>That's correct!</p></div>","","",""
"","html-keyboard-response","233","478482","0.0-223.0-1.0","""event"",""trial"",""time""
""fullscreenenter"",""0"",""83483""
","
","
","""event"",""trial"",""time""
""fullscreenenter"",""0"",""83483""
","
","581.5","<div class='center'><p>That's correct!</p><div><p><b>[Press the space bar to continue]</b></p></div>","32","","","","","","","",""
"","practice_q3","234","479629","0.0-223.0-2.0","""event"",""trial"",""time""
""fullscreenenter"",""0"",""83483""
","
","
","""event"",""trial"",""time""
""fullscreenenter"",""0"",""83483""
","
","1143.6000000014901","run_exp/static/audio/clip_16_practice_question.m4a","66","","","","","","","",""
"","correct","235","481591","0.0-224.0-0.0","""event"",""trial"",""time""
""fullscreenenter"",""0"",""83483""
","
","
","""event"",""trial"",""time""
""fullscreenenter"",""0"",""83483""
","
","null","run_exp/static/audio/clip_17_correct.m4a","null","","","","","<div class='center'><p>That's correct!</p></div>","","",""
"","html-keyboard-response","236","482382","0.0-224.0-1.0","""event"",""trial"",""time""
""fullscreenenter"",""0"",""83483""
","
","
","""event"",""trial"",""time""
""fullscreenenter"",""0"",""83483""
","
","788.1999999992549","<div class='center'><p>That's correct!</p><div><p><b>[Press the space bar to continue]</b></p></div>","32","","","","","","","",""
"","begin_text","237","500841","0.0-225.0-0.0","""event"",""trial"",""time""
""fullscreenenter"",""0"",""83483""
","
","
","""event"",""trial"",""time""
""fullscreenenter"",""0"",""83483""
","
","null","run_exp/static/audio/clip_22_begin_test.m4a","null","","","","","<div class='center'><p>On to the real game where well test your memory of items from the indoor/outdoor game. For each item, you need to indicate if the item is <b>old</b> by pressing the <b>v</b> key, <b>similar</b> by pressing the <b>b</b> key, or <b>new</b> by pressing the <b>n</b> key. </p></div>","","",""
"","html-keyboard-response","238","501302","0.0-225.0-1.0","""event"",""trial"",""time""
""fullscreenenter"",""0"",""83483""
","
","
","""event"",""trial"",""time""
""fullscreenenter"",""0"",""83483""
","
","458.7999999988824","<div class='center'><p>On to the real game where well test your memory of items from the indoor/outdoor game. For each item, you need to indicate if the item is <b>old</b> by pressing the <b>v</b> key, <b>similar</b> by pressing the <b>b</b> key, or <b>new</b> by pressing the <b>n</b> key. </p><div><p><b>[Press the space bar to continue]</b></p></div>","32","","","","","","","",""
"","image","239","503449","0.0-226.0-0.0","""event"",""trial"",""time""
""fullscreenenter"",""0"",""83483""
","
","
","""event"",""trial"",""time""
""fullscreenenter"",""0"",""83483""
","
","2144.5","run_exp/static/images/Set 6_rs/136a.jpg","78","","","","","","test","TF","4"
"","show_choice","240","503953","0.0-226.0-1.0","""event"",""trial"",""time""
""fullscreenenter"",""0"",""83483""
","
","
","""event"",""trial"",""time""
""fullscreenenter"",""0"",""83483""
","
","null","run_exp/static/images/Set 6_rs/136a.jpg","null","","","","","","test","TF",""
"","html-keyboard-response","241","504460","0.0-226.0-2.0","""event"",""trial"",""time""
""fullscreenenter"",""0"",""83483""
","
","
","""event"",""trial"",""time""
""fullscreenenter"",""0"",""83483""
","
","null","<p></p>","null","","","","","","","",""
"","image","242","506373","0.0-227.0-0.0","""event"",""trial"",""time""
""fullscreenenter"",""0"",""83483""
","
","
","""event"",""trial"",""time""
""fullscreenenter"",""0"",""83483""
","
","1909.300000000745","run_exp/static/images/Set 6_rs/077a.jpg","78","","","","","","test","TF","3"
"","show_choice","243","506875","0.0-227.0-1.0","""event"",""trial"",""time""
""fullscreenenter"",""0"",""83483""
","
","
","""event"",""trial"",""time""
""fullscreenenter"",""0"",""83483""
","
","null","run_exp/static/images/Set 6_rs/077a.jpg","null","","","","","","test","TF",""
"","html-keyboard-response","244","507380","0.0-227.0-2.0","""event"",""trial"",""time""
""fullscreenenter"",""0"",""83483""
","
","
","""event"",""trial"",""time""
""fullscreenenter"",""0"",""83483""
","
","null","<p></p>","null","","","","","","","",""
"","image","245","508185","0.0-228.0-0.0","""event"",""trial"",""time""
""fullscreenenter"",""0"",""83483""
","
","
","""event"",""trial"",""time""
""fullscreenenter"",""0"",""83483""
","
","802.1999999992549","run_exp/static/images/Set 6_rs/005a.jpg","78","","","","","","test","TF","5"
"","show_choice","246","508688","0.0-228.0-1.0","""event"",""trial"",""time""
""fullscreenenter"",""0"",""83483""
","
","
","""event"",""trial"",""time""
""fullscreenenter"",""0"",""83483""
","
","null","run_exp/static/images/Set 6_rs/005a.jpg","null","","","","","","test","TF",""
"","html-keyboard-response","247","509191","0.0-228.0-2.0","""event"",""trial"",""time""
""fullscreenenter"",""0"",""83483""
","
","
","""event"",""trial"",""time""
""fullscreenenter"",""0"",""83483""
","
","null","<p></p>","null","","","","","","","",""
"","image","248","510425","0.0-229.0-0.0","""event"",""trial"",""time""
""fullscreenenter"",""0"",""83483""
","
","
","""event"",""trial"",""time""
""fullscreenenter"",""0"",""83483""
","
","1231.5999999996275","run_exp/static/images/Set 6_rs/178a.jpg","86","","","","","","test","TR","3"
"","show_choice","249","510928","0.0-229.0-1.0","""event"",""trial"",""time""
""fullscreenenter"",""0"",""83483""
","
","
","""event"",""trial"",""time""
""fullscreenenter"",""0"",""83483""
","
","null","run_exp/static/images/Set 6_rs/178a.jpg","null","","","","","","test","TR",""
"","html-keyboard-response","250","511434","0.0-229.0-2.0","""event"",""trial"",""time""
""fullscreenenter"",""0"",""83483""
","
","
","""event"",""trial"",""time""
""fullscreenenter"",""0"",""83483""
","
","null","<p></p>","null","","","","","","","",""
"","image","251","512667","0.0-230.0-0.0","""event"",""trial"",""time""
""fullscreenenter"",""0"",""83483""
","
","
","""event"",""trial"",""time""
""fullscreenenter"",""0"",""83483""
","
","1229.7999999988824","run_exp/static/images/Set 6_rs/133a.jpg","78","","","","","","test","TF","4"
"","show_choice","252","513170","0.0-230.0-1.0","""event"",""trial"",""time""
""fullscreenenter"",""0"",""83483""
","
","
","""event"",""trial"",""time""
""fullscreenenter"",""0"",""83483""
","
","null","run_exp/static/images/Set 6_rs/133a.jpg","null","","","","","","test","TF",""
"","html-keyboard-response","253","513677","0.0-230.0-2.0","""event"",""trial"",""time""
""fullscreenenter"",""0"",""83483""
","
","
","""event"",""trial"",""time""
""fullscreenenter"",""0"",""83483""
","
","null","<p></p>","null","","","","","","","",""
"","image","254","515449","0.0-231.0-0.0","""event"",""trial"",""time""
""fullscreenenter"",""0"",""83483""
","
","
","""event"",""trial"",""time""
""fullscreenenter"",""0"",""83483""
","
","1770.4000000003725","run_exp/static/images/Set 6_rs/108a.jpg","86","","","","","","test","TR","5"
"","show_choice","255","515953","0.0-231.0-1.0","""event"",""trial"",""time""
""fullscreenenter"",""0"",""83483""
","
","
","""event"",""trial"",""time""
""fullscreenenter"",""0"",""83483""
","
","null","run_exp/static/images/Set 6_rs/108a.jpg","null","","","","","","test","TR",""
"","html-keyboard-response","256","516459","0.0-231.0-2.0","""event"",""trial"",""time""
""fullscreenenter"",""0"",""83483""
","
","
","""event"",""trial"",""time""
""fullscreenenter"",""0"",""83483""
","
","null","<p></p>","null","","","","","","","",""
"","image","257","518152","0.0-232.0-0.0","""event"",""trial"",""time""
""fullscreenenter"",""0"",""83483""
","
","
","""event"",""trial"",""time""
""fullscreenenter"",""0"",""83483""
","
","1689.800000000745","run_exp/static/images/Set 6_rs/066b.jpg","66","","","","","","test","TL","5"
"","show_choice","258","518655","0.0-232.0-1.0","""event"",""trial"",""time""
""fullscreenenter"",""0"",""83483""
","
","
","""event"",""trial"",""time""
""fullscreenenter"",""0"",""83483""
","
","null","run_exp/static/images/Set 6_rs/066b.jpg","null","","","","","","test","TL",""
"","html-keyboard-response","259","519158","0.0-232.0-2.0","""event"",""trial"",""time""
""fullscreenenter"",""0"",""83483""
","
","
","""event"",""trial"",""time""
""fullscreenenter"",""0"",""83483""
","
","null","<p></p>","null","","","","","","","",""
"","image","260","520771","0.0-233.0-0.0","""event"",""trial"",""time""
""fullscreenenter"",""0"",""83483""
","
","
","""event"",""trial"",""time""
""fullscreenenter"",""0"",""83483""
","
","1609.7999999988824","run_exp/static/images/Set 6_rs/131a.jpg","86","","","","","","test","TR","5"
"","show_choice","261","521274","0.0-233.0-1.0","""event"",""trial"",""time""
""fullscreenenter"",""0"",""83483""
","
","
","""event"",""trial"",""time""
""fullscreenenter"",""0"",""83483""
","
","null","run_exp/static/images/Set 6_rs/131a.jpg","null","","","","","","test","TR",""
"","html-keyboard-response","262","521776","0.0-233.0-2.0","""event"",""trial"",""time""
""fullscreenenter"",""0"",""83483""
","
","
","""event"",""trial"",""time""
""fullscreenenter"",""0"",""83483""
","
","null","<p></p>","null","","","","","","","",""
"","image","263","523647","0.0-234.0-0.0","""event"",""trial"",""time""
""fullscreenenter"",""0"",""83483""
","
","
","""event"",""trial"",""time""
""fullscreenenter"",""0"",""83483""
","
","1867.5999999996275","run_exp/static/images/Set 6_rs/055b.jpg","66","","","","","","test","TL","4"
"","show_choice","264","524152","0.0-234.0-1.0","""event"",""trial"",""time""
""fullscreenenter"",""0"",""83483""
","
","
","""event"",""trial"",""time""
""fullscreenenter"",""0"",""83483""
","
","null","run_exp/static/images/Set 6_rs/055b.jpg","null","","","","","","test","TL",""
"","html-keyboard-response","265","524655","0.0-234.0-2.0","""event"",""trial"",""time""
""fullscreenenter"",""0"",""83483""
","
","
","""event"",""trial"",""time""
""fullscreenenter"",""0"",""83483""
","
","null","<p></p>","null","","","","","","","",""
"","image","266","526048","0.0-235.0-0.0","""event"",""trial"",""time""
""fullscreenenter"",""0"",""83483""
","
","
","""event"",""trial"",""time""
""fullscreenenter"",""0"",""83483""
","
","1389","run_exp/static/images/Set 6_rs/007a.jpg","66","","","","","","test","TR","3"
"","show_choice","267","526551","0.0-235.0-1.0","""event"",""trial"",""time""
""fullscreenenter"",""0"",""83483""
","
","
","""event"",""trial"",""time""
""fullscreenenter"",""0"",""83483""
","
","null","run_exp/static/images/Set 6_rs/007a.jpg","null","","","","","","test","TR",""
"","html-keyboard-response","268","527058","0.0-235.0-2.0","""event"",""trial"",""time""
""fullscreenenter"",""0"",""83483""
","
","
","""event"",""trial"",""time""
""fullscreenenter"",""0"",""83483""
","
","null","<p></p>","null","","","","","","","",""
"","image","269","528371","0.0-236.0-0.0","""event"",""trial"",""time""
""fullscreenenter"",""0"",""83483""
","
","
","""event"",""trial"",""time""
""fullscreenenter"",""0"",""83483""
","
","1309.4000000003725","run_exp/static/images/Set 6_rs/088a.jpg","86","","","","","","test","TR","2"
"","show_choice","270","528875","0.0-236.0-1.0","""event"",""trial"",""time""
""fullscreenenter"",""0"",""83483""
","
","
","""event"",""trial"",""time""
""fullscreenenter"",""0"",""83483""
","
","null","run_exp/static/images/Set 6_rs/088a.jpg","null","","","","","","test","TR",""
"","html-keyboard-response","271","529380","0.0-236.0-2.0","""event"",""trial"",""time""
""fullscreenenter"",""0"",""83483""
","
","
","""event"",""trial"",""time""
""fullscreenenter"",""0"",""83483""
","
","null","<p></p>","null","","","","","","","",""
"","image","272","530729","0.0-237.0-0.0","""event"",""trial"",""time""
""fullscreenenter"",""0"",""83483""
","
","
","""event"",""trial"",""time""
""fullscreenenter"",""0"",""83483""
","
","1345.9000000003725","run_exp/static/images/Set 6_rs/123b.jpg","86","","","","","","test","TL","2"
"","show_choice","273","531232","0.0-237.0-1.0","""event"",""trial"",""time""
""fullscreenenter"",""0"",""83483""
","
","
","""event"",""trial"",""time""
""fullscreenenter"",""0"",""83483""
","
","null","run_exp/static/images/Set 6_rs/123b.jpg","null","","","","","","test","TL",""
"","html-keyboard-response","274","531737","0.0-237.0-2.0","""event"",""trial"",""time""
""fullscreenenter"",""0"",""83483""
","
","
","""event"",""trial"",""time""
""fullscreenenter"",""0"",""83483""
","
","null","<p></p>","null","","","","","","","",""
"","image","275","532924","0.0-238.0-0.0","""event"",""trial"",""time""
""fullscreenenter"",""0"",""83483""
","
","
","""event"",""trial"",""time""
""fullscreenenter"",""0"",""83483""
","
","1186","run_exp/static/images/Set 6_rs/028a.jpg","78","","","","","","test","TF","1"
"","show_choice","276","533427","0.0-238.0-1.0","""event"",""trial"",""time""
""fullscreenenter"",""0"",""83483""
","
","
","""event"",""trial"",""time""
""fullscreenenter"",""0"",""83483""
","
","null","run_exp/static/images/Set 6_rs/028a.jpg","null","","","","","","test","TF",""
"","html-keyboard-response","277","533931","0.0-238.0-2.0","""event"",""trial"",""time""
""fullscreenenter"",""0"",""83483""
","
","
","""event"",""trial"",""time""
""fullscreenenter"",""0"",""83483""
","
","null","<p></p>","null","","","","","","","",""
"","image","278","535674","0.0-239.0-0.0","""event"",""trial"",""time""
""fullscreenenter"",""0"",""83483""
","
","
","""event"",""trial"",""time""
""fullscreenenter"",""0"",""83483""
","
","1739.9000000003725","run_exp/static/images/Set 6_rs/144b.jpg","86","","","","","","test","TL","4"
"","show_choice","279","536178","0.0-239.0-1.0","""event"",""trial"",""time""
""fullscreenenter"",""0"",""83483""
","
","
","""event"",""trial"",""time""
""fullscreenenter"",""0"",""83483""
","
","null","run_exp/static/images/Set 6_rs/144b.jpg","null","","","","","","test","TL",""
"","html-keyboard-response","280","536683","0.0-239.0-2.0","""event"",""trial"",""time""
""fullscreenenter"",""0"",""83483""
","
","
","""event"",""trial"",""time""
""fullscreenenter"",""0"",""83483""
","
","null","<p></p>","null","","","","","","","",""
"","image","281","537821","0.0-240.0-0.0","""event"",""trial"",""time""
""fullscreenenter"",""0"",""83483""
","
","
","""event"",""trial"",""time""
""fullscreenenter"",""0"",""83483""
","
","1135.7999999988824","run_exp/static/images/Set 6_rs/022a.jpg","78","","","","","","test","TF","4"
"","show_choice","282","538326","0.0-240.0-1.0","""event"",""trial"",""time""
""fullscreenenter"",""0"",""83483""
","
","
","""event"",""trial"",""time""
""fullscreenenter"",""0"",""83483""
","
","null","run_exp/static/images/Set 6_rs/022a.jpg","null","","","","","","test","TF",""
"","html-keyboard-response","283","538831","0.0-240.0-2.0","""event"",""trial"",""time""
""fullscreenenter"",""0"",""83483""
","
","
","""event"",""trial"",""time""
""fullscreenenter"",""0"",""83483""
","
","null","<p></p>","null","","","","","","","",""
"","image","284","540192","0.0-241.0-0.0","""event"",""trial"",""time""
""fullscreenenter"",""0"",""83483""
","
","
","""event"",""trial"",""time""
""fullscreenenter"",""0"",""83483""
","
","1358.4000000003725","run_exp/static/images/Set 6_rs/121a.jpg","86","","","","","","test","TR","4"
"","show_choice","285","540694","0.0-241.0-1.0","""event"",""trial"",""time""
""fullscreenenter"",""0"",""83483""
","
","
","""event"",""trial"",""time""
""fullscreenenter"",""0"",""83483""
","
","null","run_exp/static/images/Set 6_rs/121a.jpg","null","","","","","","test","TR",""
"","html-keyboard-response","286","541199","0.0-241.0-2.0","""event"",""trial"",""time""
""fullscreenenter"",""0"",""83483""
","
","
","""event"",""trial"",""time""
""fullscreenenter"",""0"",""83483""
","
","null","<p></p>","null","","","","","","","",""
"","image","287","542108","0.0-242.0-0.0","""event"",""trial"",""time""
""fullscreenenter"",""0"",""83483""
","
","
","""event"",""trial"",""time""
""fullscreenenter"",""0"",""83483""
","
","905.2000000011176","run_exp/static/images/Set 6_rs/116b.jpg","86","","","","","","test","TL","2"
"","show_choice","288","542611","0.0-242.0-1.0","""event"",""trial"",""time""
""fullscreenenter"",""0"",""83483""
","
","
","""event"",""trial"",""time""
""fullscreenenter"",""0"",""83483""
","
","null","run_exp/static/images/Set 6_rs/116b.jpg","null","","","","","","test","TL",""
"","html-keyboard-response","289","543115","0.0-242.0-2.0","""event"",""trial"",""time""
""fullscreenenter"",""0"",""83483""
","
","
","""event"",""trial"",""time""
""fullscreenenter"",""0"",""83483""
","
","null","<p></p>","null","","","","","","","",""
"","image","290","544273","0.0-243.0-0.0","""event"",""trial"",""time""
""fullscreenenter"",""0"",""83483""
","
","
","""event"",""trial"",""time""
""fullscreenenter"",""0"",""83483""
","
","1155.5","run_exp/static/images/Set 6_rs/190a.jpg","78","","","","","","test","TF","3"
"","show_choice","291","544776","0.0-243.0-1.0","""event"",""trial"",""time""
""fullscreenenter"",""0"",""83483""
","
","
","""event"",""trial"",""time""
""fullscreenenter"",""0"",""83483""
","
","null","run_exp/static/images/Set 6_rs/190a.jpg","null","","","","","","test","TF",""
"","html-keyboard-response","292","545280","0.0-243.0-2.0","""event"",""trial"",""time""
""fullscreenenter"",""0"",""83483""
","
","
","""event"",""trial"",""time""
""fullscreenenter"",""0"",""83483""
","
","null","<p></p>","null","","","","","","","",""
"","image","293","546949","0.0-244.0-0.0","""event"",""trial"",""time""
""fullscreenenter"",""0"",""83483""
","
","
","""event"",""trial"",""time""
""fullscreenenter"",""0"",""83483""
","
","1665.800000000745","run_exp/static/images/Set 6_rs/021a.jpg","66","","","","","","test","TF","2"
"","show_choice","294","547452","0.0-244.0-1.0","""event"",""trial"",""time""
""fullscreenenter"",""0"",""83483""
","
","
","""event"",""trial"",""time""
""fullscreenenter"",""0"",""83483""
","
","null","run_exp/static/images/Set 6_rs/021a.jpg","null","","","","","","test","TF",""
"","html-keyboard-response","295","547956","0.0-244.0-2.0","""event"",""trial"",""time""
""fullscreenenter"",""0"",""83483""
","
","
","""event"",""trial"",""time""
""fullscreenenter"",""0"",""83483""
","
","null","<p></p>","null","","","","","","","",""
"","image","296","549035","0.0-245.0-0.0","""event"",""trial"",""time""
""fullscreenenter"",""0"",""83483""
","
","
","""event"",""trial"",""time""
""fullscreenenter"",""0"",""83483""
","
","1076","run_exp/static/images/Set 6_rs/186a.jpg","86","","","","","","test","TR","5"
"","show_choice","297","549538","0.0-245.0-1.0","""event"",""trial"",""time""
""fullscreenenter"",""0"",""83483""
","
","
","""event"",""trial"",""time""
""fullscreenenter"",""0"",""83483""
","
","null","run_exp/static/images/Set 6_rs/186a.jpg","null","","","","","","test","TR",""
"","html-keyboard-response","298","550045","0.0-245.0-2.0","""event"",""trial"",""time""
""fullscreenenter"",""0"",""83483""
","
","
","""event"",""trial"",""time""
""fullscreenenter"",""0"",""83483""
","
","null","<p></p>","null","","","","","","","",""
"","image","299","551293","0.0-246.0-0.0","""event"",""trial"",""time""
""fullscreenenter"",""0"",""83483""
","
","
","""event"",""trial"",""time""
""fullscreenenter"",""0"",""83483""
","
","1244.5","run_exp/static/images/Set 6_rs/052a.jpg","78","","","","","","test","TF","1"
"","show_choice","300","551796","0.0-246.0-1.0","""event"",""trial"",""time""
""fullscreenenter"",""0"",""83483""
","
","
","""event"",""trial"",""time""
""fullscreenenter"",""0"",""83483""
","
","null","run_exp/static/images/Set 6_rs/052a.jpg","null","","","","","","test","TF",""
"","html-keyboard-response","301","552299","0.0-246.0-2.0","""event"",""trial"",""time""
""fullscreenenter"",""0"",""83483""
","
","
","""event"",""trial"",""time""
""fullscreenenter"",""0"",""83483""
","
","null","<p></p>","null","","","","","","","",""
"","image","302","553471","0.0-247.0-0.0","""event"",""trial"",""time""
""fullscreenenter"",""0"",""83483""
","
","
","""event"",""trial"",""time""
""fullscreenenter"",""0"",""83483""
","
","1168.699999999255","run_exp/static/images/Set 6_rs/169a.jpg","86","","","","","","test","TR","4"
"","show_choice","303","553976","0.0-247.0-1.0","""event"",""trial"",""time""
""fullscreenenter"",""0"",""83483""
","
","
","""event"",""trial"",""time""
""fullscreenenter"",""0"",""83483""
","
","null","run_exp/static/images/Set 6_rs/169a.jpg","null","","","","","","test","TR",""
"","html-keyboard-response","304","554481","0.0-247.0-2.0","""event"",""trial"",""time""
""fullscreenenter"",""0"",""83483""
","
","
","""event"",""trial"",""time""
""fullscreenenter"",""0"",""83483""
","
","null","<p></p>","null","","","","","","","",""
"","image","305","555356","0.0-248.0-0.0","""event"",""trial"",""time""
""fullscreenenter"",""0"",""83483""
","
","
","""event"",""trial"",""time""
""fullscreenenter"",""0"",""83483""
","
","871.6999999992549","run_exp/static/images/Set 6_rs/014b.jpg","86","","","","","","test","TL","5"
"","show_choice","306","555859","0.0-248.0-1.0","""event"",""trial"",""time""
""fullscreenenter"",""0"",""83483""
","
","
","""event"",""trial"",""time""
""fullscreenenter"",""0"",""83483""
","
","null","run_exp/static/images/Set 6_rs/014b.jpg","null","","","","","","test","TL",""
"","html-keyboard-response","307","556362","0.0-248.0-2.0","""event"",""trial"",""time""
""fullscreenenter"",""0"",""83483""
","
","
","""event"",""trial"",""time""
""fullscreenenter"",""0"",""83483""
","
","null","<p></p>","null","","","","","","","",""
"","image","308","556963","0.0-249.0-0.0","""event"",""trial"",""time""
""fullscreenenter"",""0"",""83483""
","
","
","""event"",""trial"",""time""
""fullscreenenter"",""0"",""83483""
","
","598.4000000003725","run_exp/static/images/Set 6_rs/152a.jpg","86","","","","","","test","TR","2"
"","show_choice","309","557467","0.0-249.0-1.0","""event"",""trial"",""time""
""fullscreenenter"",""0"",""83483""
","
","
","""event"",""trial"",""time""
""fullscreenenter"",""0"",""83483""
","
","null","run_exp/static/images/Set 6_rs/152a.jpg","null","","","","","","test","TR",""
"","html-keyboard-response","310","557970","0.0-249.0-2.0","""event"",""trial"",""time""
""fullscreenenter"",""0"",""83483""
","
","
","""event"",""trial"",""time""
""fullscreenenter"",""0"",""83483""
","
","null","<p></p>","null","","","","","","","",""
"","image","311","558620","0.0-250.0-0.0","""event"",""trial"",""time""
""fullscreenenter"",""0"",""83483""
","
","
","""event"",""trial"",""time""
""fullscreenenter"",""0"",""83483""
","
","648.0999999996275","run_exp/static/images/Set 6_rs/177a.jpg","86","","","","","","test","TR","5"
"","show_choice","312","559125","0.0-250.0-1.0","""event"",""trial"",""time""
""fullscreenenter"",""0"",""83483""
","
","
","""event"",""trial"",""time""
""fullscreenenter"",""0"",""83483""
","
","null","run_exp/static/images/Set 6_rs/177a.jpg","null","","","","","","test","TR",""
"","html-keyboard-response","313","559630","0.0-250.0-2.0","""event"",""trial"",""time""
""fullscreenenter"",""0"",""83483""
","
","
","""event"",""trial"",""time""
""fullscreenenter"",""0"",""83483""
","
","null","<p></p>","null","","","","","","","",""
"","image","314","560395","0.0-251.0-0.0","""event"",""trial"",""time""
""fullscreenenter"",""0"",""83483""
","
","
","""event"",""trial"",""time""
""fullscreenenter"",""0"",""83483""
","
","762.4000000003725","run_exp/static/images/Set 6_rs/074b.jpg","86","","","","","","test","TL","4"
"","show_choice","315","560899","0.0-251.0-1.0","""event"",""trial"",""time""
""fullscreenenter"",""0"",""83483""
","
","
","""event"",""trial"",""time""
""fullscreenenter"",""0"",""83483""
","
","null","run_exp/static/images/Set 6_rs/074b.jpg","null","","","","","","test","TL",""
"","html-keyboard-response","316","561406","0.0-251.0-2.0","""event"",""trial"",""time""
""fullscreenenter"",""0"",""83483""
","
","
","""event"",""trial"",""time""
""fullscreenenter"",""0"",""83483""
","
","null","<p></p>","null","","","","","","","",""
"","image","317","562295","0.0-252.0-0.0","""event"",""trial"",""time""
""fullscreenenter"",""0"",""83483""
","
","
","""event"",""trial"",""time""
""fullscreenenter"",""0"",""83483""
","
","885.6999999992549","run_exp/static/images/Set 6_rs/065a.jpg","86","","","","","","test","TF","3"
"","show_choice","318","562799","0.0-252.0-1.0","""event"",""trial"",""time""
""fullscreenenter"",""0"",""83483""
","
","
","""event"",""trial"",""time""
""fullscreenenter"",""0"",""83483""
","
","null","run_exp/static/images/Set 6_rs/065a.jpg","null","","","","","","test","TF",""
"","html-keyboard-response","319","563304","0.0-252.0-2.0","""event"",""trial"",""time""
""fullscreenenter"",""0"",""83483""
","
","
","""event"",""trial"",""time""
""fullscreenenter"",""0"",""83483""
","
","null","<p></p>","null","","","","","","","",""
"","image","320","564430","0.0-253.0-0.0","""event"",""trial"",""time""
""fullscreenenter"",""0"",""83483""
","
","
","""event"",""trial"",""time""
""fullscreenenter"",""0"",""83483""
","
","1122.2000000011176","run_exp/static/images/Set 6_rs/100a.jpg","78","","","","","","test","TF","2"
"","show_choice","321","564933","0.0-253.0-1.0","""event"",""trial"",""time""
""fullscreenenter"",""0"",""83483""
","
","
","""event"",""trial"",""time""
""fullscreenenter"",""0"",""83483""
","
","null","run_exp/static/images/Set 6_rs/100a.jpg","null","","","","","","test","TF",""
"","html-keyboard-response","322","565439","0.0-253.0-2.0","""event"",""trial"",""time""
""fullscreenenter"",""0"",""83483""
","
","
","""event"",""trial"",""time""
""fullscreenenter"",""0"",""83483""
","
","null","<p></p>","null","","","","","","","",""
"","image","323","566465","0.0-254.0-0.0","""event"",""trial"",""time""
""fullscreenenter"",""0"",""83483""
","
","
","""event"",""trial"",""time""
""fullscreenenter"",""0"",""83483""
","
","1022.6999999992549","run_exp/static/images/Set 6_rs/112a.jpg","86","","","","","","test","TR","5"
"","show_choice","324","566968","0.0-254.0-1.0","""event"",""trial"",""time""
""fullscreenenter"",""0"",""83483""
","
","
","""event"",""trial"",""time""
""fullscreenenter"",""0"",""83483""
","
","null","run_exp/static/images/Set 6_rs/112a.jpg","null","","","","","","test","TR",""
"","html-keyboard-response","325","567472","0.0-254.0-2.0","""event"",""trial"",""time""
""fullscreenenter"",""0"",""83483""
","
","
","""event"",""trial"",""time""
""fullscreenenter"",""0"",""83483""
","
","null","<p></p>","null","","","","","","","",""
"","image","326","568682","0.0-255.0-0.0","""event"",""trial"",""time""
""fullscreenenter"",""0"",""83483""
","
","
","""event"",""trial"",""time""
""fullscreenenter"",""0"",""83483""
","
","1206.800000000745","run_exp/static/images/Set 6_rs/090a.jpg","78","","","","","","test","TF","5"
"","show_choice","327","569185","0.0-255.0-1.0","""event"",""trial"",""time""
""fullscreenenter"",""0"",""83483""
","
","
","""event"",""trial"",""time""
""fullscreenenter"",""0"",""83483""
","
","null","run_exp/static/images/Set 6_rs/090a.jpg","null","","","","","","test","TF",""
"","html-keyboard-response","328","569689","0.0-255.0-2.0","""event"",""trial"",""time""
""fullscreenenter"",""0"",""83483""
","
","
","""event"",""trial"",""time""
""fullscreenenter"",""0"",""83483""
","
","null","<p></p>","null","","","","","","","",""
"","image","329","571156","0.0-256.0-0.0","""event"",""trial"",""time""
""fullscreenenter"",""0"",""83483""
","
","
","""event"",""trial"",""time""
""fullscreenenter"",""0"",""83483""
","
","1463.199999999255","run_exp/static/images/Set 6_rs/050b.jpg","86","","","","","","test","TL","3"
"","show_choice","330","571659","0.0-256.0-1.0","""event"",""trial"",""time""
""fullscreenenter"",""0"",""83483""
","
","
","""event"",""trial"",""time""
""fullscreenenter"",""0"",""83483""
","
","null","run_exp/static/images/Set 6_rs/050b.jpg","null","","","","","","test","TL",""
"","html-keyboard-response","331","572163","0.0-256.0-2.0","""event"",""trial"",""time""
""fullscreenenter"",""0"",""83483""
","
","
","""event"",""trial"",""time""
""fullscreenenter"",""0"",""83483""
","
","null","<p></p>","null","","","","","","","",""
"","image","332","574177","0.0-257.0-0.0","""event"",""trial"",""time""
""fullscreenenter"",""0"",""83483""
","
","
","""event"",""trial"",""time""
""fullscreenenter"",""0"",""83483""
","
","2010.800000000745","run_exp/static/images/Set 6_rs/047a.jpg","78","","","","","","test","TF","3"
"","show_choice","333","574680","0.0-257.0-1.0","""event"",""trial"",""time""
""fullscreenenter"",""0"",""83483""
","
","
","""event"",""trial"",""time""
""fullscreenenter"",""0"",""83483""
","
","null","run_exp/static/images/Set 6_rs/047a.jpg","null","","","","","","test","TF",""
"","html-keyboard-response","334","575186","0.0-257.0-2.0","""event"",""trial"",""time""
""fullscreenenter"",""0"",""83483""
","
","
","""event"",""trial"",""time""
""fullscreenenter"",""0"",""83483""
","
","null","<p></p>","null","","","","","","","",""
"","image","335","576687","0.0-258.0-0.0","""event"",""trial"",""time""
