"success","trial_type","trial_index","time_elapsed","internal_node_id","interactions","blur_events","focus_events","fullscreenenter_events","fullscreenexit_events","rt","stimulus","key_press","subject_id","participant_id","age","gender","prompt","phase","condition","lure_bin"
"true","fullscreen","0","7241","0.0-0.0","""event"",""trial"",""time""
""fullscreenenter"",""0"",""6288""
","
","
","""event"",""trial"",""time""
""fullscreenenter"",""0"",""6288""
","
","","","","","","","","","","",""
"","pavlovia","1","7244","0.0-1.0","""event"",""trial"",""time""
""fullscreenenter"",""0"",""6288""
","
","
","""event"",""trial"",""time""
""fullscreenenter"",""0"",""6288""
","
","","","","","","","","","","",""
"","welcome","2","42071","0.0-2.0","""event"",""trial"",""time""
""fullscreenenter"",""0"",""6288""
","
","
","""event"",""trial"",""time""
""fullscreenenter"",""0"",""6288""
","
","null","run_exp/static/audio/clip_1_welcome.m4a","null","491","534","23","Female","<div class='center'><p>Welcome to the third part of the study! First, you'll be shown pictures of items one at a time. For each picture, you have to decide if the item is typically found indoors or outdoors.</p><p>If you think it's usually found indoors, then press <b>v</b> key on your keyboard. If you think it's usually found outdoors, then press the <b>n</b> key.There will be reminders on the screen to help you remember which keys to press. </p><p>If you're not sure whether the item is an indoor item or an outdoor item, go ahead and take a guess but try your best not to skip that choice. </p></div>","","",""
"","html-keyboard-response","3","45021","0.0-3.0","""event"",""trial"",""time""
""fullscreenenter"",""0"",""6288""
","
","
","""event"",""trial"",""time""
""fullscreenenter"",""0"",""6288""
","
","2946.9000000953674","<div class='center'><p>Welcome to the third part of the study! First, you'll be shown pictures of items one at a time. For each picture, you have to decide if the item is typically found indoors or outdoors.</p><p>If you think it's usually found indoors, then press <b>v</b> key on your keyboard. If you think it's usually found outdoors, then press the <b>n</b> key.There will be reminders on the screen to help you remember which keys to press. </p><p>If you're not sure whether the item is an indoor item or an outdoor item, go ahead and take a guess but try your best not to skip that choice. </p><div><p><b>[Press the space bar to continue]</b></p></div>","32","","","","","","","",""
"","image","4","46976","0.0-4.0","""event"",""trial"",""time""
""fullscreenenter"",""0"",""6288""
","
","
","""event"",""trial"",""time""
""fullscreenenter"",""0"",""6288""
","
","1952.3999999761581","run_exp/static/images/Set 6_rs/191a.jpg","78","","","","","","learn","SL",""
"","show_choice","5","47028","0.0-5.0","""event"",""trial"",""time""
""fullscreenenter"",""0"",""6288""
","
","
","""event"",""trial"",""time""
""fullscreenenter"",""0"",""6288""
","
","null","run_exp/static/images/Set 6_rs/191a.jpg","null","","","","","","learn","SL",""
"","html-keyboard-response","6","47534","0.0-6.0","""event"",""trial"",""time""
""fullscreenenter"",""0"",""6288""
","
","
","""event"",""trial"",""time""
""fullscreenenter"",""0"",""6288""
","
","null","<p></p>","null","","","","","","","",""
"","image","7","49084","0.0-7.0","""event"",""trial"",""time""
""fullscreenenter"",""0"",""6288""
","
","
","""event"",""trial"",""time""
""fullscreenenter"",""0"",""6288""
","
","1548","run_exp/static/images/Set 6_rs/131a.jpg","86","","","","","","learn","SR",""
"","show_choice","8","49540","0.0-8.0","""event"",""trial"",""time""
""fullscreenenter"",""0"",""6288""
","
","
","""event"",""trial"",""time""
""fullscreenenter"",""0"",""6288""
","
","null","run_exp/static/images/Set 6_rs/131a.jpg","null","","","","","","learn","SR",""
"","html-keyboard-response","9","50046","0.0-9.0","""event"",""trial"",""time""
""fullscreenenter"",""0"",""6288""
","
","
","""event"",""trial"",""time""
""fullscreenenter"",""0"",""6288""
","
","null","<p></p>","null","","","","","","","",""
"","image","10","50893","0.0-10.0","""event"",""trial"",""time""
""fullscreenenter"",""0"",""6288""
","
","
","""event"",""trial"",""time""
""fullscreenenter"",""0"",""6288""
","
","843.7999999523163","run_exp/static/images/Set 6_rs/177a.jpg","78","","","","","","learn","SR",""
"","show_choice","11","52055","0.0-11.0","""event"",""trial"",""time""
""fullscreenenter"",""0"",""6288""
","
","
","""event"",""trial"",""time""
""fullscreenenter"",""0"",""6288""
","
","null","run_exp/static/images/Set 6_rs/177a.jpg","null","","","","","","learn","SR",""
"","html-keyboard-response","12","52560","0.0-12.0","""event"",""trial"",""time""
""fullscreenenter"",""0"",""6288""
","
","
","""event"",""trial"",""time""
""fullscreenenter"",""0"",""6288""
","
","null","<p></p>","null","","","","","","","",""
"","image","13","53284","0.0-13.0","""event"",""trial"",""time""
""fullscreenenter"",""0"",""6288""
","
","
","""event"",""trial"",""time""
""fullscreenenter"",""0"",""6288""
","
","720.9000000953674","run_exp/static/images/Set 6_rs/079a.jpg","86","","","","","","learn","SL",""
"","show_choice","14","54565","0.0-14.0","""event"",""trial"",""time""
""fullscreenenter"",""0"",""6288""
","
","
","""event"",""trial"",""time""
""fullscreenenter"",""0"",""6288""
","
","null","run_exp/static/images/Set 6_rs/079a.jpg","null","","","","","","learn","SL",""
"","html-keyboard-response","15","55072","0.0-15.0","""event"",""trial"",""time""
""fullscreenenter"",""0"",""6288""
","
","
","""event"",""trial"",""time""
""fullscreenenter"",""0"",""6288""
","
","null","<p></p>","null","","","","","","","",""
"","image","16","55785","0.0-16.0","""event"",""trial"",""time""
""fullscreenenter"",""0"",""6288""
","
","
","""event"",""trial"",""time""
""fullscreenenter"",""0"",""6288""
","
","710.2000000476837","run_exp/static/images/Set 6_rs/076a.jpg","78","","","","","","learn","SR",""
"","show_choice","17","57079","0.0-17.0","""event"",""trial"",""time""
""fullscreenenter"",""0"",""6288""
","
","
","""event"",""trial"",""time""
""fullscreenenter"",""0"",""6288""
","
","null","run_exp/static/images/Set 6_rs/076a.jpg","null","","","","","","learn","SR",""
"","html-keyboard-response","18","57584","0.0-18.0","""event"",""trial"",""time""
""fullscreenenter"",""0"",""6288""
","
","
","""event"",""trial"",""time""
""fullscreenenter"",""0"",""6288""
","
","null","<p></p>","null","","","","","","","",""
"","image","19","58377","0.0-19.0","""event"",""trial"",""time""
""fullscreenenter"",""0"",""6288""
","
","
","""event"",""trial"",""time""
""fullscreenenter"",""0"",""6288""
","
","790.6999999284744","run_exp/static/images/Set 6_rs/073a.jpg","86","","","","","","learn","SL",""
"","show_choice","20","59591","0.0-20.0","""event"",""trial"",""time""
""fullscreenenter"",""0"",""6288""
","
","
","""event"",""trial"",""time""
""fullscreenenter"",""0"",""6288""
","
","null","run_exp/static/images/Set 6_rs/073a.jpg","null","","","","","","learn","SL",""
"","html-keyboard-response","21","60098","0.0-21.0","""event"",""trial"",""time""
""fullscreenenter"",""0"",""6288""
","
","
","""event"",""trial"",""time""
""fullscreenenter"",""0"",""6288""
","
","null","<p></p>","null","","","","","","","",""
"","image","22","60833","0.0-22.0","""event"",""trial"",""time""
""fullscreenenter"",""0"",""6288""
","
","
","""event"",""trial"",""time""
""fullscreenenter"",""0"",""6288""
","
","732.1000000238419","run_exp/static/images/Set 6_rs/019a.jpg","86","","","","","","learn","SL",""
"","show_choice","23","62105","0.0-23.0","""event"",""trial"",""time""
""fullscreenenter"",""0"",""6288""
","
","
","""event"",""trial"",""time""
""fullscreenenter"",""0"",""6288""
","
","null","run_exp/static/images/Set 6_rs/019a.jpg","null","","","","","","learn","SL",""
"","html-keyboard-response","24","62608","0.0-24.0","""event"",""trial"",""time""
""fullscreenenter"",""0"",""6288""
","
","
","""event"",""trial"",""time""
""fullscreenenter"",""0"",""6288""
","
","null","<p></p>","null","","","","","","","",""
"","image","25","64061","0.0-25.0","""event"",""trial"",""time""
""fullscreenenter"",""0"",""6288""
","
","
","""event"",""trial"",""time""
""fullscreenenter"",""0"",""6288""
","
","1450.5","run_exp/static/images/Set 6_rs/016a.jpg","86","","","","","","learn","SL",""
"","show_choice","26","64616","0.0-26.0","""event"",""trial"",""time""
""fullscreenenter"",""0"",""6288""
","
","
","""event"",""trial"",""time""
""fullscreenenter"",""0"",""6288""
","
","null","run_exp/static/images/Set 6_rs/016a.jpg","null","","","","","","learn","SL",""
"","html-keyboard-response","27","65121","0.0-27.0","""event"",""trial"",""time""
""fullscreenenter"",""0"",""6288""
","
","
","""event"",""trial"",""time""
""fullscreenenter"",""0"",""6288""
","
","null","<p></p>","null","","","","","","","",""
"","image","28","66267","0.0-28.0","""event"",""trial"",""time""
""fullscreenenter"",""0"",""6288""
","
","
","""event"",""trial"",""time""
""fullscreenenter"",""0"",""6288""
","
","1144","run_exp/static/images/Set 6_rs/144a.jpg","86","","","","","","learn","SL",""
"","show_choice","29","67129","0.0-29.0","""event"",""trial"",""time""
""fullscreenenter"",""0"",""6288""
","
","
","""event"",""trial"",""time""
""fullscreenenter"",""0"",""6288""
","
","null","run_exp/static/images/Set 6_rs/144a.jpg","null","","","","","","learn","SL",""
"","html-keyboard-response","30","67632","0.0-30.0","""event"",""trial"",""time""
""fullscreenenter"",""0"",""6288""
","
","
","""event"",""trial"",""time""
""fullscreenenter"",""0"",""6288""
","
","null","<p></p>","null","","","","","","","",""
"","image","31","68608","0.0-31.0","""event"",""trial"",""time""
""fullscreenenter"",""0"",""6288""
","
","
","""event"",""trial"",""time""
""fullscreenenter"",""0"",""6288""
","
","974.1000000238419","run_exp/static/images/Set 6_rs/057a.jpg","86","","","","","","learn","SL",""
"","show_choice","32","69639","0.0-32.0","""event"",""trial"",""time""
""fullscreenenter"",""0"",""6288""
","
","
","""event"",""trial"",""time""
""fullscreenenter"",""0"",""6288""
","
","null","run_exp/static/images/Set 6_rs/057a.jpg","null","","","","","","learn","SL",""
"","html-keyboard-response","33","70146","0.0-33.0","""event"",""trial"",""time""
""fullscreenenter"",""0"",""6288""
","
","
","""event"",""trial"",""time""
""fullscreenenter"",""0"",""6288""
","
","null","<p></p>","null","","","","","","","",""
"","image","34","70791","0.0-34.0","""event"",""trial"",""time""
""fullscreenenter"",""0"",""6288""
","
","
","""event"",""trial"",""time""
""fullscreenenter"",""0"",""6288""
","
","642.6000000238419","run_exp/static/images/Set 6_rs/172a.jpg","78","","","","","","learn","SR",""
"","show_choice","35","72155","0.0-35.0","""event"",""trial"",""time""
""fullscreenenter"",""0"",""6288""
","
","
","""event"",""trial"",""time""
""fullscreenenter"",""0"",""6288""
","
","null","run_exp/static/images/Set 6_rs/172a.jpg","null","","","","","","learn","SR",""
"","html-keyboard-response","36","72662","0.0-36.0","""event"",""trial"",""time""
""fullscreenenter"",""0"",""6288""
","
","
","""event"",""trial"",""time""
""fullscreenenter"",""0"",""6288""
","
","null","<p></p>","null","","","","","","","",""
"","image","37","74000","0.0-37.0","""event"",""trial"",""time""
""fullscreenenter"",""0"",""6288""
","
","
","""event"",""trial"",""time""
""fullscreenenter"",""0"",""6288""
","
","1335.7000000476837","run_exp/static/images/Set 6_rs/122a.jpg","86","","","","","","learn","SR",""
"","show_choice","38","74669","0.0-38.0","""event"",""trial"",""time""
""fullscreenenter"",""0"",""6288""
","
","
","""event"",""trial"",""time""
""fullscreenenter"",""0"",""6288""
","
","null","run_exp/static/images/Set 6_rs/122a.jpg","null","","","","","","learn","SR",""
"","html-keyboard-response","39","75176","0.0-39.0","""event"",""trial"",""time""
""fullscreenenter"",""0"",""6288""
","
","
","""event"",""trial"",""time""
""fullscreenenter"",""0"",""6288""
","
","null","<p></p>","null","","","","","","","",""
"","image","40","76113","0.0-40.0","""event"",""trial"",""time""
""fullscreenenter"",""0"",""6288""
","
","
","""event"",""trial"",""time""
""fullscreenenter"",""0"",""6288""
","
","934.6999999284744","run_exp/static/images/Set 6_rs/178a.jpg","78","","","","","","learn","SR",""
"","show_choice","41","77180","0.0-41.0","""event"",""trial"",""time""
""fullscreenenter"",""0"",""6288""
","
","
","""event"",""trial"",""time""
""fullscreenenter"",""0"",""6288""
","
","null","run_exp/static/images/Set 6_rs/178a.jpg","null","","","","","","learn","SR",""
"","html-keyboard-response","42","77684","0.0-42.0","""event"",""trial"",""time""
""fullscreenenter"",""0"",""6288""
","
","
","""event"",""trial"",""time""
""fullscreenenter"",""0"",""6288""
","
","null","<p></p>","null","","","","","","","",""
"","image","43","79691","0.0-43.0","""event"",""trial"",""time""
""fullscreenenter"",""0"",""6288""
","
","
","""event"",""trial"",""time""
""fullscreenenter"",""0"",""6288""
","
","null","run_exp/static/images/Set 6_rs/089a.jpg","null","","","","","","learn","SL",""
"","show_choice","44","81697","0.0-44.0","""event"",""trial"",""time""
""fullscreenenter"",""0"",""6288""
","
","
","""event"",""trial"",""time""
""fullscreenenter"",""0"",""6288""
","
","null","run_exp/static/images/blank.png","null","","","","","","learn","SL",""
"","html-keyboard-response","45","82202","0.0-45.0","""event"",""trial"",""time""
""fullscreenenter"",""0"",""6288""
","
","
","""event"",""trial"",""time""
""fullscreenenter"",""0"",""6288""
","
","null","<p></p>","null","","","","","","","",""
"","image","46","82899","0.0-46.0","""event"",""trial"",""time""
""fullscreenenter"",""0"",""6288""
","
","
","""event"",""trial"",""time""
""fullscreenenter"",""0"",""6288""
","
","694.0999999046326","run_exp/static/images/Set 6_rs/010a.jpg","86","","","","","","learn","SR",""
"","show_choice","47","84211","0.0-47.0","""event"",""trial"",""time""
""fullscreenenter"",""0"",""6288""
","
","
","""event"",""trial"",""time""
""fullscreenenter"",""0"",""6288""
","
","null","run_exp/static/images/Set 6_rs/010a.jpg","null","","","","","","learn","SR",""
"","html-keyboard-response","48","84714","0.0-48.0","""event"",""trial"",""time""
""fullscreenenter"",""0"",""6288""
","
","
","""event"",""trial"",""time""
""fullscreenenter"",""0"",""6288""
","
","null","<p></p>","null","","","","","","","",""
"","image","49","85645","0.0-49.0","""event"",""trial"",""time""
""fullscreenenter"",""0"",""6288""
","
","
","""event"",""trial"",""time""
""fullscreenenter"",""0"",""6288""
","
","928.6999999284744","run_exp/static/images/Set 6_rs/166a.jpg","86","","","","","","learn","SR",""
"","show_choice","50","86718","0.0-50.0","""event"",""trial"",""time""
""fullscreenenter"",""0"",""6288""
","
","
","""event"",""trial"",""time""
""fullscreenenter"",""0"",""6288""
","
","null","run_exp/static/images/Set 6_rs/166a.jpg","null","","","","","","learn","SR",""
"","html-keyboard-response","51","87220","0.0-51.0","""event"",""trial"",""time""
""fullscreenenter"",""0"",""6288""
","
","
","""event"",""trial"",""time""
""fullscreenenter"",""0"",""6288""
","
","null","<p></p>","null","","","","","","","",""
"","image","52","87980","0.0-52.0","""event"",""trial"",""time""
""fullscreenenter"",""0"",""6288""
","
","
","""event"",""trial"",""time""
""fullscreenenter"",""0"",""6288""
","
","757.2999999523163","run_exp/static/images/Set 6_rs/186a.jpg","86","","","","","","learn","SR",""
"","show_choice","53","89228","0.0-53.0","""event"",""trial"",""time""
""fullscreenenter"",""0"",""6288""
","
","
","""event"",""trial"",""time""
""fullscreenenter"",""0"",""6288""
","
","null","run_exp/static/images/Set 6_rs/186a.jpg","null","","","","","","learn","SR",""
"","html-keyboard-response","54","89733","0.0-54.0","""event"",""trial"",""time""
""fullscreenenter"",""0"",""6288""
","
","
","""event"",""trial"",""time""
""fullscreenenter"",""0"",""6288""
","
","null","<p></p>","null","","","","","","","",""
"","image","55","90605","0.0-55.0","""event"",""trial"",""time""
""fullscreenenter"",""0"",""6288""
","
","
","""event"",""trial"",""time""
""fullscreenenter"",""0"",""6288""
","
","869","run_exp/static/images/Set 6_rs/008a.jpg","86","","","","","","learn","SL",""
"","show_choice","56","91740","0.0-56.0","""event"",""trial"",""time""
""fullscreenenter"",""0"",""6288""
","
","
","""event"",""trial"",""time""
""fullscreenenter"",""0"",""6288""
","
","null","run_exp/static/images/Set 6_rs/008a.jpg","null","","","","","","learn","SL",""
"","html-keyboard-response","57","92247","0.0-57.0","""event"",""trial"",""time""
""fullscreenenter"",""0"",""6288""
","
","
","""event"",""trial"",""time""
""fullscreenenter"",""0"",""6288""
","
","null","<p></p>","null","","","","","","","",""
"","image","58","92857","0.0-58.0","""event"",""trial"",""time""
""fullscreenenter"",""0"",""6288""
","
","
","""event"",""trial"",""time""
""fullscreenenter"",""0"",""6288""
","
","607.2000000476837","run_exp/static/images/Set 6_rs/023a.jpg","86","","","","","","learn","SR",""
"","show_choice","59","94254","0.0-59.0","""event"",""trial"",""time""
""fullscreenenter"",""0"",""6288""
","
","
","""event"",""trial"",""time""
""fullscreenenter"",""0"",""6288""
","
","null","run_exp/static/images/Set 6_rs/023a.jpg","null","","","","","","learn","SR",""
"","html-keyboard-response","60","94759","0.0-60.0","""event"",""trial"",""time""
""fullscreenenter"",""0"",""6288""
","
","
","""event"",""trial"",""time""
""fullscreenenter"",""0"",""6288""
","
","null","<p></p>","null","","","","","","","",""
"","image","61","95658","0.0-61.0","""event"",""trial"",""time""
""fullscreenenter"",""0"",""6288""
","
","
","""event"",""trial"",""time""
""fullscreenenter"",""0"",""6288""
","
","895.3999999761581","run_exp/static/images/Set 6_rs/138a.jpg","78","","","","","","learn","SL",""
"","show_choice","62","96767","0.0-62.0","""event"",""trial"",""time""
""fullscreenenter"",""0"",""6288""
","
","
","""event"",""trial"",""time""
""fullscreenenter"",""0"",""6288""
","
","null","run_exp/static/images/Set 6_rs/138a.jpg","null","","","","","","learn","SL",""
"","html-keyboard-response","63","97272","0.0-63.0","""event"",""trial"",""time""
""fullscreenenter"",""0"",""6288""
","
","
","""event"",""trial"",""time""
""fullscreenenter"",""0"",""6288""
","
","null","<p></p>","null","","","","","","","",""
"","image","64","98175","0.0-64.0","""event"",""trial"",""time""
""fullscreenenter"",""0"",""6288""
","
","
","""event"",""trial"",""time""
""fullscreenenter"",""0"",""6288""
","
","900.3999999761581","run_exp/static/images/Set 6_rs/126a.jpg","78","","","","","","learn","SR",""
"","show_choice","65","99278","0.0-65.0","""event"",""trial"",""time""
""fullscreenenter"",""0"",""6288""
","
","
","""event"",""trial"",""time""
""fullscreenenter"",""0"",""6288""
","
","null","run_exp/static/images/Set 6_rs/126a.jpg","null","","","","","","learn","SR",""
"","html-keyboard-response","66","99780","0.0-66.0","""event"",""trial"",""time""
""fullscreenenter"",""0"",""6288""
","
","
","""event"",""trial"",""time""
""fullscreenenter"",""0"",""6288""
","
","null","<p></p>","null","","","","","","","",""
"","image","67","100488","0.0-67.0","""event"",""trial"",""time""
""fullscreenenter"",""0"",""6288""
","
","
","""event"",""trial"",""time""
""fullscreenenter"",""0"",""6288""
","
","706.1000000238419","run_exp/static/images/Set 6_rs/066a.jpg","86","","","","","","learn","SL",""
"","show_choice","68","101787","0.0-68.0","""event"",""trial"",""time""
""fullscreenenter"",""0"",""6288""
","
","
","""event"",""trial"",""time""
""fullscreenenter"",""0"",""6288""
","
","null","run_exp/static/images/Set 6_rs/066a.jpg","null","","","","","","learn","SL",""
"","html-keyboard-response","69","102294","0.0-69.0","""event"",""trial"",""time""
""fullscreenenter"",""0"",""6288""
","
","
","""event"",""trial"",""time""
""fullscreenenter"",""0"",""6288""
","
","null","<p></p>","null","","","","","","","",""
"","image","70","103116","0.0-70.0","""event"",""trial"",""time""
""fullscreenenter"",""0"",""6288""
","
","
","""event"",""trial"",""time""
""fullscreenenter"",""0"",""6288""
","
","819.8999999761581","run_exp/static/images/Set 6_rs/045a.jpg","86","","","","","","learn","SR",""
"","show_choice","71","104301","0.0-71.0","""event"",""trial"",""time""
""fullscreenenter"",""0"",""6288""
","
","
","""event"",""trial"",""time""
""fullscreenenter"",""0"",""6288""
","
","null","run_exp/static/images/Set 6_rs/045a.jpg","null","","","","","","learn","SR",""
"","html-keyboard-response","72","104803","0.0-72.0","""event"",""trial"",""time""
""fullscreenenter"",""0"",""6288""
","
","
","""event"",""trial"",""time""
""fullscreenenter"",""0"",""6288""
","
","null","<p></p>","null","","","","","","","",""
"","image","73","105857","0.0-73.0","""event"",""trial"",""time""
""fullscreenenter"",""0"",""6288""
","
","
","""event"",""trial"",""time""
""fullscreenenter"",""0"",""6288""
","
","1051.6000000238419","run_exp/static/images/Set 6_rs/132a.jpg","86","","","","","","learn","SR",""
"","show_choice","74","106811","0.0-74.0","""event"",""trial"",""time""
""fullscreenenter"",""0"",""6288""
","
","
","""event"",""trial"",""time""
""fullscreenenter"",""0"",""6288""
","
","null","run_exp/static/images/Set 6_rs/132a.jpg","null","","","","","","learn","SR",""
"","html-keyboard-response","75","107317","0.0-75.0","""event"",""trial"",""time""
""fullscreenenter"",""0"",""6288""
","
","
","""event"",""trial"",""time""
""fullscreenenter"",""0"",""6288""
","
","null","<p></p>","null","","","","","","","",""
"","image","76","108054","0.0-76.0","""event"",""trial"",""time""
""fullscreenenter"",""0"",""6288""
","
","
","""event"",""trial"",""time""
""fullscreenenter"",""0"",""6288""
","
","734.2000000476837","run_exp/static/images/Set 6_rs/024a.jpg","86","","","","","","learn","SR",""
"","show_choice","77","109325","0.0-77.0","""event"",""trial"",""time""
""fullscreenenter"",""0"",""6288""
","
","
","""event"",""trial"",""time""
""fullscreenenter"",""0"",""6288""
","
","null","run_exp/static/images/Set 6_rs/024a.jpg","null","","","","","","learn","SR",""
"","html-keyboard-response","78","109827","0.0-78.0","""event"",""trial"",""time""
""fullscreenenter"",""0"",""6288""
","
","
","""event"",""trial"",""time""
""fullscreenenter"",""0"",""6288""
","
","null","<p></p>","null","","","","","","","",""
"","image","79","110880","0.0-79.0","""event"",""trial"",""time""
""fullscreenenter"",""0"",""6288""
","
","
","""event"",""trial"",""time""
""fullscreenenter"",""0"",""6288""
","
","1050.3000000715256","run_exp/static/images/Set 6_rs/071a.jpg","86","","","","","","learn","SL",""
"","show_choice","80","111833","0.0-80.0","""event"",""trial"",""time""
""fullscreenenter"",""0"",""6288""
","
","
","""event"",""trial"",""time""
""fullscreenenter"",""0"",""6288""
","
","null","run_exp/static/images/Set 6_rs/071a.jpg","null","","","","","","learn","SL",""
"","html-keyboard-response","81","112340","0.0-81.0","""event"",""trial"",""time""
""fullscreenenter"",""0"",""6288""
","
","
","""event"",""trial"",""time""
""fullscreenenter"",""0"",""6288""
","
","null","<p></p>","null","","","","","","","",""
"","image","82","113667","0.0-82.0","""event"",""trial"",""time""
""fullscreenenter"",""0"",""6288""
","
","
","""event"",""trial"",""time""
""fullscreenenter"",""0"",""6288""
","
","1325.1999999284744","run_exp/static/images/Set 6_rs/187a.jpg","86","","","","","","learn","SR",""
"","show_choice","83","114347","0.0-83.0","""event"",""trial"",""time""
""fullscreenenter"",""0"",""6288""
","
","
","""event"",""trial"",""time""
""fullscreenenter"",""0"",""6288""
","
","null","run_exp/static/images/Set 6_rs/187a.jpg","null","","","","","","learn","SR",""
"","html-keyboard-response","84","114850","0.0-84.0","""event"",""trial"",""time""
""fullscreenenter"",""0"",""6288""
","
","
","""event"",""trial"",""time""
""fullscreenenter"",""0"",""6288""
","
","null","<p></p>","null","","","","","","","",""
"","image","85","115891","0.0-85.0","""event"",""trial"",""time""
""fullscreenenter"",""0"",""6288""
","
","
","""event"",""trial"",""time""
""fullscreenenter"",""0"",""6288""
","
","1038.8999999761581","run_exp/static/images/Set 6_rs/150a.jpg","86","","","","","","learn","SR",""
"","show_choice","86","116854","0.0-86.0","""event"",""trial"",""time""
""fullscreenenter"",""0"",""6288""
","
","
","""event"",""trial"",""time""
""fullscreenenter"",""0"",""6288""
","
","null","run_exp/static/images/Set 6_rs/150a.jpg","null","","","","","","learn","SR",""
"","html-keyboard-response","87","117356","0.0-87.0","""event"",""trial"",""time""
""fullscreenenter"",""0"",""6288""
","
","
","""event"",""trial"",""time""
""fullscreenenter"",""0"",""6288""
","
","null","<p></p>","null","","","","","","","",""
"","image","88","118144","0.0-88.0","""event"",""trial"",""time""
""fullscreenenter"",""0"",""6288""
","
","
","""event"",""trial"",""time""
""fullscreenenter"",""0"",""6288""
","
","786.4000000953674","run_exp/static/images/Set 6_rs/108a.jpg","78","","","","","","learn","SR",""
"","show_choice","89","119362","0.0-89.0","""event"",""trial"",""time""
""fullscreenenter"",""0"",""6288""
","
","
","""event"",""trial"",""time""
""fullscreenenter"",""0"",""6288""
","
","null","run_exp/static/images/Set 6_rs/108a.jpg","null","","","","","","learn","SR",""
"","html-keyboard-response","90","119869","0.0-90.0","""event"",""trial"",""time""
""fullscreenenter"",""0"",""6288""
","
","
","""event"",""trial"",""time""
""fullscreenenter"",""0"",""6288""
","
","null","<p></p>","null","","","","","","","",""
"","image","91","120615","0.0-91.0","""event"",""trial"",""time""
""fullscreenenter"",""0"",""6288""
","
","
","""event"",""trial"",""time""
""fullscreenenter"",""0"",""6288""
","
","743.5999999046326","run_exp/static/images/Set 6_rs/129a.jpg","86","","","","","","learn","SL",""
"","show_choice","92","121876","0.0-92.0","""event"",""trial"",""time""
""fullscreenenter"",""0"",""6288""
","
","
","""event"",""trial"",""time""
""fullscreenenter"",""0"",""6288""
","
","null","run_exp/static/images/Set 6_rs/129a.jpg","null","","","","","","learn","SL",""
"","html-keyboard-response","93","122380","0.0-93.0","""event"",""trial"",""time""
""fullscreenenter"",""0"",""6288""
","
","
","""event"",""trial"",""time""
""fullscreenenter"",""0"",""6288""
","
","null","<p></p>","null","","","","","","","",""
"","image","94","123184","0.0-94.0","""event"",""trial"",""time""
""fullscreenenter"",""0"",""6288""
","
","
","""event"",""trial"",""time""
""fullscreenenter"",""0"",""6288""
","
","801.6999999284744","run_exp/static/images/Set 6_rs/088a.jpg","86","","","","","","learn","SR",""
"","show_choice","95","124387","0.0-95.0","""event"",""trial"",""time""
""fullscreenenter"",""0"",""6288""
","
","
","""event"",""trial"",""time""
""fullscreenenter"",""0"",""6288""
","
","null","run_exp/static/images/Set 6_rs/088a.jpg","null","","","","","","learn","SR",""
"","html-keyboard-response","96","124892","0.0-96.0","""event"",""trial"",""time""
""fullscreenenter"",""0"",""6288""
","
","
","""event"",""trial"",""time""
""fullscreenenter"",""0"",""6288""
","
","null","<p></p>","null","","","","","","","",""
"","image","97","126364","0.0-97.0","""event"",""trial"",""time""
""fullscreenenter"",""0"",""6288""
","
","
","""event"",""trial"",""time""
""fullscreenenter"",""0"",""6288""
","
","1469.7000000476837","run_exp/static/images/Set 6_rs/017a.jpg","86","","","","","","learn","SL",""
"","show_choice","98","126899","0.0-98.0","""event"",""trial"",""time""
""fullscreenenter"",""0"",""6288""
","
","
","""event"",""trial"",""time""
""fullscreenenter"",""0"",""6288""
","
","null","run_exp/static/images/Set 6_rs/017a.jpg","null","","","","","","learn","SL",""
"","html-keyboard-response","99","127405","0.0-99.0","""event"",""trial"",""time""
""fullscreenenter"",""0"",""6288""
","
","
","""event"",""trial"",""time""
""fullscreenenter"",""0"",""6288""
","
","null","<p></p>","null","","","","","","","",""
"","image","100","128329","0.0-100.0","""event"",""trial"",""time""
""fullscreenenter"",""0"",""6288""
","
","
","""event"",""trial"",""time""
""fullscreenenter"",""0"",""6288""
","
","921.6000000238419","run_exp/static/images/Set 6_rs/095a.jpg","86","","","","","","learn","SL",""
"","show_choice","101","129409","0.0-101.0","""event"",""trial"",""time""
""fullscreenenter"",""0"",""6288""
","
","
","""event"",""trial"",""time""
""fullscreenenter"",""0"",""6288""
","
","null","run_exp/static/images/Set 6_rs/095a.jpg","null","","","","","","learn","SL",""
"","html-keyboard-response","102","129915","0.0-102.0","""event"",""trial"",""time""
""fullscreenenter"",""0"",""6288""
","
","
","""event"",""trial"",""time""
""fullscreenenter"",""0"",""6288""
","
","null","<p></p>","null","","","","","","","",""
"","image","103","130626","0.0-103.0","""event"",""trial"",""time""
""fullscreenenter"",""0"",""6288""
","
","
","""event"",""trial"",""time""
""fullscreenenter"",""0"",""6288""
","
","708.2999999523163","run_exp/static/images/Set 6_rs/085a.jpg","78","","","","","","learn","SL",""
"","show_choice","104","131922","0.0-104.0","""event"",""trial"",""time""
""fullscreenenter"",""0"",""6288""
","
","
","""event"",""trial"",""time""
""fullscreenenter"",""0"",""6288""
","
","null","run_exp/static/images/Set 6_rs/085a.jpg","null","","","","","","learn","SL",""
"","html-keyboard-response","105","132429","0.0-105.0","""event"",""trial"",""time""
""fullscreenenter"",""0"",""6288""
","
","
","""event"",""trial"",""time""
""fullscreenenter"",""0"",""6288""
","
","null","<p></p>","null","","","","","","","",""
"","image","106","133298","0.0-106.0","""event"",""trial"",""time""
""fullscreenenter"",""0"",""6288""
","
","
","""event"",""trial"",""time""
""fullscreenenter"",""0"",""6288""
","
","866.3000000715256","run_exp/static/images/Set 6_rs/134a.jpg","86","","","","","","learn","SR",""
"","show_choice","107","134436","0.0-107.0","""event"",""trial"",""time""
""fullscreenenter"",""0"",""6288""
","
","
","""event"",""trial"",""time""
""fullscreenenter"",""0"",""6288""
","
","null","run_exp/static/images/Set 6_rs/134a.jpg","null","","","","","","learn","SR",""
"","html-keyboard-response","108","134939","0.0-108.0","""event"",""trial"",""time""
""fullscreenenter"",""0"",""6288""
","
","
","""event"",""trial"",""time""
""fullscreenenter"",""0"",""6288""
","
","null","<p></p>","null","","","","","","","",""
"","image","109","135480","0.0-109.0","""event"",""trial"",""time""
""fullscreenenter"",""0"",""6288""
","
","
","""event"",""trial"",""time""
""fullscreenenter"",""0"",""6288""
","
","538.6999999284744","run_exp/static/images/Set 6_rs/063a.jpg","86","","","","","","learn","SR",""
"","show_choice","110","136946","0.0-110.0","""event"",""trial"",""time""
""fullscreenenter"",""0"",""6288""
","
","
","""event"",""trial"",""time""
""fullscreenenter"",""0"",""6288""
","
","null","run_exp/static/images/Set 6_rs/063a.jpg","null","","","","","","learn","SR",""
"","html-keyboard-response","111","137453","0.0-111.0","""event"",""trial"",""time""
""fullscreenenter"",""0"",""6288""
","
","
","""event"",""trial"",""time""
""fullscreenenter"",""0"",""6288""
","
","null","<p></p>","null","","","","","","","",""
"","image","112","138318","0.0-112.0","""event"",""trial"",""time""
""fullscreenenter"",""0"",""6288""
","
","
","""event"",""trial"",""time""
""fullscreenenter"",""0"",""6288""
","
","862.5","run_exp/static/images/Set 6_rs/167a.jpg","86","","","","","","learn","SL",""
"","show_choice","113","139457","0.0-113.0","""event"",""trial"",""time""
""fullscreenenter"",""0"",""6288""
","
","
","""event"",""trial"",""time""
""fullscreenenter"",""0"",""6288""
","
","null","run_exp/static/images/Set 6_rs/167a.jpg","null","","","","","","learn","SL",""
"","html-keyboard-response","114","139963","0.0-114.0","""event"",""trial"",""time""
""fullscreenenter"",""0"",""6288""
","
","
","""event"",""trial"",""time""
""fullscreenenter"",""0"",""6288""
","
","null","<p></p>","null","","","","","","","",""
"","image","115","140635","0.0-115.0","""event"",""trial"",""time""
""fullscreenenter"",""0"",""6288""
","
","
","""event"",""trial"",""time""
""fullscreenenter"",""0"",""6288""
","
","669","run_exp/static/images/Set 6_rs/123a.jpg","78","","","","","","learn","SL",""
"","show_choice","116","141971","0.0-116.0","""event"",""trial"",""time""
""fullscreenenter"",""0"",""6288""
","
","
","""event"",""trial"",""time""
""fullscreenenter"",""0"",""6288""
","
","null","run_exp/static/images/Set 6_rs/123a.jpg","null","","","","","","learn","SL",""
"","html-keyboard-response","117","142475","0.0-117.0","""event"",""trial"",""time""
""fullscreenenter"",""0"",""6288""
","
","
","""event"",""trial"",""time""
""fullscreenenter"",""0"",""6288""
","
","null","<p></p>","null","","","","","","","",""
"","image","118","143221","0.0-118.0","""event"",""trial"",""time""
""fullscreenenter"",""0"",""6288""
","
","
","""event"",""trial"",""time""
""fullscreenenter"",""0"",""6288""
","
","743.3000000715256","run_exp/static/images/Set 6_rs/111a.jpg","86","","","","","","learn","SL",""
"","show_choice","119","144481","0.0-119.0","""event"",""trial"",""time""
""fullscreenenter"",""0"",""6288""
","
","
","""event"",""trial"",""time""
""fullscreenenter"",""0"",""6288""
","
","null","run_exp/static/images/Set 6_rs/111a.jpg","null","","","","","","learn","SL",""
"","html-keyboard-response","120","144986","0.0-120.0","""event"",""trial"",""time""
""fullscreenenter"",""0"",""6288""
","
","
","""event"",""trial"",""time""
""fullscreenenter"",""0"",""6288""
","
","null","<p></p>","null","","","","","","","",""
"","image","121","145708","0.0-121.0","""event"",""trial"",""time""
""fullscreenenter"",""0"",""6288""
","
","
","""event"",""trial"",""time""
""fullscreenenter"",""0"",""6288""
","
","719.3999999761581","run_exp/static/images/Set 6_rs/055a.jpg","86","","","","","","learn","SL",""
"","show_choice","122","146991","0.0-122.0","""event"",""trial"",""time""
""fullscreenenter"",""0"",""6288""
","
","
","""event"",""trial"",""time""
""fullscreenenter"",""0"",""6288""
","
","null","run_exp/static/images/Set 6_rs/055a.jpg","null","","","","","","learn","SL",""
"","html-keyboard-response","123","147497","0.0-123.0","""event"",""trial"",""time""
""fullscreenenter"",""0"",""6288""
","
","
","""event"",""trial"",""time""
""fullscreenenter"",""0"",""6288""
","
","null","<p></p>","null","","","","","","","",""
"","image","124","148838","0.0-124.0","""event"",""trial"",""time""
""fullscreenenter"",""0"",""6288""
","
","
","""event"",""trial"",""time""
""fullscreenenter"",""0"",""6288""
","
","1338","run_exp/static/images/Set 6_rs/075a.jpg","78","","","","","","learn","SR",""
"","show_choice","125","149502","0.0-125.0","""event"",""trial"",""time""
""fullscreenenter"",""0"",""6288""
","
","
","""event"",""trial"",""time""
""fullscreenenter"",""0"",""6288""
","
","null","run_exp/static/images/Set 6_rs/075a.jpg","null","","","","","","learn","SR",""
"","html-keyboard-response","126","150005","0.0-126.0","""event"",""trial"",""time""
""fullscreenenter"",""0"",""6288""
","
","
","""event"",""trial"",""time""
""fullscreenenter"",""0"",""6288""
","
","null","<p></p>","null","","","","","","","",""
"","image","127","151116","0.0-127.0","""event"",""trial"",""time""
""fullscreenenter"",""0"",""6288""
","
","
","""event"",""trial"",""time""
""fullscreenenter"",""0"",""6288""
","
","1107.5","run_exp/static/images/Set 6_rs/007a.jpg","86","","","","","","learn","SR",""
"","show_choice","128","152013","0.0-128.0","""event"",""trial"",""time""
""fullscreenenter"",""0"",""6288""
","
","
","""event"",""trial"",""time""
""fullscreenenter"",""0"",""6288""
","
","null","run_exp/static/images/Set 6_rs/007a.jpg","null","","","","","","learn","SR",""
"","html-keyboard-response","129","152515","0.0-129.0","""event"",""trial"",""time""
""fullscreenenter"",""0"",""6288""
","
","
","""event"",""trial"",""time""
""fullscreenenter"",""0"",""6288""
","
","null","<p></p>","null","","","","","","","",""
"","image","130","153675","0.0-130.0","""event"",""trial"",""time""
""fullscreenenter"",""0"",""6288""
","
","
","""event"",""trial"",""time""
""fullscreenenter"",""0"",""6288""
","
","1157.9000000953674","run_exp/static/images/Set 6_rs/154a.jpg","86","","","","","","learn","SR",""
"","show_choice","131","154522","0.0-131.0","""event"",""trial"",""time""
""fullscreenenter"",""0"",""6288""
","
","
","""event"",""trial"",""time""
""fullscreenenter"",""0"",""6288""
","
","null","run_exp/static/images/Set 6_rs/154a.jpg","null","","","","","","learn","SR",""
"","html-keyboard-response","132","155027","0.0-132.0","""event"",""trial"",""time""
""fullscreenenter"",""0"",""6288""
","
","
","""event"",""trial"",""time""
""fullscreenenter"",""0"",""6288""
","
","null","<p></p>","null","","","","","","","",""
"","image","133","156099","0.0-133.0","""event"",""trial"",""time""
""fullscreenenter"",""0"",""6288""
","
","
","""event"",""trial"",""time""
""fullscreenenter"",""0"",""6288""
","
","1068.8999999761581","run_exp/static/images/Set 6_rs/141a.jpg","78","","","","","","learn","SR",""
"","show_choice","134","157032","0.0-134.0","""event"",""trial"",""time""
""fullscreenenter"",""0"",""6288""
","
","
","""event"",""trial"",""time""
""fullscreenenter"",""0"",""6288""
","
","null","run_exp/static/images/Set 6_rs/141a.jpg","null","","","","","","learn","SR",""
"","html-keyboard-response","135","157535","0.0-135.0","""event"",""trial"",""time""
""fullscreenenter"",""0"",""6288""
","
","
","""event"",""trial"",""time""
""fullscreenenter"",""0"",""6288""
","
","null","<p></p>","null","","","","","","","",""
"","image","136","159542","0.0-136.0","""event"",""trial"",""time""
""fullscreenenter"",""0"",""6288""
","
","
","""event"",""trial"",""time""
""fullscreenenter"",""0"",""6288""
","
","null","run_exp/static/images/Set 6_rs/074a.jpg","null","","","","","","learn","SL",""
"","show_choice","137","161546","0.0-137.0","""event"",""trial"",""time""
""fullscreenenter"",""0"",""6288""
","
","
","""event"",""trial"",""time""
""fullscreenenter"",""0"",""6288""
","
","null","run_exp/static/images/blank.png","null","","","","","","learn","SL",""
"","html-keyboard-response","138","162053","0.0-138.0","""event"",""trial"",""time""
""fullscreenenter"",""0"",""6288""
","
","
","""event"",""trial"",""time""
""fullscreenenter"",""0"",""6288""
","
","null","<p></p>","null","","","","","","","",""
"","image","139","162734","0.0-139.0","""event"",""trial"",""time""
""fullscreenenter"",""0"",""6288""
","
","
","""event"",""trial"",""time""
""fullscreenenter"",""0"",""6288""
","
","678.6000000238419","run_exp/static/images/Set 6_rs/152a.jpg","86","","","","","","learn","SR",""
"","show_choice","140","164058","0.0-140.0","""event"",""trial"",""time""
""fullscreenenter"",""0"",""6288""
","
","
","""event"",""trial"",""time""
""fullscreenenter"",""0"",""6288""
","
","null","run_exp/static/images/Set 6_rs/152a.jpg","null","","","","","","learn","SR",""
"","html-keyboard-response","141","164560","0.0-141.0","""event"",""trial"",""time""
""fullscreenenter"",""0"",""6288""
","
","
","""event"",""trial"",""time""
""fullscreenenter"",""0"",""6288""
","
","null","<p></p>","null","","","","","","","",""
"","image","142","165626","0.0-142.0","""event"",""trial"",""time""
""fullscreenenter"",""0"",""6288""
","
","
","""event"",""trial"",""time""
""fullscreenenter"",""0"",""6288""
","
","1063.7999999523163","run_exp/static/images/Set 6_rs/117a.jpg","86","","","","","","learn","SL",""
"","show_choice","143","166564","0.0-143.0","""event"",""trial"",""time""
""fullscreenenter"",""0"",""6288""
","
","
","""event"",""trial"",""time""
""fullscreenenter"",""0"",""6288""
","
","null","run_exp/static/images/Set 6_rs/117a.jpg","null","","","","","","learn","SL",""
"","html-keyboard-response","144","167071","0.0-144.0","""event"",""trial"",""time""
""fullscreenenter"",""0"",""6288""
","
","
","""event"",""trial"",""time""
""fullscreenenter"",""0"",""6288""
","
","null","<p></p>","null","","","","","","","",""
"","image","145","167752","0.0-145.0","""event"",""trial"",""time""
""fullscreenenter"",""0"",""6288""
","
","
","""event"",""trial"",""time""
""fullscreenenter"",""0"",""6288""
","
","678.5","run_exp/static/images/Set 6_rs/181a.jpg","78","","","","","","learn","SL",""
"","show_choice","146","169078","0.0-146.0","""event"",""trial"",""time""
""fullscreenenter"",""0"",""6288""
","
","
","""event"",""trial"",""time""
""fullscreenenter"",""0"",""6288""
","
","null","run_exp/static/images/Set 6_rs/181a.jpg","null","","","","","","learn","SL",""
"","html-keyboard-response","147","169579","0.0-147.0","""event"",""trial"",""time""
""fullscreenenter"",""0"",""6288""
","
","
","""event"",""trial"",""time""
""fullscreenenter"",""0"",""6288""
","
","null","<p></p>","null","","","","","","","",""
"","image","148","170434","0.0-148.0","""event"",""trial"",""time""
""fullscreenenter"",""0"",""6288""
","
","
","""event"",""trial"",""time""
""fullscreenenter"",""0"",""6288""
","
","852.7000000476837","run_exp/static/images/Set 6_rs/061a.jpg","78","","","","","","learn","SR",""
"","show_choice","149","171583","0.0-149.0","""event"",""trial"",""time""
""fullscreenenter"",""0"",""6288""
","
","
","""event"",""trial"",""time""
""fullscreenenter"",""0"",""6288""
","
","null","run_exp/static/images/Set 6_rs/061a.jpg","null","","","","","","learn","SR",""
"","html-keyboard-response","150","172086","0.0-150.0","""event"",""trial"",""time""
""fullscreenenter"",""0"",""6288""
","
","
","""event"",""trial"",""time""
""fullscreenenter"",""0"",""6288""
","
","null","<p></p>","null","","","","","","","",""
"","image","151","172876","0.0-151.0","""event"",""trial"",""time""
""fullscreenenter"",""0"",""6288""
","
","
","""event"",""trial"",""time""
""fullscreenenter"",""0"",""6288""
","
","787","run_exp/static/images/Set 6_rs/064a.jpg","86","","","","","","learn","SR",""
"","show_choice","152","174091","0.0-152.0","""event"",""trial"",""time""
""fullscreenenter"",""0"",""6288""
","
","
","""event"",""trial"",""time""
""fullscreenenter"",""0"",""6288""
","
","null","run_exp/static/images/Set 6_rs/064a.jpg","null","","","","","","learn","SR",""
"","html-keyboard-response","153","174595","0.0-153.0","""event"",""trial"",""time""
""fullscreenenter"",""0"",""6288""
","
","
","""event"",""trial"",""time""
""fullscreenenter"",""0"",""6288""
","
","null","<p></p>","null","","","","","","","",""
"","image","154","175880","0.0-154.0","""event"",""trial"",""time""
""fullscreenenter"",""0"",""6288""
","
","
","""event"",""trial"",""time""
""fullscreenenter"",""0"",""6288""
","
","1282.8000000715256","run_exp/static/images/Set 6_rs/121a.jpg","86","","","","","","learn","SR",""
"","show_choice","155","176601","0.0-155.0","""event"",""trial"",""time""
""fullscreenenter"",""0"",""6288""
","
","
","""event"",""trial"",""time""
""fullscreenenter"",""0"",""6288""
","
","null","run_exp/static/images/Set 6_rs/121a.jpg","null","","","","","","learn","SR",""
"","html-keyboard-response","156","177105","0.0-156.0","""event"",""trial"",""time""
""fullscreenenter"",""0"",""6288""
","
","
","""event"",""trial"",""time""
""fullscreenenter"",""0"",""6288""
","
","null","<p></p>","null","","","","","","","",""
"","image","157","177830","0.0-157.0","""event"",""trial"",""time""
""fullscreenenter"",""0"",""6288""
","
","
","""event"",""trial"",""time""
""fullscreenenter"",""0"",""6288""
","
","722.2000000476837","run_exp/static/images/Set 6_rs/112a.jpg","86","","","","","","learn","SR",""
"","show_choice","158","179113","0.0-158.0","""event"",""trial"",""time""
""fullscreenenter"",""0"",""6288""
","
","
","""event"",""trial"",""time""
""fullscreenenter"",""0"",""6288""
","
","null","run_exp/static/images/Set 6_rs/112a.jpg","null","","","","","","learn","SR",""
"","html-keyboard-response","159","179615","0.0-159.0","""event"",""trial"",""time""
""fullscreenenter"",""0"",""6288""
","
","
","""event"",""trial"",""time""
""fullscreenenter"",""0"",""6288""
","
","null","<p></p>","null","","","","","","","",""
"","image","160","180327","0.0-160.0","""event"",""trial"",""time""
""fullscreenenter"",""0"",""6288""
","
","
","""event"",""trial"",""time""
""fullscreenenter"",""0"",""6288""
","
","709.3000000715256","run_exp/static/images/Set 6_rs/012a.jpg","86","","","","","","learn","SR",""
"","show_choice","161","181623","0.0-161.0","""event"",""trial"",""time""
""fullscreenenter"",""0"",""6288""
","
","
","""event"",""trial"",""time""
""fullscreenenter"",""0"",""6288""
","
","null","run_exp/static/images/Set 6_rs/012a.jpg","null","","","","","","learn","SR",""
"","html-keyboard-response","162","182125","0.0-162.0","""event"",""trial"",""time""
""fullscreenenter"",""0"",""6288""
","
","
","""event"",""trial"",""time""
""fullscreenenter"",""0"",""6288""
","
","null","<p></p>","null","","","","","","","",""
"","image","163","183150","0.0-163.0","""event"",""trial"",""time""
""fullscreenenter"",""0"",""6288""
","
","
","""event"",""trial"",""time""
""fullscreenenter"",""0"",""6288""
","
","1022.5999999046326","run_exp/static/images/Set 6_rs/025a.jpg","78","","","","","","learn","SL",""
"","show_choice","164","184133","0.0-164.0","""event"",""trial"",""time""
""fullscreenenter"",""0"",""6288""
","
","
","""event"",""trial"",""time""
""fullscreenenter"",""0"",""6288""
","
","null","run_exp/static/images/Set 6_rs/025a.jpg","null","","","","","","learn","SL",""
"","html-keyboard-response","165","184637","0.0-165.0","""event"",""trial"",""time""
""fullscreenenter"",""0"",""6288""
","
","
","""event"",""trial"",""time""
""fullscreenenter"",""0"",""6288""
","
","null","<p></p>","null","","","","","","","",""
"","image","166","185385","0.0-166.0","""event"",""trial"",""time""
""fullscreenenter"",""0"",""6288""
","
","
","""event"",""trial"",""time""
""fullscreenenter"",""0"",""6288""
","
","745.9000000953674","run_exp/static/images/Set 6_rs/036a.jpg","86","","","","","","learn","SL",""
"","show_choice","167","186645","0.0-167.0","""event"",""trial"",""time""
""fullscreenenter"",""0"",""6288""
","
","
","""event"",""trial"",""time""
""fullscreenenter"",""0"",""6288""
","
","null","run_exp/static/images/Set 6_rs/036a.jpg","null","","","","","","learn","SL",""
"","html-keyboard-response","168","187146","0.0-168.0","""event"",""trial"",""time""
""fullscreenenter"",""0"",""6288""
","
","
","""event"",""trial"",""time""
""fullscreenenter"",""0"",""6288""
","
","null","<p></p>","null","","","","","","","",""
"","image","169","188619","0.0-169.0","""event"",""trial"",""time""
""fullscreenenter"",""0"",""6288""
","
","
","""event"",""trial"",""time""
""fullscreenenter"",""0"",""6288""
","
","1470","run_exp/static/images/Set 6_rs/050a.jpg","86","","","","","","learn","SL",""
"","show_choice","170","189154","0.0-170.0","""event"",""trial"",""time""
""fullscreenenter"",""0"",""6288""
","
","
","""event"",""trial"",""time""
""fullscreenenter"",""0"",""6288""
","
","null","run_exp/static/images/Set 6_rs/050a.jpg","null","","","","","","learn","SL",""
"","html-keyboard-response","171","189657","0.0-171.0","""event"",""trial"",""time""
""fullscreenenter"",""0"",""6288""
","
","
","""event"",""trial"",""time""
""fullscreenenter"",""0"",""6288""
","
","null","<p></p>","null","","","","","","","",""
"","image","172","190296","0.0-172.0","""event"",""trial"",""time""
""fullscreenenter"",""0"",""6288""
","
","
","""event"",""trial"",""time""
""fullscreenenter"",""0"",""6288""
","
","637.2000000476837","run_exp/static/images/Set 6_rs/070a.jpg","86","","","","","","learn","SR",""
"","show_choice","173","191664","0.0-173.0","""event"",""trial"",""time""
""fullscreenenter"",""0"",""6288""
","
","
","""event"",""trial"",""time""
""fullscreenenter"",""0"",""6288""
","
","null","run_exp/static/images/Set 6_rs/070a.jpg","null","","","","","","learn","SR",""
"","html-keyboard-response","174","192166","0.0-174.0","""event"",""trial"",""time""
""fullscreenenter"",""0"",""6288""
","
","
","""event"",""trial"",""time""
""fullscreenenter"",""0"",""6288""
","
","null","<p></p>","null","","","","","","","",""
"","image","175","193003","0.0-175.0","""event"",""trial"",""time""
""fullscreenenter"",""0"",""6288""
","
","
","""event"",""trial"",""time""
""fullscreenenter"",""0"",""6288""
","
","834.3000000715256","run_exp/static/images/Set 6_rs/091a.jpg","78","","","","","","learn","SL",""
"","show_choice","176","194173","0.0-176.0","""event"",""trial"",""time""
""fullscreenenter"",""0"",""6288""
","
","
","""event"",""trial"",""time""
""fullscreenenter"",""0"",""6288""
","
","null","run_exp/static/images/Set 6_rs/091a.jpg","null","","","","","","learn","SL",""
"","html-keyboard-response","177","194680","0.0-177.0","""event"",""trial"",""time""
""fullscreenenter"",""0"",""6288""
","
","
","""event"",""trial"",""time""
""fullscreenenter"",""0"",""6288""
","
","null","<p></p>","null","","","","","","","",""
"","image","178","195293","0.0-178.0","""event"",""trial"",""time""
""fullscreenenter"",""0"",""6288""
","
","
","""event"",""trial"",""time""
""fullscreenenter"",""0"",""6288""
","
","610.3999999761581","run_exp/static/images/Set 6_rs/169a.jpg","78","","","","","","learn","SR",""
"","show_choice","179","196688","0.0-179.0","""event"",""trial"",""time""
""fullscreenenter"",""0"",""6288""
","
","
","""event"",""trial"",""time""
""fullscreenenter"",""0"",""6288""
","
","null","run_exp/static/images/Set 6_rs/169a.jpg","null","","","","","","learn","SR",""
"","html-keyboard-response","180","197192","0.0-180.0","""event"",""trial"",""time""
""fullscreenenter"",""0"",""6288""
","
","
","""event"",""trial"",""time""
""fullscreenenter"",""0"",""6288""
","
","null","<p></p>","null","","","","","","","",""
"","image","181","197960","0.0-181.0","""event"",""trial"",""time""
""fullscreenenter"",""0"",""6288""
","
","
","""event"",""trial"",""time""
""fullscreenenter"",""0"",""6288""
","
","765.3999999761581","run_exp/static/images/Set 6_rs/168a.jpg","86","","","","","","learn","SL",""
"","show_choice","182","199197","0.0-182.0","""event"",""trial"",""time""
""fullscreenenter"",""0"",""6288""
","
","
","""event"",""trial"",""time""
""fullscreenenter"",""0"",""6288""
","
","null","run_exp/static/images/Set 6_rs/168a.jpg","null","","","","","","learn","SL",""
"","html-keyboard-response","183","199703","0.0-183.0","""event"",""trial"",""time""
""fullscreenenter"",""0"",""6288""
","
","
","""event"",""trial"",""time""
""fullscreenenter"",""0"",""6288""
","
","null","<p></p>","null","","","","","","","",""
"","image","184","200515","0.0-184.0","""event"",""trial"",""time""
""fullscreenenter"",""0"",""6288""
","
","
","""event"",""trial"",""time""
""fullscreenenter"",""0"",""6288""
","
","809.1000000238419","run_exp/static/images/Set 6_rs/014a.jpg","86","","","","","","learn","SL",""
"","show_choice","185","201711","0.0-185.0","""event"",""trial"",""time""
""fullscreenenter"",""0"",""6288""
","
","
","""event"",""trial"",""time""
""fullscreenenter"",""0"",""6288""
","
","null","run_exp/static/images/Set 6_rs/014a.jpg","null","","","","","","learn","SL",""
"","html-keyboard-response","186","202213","0.0-186.0","""event"",""trial"",""time""
""fullscreenenter"",""0"",""6288""
","
","
","""event"",""trial"",""time""
""fullscreenenter"",""0"",""6288""
","
","null","<p></p>","null","","","","","","","",""
"","image","187","203269","0.0-187.0","""event"",""trial"",""time""
""fullscreenenter"",""0"",""6288""
","
","
","""event"",""trial"",""time""
""fullscreenenter"",""0"",""6288""
","
","1053.7999999523163","run_exp/static/images/Set 6_rs/006a.jpg","78","","","","","","learn","SL",""
"","show_choice","188","204220","0.0-188.0","""event"",""trial"",""time""
""fullscreenenter"",""0"",""6288""
","
","
","""event"",""trial"",""time""
""fullscreenenter"",""0"",""6288""
","
","null","run_exp/static/images/Set 6_rs/006a.jpg","null","","","","","","learn","SL",""
"","html-keyboard-response","189","204727","0.0-189.0","""event"",""trial"",""time""
""fullscreenenter"",""0"",""6288""
","
","
","""event"",""trial"",""time""
""fullscreenenter"",""0"",""6288""
","
","null","<p></p>","null","","","","","","","",""
"","image","190","205373","0.0-190.0","""event"",""trial"",""time""
""fullscreenenter"",""0"",""6288""
","
","
","""event"",""trial"",""time""
""fullscreenenter"",""0"",""6288""
","
","643.2000000476837","run_exp/static/images/Set 6_rs/062a.jpg","86","","","","","","learn","SL",""
"","show_choice","191","206735","0.0-191.0","""event"",""trial"",""time""
""fullscreenenter"",""0"",""6288""
","
","
","""event"",""trial"",""time""
""fullscreenenter"",""0"",""6288""
","
","null","run_exp/static/images/Set 6_rs/062a.jpg","null","","","","","","learn","SL",""
"","html-keyboard-response","192","207236","0.0-192.0","""event"",""trial"",""time""
""fullscreenenter"",""0"",""6288""
","
","
","""event"",""trial"",""time""
""fullscreenenter"",""0"",""6288""
","
","null","<p></p>","null","","","","","","","",""
"","image","193","208301","0.0-193.0","""event"",""trial"",""time""
""fullscreenenter"",""0"",""6288""
","
","
","""event"",""trial"",""time""
""fullscreenenter"",""0"",""6288""
","
","1061.8999999761581","run_exp/static/images/Set 6_rs/116a.jpg","86","","","","","","learn","SL",""
"","show_choice","194","209244","0.0-194.0","""event"",""trial"",""time""
""fullscreenenter"",""0"",""6288""
","
","
","""event"",""trial"",""time""
""fullscreenenter"",""0"",""6288""
","
","null","run_exp/static/images/Set 6_rs/116a.jpg","null","","","","","","learn","SL",""
"","html-keyboard-response","195","209751","0.0-195.0","""event"",""trial"",""time""
""fullscreenenter"",""0"",""6288""
","
","
","""event"",""trial"",""time""
""fullscreenenter"",""0"",""6288""
","
","null","<p></p>","null","","","","","","","",""
"","test_intro","196","246623","0.0-196.0","""event"",""trial"",""time""
""fullscreenenter"",""0"",""6288""
","
","
","""event"",""trial"",""time""
""fullscreenenter"",""0"",""6288""
","
","null","run_exp/static/audio/clip_2_memory.m4a","null","","","","","<div class='center'><p>Now, lets see how much you remember about the items you just saw.  For each item, you need to indicate if it was <b>old</b> by pressing the <b>v</b> key, <b>similar</b> by pressing the <b>b</b> key, or <b>new</b> by pressing the <b>n</b> key.</p><p>Old refers to an item that you saw before in the indoor/outdoor game that you just played, new refers to an item you have <b>not</b> seen before within the indoor/outdoor game, and similar refers to an item that is similar to an item youve seen before but is not exactly the same. </p><p>Before we begin, lets go over some brief demonstrations to make sure you understand.</p></div>","","",""
"","html-keyboard-response","197","247443","0.0-197.0","""event"",""trial"",""time""
""fullscreenenter"",""0"",""6288""
","
","
","""event"",""trial"",""time""
""fullscreenenter"",""0"",""6288""
","
","816.5999999046326","<div class='center'><p>Now, lets see how much you remember about the items you just saw.  For each item, you need to indicate if it was <b>old</b> by pressing the <b>v</b> key, <b>similar</b> by pressing the <b>b</b> key, or <b>new</b> by pressing the <b>n</b> key.</p><p>Old refers to an item that you saw before in the indoor/outdoor game that you just played, new refers to an item you have <b>not</b> seen before within the indoor/outdoor game, and similar refers to an item that is similar to an item youve seen before but is not exactly the same. </p><p>Before we begin, lets go over some brief demonstrations to make sure you understand.</p><div><p><b>[Press the space bar to continue]</b></p></div>","32","","","","","","","",""
"","items","198","254947","0.0-198.0","""event"",""trial"",""time""
""fullscreenenter"",""0"",""6288""
","
","
","""event"",""trial"",""time""
""fullscreenenter"",""0"",""6288""
","
","null","run_exp/static/audio/clip_3_items.m4a","null","","","","","","","",""
"","mop","199","259451","0.0-199.0","""event"",""trial"",""time""
""fullscreenenter"",""0"",""6288""
","
","
","""event"",""trial"",""time""
""fullscreenenter"",""0"",""6288""
","
","null","run_exp/static/audio/clip_4_mop.m4a","null","","","","","","","",""
"","baseball","200","262957","0.0-200.0","""event"",""trial"",""time""
""fullscreenenter"",""0"",""6288""
","
","
","""event"",""trial"",""time""
""fullscreenenter"",""0"",""6288""
","
","null","run_exp/static/audio/clip_5_baseball.m4a","null","","","","","","","",""
"","trumpet","201","266463","0.0-201.0","""event"",""trial"",""time""
""fullscreenenter"",""0"",""6288""
","
","
","""event"",""trial"",""time""
""fullscreenenter"",""0"",""6288""
","
","null","run_exp/static/audio/clip_6_trumpet.m4a","null","","","","","","","",""
"","gummies","202","269970","0.0-202.0","""event"",""trial"",""time""
""fullscreenenter"",""0"",""6288""
","
","
","""event"",""trial"",""time""
""fullscreenenter"",""0"",""6288""
","
","null","run_exp/static/audio/clip_7_gummies.m4a","null","","","","","","","",""
"","osn","203","274477","0.0-203.0","""event"",""trial"",""time""
""fullscreenenter"",""0"",""6288""
","
","
","""event"",""trial"",""time""
""fullscreenenter"",""0"",""6288""
","
","null","run_exp/static/audio/clip_8_osn.m4a","null","","","","","","","",""
"","old_1","204","280986","0.0-204.0","""event"",""trial"",""time""
""fullscreenenter"",""0"",""6288""
","
","
","""event"",""trial"",""time""
""fullscreenenter"",""0"",""6288""
","
","null","run_exp/static/audio/clip_9_old_trumpet.m4a","null","","","","","","","",""
"","new_1","205","288494","0.0-205.0","""event"",""trial"",""time""
""fullscreenenter"",""0"",""6288""
","
","
","""event"",""trial"",""time""
""fullscreenenter"",""0"",""6288""
","
","null","run_exp/static/audio/clip_10_new_balloon.m4a","null","","","","","","","",""
"","similar_1a","206","293002","0.0-206.0","""event"",""trial"",""time""
""fullscreenenter"",""0"",""6288""
","
","
","""event"",""trial"",""time""
""fullscreenenter"",""0"",""6288""
","
","null","run_exp/static/audio/clip_11a_similar_mop.m4a","null","","","","","","","",""
"","similar_1b","207","299506","0.0-207.0","""event"",""trial"",""time""
""fullscreenenter"",""0"",""6288""
","
","
","""event"",""trial"",""time""
""fullscreenenter"",""0"",""6288""
","
","null","run_exp/static/audio/clip_11b_similar_mop.m4a","null","","","","","","","",""
"","new_2","208","303012","0.0-208.0","""event"",""trial"",""time""
""fullscreenenter"",""0"",""6288""
","
","
","""event"",""trial"",""time""
""fullscreenenter"",""0"",""6288""
","
","null","run_exp/static/audio/clip_12_new_stoplight.m4a","null","","","","","","","",""
"","old_2","209","306520","0.0-209.0","""event"",""trial"",""time""
""fullscreenenter"",""0"",""6288""
","
","
","""event"",""trial"",""time""
""fullscreenenter"",""0"",""6288""
","
","null","run_exp/static/audio/clip_13_old_baseball.m4a","null","","","","","","","",""
"","similar_2a","210","310028","0.0-210.0","""event"",""trial"",""time""
""fullscreenenter"",""0"",""6288""
","
","
","""event"",""trial"",""time""
""fullscreenenter"",""0"",""6288""
","
","null","run_exp/static/audio/clip_14a_similar_gummies.m4a","null","","","","","","","",""
"","similar_2b","211","317536","0.0-211.0","""event"",""trial"",""time""
""fullscreenenter"",""0"",""6288""
","
","
","""event"",""trial"",""time""
""fullscreenenter"",""0"",""6288""
","
","null","run_exp/static/audio/clip_14b_similar_gummies.m4a","null","","","","","","","",""
"","practice","212","359669","0.0-212.0","""event"",""trial"",""time""
""fullscreenenter"",""0"",""6288""
","
","
","""event"",""trial"",""time""
""fullscreenenter"",""0"",""6288""
","
","null","run_exp/static/audio/clip_15_practice.m4a","null","","","","","<div class='center'><p>Lets practice a little to make sure you understand the difference between new, similar, and old. Lets say you saw these three items in the indoor/outdoor game.</p><p> Try your best to remember these images because youll soon be tested on them in a practice game. In the practice game, youll be shown images and youll have to say if they are old (one of the three images belows), similar (similar to one of the images below but not exactly the same), or new (are not one of the images below nor similar to them).</p><p>Once you press the space bar youll be shown these images again but one at time. Then youll begin the practice game.</p><p><img src='run_exp/static/images/tutorial/test/three_indoor_outdoor.png' height='300'></p></div>","","",""
"","html-keyboard-response","213","360074","0.0-213.0","""event"",""trial"",""time""
""fullscreenenter"",""0"",""6288""
","
","
","""event"",""trial"",""time""
""fullscreenenter"",""0"",""6288""
","
","402.90000009536743","<div class='center'><p>Lets practice a little to make sure you understand the difference between new, similar, and old. Lets say you saw these three items in the indoor/outdoor game.</p><p> Try your best to remember these images because youll soon be tested on them in a practice game. In the practice game, youll be shown images and youll have to say if they are old (one of the three images belows), similar (similar to one of the images below but not exactly the same), or new (are not one of the images below nor similar to them).</p><p>Once you press the space bar youll be shown these images again but one at time. Then youll begin the practice game.</p><p><img src='run_exp/static/images/tutorial/test/three_indoor_outdoor.png' height='300'></p><div><p><b>[Press the space bar to continue]</b></p></div>","32","","","","","","","",""
"","planet","214","362081","0.0-214.0","""event"",""trial"",""time""
""fullscreenenter"",""0"",""6288""
","
","
","""event"",""trial"",""time""
""fullscreenenter"",""0"",""6288""
","
","null","run_exp/static/images/tutorial/test/008a.jpg","null","","","","","","","",""
"","boot","215","364084","0.0-215.0","""event"",""trial"",""time""
""fullscreenenter"",""0"",""6288""
","
","
","""event"",""trial"",""time""
""fullscreenenter"",""0"",""6288""
","
","null","run_exp/static/images/tutorial/test/011a.jpg","null","","","","","","","",""
"","lemon","216","366087","0.0-216.0","""event"",""trial"",""time""
""fullscreenenter"",""0"",""6288""
","
","
","""event"",""trial"",""time""
""fullscreenenter"",""0"",""6288""
","
","null","run_exp/static/images/tutorial/test/018a.jpg","null","","","","","","","",""
"","practice_q1","217","369938","0.0-217.0","""event"",""trial"",""time""
""fullscreenenter"",""0"",""6288""
","
","
","""event"",""trial"",""time""
""fullscreenenter"",""0"",""6288""
","
","3847.7000000476837","run_exp/static/audio/clip_16_practice_question.m4a","78","","","","","","","",""
"","correct","218","371850","0.0-218.0-0.0","""event"",""trial"",""time""
""fullscreenenter"",""0"",""6288""
","
","
","""event"",""trial"",""time""
""fullscreenenter"",""0"",""6288""
","
","null","run_exp/static/audio/clip_17_correct.m4a","null","","","","","<div class='center'><p>That's correct!</p></div>","","",""
"","html-keyboard-response","219","373332","0.0-218.0-1.0","""event"",""trial"",""time""
""fullscreenenter"",""0"",""6288""
","
","
","""event"",""trial"",""time""
""fullscreenenter"",""0"",""6288""
","
","1480.1000000238419","<div class='center'><p>That's correct!</p><div><p><b>[Press the space bar to continue]</b></p></div>","32","","","","","","","",""
"","practice_q2","220","374396","0.0-218.0-2.0","""event"",""trial"",""time""
""fullscreenenter"",""0"",""6288""
","
","
","""event"",""trial"",""time""
""fullscreenenter"",""0"",""6288""
","
","1061.2999999523163","run_exp/static/audio/clip_16_practice_question.m4a","86","","","","","","","",""
"","correct","221","376308","0.0-219.0-0.0","""event"",""trial"",""time""
""fullscreenenter"",""0"",""6288""
","
","
","""event"",""trial"",""time""
""fullscreenenter"",""0"",""6288""
","
","null","run_exp/static/audio/clip_17_correct.m4a","null","","","","","<div class='center'><p>That's correct!</p></div>","","",""
"","html-keyboard-response","222","377093","0.0-219.0-1.0","""event"",""trial"",""time""
""fullscreenenter"",""0"",""6288""
","
","
","""event"",""trial"",""time""
""fullscreenenter"",""0"",""6288""
","
","782.8999999761581","<div class='center'><p>That's correct!</p><div><p><b>[Press the space bar to continue]</b></p></div>","32","","","","","","","",""
"","practice_q3","223","379335","0.0-219.0-2.0","""event"",""trial"",""time""
""fullscreenenter"",""0"",""6288""
","
","
","""event"",""trial"",""time""
""fullscreenenter"",""0"",""6288""
","
","2239","run_exp/static/audio/clip_16_practice_question.m4a","66","","","","","","","",""
"","correct","224","381343","0.0-220.0-0.0","""event"",""trial"",""time""
""fullscreenenter"",""0"",""6288""
","
","
","""event"",""trial"",""time""
""fullscreenenter"",""0"",""6288""
","
","null","run_exp/static/audio/clip_17_correct.m4a","null","","","","","<div class='center'><p>That's correct!</p></div>","","",""
"","html-keyboard-response","225","381797","0.0-220.0-1.0","""event"",""trial"",""time""
""fullscreenenter"",""0"",""6288""
","
","
","""event"",""trial"",""time""
""fullscreenenter"",""0"",""6288""
","
","451.3000000715256","<div class='center'><p>That's correct!</p><div><p><b>[Press the space bar to continue]</b></p></div>","32","","","","","","","",""
"","begin_text","226","400287","0.0-221.0-0.0","""event"",""trial"",""time""
""fullscreenenter"",""0"",""6288""
","
","
","""event"",""trial"",""time""
""fullscreenenter"",""0"",""6288""
","
","null","run_exp/static/audio/clip_22_begin_test.m4a","null","","","","","<div class='center'><p>On to the real game where well test your memory of items from the indoor/outdoor game. For each item, you need to indicate if the item is <b>old</b> by pressing the <b>v</b> key, <b>similar</b> by pressing the <b>b</b> key, or <b>new</b> by pressing the <b>n</b> key. </p></div>","","",""
"","html-keyboard-response","227","400929","0.0-221.0-1.0","""event"",""trial"",""time""
""fullscreenenter"",""0"",""6288""
","
","
","""event"",""trial"",""time""
""fullscreenenter"",""0"",""6288""
","
","638.7000000476837","<div class='center'><p>On to the real game where well test your memory of items from the indoor/outdoor game. For each item, you need to indicate if the item is <b>old</b> by pressing the <b>v</b> key, <b>similar</b> by pressing the <b>b</b> key, or <b>new</b> by pressing the <b>n</b> key. </p><div><p><b>[Press the space bar to continue]</b></p></div>","32","","","","","","","",""
"","image","228","402091","0.0-222.0-0.0","""event"",""trial"",""time""
""fullscreenenter"",""0"",""6288""
","
","
","""event"",""trial"",""time""
""fullscreenenter"",""0"",""6288""
","
","1159.6000000238419","run_exp/static/images/Set 6_rs/064a.jpg","86","","","","","","test","TR","5"
"","show_choice","229","402595","0.0-222.0-1.0","""event"",""trial"",""time""
""fullscreenenter"",""0"",""6288""
","
","
","""event"",""trial"",""time""
""fullscreenenter"",""0"",""6288""
","
","null","run_exp/static/images/Set 6_rs/064a.jpg","null","","","","","","test","TR",""
"","html-keyboard-response","230","403100","0.0-222.0-2.0","""event"",""trial"",""time""
""fullscreenenter"",""0"",""6288""
","
","
","""event"",""trial"",""time""
""fullscreenenter"",""0"",""6288""
","
","null","<p></p>","null","","","","","","","",""
"","image","231","404248","0.0-223.0-0.0","""event"",""trial"",""time""
""fullscreenenter"",""0"",""6288""
","
","
","""event"",""trial"",""time""
""fullscreenenter"",""0"",""6288""
","
","1144.8999999761581","run_exp/static/images/Set 6_rs/169a.jpg","86","","","","","","test","TR","4"
"","show_choice","232","404750","0.0-223.0-1.0","""event"",""trial"",""time""
""fullscreenenter"",""0"",""6288""
","
","
","""event"",""trial"",""time""
""fullscreenenter"",""0"",""6288""
","
","null","run_exp/static/images/Set 6_rs/169a.jpg","null","","","","","","test","TR",""
"","html-keyboard-response","233","405252","0.0-223.0-2.0","""event"",""trial"",""time""
""fullscreenenter"",""0"",""6288""
","
","
","""event"",""trial"",""time""
""fullscreenenter"",""0"",""6288""
","
","null","<p></p>","null","","","","","","","",""
"","image","234","406106","0.0-224.0-0.0","""event"",""trial"",""time""
""fullscreenenter"",""0"",""6288""
","
","
","""event"",""trial"",""time""
""fullscreenenter"",""0"",""6288""
","
","850.7999999523163","run_exp/static/images/Set 6_rs/006b.jpg","86","","","","","","test","TL","2"
"","show_choice","235","406611","0.0-224.0-1.0","""event"",""trial"",""time""
""fullscreenenter"",""0"",""6288""
","
","
","""event"",""trial"",""time""
""fullscreenenter"",""0"",""6288""
","
","null","run_exp/static/images/Set 6_rs/006b.jpg","null","","","","","","test","TL",""
"","html-keyboard-response","236","407114","0.0-224.0-2.0","""event"",""trial"",""time""
""fullscreenenter"",""0"",""6288""
","
","
","""event"",""trial"",""time""
""fullscreenenter"",""0"",""6288""
","
","null","<p></p>","null","","","","","","","",""
"","image","237","408098","0.0-225.0-0.0","""event"",""trial"",""time""
""fullscreenenter"",""0"",""6288""
","
","
","""event"",""trial"",""time""
""fullscreenenter"",""0"",""6288""
","
","980.8000000715256","run_exp/static/images/Set 6_rs/022a.jpg","78","","","","","","test","TF","4"
"","show_choice","238","408601","0.0-225.0-1.0","""event"",""trial"",""time""
""fullscreenenter"",""0"",""6288""
","
","
","""event"",""trial"",""time""
""fullscreenenter"",""0"",""6288""
","
","null","run_exp/static/images/Set 6_rs/022a.jpg","null","","","","","","test","TF",""
"","html-keyboard-response","239","409103","0.0-225.0-2.0","""event"",""trial"",""time""
""fullscreenenter"",""0"",""6288""
","
","
","""event"",""trial"",""time""
""fullscreenenter"",""0"",""6288""
","
","null","<p></p>","null","","","","","","","",""
"","image","240","410875","0.0-226.0-0.0","""event"",""trial"",""time""
""fullscreenenter"",""0"",""6288""
","
","
","""event"",""trial"",""time""
""fullscreenenter"",""0"",""6288""
","
","1768.2999999523163","run_exp/static/images/Set 6_rs/152a.jpg","86","","","","","","test","TR","2"
"","show_choice","241","411379","0.0-226.0-1.0","""event"",""trial"",""time""
""fullscreenenter"",""0"",""6288""
","
","
","""event"",""trial"",""time""
""fullscreenenter"",""0"",""6288""
","
","null","run_exp/static/images/Set 6_rs/152a.jpg","null","","","","","","test","TR",""
"","html-keyboard-response","242","411882","0.0-226.0-2.0","""event"",""trial"",""time""
""fullscreenenter"",""0"",""6288""
","
","
","""event"",""trial"",""time""
""fullscreenenter"",""0"",""6288""
","
","null","<p></p>","null","","","","","","","",""
"","image","243","413657","0.0-227.0-0.0","""event"",""trial"",""time""
""fullscreenenter"",""0"",""6288""
","
","
","""event"",""trial"",""time""
""fullscreenenter"",""0"",""6288""
","
","1772.5","run_exp/static/images/Set 6_rs/171a.jpg","66","","","","","","test","TF","1"
"","show_choice","244","414160","0.0-227.0-1.0","""event"",""trial"",""time""
""fullscreenenter"",""0"",""6288""
","
","
","""event"",""trial"",""time""
""fullscreenenter"",""0"",""6288""
","
","null","run_exp/static/images/Set 6_rs/171a.jpg","null","","","","","","test","TF",""
"","html-keyboard-response","245","414663","0.0-227.0-2.0","""event"",""trial"",""time""
""fullscreenenter"",""0"",""6288""
","
","
","""event"",""trial"",""time""
""fullscreenenter"",""0"",""6288""
","
","null","<p></p>","null","","","","","","","",""
"","image","246","416162","0.0-228.0-0.0","""event"",""trial"",""time""
""fullscreenenter"",""0"",""6288""
","
","
","""event"",""trial"",""time""
""fullscreenenter"",""0"",""6288""
","
","1496","run_exp/static/images/Set 6_rs/048a.jpg","78","","","","","","test","TF","4"
"","show_choice","247","416665","0.0-228.0-1.0","""event"",""trial"",""time""
""fullscreenenter"",""0"",""6288""
","
","
","""event"",""trial"",""time""
""fullscreenenter"",""0"",""6288""
","
","null","run_exp/static/images/Set 6_rs/048a.jpg","null","","","","","","test","TF",""
"","html-keyboard-response","248","417170","0.0-228.0-2.0","""event"",""trial"",""time""
""fullscreenenter"",""0"",""6288""
","
","
","""event"",""trial"",""time""
""fullscreenenter"",""0"",""6288""
","
","null","<p></p>","null","","","","","","","",""
"","image","249","418202","0.0-229.0-0.0","""event"",""trial"",""time""
""fullscreenenter"",""0"",""6288""
","
","
","""event"",""trial"",""time""
""fullscreenenter"",""0"",""6288""
","
","1029","run_exp/static/images/Set 6_rs/132a.jpg","86","","","","","","test","TR","5"
"","show_choice","250","418704","0.0-229.0-1.0","""event"",""trial"",""time""
""fullscreenenter"",""0"",""6288""
","
","
","""event"",""trial"",""time""
""fullscreenenter"",""0"",""6288""
","
","null","run_exp/static/images/Set 6_rs/132a.jpg","null","","","","","","test","TR",""
"","html-keyboard-response","251","419209","0.0-229.0-2.0","""event"",""trial"",""time""
""fullscreenenter"",""0"",""6288""
","
","
","""event"",""trial"",""time""
""fullscreenenter"",""0"",""6288""
","
","null","<p></p>","null","","","","","","","",""
"","image","252","420164","0.0-230.0-0.0","""event"",""trial"",""time""
""fullscreenenter"",""0"",""6288""
","
","
","""event"",""trial"",""time""
""fullscreenenter"",""0"",""6288""
","
","952.1000000238419","run_exp/static/images/Set 6_rs/097a.jpg","78","","","","","","test","TF","5"
"","show_choice","253","420668","0.0-230.0-1.0","""event"",""trial"",""time""
""fullscreenenter"",""0"",""6288""
","
","
","""event"",""trial"",""time""
""fullscreenenter"",""0"",""6288""
","
","null","run_exp/static/images/Set 6_rs/097a.jpg","null","","","","","","test","TF",""
"","html-keyboard-response","254","421172","0.0-230.0-2.0","""event"",""trial"",""time""
""fullscreenenter"",""0"",""6288""
","
","
","""event"",""trial"",""time""
""fullscreenenter"",""0"",""6288""
","
","null","<p></p>","null","","","","","","","",""
"","image","255","422336","0.0-231.0-0.0","""event"",""trial"",""time""
""fullscreenenter"",""0"",""6288""
","
","
","""event"",""trial"",""time""
""fullscreenenter"",""0"",""6288""
","
","1161.3999999761581","run_exp/static/images/Set 6_rs/071b.jpg","78","","","","","","test","TL","4"
"","show_choice","256","422841","0.0-231.0-1.0","""event"",""trial"",""time""
""fullscreenenter"",""0"",""6288""
","
","
","""event"",""trial"",""time""
""fullscreenenter"",""0"",""6288""
","
","null","run_exp/static/images/Set 6_rs/071b.jpg","null","","","","","","test","TL",""
"","html-keyboard-response","257","423343","0.0-231.0-2.0","""event"",""trial"",""time""
""fullscreenenter"",""0"",""6288""
","
","
","""event"",""trial"",""time""
""fullscreenenter"",""0"",""6288""
","
","null","<p></p>","null","","","","","","","",""
"","image","258","424772","0.0-232.0-0.0","""event"",""trial"",""time""
""fullscreenenter"",""0"",""6288""
","
","
","""event"",""trial"",""time""
""fullscreenenter"",""0"",""6288""
","
","1426.2000000476837","run_exp/static/images/Set 6_rs/166a.jpg","86","","","","","","test","TR","1"
"","show_choice","259","425277","0.0-232.0-1.0","""event"",""trial"",""time""
""fullscreenenter"",""0"",""6288""
","
","
","""event"",""trial"",""time""
""fullscreenenter"",""0"",""6288""
","
","null","run_exp/static/images/Set 6_rs/166a.jpg","null","","","","","","test","TR",""
"","html-keyboard-response","260","425780","0.0-232.0-2.0","""event"",""trial"",""time""
""fullscreenenter"",""0"",""6288""
","
","
","""event"",""trial"",""time""
""fullscreenenter"",""0"",""6288""
","
","null","<p></p>","null","","","","","","","",""
"","image","261","426738","0.0-233.0-0.0","""event"",""trial"",""time""
""fullscreenenter"",""0"",""6288""
","
","
","""event"",""trial"",""time""
""fullscreenenter"",""0"",""6288""
","
","954.9000000953674","run_exp/static/images/Set 6_rs/047a.jpg","78","","","","","","test","TF","3"
"","show_choice","262","427242","0.0-233.0-1.0","""event"",""trial"",""time""
""fullscreenenter"",""0"",""6288""
","
","
","""event"",""trial"",""time""
""fullscreenenter"",""0"",""6288""
","
","null","run_exp/static/images/Set 6_rs/047a.jpg","null","","","","","","test","TF",""
"","html-keyboard-response","263","427745","0.0-233.0-2.0","""event"",""trial"",""time""
""fullscreenenter"",""0"",""6288""
","
","
","""event"",""trial"",""time""
""fullscreenenter"",""0"",""6288""
","
","null","<p></p>","null","","","","","","","",""
"","image","264","428899","0.0-234.0-0.0","""event"",""trial"",""time""
""fullscreenenter"",""0"",""6288""
","
","
","""event"",""trial"",""time""
""fullscreenenter"",""0"",""6288""
","
","1150.2999999523163","run_exp/static/images/Set 6_rs/141a.jpg","66","","","","","","test","TR","2"
"","show_choice","265","429403","0.0-234.0-1.0","""event"",""trial"",""time""
""fullscreenenter"",""0"",""6288""
","
","
","""event"",""trial"",""time""
""fullscreenenter"",""0"",""6288""
","
","null","run_exp/static/images/Set 6_rs/141a.jpg","null","","","","","","test","TR",""
"","html-keyboard-response","266","429906","0.0-234.0-2.0","""event"",""trial"",""time""
""fullscreenenter"",""0"",""6288""
","
","
","""event"",""trial"",""time""
""fullscreenenter"",""0"",""6288""
","
","null","<p></p>","null","","","","","","","",""
"","image","267","430893","0.0-235.0-0.0","""event"",""trial"",""time""
""fullscreenenter"",""0"",""6288""
","
","
","""event"",""trial"",""time""
""fullscreenenter"",""0"",""6288""
","
","983.2999999523163","run_exp/static/images/Set 6_rs/035a.jpg","78","","","","","","test","TF","4"
"","show_choice","268","431397","0.0-235.0-1.0","""event"",""trial"",""time""
""fullscreenenter"",""0"",""6288""
","
","
","""event"",""trial"",""time""
""fullscreenenter"",""0"",""6288""
","
","null","run_exp/static/images/Set 6_rs/035a.jpg","null","","","","","","test","TF",""
"","html-keyboard-response","269","431900","0.0-235.0-2.0","""event"",""trial"",""time""
""fullscreenenter"",""0"",""6288""
","
","
","""event"",""trial"",""time""
""fullscreenenter"",""0"",""6288""
","
","null","<p></p>","null","","","","","","","",""
"","image","270","433289","0.0-236.0-0.0","""event"",""trial"",""time""
""fullscreenenter"",""0"",""6288""
","
","
","""event"",""trial"",""time""
""fullscreenenter"",""0"",""6288""
","
","1385.7999999523163","run_exp/static/images/Set 6_rs/050b.jpg","66","","","","","","test","TL","3"
"","show_choice","271","433794","0.0-236.0-1.0","""event"",""trial"",""time""
""fullscreenenter"",""0"",""6288""
","
","
","""event"",""trial"",""time""
""fullscreenenter"",""0"",""6288""
","
","null","run_exp/static/images/Set 6_rs/050b.jpg","null","","","","","","test","TL",""
"","html-keyboard-response","272","434297","0.0-236.0-2.0","""event"",""trial"",""time""
""fullscreenenter"",""0"",""6288""
","
","
","""event"",""trial"",""time""
""fullscreenenter"",""0"",""6288""
","
","null","<p></p>","null","","","","","","","",""
"","image","273","435774","0.0-237.0-0.0","""event"",""trial"",""time""
""fullscreenenter"",""0"",""6288""
","
","
","""event"",""trial"",""time""
""fullscreenenter"",""0"",""6288""
","
","1474.1000000238419","run_exp/static/images/Set 6_rs/074b.jpg","66","","","","","","test","TL","4"
"","show_choice","274","436278","0.0-237.0-1.0","""event"",""trial"",""time""
""fullscreenenter"",""0"",""6288""
","
","
","""event"",""trial"",""time""
""fullscreenenter"",""0"",""6288""
","
","null","run_exp/static/images/Set 6_rs/074b.jpg","null","","","","","","test","TL",""
"","html-keyboard-response","275","436782","0.0-237.0-2.0","""event"",""trial"",""time""
""fullscreenenter"",""0"",""6288""
","
","
","""event"",""trial"",""time""
""fullscreenenter"",""0"",""6288""
","
","null","<p></p>","null","","","","","","","",""
"","image","276","438787","0.0-238.0-0.0","""event"",""trial"",""time""
""fullscreenenter"",""0"",""6288""
","
","
","""event"",""trial"",""time""
""fullscreenenter"",""0"",""6288""
","
","2002.5","run_exp/static/images/Set 6_rs/168b.jpg","86","","","","","","test","TL","3"
"","show_choice","277","439292","0.0-238.0-1.0","""event"",""trial"",""time""
""fullscreenenter"",""0"",""6288""
","
","
","""event"",""trial"",""time""
""fullscreenenter"",""0"",""6288""
","
","null","run_exp/static/images/Set 6_rs/168b.jpg","null","","","","","","test","TL",""
"","html-keyboard-response","278","439795","0.0-238.0-2.0","""event"",""trial"",""time""
""fullscreenenter"",""0"",""6288""
","
","
","""event"",""trial"",""time""
""fullscreenenter"",""0"",""6288""
","
","null","<p></p>","null","","","","","","","",""
"","image","279","440682","0.0-239.0-0.0","""event"",""trial"",""time""
""fullscreenenter"",""0"",""6288""
","
","
","""event"",""trial"",""time""
""fullscreenenter"",""0"",""6288""
","
","883.6000000238419","run_exp/static/images/Set 6_rs/005a.jpg","78","","","","","","test","TF","5"
"","show_choice","280","441186","0.0-239.0-1.0","""event"",""trial"",""time""
""fullscreenenter"",""0"",""6288""
","
","
","""event"",""trial"",""time""
""fullscreenenter"",""0"",""6288""
","
","null","run_exp/static/images/Set 6_rs/005a.jpg","null","","","","","","test","TF",""
"","html-keyboard-response","281","441690","0.0-239.0-2.0","""event"",""trial"",""time""
""fullscreenenter"",""0"",""6288""
","
","
","""event"",""trial"",""time""
""fullscreenenter"",""0"",""6288""
","
","null","<p></p>","null","","","","","","","",""
"","image","282","442996","0.0-240.0-0.0","""event"",""trial"",""time""
""fullscreenenter"",""0"",""6288""
","
","
","""event"",""trial"",""time""
""fullscreenenter"",""0"",""6288""
","
","1303.5","run_exp/static/images/Set 6_rs/017b.jpg","66","","","","","","test","TL","3"
"","show_choice","283","443501","0.0-240.0-1.0","""event"",""trial"",""time""
""fullscreenenter"",""0"",""6288""
","
","
","""event"",""trial"",""time""
""fullscreenenter"",""0"",""6288""
","
","null","run_exp/static/images/Set 6_rs/017b.jpg","null","","","","","","test","TL",""
"","html-keyboard-response","284","444004","0.0-240.0-2.0","""event"",""trial"",""time""
""fullscreenenter"",""0"",""6288""
","
","
","""event"",""trial"",""time""
""fullscreenenter"",""0"",""6288""
","
","null","<p></p>","null","","","","","","","",""
"","image","285","445201","0.0-241.0-0.0","""event"",""trial"",""time""
""fullscreenenter"",""0"",""6288""
","
","
","""event"",""trial"",""time""
""fullscreenenter"",""0"",""6288""
","
","1194.2999999523163","run_exp/static/images/Set 6_rs/024a.jpg","86","","","","","","test","TR","5"
"","show_choice","286","445706","0.0-241.0-1.0","""event"",""trial"",""time""
""fullscreenenter"",""0"",""6288""
","
","
","""event"",""trial"",""time""
""fullscreenenter"",""0"",""6288""
","
","null","run_exp/static/images/Set 6_rs/024a.jpg","null","","","","","","test","TR",""
"","html-keyboard-response","287","446209","0.0-241.0-2.0","""event"",""trial"",""time""
""fullscreenenter"",""0"",""6288""
","
","
","""event"",""trial"",""time""
""fullscreenenter"",""0"",""6288""
","
","null","<p></p>","null","","","","","","","",""
"","image","288","447220","0.0-242.0-0.0","""event"",""trial"",""time""
""fullscreenenter"",""0"",""6288""
","
","
","""event"",""trial"",""time""
""fullscreenenter"",""0"",""6288""
","
","1008.6000000238419","run_exp/static/images/Set 6_rs/133a.jpg","78","","","","","","test","TF","4"
"","show_choice","289","447725","0.0-242.0-1.0","""event"",""trial"",""time""
""fullscreenenter"",""0"",""6288""
","
","
","""event"",""trial"",""time""
""fullscreenenter"",""0"",""6288""
","
","null","run_exp/static/images/Set 6_rs/133a.jpg","null","","","","","","test","TF",""
"","html-keyboard-response","290","448227","0.0-242.0-2.0","""event"",""trial"",""time""
""fullscreenenter"",""0"",""6288""
","
","
","""event"",""trial"",""time""
""fullscreenenter"",""0"",""6288""
","
","null","<p></p>","null","","","","","","","",""
"","image","291","449321","0.0-243.0-0.0","""event"",""trial"",""time""
""fullscreenenter"",""0"",""6288""
","
","
","""event"",""trial"",""time""
""fullscreenenter"",""0"",""6288""
","
","1090.5","run_exp/static/images/Set 6_rs/121a.jpg","86","","","","","","test","TR","4"
"","show_choice","292","449825","0.0-243.0-1.0","""event"",""trial"",""time""
""fullscreenenter"",""0"",""6288""
","
","
","""event"",""trial"",""time""
""fullscreenenter"",""0"",""6288""
","
","null","run_exp/static/images/Set 6_rs/121a.jpg","null","","","","","","test","TR",""
"","html-keyboard-response","293","450329","0.0-243.0-2.0","""event"",""trial"",""time""
""fullscreenenter"",""0"",""6288""
","
","
","""event"",""trial"",""time""
""fullscreenenter"",""0"",""6288""
","
","null","<p></p>","null","","","","","","","",""
"","image","294","451326","0.0-244.0-0.0","""event"",""trial"",""time""
""fullscreenenter"",""0"",""6288""
","
","
","""event"",""trial"",""time""
""fullscreenenter"",""0"",""6288""
","
","994.2999999523163","run_exp/static/images/Set 6_rs/150a.jpg","86","","","","","","test","TR","1"
"","show_choice","295","451829","0.0-244.0-1.0","""event"",""trial"",""time""
""fullscreenenter"",""0"",""6288""
","
","
","""event"",""trial"",""time""
""fullscreenenter"",""0"",""6288""
","
","null","run_exp/static/images/Set 6_rs/150a.jpg","null","","","","","","test","TR",""
"","html-keyboard-response","296","452332","0.0-244.0-2.0","""event"",""trial"",""time""
""fullscreenenter"",""0"",""6288""
","
","
","""event"",""trial"",""time""
""fullscreenenter"",""0"",""6288""
","
","null","<p></p>","null","","","","","","","",""
"","image","297","453660","0.0-245.0-0.0","""event"",""trial"",""time""
""fullscreenenter"",""0"",""6288""
","
","
","""event"",""trial"",""time""
""fullscreenenter"",""0"",""6288""
","
","1325.2000000476837","run_exp/static/images/Set 6_rs/111b.jpg","66","","","","","","test","TL","3"
"","show_choice","298","454162","0.0-245.0-1.0","""event"",""trial"",""time""
""fullscreenenter"",""0"",""6288""
","
","
","""event"",""trial"",""time""
""fullscreenenter"",""0"",""6288""
","
","null","run_exp/static/images/Set 6_rs/111b.jpg","null","","","","","","test","TL",""
"","html-keyboard-response","299","454667","0.0-245.0-2.0","""event"",""trial"",""time""
""fullscreenenter"",""0"",""6288""
","
","
","""event"",""trial"",""time""
""fullscreenenter"",""0"",""6288""
","
","null","<p></p>","null","","","","","","","",""
"","image","300","456051","0.0-246.0-0.0","""event"",""trial"",""time""
""fullscreenenter"",""0"",""6288""
","
","
","""event"",""trial"",""time""
""fullscreenenter"",""0"",""6288""
","
","1380.7999999523163","run_exp/static/images/Set 6_rs/154a.jpg","66","","","","","","test","TR","3"
"","show_choice","301","456556","0.0-246.0-1.0","""event"",""trial"",""time""
""fullscreenenter"",""0"",""6288""
","
","
","""event"",""trial"",""time""
""fullscreenenter"",""0"",""6288""
","
","null","run_exp/static/images/Set 6_rs/154a.jpg","null","","","","","","test","TR",""
"","html-keyboard-response","302","457059","0.0-246.0-2.0","""event"",""trial"",""time""
""fullscreenenter"",""0"",""6288""
","
","
","""event"",""trial"",""time""
""fullscreenenter"",""0"",""6288""
","
","null","<p></p>","null","","","","","","","",""
"","image","303","457980","0.0-247.0-0.0","""event"",""trial"",""time""
""fullscreenenter"",""0"",""6288""
","
","
","""event"",""trial"",""time""
""fullscreenenter"",""0"",""6288""
","
","918.1999999284744","run_exp/static/images/Set 6_rs/190a.jpg","78","","","","","","test","TF","3"
"","show_choice","304","458485","0.0-247.0-1.0","""event"",""trial"",""time""
""fullscreenenter"",""0"",""6288""
","
","
","""event"",""trial"",""time""
""fullscreenenter"",""0"",""6288""
","
","null","run_exp/static/images/Set 6_rs/190a.jpg","null","","","","","","test","TF",""
"","html-keyboard-response","305","458988","0.0-247.0-2.0","""event"",""trial"",""time""
""fullscreenenter"",""0"",""6288""
","
","
","""event"",""trial"",""time""
""fullscreenenter"",""0"",""6288""
","
","null","<p></p>","null","","","","","","","",""
"","image","306","460207","0.0-248.0-0.0","""event"",""trial"",""time""
""fullscreenenter"",""0"",""6288""
","
","
","""event"",""trial"",""time""
""fullscreenenter"",""0"",""6288""
","
","1216","run_exp/static/images/Set 6_rs/172a.jpg","86","","","","","","test","TR","1"
"","show_choice","307","460710","0.0-248.0-1.0","""event"",""trial"",""time""
""fullscreenenter"",""0"",""6288""
","
","
","""event"",""trial"",""time""
""fullscreenenter"",""0"",""6288""
","
","null","run_exp/static/images/Set 6_rs/172a.jpg","null","","","","","","test","TR",""
"","html-keyboard-response","308","461212","0.0-248.0-2.0","""event"",""trial"",""time""
""fullscreenenter"",""0"",""6288""
","
","
","""event"",""trial"",""time""
""fullscreenenter"",""0"",""6288""
","
","null","<p></p>","null","","","","","","","",""
"","image","309","462339","0.0-249.0-0.0","""event"",""trial"",""time""
""fullscreenenter"",""0"",""6288""
","
","
","""event"",""trial"",""time""
""fullscreenenter"",""0"",""6288""
","
","1124.3999999761581","run_exp/static/images/Set 6_rs/065a.jpg","78","","","","","","test","TF","3"
"","show_choice","310","462844","0.0-249.0-1.0","""event"",""trial"",""time""
""fullscreenenter"",""0"",""6288""
","
","
","""event"",""trial"",""time""
""fullscreenenter"",""0"",""6288""
","
","null","run_exp/static/images/Set 6_rs/065a.jpg","null","","","","","","test","TF",""
"","html-keyboard-response","311","463347","0.0-249.0-2.0","""event"",""trial"",""time""
""fullscreenenter"",""0"",""6288""
","
","
","""event"",""trial"",""time""
""fullscreenenter"",""0"",""6288""
","
","null","<p></p>","null","","","","","","","",""
"","image","312","464368","0.0-250.0-0.0","""event"",""trial"",""time""
""fullscreenenter"",""0"",""6288""
","
","
","""event"",""trial"",""time""
""fullscreenenter"",""0"",""6288""
","
","1018.5","run_exp/static/images/Set 6_rs/138b.jpg","66","","","","","","test","TL","1"
"","show_choice","313","464871","0.0-250.0-1.0","""event"",""trial"",""time""
""fullscreenenter"",""0"",""6288""
","
","
","""event"",""trial"",""time""
""fullscreenenter"",""0"",""6288""
","
","null","run_exp/static/images/Set 6_rs/138b.jpg","null","","","","","","test","TL",""
"","html-keyboard-response","314","465374","0.0-250.0-2.0","""event"",""trial"",""time""
""fullscreenenter"",""0"",""6288""
","
","
","""event"",""trial"",""time""
""fullscreenenter"",""0"",""6288""
","
","null","<p></p>","null","","","","","","","",""
"","image","315","466635","0.0-251.0-0.0","""event"",""trial"",""time""
""fullscreenenter"",""0"",""6288""
","
","
","""event"",""trial"",""time""
""fullscreenenter"",""0"",""6288""
","
","1257.3999999761581","run_exp/static/images/Set 6_rs/036b.jpg","66","","","","","","test","TL","4"
"","show_choice","316","467140","0.0-251.0-1.0","""event"",""trial"",""time""
""fullscreenenter"",""0"",""6288""
","
","
","""event"",""trial"",""time""
""fullscreenenter"",""0"",""6288""
","
","null","run_exp/static/images/Set 6_rs/036b.jpg","null","","","","","","test","TL",""
"","html-keyboard-response","317","467642","0.0-251.0-2.0","""event"",""trial"",""time""
""fullscreenenter"",""0"",""6288""
","
","
","""event"",""trial"",""time""
""fullscreenenter"",""0"",""6288""
","
","null","<p></p>","null","","","","","","","",""
"","image","318","468626","0.0-252.0-0.0","""event"",""trial"",""time""
""fullscreenenter"",""0"",""6288""
","
","
","""event"",""trial"",""time""
""fullscreenenter"",""0"",""6288""
","
","981.3999999761581","run_exp/static/images/Set 6_rs/010a.jpg","66","","","","","","test","TR","5"
"","show_choice","319","469131","0.0-252.0-1.0","""event"",""trial"",""time""
""fullscreenenter"",""0"",""6288""
","
","
","""event"",""trial"",""time""
""fullscreenenter"",""0"",""6288""
","
","null","run_exp/static/images/Set 6_rs/010a.jpg","null","","","","","","test","TR",""
"","html-keyboard-response","320","469634","0.0-252.0-2.0","""event"",""trial"",""time""
""fullscreenenter"",""0"",""6288""
","
","
","""event"",""trial"",""time""
""fullscreenenter"",""0"",""6288""
","
","null","<p></p>","null","","","","","","","",""
"","image","321","470705","0.0-253.0-0.0","""event"",""trial"",""time""
""fullscreenenter"",""0"",""6288""
","
","
","""event"",""trial"",""time""
""fullscreenenter"",""0"",""6288""
","
","1068.2000000476837","run_exp/static/images/Set 6_rs/126a.jpg","86","","","","","","test","TR","2"
"","show_choice","322","471209","0.0-253.0-1.0","""event"",""trial"",""time""
""fullscreenenter"",""0"",""6288""
","
","
","""event"",""trial"",""time""
""fullscreenenter"",""0"",""6288""
","
","null","run_exp/static/images/Set 6_rs/126a.jpg","null","","","","","","test","TR",""
"","html-keyboard-response","323","471712","0.0-253.0-2.0","""event"",""trial"",""time""
""fullscreenenter"",""0"",""6288""
","
","
","""event"",""trial"",""time""
""fullscreenenter"",""0"",""6288""
","
","null","<p></p>","null","","","","","","","",""
"","image","324","472546","0.0-254.0-0.0","""event"",""trial"",""time""
""fullscreenenter"",""0"",""6288""
","
","
","""event"",""trial"",""time""
""fullscreenenter"",""0"",""6288""
","
","830.7999999523163","run_exp/static/images/Set 6_rs/052a.jpg","78","","","","","","test","TF","1"
"","show_choice","325","473048","0.0-254.0-1.0","""event"",""trial"",""time""
""fullscreenenter"",""0"",""6288""
","
","
","""event"",""trial"",""time""
""fullscreenenter"",""0"",""6288""
","
","null","run_exp/static/images/Set 6_rs/052a.jpg","null","","","","","","test","TF",""
"","html-keyboard-response","326","473553","0.0-254.0-2.0","""event"",""trial"",""time""
""fullscreenenter"",""0"",""6288""
","
","
","""event"",""trial"",""time""
""fullscreenenter"",""0"",""6288""
","
","null","<p></p>","null","","","","","","","",""
"","image","327","474708","0.0-255.0-0.0","""event"",""trial"",""time""
""fullscreenenter"",""0"",""6288""
","
","
","""event"",""trial"",""time""
""fullscreenenter"",""0"",""6288""
","
","1152.2000000476837","run_exp/static/images/Set 6_rs/116b.jpg","66","","","","","","test","TL","2"
"","show_choice","328","475213","0.0-255.0-1.0","""event"",""trial"",""time""
""fullscreenenter"",""0"",""6288""
","
","
","""event"",""trial"",""time""
""fullscreenenter"",""0"",""6288""
","
","null","run_exp/static/images/Set 6_rs/116b.jpg","null","","","","","","test","TL",""
"","html-keyboard-response","329","475716","0.0-255.0-2.0","""event"",""trial"",""time""
""fullscreenenter"",""0"",""6288""
","
","
","""event"",""trial"",""time""
""fullscreenenter"",""0"",""6288""
","
","null","<p></p>","null","","","","","","","",""
"","image","330","477129","0.0-256.0-0.0","""event"",""trial"",""time""
""fullscreenenter"",""0"",""6288""
","
","
","""event"",""trial"",""time""
""fullscreenenter"",""0"",""6288""
","
","1410.3999999761581","run_exp/static/images/Set 6_rs/178a.jpg","86","","","","","","test","TR","3"
"","show_choice","331","477633","0.0-256.0-1.0","""event"",""trial"",""time""
""fullscreenenter"",""0"",""6288""
","
","
","""event"",""trial"",""time""
""fullscreenenter"",""0"",""6288""
","
","null","run_exp/static/images/Set 6_rs/178a.jpg","null","","","","","","test","TR",""
"","html-keyboard-response","332","478137","0.0-256.0-2.0","""event"",""trial"",""time""
""fullscreenenter"",""0"",""6288""
","
","
","""event"",""trial"",""time""
""fullscreenenter"",""0"",""6288""
","
","null","<p></p>","null","","","","","","","",""
"","image","333","479274","0.0-257.0-0.0","""event"",""trial"",""time""
""fullscreenenter"",""0"",""6288""
","
","
","""event"",""trial"",""time""
""fullscreenenter"",""0"",""6288""
","
","1133.7999999523163","run_exp/static/images/Set 6_rs/014b.jpg","66","","","","","","test","TL","5"
"","show_choice","334","479779","0.0-257.0-1.0","""event"",""trial"",""time""
""fullscreenenter"",""0"",""6288""
","
","
","""event"",""trial"",""time""
""fullscreenenter"",""0"",""6288""
","
","null","run_exp/static/images/Set 6_rs/014b.jpg","null","","","","","","test","TL",""
"","html-keyboard-response","335","480282","0.0-257.0-2.0","""event"",""trial"",""time""
""fullscreenenter"",""0"",""6288""
","
","
","""event"",""trial"",""time""
""fullscreenenter"",""0"",""6288""
","
","null","<p></p>","null","","","","","","","",""
"","image","336","481067","0.0-258.0-0.0","""event"",""trial"",""time""
""fullscreenenter"",""0"",""6288""
","
","
","""event"",""trial"",""time""
""fullscreenenter"",""0"",""6288""
","
","782","run_exp/static/images/Set 6_rs/188a.jpg","78","","","","","","test","TF","3"
"","show_choice","337","481571","0.0-258.0-1.0","""event"",""trial"",""time""
""fullscreenenter"",""0"",""6288""
","
","
","""event"",""trial"",""time""
""fullscreenenter"",""0"",""6288""
","
","null","run_exp/static/images/Set 6_rs/188a.jpg","null","","","","","","test","TF",""
"","html-keyboard-response","338","482074","0.0-258.0-2.0","""event"",""trial"",""time""
""fullscreenenter"",""0"",""6288""
","
","
","""event"",""trial"",""time""
""fullscreenenter"",""0"",""6288""
","
","null","<p></p>","null","","","","","","","",""
"","image","339","483018","0.0-259.0-0.0","""event"",""trial"",""time""
""fullscreenenter"",""0"",""6288""
","
","
","""event"",""trial"",""time""
""fullscreenenter"",""0"",""6288""
","
","940.2000000476837","run_exp/static/images/Set 6_rs/001a.jpg","78","","","","","","test","TF","1"
"","show_choice","340","483522","0.0-259.0-1.0","""event"",""trial"",""time""
""fullscreenenter"",""0"",""6288""
","
","
","""event"",""trial"",""time""
""fullscreenenter"",""0"",""6288""
","
","null","run_exp/static/images/Set 6_rs/001a.jpg","null","","","","","","test","TF",""
