"success","trial_type","trial_index","time_elapsed","internal_node_id","interactions","blur_events","focus_events","fullscreenenter_events","fullscreenexit_events","rt","stimulus","key_press","subject_id","participant_id","age","gender","prompt","phase","condition","lure_bin"
"true","fullscreen","0","37352","0.0-0.0","""event"",""trial"",""time""
""focus"",""0"",""0""
""fullscreenenter"",""0"",""36611""
","
","""event"",""trial"",""time""
""focus"",""0"",""0""
","""event"",""trial"",""time""
""fullscreenenter"",""0"",""36611""
","
","","","","","","","","","","",""
"","pavlovia","1","37360","0.0-1.0","""event"",""trial"",""time""
""focus"",""0"",""0""
""fullscreenenter"",""0"",""36611""
""blur"",""2"",""62508""
""focus"",""2"",""69971""
","""event"",""trial"",""time""
""blur"",""2"",""62508""
","""event"",""trial"",""time""
""focus"",""0"",""0""
""focus"",""2"",""69971""
","""event"",""trial"",""time""
""fullscreenenter"",""0"",""36611""
","
","","","","","","","","","","",""
"","welcome","2","72246","0.0-2.0","""event"",""trial"",""time""
""focus"",""0"",""0""
""fullscreenenter"",""0"",""36611""
""blur"",""2"",""62508""
""focus"",""2"",""69971""
","""event"",""trial"",""time""
""blur"",""2"",""62508""
","""event"",""trial"",""time""
""focus"",""0"",""0""
""focus"",""2"",""69971""
","""event"",""trial"",""time""
""fullscreenenter"",""0"",""36611""
","
","null","run_exp/static/audio/clip_1_welcome.m4a","null","1036","816","8","Female","<div class='center'><p>Welcome to the third part of the study! First, you'll be shown pictures of items one at a time. For each picture, you have to decide if the item is typically found indoors or outdoors.</p><p>If you think it's usually found indoors, then press <b>v</b> key on your keyboard. If you think it's usually found outdoors, then press the <b>n</b> key.There will be reminders on the screen to help you remember which keys to press. </p><p>If you're not sure whether the item is an indoor item or an outdoor item, go ahead and take a guess but try your best not to skip that choice. </p></div>","","",""
"","html-keyboard-response","3","73637","0.0-3.0","""event"",""trial"",""time""
""focus"",""0"",""0""
""fullscreenenter"",""0"",""36611""
""blur"",""2"",""62508""
""focus"",""2"",""69971""
","""event"",""trial"",""time""
""blur"",""2"",""62508""
","""event"",""trial"",""time""
""focus"",""0"",""0""
""focus"",""2"",""69971""
","""event"",""trial"",""time""
""fullscreenenter"",""0"",""36611""
","
","1378","<div class='center'><p>Welcome to the third part of the study! First, you'll be shown pictures of items one at a time. For each picture, you have to decide if the item is typically found indoors or outdoors.</p><p>If you think it's usually found indoors, then press <b>v</b> key on your keyboard. If you think it's usually found outdoors, then press the <b>n</b> key.There will be reminders on the screen to help you remember which keys to press. </p><p>If you're not sure whether the item is an indoor item or an outdoor item, go ahead and take a guess but try your best not to skip that choice. </p><div><p><b>[Press the space bar to continue]</b></p></div>","32","","","","","","","",""
"","image","4","75656","0.0-4.0","""event"",""trial"",""time""
""focus"",""0"",""0""
""fullscreenenter"",""0"",""36611""
""blur"",""2"",""62508""
""focus"",""2"",""69971""
","""event"",""trial"",""time""
""blur"",""2"",""62508""
","""event"",""trial"",""time""
""focus"",""0"",""0""
""focus"",""2"",""69971""
","""event"",""trial"",""time""
""fullscreenenter"",""0"",""36611""
","
","null","run_exp/static/images/Set 6_rs/025a.jpg","null","","","","","","learn","SL",""
"","show_choice","5","77669","0.0-5.0","""event"",""trial"",""time""
""focus"",""0"",""0""
""fullscreenenter"",""0"",""36611""
""blur"",""2"",""62508""
""focus"",""2"",""69971""
","""event"",""trial"",""time""
""blur"",""2"",""62508""
","""event"",""trial"",""time""
""focus"",""0"",""0""
""focus"",""2"",""69971""
","""event"",""trial"",""time""
""fullscreenenter"",""0"",""36611""
","
","null","run_exp/static/images/blank.png","null","","","","","","learn","SL",""
"","html-keyboard-response","6","78184","0.0-6.0","""event"",""trial"",""time""
""focus"",""0"",""0""
""fullscreenenter"",""0"",""36611""
""blur"",""2"",""62508""
""focus"",""2"",""69971""
","""event"",""trial"",""time""
""blur"",""2"",""62508""
","""event"",""trial"",""time""
""focus"",""0"",""0""
""focus"",""2"",""69971""
","""event"",""trial"",""time""
""fullscreenenter"",""0"",""36611""
","
","null","<p></p>","null","","","","","","","",""
"","image","7","80144","0.0-7.0","""event"",""trial"",""time""
""focus"",""0"",""0""
""fullscreenenter"",""0"",""36611""
""blur"",""2"",""62508""
""focus"",""2"",""69971""
","""event"",""trial"",""time""
""blur"",""2"",""62508""
","""event"",""trial"",""time""
""focus"",""0"",""0""
""focus"",""2"",""69971""
","""event"",""trial"",""time""
""fullscreenenter"",""0"",""36611""
","
","1959","run_exp/static/images/Set 6_rs/169a.jpg","78","","","","","","learn","SR",""
"","show_choice","8","80198","0.0-8.0","""event"",""trial"",""time""
""focus"",""0"",""0""
""fullscreenenter"",""0"",""36611""
""blur"",""2"",""62508""
""focus"",""2"",""69971""
","""event"",""trial"",""time""
""blur"",""2"",""62508""
","""event"",""trial"",""time""
""focus"",""0"",""0""
""focus"",""2"",""69971""
","""event"",""trial"",""time""
""fullscreenenter"",""0"",""36611""
","
","null","run_exp/static/images/Set 6_rs/169a.jpg","null","","","","","","learn","SR",""
"","html-keyboard-response","9","80705","0.0-9.0","""event"",""trial"",""time""
""focus"",""0"",""0""
""fullscreenenter"",""0"",""36611""
""blur"",""2"",""62508""
""focus"",""2"",""69971""
","""event"",""trial"",""time""
""blur"",""2"",""62508""
","""event"",""trial"",""time""
""focus"",""0"",""0""
""focus"",""2"",""69971""
","""event"",""trial"",""time""
""fullscreenenter"",""0"",""36611""
","
","null","<p></p>","null","","","","","","","",""
"","image","10","81998","0.0-10.0","""event"",""trial"",""time""
""focus"",""0"",""0""
""fullscreenenter"",""0"",""36611""
""blur"",""2"",""62508""
""focus"",""2"",""69971""
","""event"",""trial"",""time""
""blur"",""2"",""62508""
","""event"",""trial"",""time""
""focus"",""0"",""0""
""focus"",""2"",""69971""
","""event"",""trial"",""time""
""fullscreenenter"",""0"",""36611""
","
","1289","run_exp/static/images/Set 6_rs/019a.jpg","86","","","","","","learn","SL",""
"","show_choice","11","82722","0.0-11.0","""event"",""trial"",""time""
""focus"",""0"",""0""
""fullscreenenter"",""0"",""36611""
""blur"",""2"",""62508""
""focus"",""2"",""69971""
","""event"",""trial"",""time""
""blur"",""2"",""62508""
","""event"",""trial"",""time""
""focus"",""0"",""0""
""focus"",""2"",""69971""
","""event"",""trial"",""time""
""fullscreenenter"",""0"",""36611""
","
","null","run_exp/static/images/Set 6_rs/019a.jpg","null","","","","","","learn","SL",""
"","html-keyboard-response","12","83227","0.0-12.0","""event"",""trial"",""time""
""focus"",""0"",""0""
""fullscreenenter"",""0"",""36611""
""blur"",""2"",""62508""
""focus"",""2"",""69971""
","""event"",""trial"",""time""
""blur"",""2"",""62508""
","""event"",""trial"",""time""
""focus"",""0"",""0""
""focus"",""2"",""69971""
","""event"",""trial"",""time""
""fullscreenenter"",""0"",""36611""
","
","null","<p></p>","null","","","","","","","",""
"","image","13","84324","0.0-13.0","""event"",""trial"",""time""
""focus"",""0"",""0""
""fullscreenenter"",""0"",""36611""
""blur"",""2"",""62508""
""focus"",""2"",""69971""
","""event"",""trial"",""time""
""blur"",""2"",""62508""
","""event"",""trial"",""time""
""focus"",""0"",""0""
""focus"",""2"",""69971""
","""event"",""trial"",""time""
""fullscreenenter"",""0"",""36611""
","
","1096","run_exp/static/images/Set 6_rs/186a.jpg","78","","","","","","learn","SR",""
"","show_choice","14","85234","0.0-14.0","""event"",""trial"",""time""
""focus"",""0"",""0""
""fullscreenenter"",""0"",""36611""
""blur"",""2"",""62508""
""focus"",""2"",""69971""
","""event"",""trial"",""time""
""blur"",""2"",""62508""
","""event"",""trial"",""time""
""focus"",""0"",""0""
""focus"",""2"",""69971""
","""event"",""trial"",""time""
""fullscreenenter"",""0"",""36611""
","
","null","run_exp/static/images/Set 6_rs/186a.jpg","null","","","","","","learn","SR",""
"","html-keyboard-response","15","85753","0.0-15.0","""event"",""trial"",""time""
""focus"",""0"",""0""
""fullscreenenter"",""0"",""36611""
""blur"",""2"",""62508""
""focus"",""2"",""69971""
","""event"",""trial"",""time""
""blur"",""2"",""62508""
","""event"",""trial"",""time""
""focus"",""0"",""0""
""focus"",""2"",""69971""
","""event"",""trial"",""time""
""fullscreenenter"",""0"",""36611""
","
","null","<p></p>","null","","","","","","","",""
"","image","16","87370","0.0-16.0","""event"",""trial"",""time""
""focus"",""0"",""0""
""fullscreenenter"",""0"",""36611""
""blur"",""2"",""62508""
""focus"",""2"",""69971""
","""event"",""trial"",""time""
""blur"",""2"",""62508""
","""event"",""trial"",""time""
""focus"",""0"",""0""
""focus"",""2"",""69971""
","""event"",""trial"",""time""
""fullscreenenter"",""0"",""36611""
","
","1614","run_exp/static/images/Set 6_rs/108a.jpg","78","","","","","","learn","SR",""
"","show_choice","17","87767","0.0-17.0","""event"",""trial"",""time""
""focus"",""0"",""0""
""fullscreenenter"",""0"",""36611""
""blur"",""2"",""62508""
""focus"",""2"",""69971""
","""event"",""trial"",""time""
""blur"",""2"",""62508""
","""event"",""trial"",""time""
""focus"",""0"",""0""
""focus"",""2"",""69971""
","""event"",""trial"",""time""
""fullscreenenter"",""0"",""36611""
","
","null","run_exp/static/images/Set 6_rs/108a.jpg","null","","","","","","learn","SR",""
"","html-keyboard-response","18","88276","0.0-18.0","""event"",""trial"",""time""
""focus"",""0"",""0""
""fullscreenenter"",""0"",""36611""
""blur"",""2"",""62508""
""focus"",""2"",""69971""
","""event"",""trial"",""time""
""blur"",""2"",""62508""
","""event"",""trial"",""time""
""focus"",""0"",""0""
""focus"",""2"",""69971""
","""event"",""trial"",""time""
""fullscreenenter"",""0"",""36611""
","
","null","<p></p>","null","","","","","","","",""
"","image","19","89500","0.0-19.0","""event"",""trial"",""time""
""focus"",""0"",""0""
""fullscreenenter"",""0"",""36611""
""blur"",""2"",""62508""
""focus"",""2"",""69971""
","""event"",""trial"",""time""
""blur"",""2"",""62508""
","""event"",""trial"",""time""
""focus"",""0"",""0""
""focus"",""2"",""69971""
","""event"",""trial"",""time""
""fullscreenenter"",""0"",""36611""
","
","1223","run_exp/static/images/Set 6_rs/045a.jpg","86","","","","","","learn","SR",""
"","show_choice","20","90282","0.0-20.0","""event"",""trial"",""time""
""focus"",""0"",""0""
""fullscreenenter"",""0"",""36611""
""blur"",""2"",""62508""
""focus"",""2"",""69971""
","""event"",""trial"",""time""
""blur"",""2"",""62508""
","""event"",""trial"",""time""
""focus"",""0"",""0""
""focus"",""2"",""69971""
","""event"",""trial"",""time""
""fullscreenenter"",""0"",""36611""
","
","null","run_exp/static/images/Set 6_rs/045a.jpg","null","","","","","","learn","SR",""
"","html-keyboard-response","21","90786","0.0-21.0","""event"",""trial"",""time""
""focus"",""0"",""0""
""fullscreenenter"",""0"",""36611""
""blur"",""2"",""62508""
""focus"",""2"",""69971""
","""event"",""trial"",""time""
""blur"",""2"",""62508""
","""event"",""trial"",""time""
""focus"",""0"",""0""
""focus"",""2"",""69971""
","""event"",""trial"",""time""
""fullscreenenter"",""0"",""36611""
","
","null","<p></p>","null","","","","","","","",""
"","image","22","91966","0.0-22.0","""event"",""trial"",""time""
""focus"",""0"",""0""
""fullscreenenter"",""0"",""36611""
""blur"",""2"",""62508""
""focus"",""2"",""69971""
","""event"",""trial"",""time""
""blur"",""2"",""62508""
","""event"",""trial"",""time""
""focus"",""0"",""0""
""focus"",""2"",""69971""
","""event"",""trial"",""time""
""fullscreenenter"",""0"",""36611""
","
","1177","run_exp/static/images/Set 6_rs/123a.jpg","86","","","","","","learn","SL",""
"","show_choice","23","92791","0.0-23.0","""event"",""trial"",""time""
""focus"",""0"",""0""
""fullscreenenter"",""0"",""36611""
""blur"",""2"",""62508""
""focus"",""2"",""69971""
","""event"",""trial"",""time""
""blur"",""2"",""62508""
","""event"",""trial"",""time""
""focus"",""0"",""0""
""focus"",""2"",""69971""
","""event"",""trial"",""time""
""fullscreenenter"",""0"",""36611""
","
","null","run_exp/static/images/Set 6_rs/123a.jpg","null","","","","","","learn","SL",""
"","html-keyboard-response","24","93298","0.0-24.0","""event"",""trial"",""time""
""focus"",""0"",""0""
""fullscreenenter"",""0"",""36611""
""blur"",""2"",""62508""
""focus"",""2"",""69971""
","""event"",""trial"",""time""
""blur"",""2"",""62508""
","""event"",""trial"",""time""
""focus"",""0"",""0""
""focus"",""2"",""69971""
","""event"",""trial"",""time""
""fullscreenenter"",""0"",""36611""
","
","null","<p></p>","null","","","","","","","",""
"","image","25","94399","0.0-25.0","""event"",""trial"",""time""
""focus"",""0"",""0""
""fullscreenenter"",""0"",""36611""
""blur"",""2"",""62508""
""focus"",""2"",""69971""
","""event"",""trial"",""time""
""blur"",""2"",""62508""
","""event"",""trial"",""time""
""focus"",""0"",""0""
""focus"",""2"",""69971""
","""event"",""trial"",""time""
""fullscreenenter"",""0"",""36611""
","
","1098","run_exp/static/images/Set 6_rs/132a.jpg","86","","","","","","learn","SR",""
"","show_choice","26","95307","0.0-26.0","""event"",""trial"",""time""
""focus"",""0"",""0""
""fullscreenenter"",""0"",""36611""
""blur"",""2"",""62508""
""focus"",""2"",""69971""
","""event"",""trial"",""time""
""blur"",""2"",""62508""
","""event"",""trial"",""time""
""focus"",""0"",""0""
""focus"",""2"",""69971""
","""event"",""trial"",""time""
""fullscreenenter"",""0"",""36611""
","
","null","run_exp/static/images/Set 6_rs/132a.jpg","null","","","","","","learn","SR",""
"","html-keyboard-response","27","95812","0.0-27.0","""event"",""trial"",""time""
""focus"",""0"",""0""
""fullscreenenter"",""0"",""36611""
""blur"",""2"",""62508""
""focus"",""2"",""69971""
","""event"",""trial"",""time""
""blur"",""2"",""62508""
","""event"",""trial"",""time""
""focus"",""0"",""0""
""focus"",""2"",""69971""
","""event"",""trial"",""time""
""fullscreenenter"",""0"",""36611""
","
","null","<p></p>","null","","","","","","","",""
"","image","28","96841","0.0-28.0","""event"",""trial"",""time""
""focus"",""0"",""0""
""fullscreenenter"",""0"",""36611""
""blur"",""2"",""62508""
""focus"",""2"",""69971""
","""event"",""trial"",""time""
""blur"",""2"",""62508""
","""event"",""trial"",""time""
""focus"",""0"",""0""
""focus"",""2"",""69971""
","""event"",""trial"",""time""
""fullscreenenter"",""0"",""36611""
","
","1027","run_exp/static/images/Set 6_rs/010a.jpg","86","","","","","","learn","SR",""
"","show_choice","29","97830","0.0-29.0","""event"",""trial"",""time""
""focus"",""0"",""0""
""fullscreenenter"",""0"",""36611""
""blur"",""2"",""62508""
""focus"",""2"",""69971""
","""event"",""trial"",""time""
""blur"",""2"",""62508""
","""event"",""trial"",""time""
""focus"",""0"",""0""
""focus"",""2"",""69971""
","""event"",""trial"",""time""
""fullscreenenter"",""0"",""36611""
","
","null","run_exp/static/images/Set 6_rs/010a.jpg","null","","","","","","learn","SR",""
"","html-keyboard-response","30","98341","0.0-30.0","""event"",""trial"",""time""
""focus"",""0"",""0""
""fullscreenenter"",""0"",""36611""
""blur"",""2"",""62508""
""focus"",""2"",""69971""
","""event"",""trial"",""time""
""blur"",""2"",""62508""
","""event"",""trial"",""time""
""focus"",""0"",""0""
""focus"",""2"",""69971""
","""event"",""trial"",""time""
""fullscreenenter"",""0"",""36611""
","
","null","<p></p>","null","","","","","","","",""
"","image","31","99449","0.0-31.0","""event"",""trial"",""time""
""focus"",""0"",""0""
""fullscreenenter"",""0"",""36611""
""blur"",""2"",""62508""
""focus"",""2"",""69971""
","""event"",""trial"",""time""
""blur"",""2"",""62508""
","""event"",""trial"",""time""
""focus"",""0"",""0""
""focus"",""2"",""69971""
","""event"",""trial"",""time""
""fullscreenenter"",""0"",""36611""
","
","1106","run_exp/static/images/Set 6_rs/024a.jpg","86","","","","","","learn","SR",""
"","show_choice","32","100347","0.0-32.0","""event"",""trial"",""time""
""focus"",""0"",""0""
""fullscreenenter"",""0"",""36611""
""blur"",""2"",""62508""
""focus"",""2"",""69971""
","""event"",""trial"",""time""
""blur"",""2"",""62508""
","""event"",""trial"",""time""
""focus"",""0"",""0""
""focus"",""2"",""69971""
","""event"",""trial"",""time""
""fullscreenenter"",""0"",""36611""
","
","null","run_exp/static/images/Set 6_rs/024a.jpg","null","","","","","","learn","SR",""
"","html-keyboard-response","33","100860","0.0-33.0","""event"",""trial"",""time""
""focus"",""0"",""0""
""fullscreenenter"",""0"",""36611""
""blur"",""2"",""62508""
""focus"",""2"",""69971""
","""event"",""trial"",""time""
""blur"",""2"",""62508""
","""event"",""trial"",""time""
""focus"",""0"",""0""
""focus"",""2"",""69971""
","""event"",""trial"",""time""
""fullscreenenter"",""0"",""36611""
","
","null","<p></p>","null","","","","","","","",""
"","image","34","102595","0.0-34.0","""event"",""trial"",""time""
""focus"",""0"",""0""
""fullscreenenter"",""0"",""36611""
""blur"",""2"",""62508""
""focus"",""2"",""69971""
","""event"",""trial"",""time""
""blur"",""2"",""62508""
","""event"",""trial"",""time""
""focus"",""0"",""0""
""focus"",""2"",""69971""
","""event"",""trial"",""time""
""fullscreenenter"",""0"",""36611""
","
","1732","run_exp/static/images/Set 6_rs/076a.jpg","78","","","","","","learn","SR",""
"","show_choice","35","102864","0.0-35.0","""event"",""trial"",""time""
""focus"",""0"",""0""
""fullscreenenter"",""0"",""36611""
""blur"",""2"",""62508""
""focus"",""2"",""69971""
","""event"",""trial"",""time""
""blur"",""2"",""62508""
","""event"",""trial"",""time""
""focus"",""0"",""0""
""focus"",""2"",""69971""
","""event"",""trial"",""time""
""fullscreenenter"",""0"",""36611""
","
","null","run_exp/static/images/Set 6_rs/076a.jpg","null","","","","","","learn","SR",""
"","html-keyboard-response","36","103377","0.0-36.0","""event"",""trial"",""time""
""focus"",""0"",""0""
""fullscreenenter"",""0"",""36611""
""blur"",""2"",""62508""
""focus"",""2"",""69971""
","""event"",""trial"",""time""
""blur"",""2"",""62508""
","""event"",""trial"",""time""
""focus"",""0"",""0""
""focus"",""2"",""69971""
","""event"",""trial"",""time""
""fullscreenenter"",""0"",""36611""
","
","null","<p></p>","null","","","","","","","",""
"","image","37","104442","0.0-37.0","""event"",""trial"",""time""
""focus"",""0"",""0""
""fullscreenenter"",""0"",""36611""
""blur"",""2"",""62508""
""focus"",""2"",""69971""
","""event"",""trial"",""time""
""blur"",""2"",""62508""
","""event"",""trial"",""time""
""focus"",""0"",""0""
""focus"",""2"",""69971""
","""event"",""trial"",""time""
""fullscreenenter"",""0"",""36611""
","
","1063","run_exp/static/images/Set 6_rs/172a.jpg","78","","","","","","learn","SR",""
"","show_choice","38","105385","0.0-38.0","""event"",""trial"",""time""
""focus"",""0"",""0""
""fullscreenenter"",""0"",""36611""
""blur"",""2"",""62508""
""focus"",""2"",""69971""
","""event"",""trial"",""time""
""blur"",""2"",""62508""
","""event"",""trial"",""time""
""focus"",""0"",""0""
""focus"",""2"",""69971""
","""event"",""trial"",""time""
""fullscreenenter"",""0"",""36611""
","
","null","run_exp/static/images/Set 6_rs/172a.jpg","null","","","","","","learn","SR",""
"","html-keyboard-response","39","105895","0.0-39.0","""event"",""trial"",""time""
""focus"",""0"",""0""
""fullscreenenter"",""0"",""36611""
""blur"",""2"",""62508""
""focus"",""2"",""69971""
","""event"",""trial"",""time""
""blur"",""2"",""62508""
","""event"",""trial"",""time""
""focus"",""0"",""0""
""focus"",""2"",""69971""
","""event"",""trial"",""time""
""fullscreenenter"",""0"",""36611""
","
","null","<p></p>","null","","","","","","","",""
"","image","40","107321","0.0-40.0","""event"",""trial"",""time""
""focus"",""0"",""0""
""fullscreenenter"",""0"",""36611""
""blur"",""2"",""62508""
""focus"",""2"",""69971""
","""event"",""trial"",""time""
""blur"",""2"",""62508""
","""event"",""trial"",""time""
""focus"",""0"",""0""
""focus"",""2"",""69971""
","""event"",""trial"",""time""
""fullscreenenter"",""0"",""36611""
","
","1424","run_exp/static/images/Set 6_rs/014a.jpg","78","","","","","","learn","SL",""
"","show_choice","41","107901","0.0-41.0","""event"",""trial"",""time""
""focus"",""0"",""0""
""fullscreenenter"",""0"",""36611""
""blur"",""2"",""62508""
""focus"",""2"",""69971""
","""event"",""trial"",""time""
""blur"",""2"",""62508""
","""event"",""trial"",""time""
""focus"",""0"",""0""
""focus"",""2"",""69971""
","""event"",""trial"",""time""
""fullscreenenter"",""0"",""36611""
","
","null","run_exp/static/images/Set 6_rs/014a.jpg","null","","","","","","learn","SL",""
"","html-keyboard-response","42","108411","0.0-42.0","""event"",""trial"",""time""
""focus"",""0"",""0""
""fullscreenenter"",""0"",""36611""
""blur"",""2"",""62508""
""focus"",""2"",""69971""
","""event"",""trial"",""time""
""blur"",""2"",""62508""
","""event"",""trial"",""time""
""focus"",""0"",""0""
""focus"",""2"",""69971""
","""event"",""trial"",""time""
""fullscreenenter"",""0"",""36611""
","
","null","<p></p>","null","","","","","","","",""
"","image","43","109572","0.0-43.0","""event"",""trial"",""time""
""focus"",""0"",""0""
""fullscreenenter"",""0"",""36611""
""blur"",""2"",""62508""
""focus"",""2"",""69971""
","""event"",""trial"",""time""
""blur"",""2"",""62508""
","""event"",""trial"",""time""
""focus"",""0"",""0""
""focus"",""2"",""69971""
","""event"",""trial"",""time""
""fullscreenenter"",""0"",""36611""
","
","1158","run_exp/static/images/Set 6_rs/126a.jpg","78","","","","","","learn","SR",""
"","show_choice","44","110421","0.0-44.0","""event"",""trial"",""time""
""focus"",""0"",""0""
""fullscreenenter"",""0"",""36611""
""blur"",""2"",""62508""
""focus"",""2"",""69971""
","""event"",""trial"",""time""
""blur"",""2"",""62508""
","""event"",""trial"",""time""
""focus"",""0"",""0""
""focus"",""2"",""69971""
","""event"",""trial"",""time""
""fullscreenenter"",""0"",""36611""
","
","null","run_exp/static/images/Set 6_rs/126a.jpg","null","","","","","","learn","SR",""
"","html-keyboard-response","45","110933","0.0-45.0","""event"",""trial"",""time""
""focus"",""0"",""0""
""fullscreenenter"",""0"",""36611""
""blur"",""2"",""62508""
""focus"",""2"",""69971""
","""event"",""trial"",""time""
""blur"",""2"",""62508""
","""event"",""trial"",""time""
""focus"",""0"",""0""
""focus"",""2"",""69971""
","""event"",""trial"",""time""
""fullscreenenter"",""0"",""36611""
","
","null","<p></p>","null","","","","","","","",""
"","image","46","112084","0.0-46.0","""event"",""trial"",""time""
""focus"",""0"",""0""
""fullscreenenter"",""0"",""36611""
""blur"",""2"",""62508""
""focus"",""2"",""69971""
","""event"",""trial"",""time""
""blur"",""2"",""62508""
","""event"",""trial"",""time""
""focus"",""0"",""0""
""focus"",""2"",""69971""
","""event"",""trial"",""time""
""fullscreenenter"",""0"",""36611""
","
","1149","run_exp/static/images/Set 6_rs/166a.jpg","86","","","","","","learn","SR",""
"","show_choice","47","112944","0.0-47.0","""event"",""trial"",""time""
""focus"",""0"",""0""
""fullscreenenter"",""0"",""36611""
""blur"",""2"",""62508""
""focus"",""2"",""69971""
","""event"",""trial"",""time""
""blur"",""2"",""62508""
","""event"",""trial"",""time""
""focus"",""0"",""0""
""focus"",""2"",""69971""
","""event"",""trial"",""time""
""fullscreenenter"",""0"",""36611""
","
","null","run_exp/static/images/Set 6_rs/166a.jpg","null","","","","","","learn","SR",""
"","html-keyboard-response","48","113448","0.0-48.0","""event"",""trial"",""time""
""focus"",""0"",""0""
""fullscreenenter"",""0"",""36611""
""blur"",""2"",""62508""
""focus"",""2"",""69971""
","""event"",""trial"",""time""
""blur"",""2"",""62508""
","""event"",""trial"",""time""
""focus"",""0"",""0""
""focus"",""2"",""69971""
","""event"",""trial"",""time""
""fullscreenenter"",""0"",""36611""
","
","null","<p></p>","null","","","","","","","",""
"","image","49","114823","0.0-49.0","""event"",""trial"",""time""
""focus"",""0"",""0""
""fullscreenenter"",""0"",""36611""
""blur"",""2"",""62508""
""focus"",""2"",""69971""
","""event"",""trial"",""time""
""blur"",""2"",""62508""
","""event"",""trial"",""time""
""focus"",""0"",""0""
""focus"",""2"",""69971""
","""event"",""trial"",""time""
""fullscreenenter"",""0"",""36611""
","
","1371","run_exp/static/images/Set 6_rs/177a.jpg","78","","","","","","learn","SR",""
"","show_choice","50","115457","0.0-50.0","""event"",""trial"",""time""
""focus"",""0"",""0""
""fullscreenenter"",""0"",""36611""
""blur"",""2"",""62508""
""focus"",""2"",""69971""
","""event"",""trial"",""time""
""blur"",""2"",""62508""
","""event"",""trial"",""time""
""focus"",""0"",""0""
""focus"",""2"",""69971""
","""event"",""trial"",""time""
""fullscreenenter"",""0"",""36611""
","
","null","run_exp/static/images/Set 6_rs/177a.jpg","null","","","","","","learn","SR",""
"","html-keyboard-response","51","115962","0.0-51.0","""event"",""trial"",""time""
""focus"",""0"",""0""
""fullscreenenter"",""0"",""36611""
""blur"",""2"",""62508""
""focus"",""2"",""69971""
","""event"",""trial"",""time""
""blur"",""2"",""62508""
","""event"",""trial"",""time""
""focus"",""0"",""0""
""focus"",""2"",""69971""
","""event"",""trial"",""time""
""fullscreenenter"",""0"",""36611""
","
","null","<p></p>","null","","","","","","","",""
"","image","52","117257","0.0-52.0","""event"",""trial"",""time""
""focus"",""0"",""0""
""fullscreenenter"",""0"",""36611""
""blur"",""2"",""62508""
""focus"",""2"",""69971""
","""event"",""trial"",""time""
""blur"",""2"",""62508""
","""event"",""trial"",""time""
""focus"",""0"",""0""
""focus"",""2"",""69971""
","""event"",""trial"",""time""
""fullscreenenter"",""0"",""36611""
","
","1293","run_exp/static/images/Set 6_rs/036a.jpg","86","","","","","","learn","SL",""
"","show_choice","53","117969","0.0-53.0","""event"",""trial"",""time""
""focus"",""0"",""0""
""fullscreenenter"",""0"",""36611""
""blur"",""2"",""62508""
""focus"",""2"",""69971""
","""event"",""trial"",""time""
""blur"",""2"",""62508""
","""event"",""trial"",""time""
""focus"",""0"",""0""
""focus"",""2"",""69971""
","""event"",""trial"",""time""
""fullscreenenter"",""0"",""36611""
","
","null","run_exp/static/images/Set 6_rs/036a.jpg","null","","","","","","learn","SL",""
"","html-keyboard-response","54","118476","0.0-54.0","""event"",""trial"",""time""
""focus"",""0"",""0""
""fullscreenenter"",""0"",""36611""
""blur"",""2"",""62508""
""focus"",""2"",""69971""
","""event"",""trial"",""time""
""blur"",""2"",""62508""
","""event"",""trial"",""time""
""focus"",""0"",""0""
""focus"",""2"",""69971""
","""event"",""trial"",""time""
""fullscreenenter"",""0"",""36611""
","
","null","<p></p>","null","","","","","","","",""
"","image","55","119349","0.0-55.0","""event"",""trial"",""time""
""focus"",""0"",""0""
""fullscreenenter"",""0"",""36611""
""blur"",""2"",""62508""
""focus"",""2"",""69971""
","""event"",""trial"",""time""
""blur"",""2"",""62508""
","""event"",""trial"",""time""
""focus"",""0"",""0""
""focus"",""2"",""69971""
","""event"",""trial"",""time""
""fullscreenenter"",""0"",""36611""
","
","869","run_exp/static/images/Set 6_rs/074a.jpg","86","","","","","","learn","SL",""
"","show_choice","56","120488","0.0-56.0","""event"",""trial"",""time""
""focus"",""0"",""0""
""fullscreenenter"",""0"",""36611""
""blur"",""2"",""62508""
""focus"",""2"",""69971""
","""event"",""trial"",""time""
""blur"",""2"",""62508""
","""event"",""trial"",""time""
""focus"",""0"",""0""
""focus"",""2"",""69971""
","""event"",""trial"",""time""
""fullscreenenter"",""0"",""36611""
","
","null","run_exp/static/images/Set 6_rs/074a.jpg","null","","","","","","learn","SL",""
"","html-keyboard-response","57","120991","0.0-57.0","""event"",""trial"",""time""
""focus"",""0"",""0""
""fullscreenenter"",""0"",""36611""
""blur"",""2"",""62508""
""focus"",""2"",""69971""
","""event"",""trial"",""time""
""blur"",""2"",""62508""
","""event"",""trial"",""time""
""focus"",""0"",""0""
""focus"",""2"",""69971""
","""event"",""trial"",""time""
""fullscreenenter"",""0"",""36611""
","
","null","<p></p>","null","","","","","","","",""
"","image","58","122167","0.0-58.0","""event"",""trial"",""time""
""focus"",""0"",""0""
""fullscreenenter"",""0"",""36611""
""blur"",""2"",""62508""
""focus"",""2"",""69971""
","""event"",""trial"",""time""
""blur"",""2"",""62508""
","""event"",""trial"",""time""
""focus"",""0"",""0""
""focus"",""2"",""69971""
","""event"",""trial"",""time""
""fullscreenenter"",""0"",""36611""
","
","1175","run_exp/static/images/Set 6_rs/191a.jpg","78","","","","","","learn","SL",""
"","show_choice","59","122997","0.0-59.0","""event"",""trial"",""time""
""focus"",""0"",""0""
""fullscreenenter"",""0"",""36611""
""blur"",""2"",""62508""
""focus"",""2"",""69971""
","""event"",""trial"",""time""
""blur"",""2"",""62508""
","""event"",""trial"",""time""
""focus"",""0"",""0""
""focus"",""2"",""69971""
","""event"",""trial"",""time""
""fullscreenenter"",""0"",""36611""
","
","null","run_exp/static/images/Set 6_rs/191a.jpg","null","","","","","","learn","SL",""
"","html-keyboard-response","60","123504","0.0-60.0","""event"",""trial"",""time""
""focus"",""0"",""0""
""fullscreenenter"",""0"",""36611""
""blur"",""2"",""62508""
""focus"",""2"",""69971""
","""event"",""trial"",""time""
""blur"",""2"",""62508""
","""event"",""trial"",""time""
""focus"",""0"",""0""
""focus"",""2"",""69971""
","""event"",""trial"",""time""
""fullscreenenter"",""0"",""36611""
","
","null","<p></p>","null","","","","","","","",""
"","image","61","124502","0.0-61.0","""event"",""trial"",""time""
""focus"",""0"",""0""
""fullscreenenter"",""0"",""36611""
""blur"",""2"",""62508""
""focus"",""2"",""69971""
","""event"",""trial"",""time""
""blur"",""2"",""62508""
","""event"",""trial"",""time""
""focus"",""0"",""0""
""focus"",""2"",""69971""
","""event"",""trial"",""time""
""fullscreenenter"",""0"",""36611""
","
","995","run_exp/static/images/Set 6_rs/050a.jpg","86","","","","","","learn","SL",""
"","show_choice","62","125523","0.0-62.0","""event"",""trial"",""time""
""focus"",""0"",""0""
""fullscreenenter"",""0"",""36611""
""blur"",""2"",""62508""
""focus"",""2"",""69971""
","""event"",""trial"",""time""
""blur"",""2"",""62508""
","""event"",""trial"",""time""
""focus"",""0"",""0""
""focus"",""2"",""69971""
","""event"",""trial"",""time""
""fullscreenenter"",""0"",""36611""
","
","null","run_exp/static/images/Set 6_rs/050a.jpg","null","","","","","","learn","SL",""
"","html-keyboard-response","63","126037","0.0-63.0","""event"",""trial"",""time""
""focus"",""0"",""0""
""fullscreenenter"",""0"",""36611""
""blur"",""2"",""62508""
""focus"",""2"",""69971""
","""event"",""trial"",""time""
""blur"",""2"",""62508""
","""event"",""trial"",""time""
""focus"",""0"",""0""
""focus"",""2"",""69971""
","""event"",""trial"",""time""
""fullscreenenter"",""0"",""36611""
","
","null","<p></p>","null","","","","","","","",""
"","image","64","127478","0.0-64.0","""event"",""trial"",""time""
""focus"",""0"",""0""
""fullscreenenter"",""0"",""36611""
""blur"",""2"",""62508""
""focus"",""2"",""69971""
","""event"",""trial"",""time""
""blur"",""2"",""62508""
","""event"",""trial"",""time""
""focus"",""0"",""0""
""focus"",""2"",""69971""
","""event"",""trial"",""time""
""fullscreenenter"",""0"",""36611""
","
","1440","run_exp/static/images/Set 6_rs/150a.jpg","86","","","","","","learn","SR",""
"","show_choice","65","128043","0.0-65.0","""event"",""trial"",""time""
""focus"",""0"",""0""
""fullscreenenter"",""0"",""36611""
""blur"",""2"",""62508""
""focus"",""2"",""69971""
","""event"",""trial"",""time""
""blur"",""2"",""62508""
","""event"",""trial"",""time""
""focus"",""0"",""0""
""focus"",""2"",""69971""
","""event"",""trial"",""time""
""fullscreenenter"",""0"",""36611""
","
","null","run_exp/static/images/Set 6_rs/150a.jpg","null","","","","","","learn","SR",""
"","html-keyboard-response","66","128556","0.0-66.0","""event"",""trial"",""time""
""focus"",""0"",""0""
""fullscreenenter"",""0"",""36611""
""blur"",""2"",""62508""
""focus"",""2"",""69971""
","""event"",""trial"",""time""
""blur"",""2"",""62508""
","""event"",""trial"",""time""
""focus"",""0"",""0""
""focus"",""2"",""69971""
","""event"",""trial"",""time""
""fullscreenenter"",""0"",""36611""
","
","null","<p></p>","null","","","","","","","",""
"","image","67","129732","0.0-67.0","""event"",""trial"",""time""
""focus"",""0"",""0""
""fullscreenenter"",""0"",""36611""
""blur"",""2"",""62508""
""focus"",""2"",""69971""
","""event"",""trial"",""time""
""blur"",""2"",""62508""
","""event"",""trial"",""time""
""focus"",""0"",""0""
""focus"",""2"",""69971""
","""event"",""trial"",""time""
""fullscreenenter"",""0"",""36611""
","
","1174","run_exp/static/images/Set 6_rs/085a.jpg","78","","","","","","learn","SL",""
"","show_choice","68","130566","0.0-68.0","""event"",""trial"",""time""
""focus"",""0"",""0""
""fullscreenenter"",""0"",""36611""
""blur"",""2"",""62508""
""focus"",""2"",""69971""
","""event"",""trial"",""time""
""blur"",""2"",""62508""
","""event"",""trial"",""time""
""focus"",""0"",""0""
""focus"",""2"",""69971""
","""event"",""trial"",""time""
""fullscreenenter"",""0"",""36611""
","
","null","run_exp/static/images/Set 6_rs/085a.jpg","null","","","","","","learn","SL",""
"","html-keyboard-response","69","131078","0.0-69.0","""event"",""trial"",""time""
""focus"",""0"",""0""
""fullscreenenter"",""0"",""36611""
""blur"",""2"",""62508""
""focus"",""2"",""69971""
","""event"",""trial"",""time""
""blur"",""2"",""62508""
","""event"",""trial"",""time""
""focus"",""0"",""0""
""focus"",""2"",""69971""
","""event"",""trial"",""time""
""fullscreenenter"",""0"",""36611""
","
","null","<p></p>","null","","","","","","","",""
"","image","70","132069","0.0-70.0","""event"",""trial"",""time""
""focus"",""0"",""0""
""fullscreenenter"",""0"",""36611""
""blur"",""2"",""62508""
""focus"",""2"",""69971""
","""event"",""trial"",""time""
""blur"",""2"",""62508""
","""event"",""trial"",""time""
""focus"",""0"",""0""
""focus"",""2"",""69971""
","""event"",""trial"",""time""
""fullscreenenter"",""0"",""36611""
","
","990","run_exp/static/images/Set 6_rs/181a.jpg","78","","","","","","learn","SL",""
"","show_choice","71","133093","0.0-71.0","""event"",""trial"",""time""
""focus"",""0"",""0""
""fullscreenenter"",""0"",""36611""
""blur"",""2"",""62508""
""focus"",""2"",""69971""
","""event"",""trial"",""time""
""blur"",""2"",""62508""
","""event"",""trial"",""time""
""focus"",""0"",""0""
""focus"",""2"",""69971""
","""event"",""trial"",""time""
""fullscreenenter"",""0"",""36611""
","
","null","run_exp/static/images/Set 6_rs/181a.jpg","null","","","","","","learn","SL",""
"","html-keyboard-response","72","133609","0.0-72.0","""event"",""trial"",""time""
""focus"",""0"",""0""
""fullscreenenter"",""0"",""36611""
""blur"",""2"",""62508""
""focus"",""2"",""69971""
","""event"",""trial"",""time""
""blur"",""2"",""62508""
","""event"",""trial"",""time""
""focus"",""0"",""0""
""focus"",""2"",""69971""
","""event"",""trial"",""time""
""fullscreenenter"",""0"",""36611""
","
","null","<p></p>","null","","","","","","","",""
"","image","73","134527","0.0-73.0","""event"",""trial"",""time""
""focus"",""0"",""0""
""fullscreenenter"",""0"",""36611""
""blur"",""2"",""62508""
""focus"",""2"",""69971""
","""event"",""trial"",""time""
""blur"",""2"",""62508""
","""event"",""trial"",""time""
""focus"",""0"",""0""
""focus"",""2"",""69971""
","""event"",""trial"",""time""
""fullscreenenter"",""0"",""36611""
","
","915","run_exp/static/images/Set 6_rs/070a.jpg","86","","","","","","learn","SR",""
"","show_choice","74","135627","0.0-74.0","""event"",""trial"",""time""
""focus"",""0"",""0""
""fullscreenenter"",""0"",""36611""
""blur"",""2"",""62508""
""focus"",""2"",""69971""
","""event"",""trial"",""time""
""blur"",""2"",""62508""
","""event"",""trial"",""time""
""focus"",""0"",""0""
""focus"",""2"",""69971""
","""event"",""trial"",""time""
""fullscreenenter"",""0"",""36611""
","
","null","run_exp/static/images/Set 6_rs/070a.jpg","null","","","","","","learn","SR",""
"","html-keyboard-response","75","136142","0.0-75.0","""event"",""trial"",""time""
""focus"",""0"",""0""
""fullscreenenter"",""0"",""36611""
""blur"",""2"",""62508""
""focus"",""2"",""69971""
","""event"",""trial"",""time""
""blur"",""2"",""62508""
","""event"",""trial"",""time""
""focus"",""0"",""0""
""focus"",""2"",""69971""
","""event"",""trial"",""time""
""fullscreenenter"",""0"",""36611""
","
","null","<p></p>","null","","","","","","","",""
"","image","76","137402","0.0-76.0","""event"",""trial"",""time""
""focus"",""0"",""0""
""fullscreenenter"",""0"",""36611""
""blur"",""2"",""62508""
""focus"",""2"",""69971""
","""event"",""trial"",""time""
""blur"",""2"",""62508""
","""event"",""trial"",""time""
""focus"",""0"",""0""
""focus"",""2"",""69971""
","""event"",""trial"",""time""
""fullscreenenter"",""0"",""36611""
","
","1256","run_exp/static/images/Set 6_rs/187a.jpg","86","","","","","","learn","SR",""
"","show_choice","77","138150","0.0-77.0","""event"",""trial"",""time""
""focus"",""0"",""0""
""fullscreenenter"",""0"",""36611""
""blur"",""2"",""62508""
""focus"",""2"",""69971""
","""event"",""trial"",""time""
""blur"",""2"",""62508""
","""event"",""trial"",""time""
""focus"",""0"",""0""
""focus"",""2"",""69971""
","""event"",""trial"",""time""
""fullscreenenter"",""0"",""36611""
","
","null","run_exp/static/images/Set 6_rs/187a.jpg","null","","","","","","learn","SR",""
"","html-keyboard-response","78","138667","0.0-78.0","""event"",""trial"",""time""
""focus"",""0"",""0""
""fullscreenenter"",""0"",""36611""
""blur"",""2"",""62508""
""focus"",""2"",""69971""
","""event"",""trial"",""time""
""blur"",""2"",""62508""
","""event"",""trial"",""time""
""focus"",""0"",""0""
""focus"",""2"",""69971""
","""event"",""trial"",""time""
""fullscreenenter"",""0"",""36611""
","
","null","<p></p>","null","","","","","","","",""
"","image","79","139585","0.0-79.0","""event"",""trial"",""time""
""focus"",""0"",""0""
""fullscreenenter"",""0"",""36611""
""blur"",""2"",""62508""
""focus"",""2"",""69971""
","""event"",""trial"",""time""
""blur"",""2"",""62508""
","""event"",""trial"",""time""
""focus"",""0"",""0""
""focus"",""2"",""69971""
","""event"",""trial"",""time""
""fullscreenenter"",""0"",""36611""
","
","915","run_exp/static/images/Set 6_rs/122a.jpg","86","","","","","","learn","SR",""
"","show_choice","80","140673","0.0-80.0","""event"",""trial"",""time""
""focus"",""0"",""0""
""fullscreenenter"",""0"",""36611""
""blur"",""2"",""62508""
""focus"",""2"",""69971""
","""event"",""trial"",""time""
""blur"",""2"",""62508""
","""event"",""trial"",""time""
""focus"",""0"",""0""
""focus"",""2"",""69971""
","""event"",""trial"",""time""
""fullscreenenter"",""0"",""36611""
","
","null","run_exp/static/images/Set 6_rs/122a.jpg","null","","","","","","learn","SR",""
"","html-keyboard-response","81","141179","0.0-81.0","""event"",""trial"",""time""
""focus"",""0"",""0""
""fullscreenenter"",""0"",""36611""
""blur"",""2"",""62508""
""focus"",""2"",""69971""
","""event"",""trial"",""time""
""blur"",""2"",""62508""
","""event"",""trial"",""time""
""focus"",""0"",""0""
""focus"",""2"",""69971""
","""event"",""trial"",""time""
""fullscreenenter"",""0"",""36611""
","
","null","<p></p>","null","","","","","","","",""
"","image","82","142067","0.0-82.0","""event"",""trial"",""time""
""focus"",""0"",""0""
""fullscreenenter"",""0"",""36611""
""blur"",""2"",""62508""
""focus"",""2"",""69971""
","""event"",""trial"",""time""
""blur"",""2"",""62508""
","""event"",""trial"",""time""
""focus"",""0"",""0""
""focus"",""2"",""69971""
","""event"",""trial"",""time""
""fullscreenenter"",""0"",""36611""
","
","886","run_exp/static/images/Set 6_rs/154a.jpg","86","","","","","","learn","SR",""
"","show_choice","83","143195","0.0-83.0","""event"",""trial"",""time""
""focus"",""0"",""0""
""fullscreenenter"",""0"",""36611""
""blur"",""2"",""62508""
""focus"",""2"",""69971""
","""event"",""trial"",""time""
""blur"",""2"",""62508""
","""event"",""trial"",""time""
""focus"",""0"",""0""
""focus"",""2"",""69971""
","""event"",""trial"",""time""
""fullscreenenter"",""0"",""36611""
","
","null","run_exp/static/images/Set 6_rs/154a.jpg","null","","","","","","learn","SR",""
"","html-keyboard-response","84","143710","0.0-84.0","""event"",""trial"",""time""
""focus"",""0"",""0""
""fullscreenenter"",""0"",""36611""
""blur"",""2"",""62508""
""focus"",""2"",""69971""
","""event"",""trial"",""time""
""blur"",""2"",""62508""
","""event"",""trial"",""time""
""focus"",""0"",""0""
""focus"",""2"",""69971""
","""event"",""trial"",""time""
""fullscreenenter"",""0"",""36611""
","
","null","<p></p>","null","","","","","","","",""
"","image","85","144495","0.0-85.0","""event"",""trial"",""time""
""focus"",""0"",""0""
""fullscreenenter"",""0"",""36611""
""blur"",""2"",""62508""
""focus"",""2"",""69971""
","""event"",""trial"",""time""
""blur"",""2"",""62508""
","""event"",""trial"",""time""
""focus"",""0"",""0""
""focus"",""2"",""69971""
","""event"",""trial"",""time""
""fullscreenenter"",""0"",""36611""
","
","783","run_exp/static/images/Set 6_rs/017a.jpg","86","","","","","","learn","SL",""
"","show_choice","86","145727","0.0-86.0","""event"",""trial"",""time""
""focus"",""0"",""0""
""fullscreenenter"",""0"",""36611""
""blur"",""2"",""62508""
""focus"",""2"",""69971""
","""event"",""trial"",""time""
""blur"",""2"",""62508""
","""event"",""trial"",""time""
""focus"",""0"",""0""
""focus"",""2"",""69971""
","""event"",""trial"",""time""
""fullscreenenter"",""0"",""36611""
","
","null","run_exp/static/images/Set 6_rs/017a.jpg","null","","","","","","learn","SL",""
"","html-keyboard-response","87","146235","0.0-87.0","""event"",""trial"",""time""
""focus"",""0"",""0""
""fullscreenenter"",""0"",""36611""
""blur"",""2"",""62508""
""focus"",""2"",""69971""
","""event"",""trial"",""time""
""blur"",""2"",""62508""
","""event"",""trial"",""time""
""focus"",""0"",""0""
""focus"",""2"",""69971""
","""event"",""trial"",""time""
""fullscreenenter"",""0"",""36611""
","
","null","<p></p>","null","","","","","","","",""
"","image","88","147381","0.0-88.0","""event"",""trial"",""time""
""focus"",""0"",""0""
""fullscreenenter"",""0"",""36611""
""blur"",""2"",""62508""
""focus"",""2"",""69971""
","""event"",""trial"",""time""
""blur"",""2"",""62508""
","""event"",""trial"",""time""
""focus"",""0"",""0""
""focus"",""2"",""69971""
","""event"",""trial"",""time""
""fullscreenenter"",""0"",""36611""
","
","1144","run_exp/static/images/Set 6_rs/111a.jpg","86","","","","","","learn","SL",""
"","show_choice","89","148244","0.0-89.0","""event"",""trial"",""time""
""focus"",""0"",""0""
""fullscreenenter"",""0"",""36611""
""blur"",""2"",""62508""
""focus"",""2"",""69971""
","""event"",""trial"",""time""
""blur"",""2"",""62508""
","""event"",""trial"",""time""
""focus"",""0"",""0""
""focus"",""2"",""69971""
","""event"",""trial"",""time""
""fullscreenenter"",""0"",""36611""
","
","null","run_exp/static/images/Set 6_rs/111a.jpg","null","","","","","","learn","SL",""
"","html-keyboard-response","90","148752","0.0-90.0","""event"",""trial"",""time""
""focus"",""0"",""0""
""fullscreenenter"",""0"",""36611""
""blur"",""2"",""62508""
""focus"",""2"",""69971""
","""event"",""trial"",""time""
""blur"",""2"",""62508""
","""event"",""trial"",""time""
""focus"",""0"",""0""
""focus"",""2"",""69971""
","""event"",""trial"",""time""
""fullscreenenter"",""0"",""36611""
","
","null","<p></p>","null","","","","","","","",""
"","image","91","149979","0.0-91.0","""event"",""trial"",""time""
""focus"",""0"",""0""
""fullscreenenter"",""0"",""36611""
""blur"",""2"",""62508""
""focus"",""2"",""69971""
","""event"",""trial"",""time""
""blur"",""2"",""62508""
","""event"",""trial"",""time""
""focus"",""0"",""0""
""focus"",""2"",""69971""
","""event"",""trial"",""time""
""fullscreenenter"",""0"",""36611""
","
","1224","run_exp/static/images/Set 6_rs/141a.jpg","86","","","","","","learn","SR",""
"","show_choice","92","150758","0.0-92.0","""event"",""trial"",""time""
""focus"",""0"",""0""
""fullscreenenter"",""0"",""36611""
""blur"",""2"",""62508""
""focus"",""2"",""69971""
","""event"",""trial"",""time""
""blur"",""2"",""62508""
","""event"",""trial"",""time""
""focus"",""0"",""0""
""focus"",""2"",""69971""
","""event"",""trial"",""time""
""fullscreenenter"",""0"",""36611""
","
","null","run_exp/static/images/Set 6_rs/141a.jpg","null","","","","","","learn","SR",""
"","html-keyboard-response","93","151271","0.0-93.0","""event"",""trial"",""time""
""focus"",""0"",""0""
""fullscreenenter"",""0"",""36611""
""blur"",""2"",""62508""
""focus"",""2"",""69971""
","""event"",""trial"",""time""
""blur"",""2"",""62508""
","""event"",""trial"",""time""
""focus"",""0"",""0""
""focus"",""2"",""69971""
","""event"",""trial"",""time""
""fullscreenenter"",""0"",""36611""
","
","null","<p></p>","null","","","","","","","",""
"","image","94","151656","0.0-94.0","""event"",""trial"",""time""
""focus"",""0"",""0""
""fullscreenenter"",""0"",""36611""
""blur"",""2"",""62508""
""focus"",""2"",""69971""
","""event"",""trial"",""time""
""blur"",""2"",""62508""
","""event"",""trial"",""time""
""focus"",""0"",""0""
""focus"",""2"",""69971""
","""event"",""trial"",""time""
""fullscreenenter"",""0"",""36611""
","
","382","run_exp/static/images/Set 6_rs/129a.jpg","78","","","","","","learn","SL",""
"","show_choice","95","153281","0.0-95.0","""event"",""trial"",""time""
""focus"",""0"",""0""
""fullscreenenter"",""0"",""36611""
""blur"",""2"",""62508""
""focus"",""2"",""69971""
","""event"",""trial"",""time""
""blur"",""2"",""62508""
","""event"",""trial"",""time""
""focus"",""0"",""0""
""focus"",""2"",""69971""
","""event"",""trial"",""time""
""fullscreenenter"",""0"",""36611""
","
","null","run_exp/static/images/Set 6_rs/129a.jpg","null","","","","","","learn","SL",""
"","html-keyboard-response","96","153797","0.0-96.0","""event"",""trial"",""time""
""focus"",""0"",""0""
""fullscreenenter"",""0"",""36611""
""blur"",""2"",""62508""
""focus"",""2"",""69971""
","""event"",""trial"",""time""
""blur"",""2"",""62508""
","""event"",""trial"",""time""
""focus"",""0"",""0""
""focus"",""2"",""69971""
","""event"",""trial"",""time""
""fullscreenenter"",""0"",""36611""
","
","null","<p></p>","null","","","","","","","",""
"","image","97","155802","0.0-97.0","""event"",""trial"",""time""
""focus"",""0"",""0""
""fullscreenenter"",""0"",""36611""
""blur"",""2"",""62508""
""focus"",""2"",""69971""
","""event"",""trial"",""time""
""blur"",""2"",""62508""
","""event"",""trial"",""time""
""focus"",""0"",""0""
""focus"",""2"",""69971""
","""event"",""trial"",""time""
""fullscreenenter"",""0"",""36611""
","
","null","run_exp/static/images/Set 6_rs/168a.jpg","null","","","","","","learn","SL",""
"","show_choice","98","157816","0.0-98.0","""event"",""trial"",""time""
""focus"",""0"",""0""
""fullscreenenter"",""0"",""36611""
""blur"",""2"",""62508""
""focus"",""2"",""69971""
","""event"",""trial"",""time""
""blur"",""2"",""62508""
","""event"",""trial"",""time""
""focus"",""0"",""0""
""focus"",""2"",""69971""
","""event"",""trial"",""time""
""fullscreenenter"",""0"",""36611""
","
","null","run_exp/static/images/blank.png","null","","","","","","learn","SL",""
"","html-keyboard-response","99","158330","0.0-99.0","""event"",""trial"",""time""
""focus"",""0"",""0""
""fullscreenenter"",""0"",""36611""
""blur"",""2"",""62508""
""focus"",""2"",""69971""
","""event"",""trial"",""time""
""blur"",""2"",""62508""
","""event"",""trial"",""time""
""focus"",""0"",""0""
""focus"",""2"",""69971""
","""event"",""trial"",""time""
""fullscreenenter"",""0"",""36611""
","
","null","<p></p>","null","","","","","","","",""
"","image","100","159500","0.0-100.0","""event"",""trial"",""time""
""focus"",""0"",""0""
""fullscreenenter"",""0"",""36611""
""blur"",""2"",""62508""
""focus"",""2"",""69971""
","""event"",""trial"",""time""
""blur"",""2"",""62508""
","""event"",""trial"",""time""
""focus"",""0"",""0""
""focus"",""2"",""69971""
","""event"",""trial"",""time""
""fullscreenenter"",""0"",""36611""
","
","1168","run_exp/static/images/Set 6_rs/134a.jpg","86","","","","","","learn","SR",""
"","show_choice","101","160343","0.0-101.0","""event"",""trial"",""time""
""focus"",""0"",""0""
""fullscreenenter"",""0"",""36611""
""blur"",""2"",""62508""
""focus"",""2"",""69971""
","""event"",""trial"",""time""
""blur"",""2"",""62508""
","""event"",""trial"",""time""
""focus"",""0"",""0""
""focus"",""2"",""69971""
","""event"",""trial"",""time""
""fullscreenenter"",""0"",""36611""
","
","null","run_exp/static/images/Set 6_rs/134a.jpg","null","","","","","","learn","SR",""
"","html-keyboard-response","102","160855","0.0-102.0","""event"",""trial"",""time""
""focus"",""0"",""0""
""fullscreenenter"",""0"",""36611""
""blur"",""2"",""62508""
""focus"",""2"",""69971""
","""event"",""trial"",""time""
""blur"",""2"",""62508""
","""event"",""trial"",""time""
""focus"",""0"",""0""
""focus"",""2"",""69971""
","""event"",""trial"",""time""
""fullscreenenter"",""0"",""36611""
","
","null","<p></p>","null","","","","","","","",""
"","image","103","162674","0.0-103.0","""event"",""trial"",""time""
""focus"",""0"",""0""
""fullscreenenter"",""0"",""36611""
""blur"",""2"",""62508""
""focus"",""2"",""69971""
","""event"",""trial"",""time""
""blur"",""2"",""62508""
","""event"",""trial"",""time""
""focus"",""0"",""0""
""focus"",""2"",""69971""
","""event"",""trial"",""time""
""fullscreenenter"",""0"",""36611""
","
","1818","run_exp/static/images/Set 6_rs/066a.jpg","86","","","","","","learn","SL",""
"","show_choice","104","162867","0.0-104.0","""event"",""trial"",""time""
""focus"",""0"",""0""
""fullscreenenter"",""0"",""36611""
""blur"",""2"",""62508""
""focus"",""2"",""69971""
","""event"",""trial"",""time""
""blur"",""2"",""62508""
","""event"",""trial"",""time""
""focus"",""0"",""0""
""focus"",""2"",""69971""
","""event"",""trial"",""time""
""fullscreenenter"",""0"",""36611""
","
","null","run_exp/static/images/Set 6_rs/066a.jpg","null","","","","","","learn","SL",""
"","html-keyboard-response","105","163381","0.0-105.0","""event"",""trial"",""time""
""focus"",""0"",""0""
""fullscreenenter"",""0"",""36611""
""blur"",""2"",""62508""
""focus"",""2"",""69971""
","""event"",""trial"",""time""
""blur"",""2"",""62508""
","""event"",""trial"",""time""
""focus"",""0"",""0""
""focus"",""2"",""69971""
","""event"",""trial"",""time""
""fullscreenenter"",""0"",""36611""
","
","null","<p></p>","null","","","","","","","",""
"","image","106","164554","0.0-106.0","""event"",""trial"",""time""
""focus"",""0"",""0""
""fullscreenenter"",""0"",""36611""
""blur"",""2"",""62508""
""focus"",""2"",""69971""
","""event"",""trial"",""time""
""blur"",""2"",""62508""
","""event"",""trial"",""time""
""focus"",""0"",""0""
""focus"",""2"",""69971""
","""event"",""trial"",""time""
""fullscreenenter"",""0"",""36611""
","
","1171","run_exp/static/images/Set 6_rs/089a.jpg","86","","","","","","learn","SL",""
"","show_choice","107","165395","0.0-107.0","""event"",""trial"",""time""
""focus"",""0"",""0""
""fullscreenenter"",""0"",""36611""
""blur"",""2"",""62508""
""focus"",""2"",""69971""
","""event"",""trial"",""time""
""blur"",""2"",""62508""
","""event"",""trial"",""time""
""focus"",""0"",""0""
""focus"",""2"",""69971""
","""event"",""trial"",""time""
""fullscreenenter"",""0"",""36611""
","
","null","run_exp/static/images/Set 6_rs/089a.jpg","null","","","","","","learn","SL",""
"","html-keyboard-response","108","165908","0.0-108.0","""event"",""trial"",""time""
""focus"",""0"",""0""
""fullscreenenter"",""0"",""36611""
""blur"",""2"",""62508""
""focus"",""2"",""69971""
","""event"",""trial"",""time""
""blur"",""2"",""62508""
","""event"",""trial"",""time""
""focus"",""0"",""0""
""focus"",""2"",""69971""
","""event"",""trial"",""time""
""fullscreenenter"",""0"",""36611""
","
","null","<p></p>","null","","","","","","","",""
"","image","109","167019","0.0-109.0","""event"",""trial"",""time""
""focus"",""0"",""0""
""fullscreenenter"",""0"",""36611""
""blur"",""2"",""62508""
""focus"",""2"",""69971""
","""event"",""trial"",""time""
""blur"",""2"",""62508""
","""event"",""trial"",""time""
""focus"",""0"",""0""
""focus"",""2"",""69971""
","""event"",""trial"",""time""
""fullscreenenter"",""0"",""36611""
","
","1109","run_exp/static/images/Set 6_rs/088a.jpg","86","","","","","","learn","SR",""
"","show_choice","110","167914","0.0-110.0","""event"",""trial"",""time""
""focus"",""0"",""0""
""fullscreenenter"",""0"",""36611""
""blur"",""2"",""62508""
""focus"",""2"",""69971""
","""event"",""trial"",""time""
""blur"",""2"",""62508""
","""event"",""trial"",""time""
""focus"",""0"",""0""
""focus"",""2"",""69971""
","""event"",""trial"",""time""
""fullscreenenter"",""0"",""36611""
","
","null","run_exp/static/images/Set 6_rs/088a.jpg","null","","","","","","learn","SR",""
"","html-keyboard-response","111","168423","0.0-111.0","""event"",""trial"",""time""
""focus"",""0"",""0""
""fullscreenenter"",""0"",""36611""
""blur"",""2"",""62508""
""focus"",""2"",""69971""
","""event"",""trial"",""time""
""blur"",""2"",""62508""
","""event"",""trial"",""time""
""focus"",""0"",""0""
""focus"",""2"",""69971""
","""event"",""trial"",""time""
""fullscreenenter"",""0"",""36611""
","
","null","<p></p>","null","","","","","","","",""
"","image","112","169492","0.0-112.0","""event"",""trial"",""time""
""focus"",""0"",""0""
""fullscreenenter"",""0"",""36611""
""blur"",""2"",""62508""
""focus"",""2"",""69971""
","""event"",""trial"",""time""
""blur"",""2"",""62508""
","""event"",""trial"",""time""
""focus"",""0"",""0""
""focus"",""2"",""69971""
","""event"",""trial"",""time""
""fullscreenenter"",""0"",""36611""
","
","1068","run_exp/static/images/Set 6_rs/095a.jpg","86","","","","","","learn","SL",""
"","show_choice","113","170427","0.0-113.0","""event"",""trial"",""time""
""focus"",""0"",""0""
""fullscreenenter"",""0"",""36611""
""blur"",""2"",""62508""
""focus"",""2"",""69971""
","""event"",""trial"",""time""
""blur"",""2"",""62508""
","""event"",""trial"",""time""
""focus"",""0"",""0""
""focus"",""2"",""69971""
","""event"",""trial"",""time""
""fullscreenenter"",""0"",""36611""
","
","null","run_exp/static/images/Set 6_rs/095a.jpg","null","","","","","","learn","SL",""
"","html-keyboard-response","114","170928","0.0-114.0","""event"",""trial"",""time""
""focus"",""0"",""0""
""fullscreenenter"",""0"",""36611""
""blur"",""2"",""62508""
""focus"",""2"",""69971""
","""event"",""trial"",""time""
""blur"",""2"",""62508""
","""event"",""trial"",""time""
""focus"",""0"",""0""
""focus"",""2"",""69971""
","""event"",""trial"",""time""
""fullscreenenter"",""0"",""36611""
","
","null","<p></p>","null","","","","","","","",""
"","image","115","172937","0.0-115.0","""event"",""trial"",""time""
""focus"",""0"",""0""
""fullscreenenter"",""0"",""36611""
""blur"",""2"",""62508""
""focus"",""2"",""69971""
","""event"",""trial"",""time""
""blur"",""2"",""62508""
","""event"",""trial"",""time""
""focus"",""0"",""0""
""focus"",""2"",""69971""
","""event"",""trial"",""time""
""fullscreenenter"",""0"",""36611""
","
","null","run_exp/static/images/Set 6_rs/178a.jpg","null","","","","","","learn","SR",""
"","show_choice","116","174939","0.0-116.0","""event"",""trial"",""time""
""focus"",""0"",""0""
""fullscreenenter"",""0"",""36611""
""blur"",""2"",""62508""
""focus"",""2"",""69971""
","""event"",""trial"",""time""
""blur"",""2"",""62508""
","""event"",""trial"",""time""
""focus"",""0"",""0""
""focus"",""2"",""69971""
","""event"",""trial"",""time""
""fullscreenenter"",""0"",""36611""
","
","null","run_exp/static/images/blank.png","null","","","","","","learn","SR",""
"","html-keyboard-response","117","175441","0.0-117.0","""event"",""trial"",""time""
""focus"",""0"",""0""
""fullscreenenter"",""0"",""36611""
""blur"",""2"",""62508""
""focus"",""2"",""69971""
","""event"",""trial"",""time""
""blur"",""2"",""62508""
","""event"",""trial"",""time""
""focus"",""0"",""0""
""focus"",""2"",""69971""
","""event"",""trial"",""time""
""fullscreenenter"",""0"",""36611""
","
","null","<p></p>","null","","","","","","","",""
"","image","118","176290","0.0-118.0","""event"",""trial"",""time""
""focus"",""0"",""0""
""fullscreenenter"",""0"",""36611""
""blur"",""2"",""62508""
""focus"",""2"",""69971""
","""event"",""trial"",""time""
""blur"",""2"",""62508""
","""event"",""trial"",""time""
""focus"",""0"",""0""
""focus"",""2"",""69971""
","""event"",""trial"",""time""
""fullscreenenter"",""0"",""36611""
","
","847","run_exp/static/images/Set 6_rs/071a.jpg","86","","","","","","learn","SL",""
"","show_choice","119","177446","0.0-119.0","""event"",""trial"",""time""
""focus"",""0"",""0""
""fullscreenenter"",""0"",""36611""
""blur"",""2"",""62508""
""focus"",""2"",""69971""
","""event"",""trial"",""time""
""blur"",""2"",""62508""
","""event"",""trial"",""time""
""focus"",""0"",""0""
""focus"",""2"",""69971""
","""event"",""trial"",""time""
""fullscreenenter"",""0"",""36611""
","
","null","run_exp/static/images/Set 6_rs/071a.jpg","null","","","","","","learn","SL",""
"","html-keyboard-response","120","177962","0.0-120.0","""event"",""trial"",""time""
""focus"",""0"",""0""
""fullscreenenter"",""0"",""36611""
""blur"",""2"",""62508""
""focus"",""2"",""69971""
","""event"",""trial"",""time""
""blur"",""2"",""62508""
","""event"",""trial"",""time""
""focus"",""0"",""0""
""focus"",""2"",""69971""
","""event"",""trial"",""time""
""fullscreenenter"",""0"",""36611""
","
","null","<p></p>","null","","","","","","","",""
"","image","121","179071","0.0-121.0","""event"",""trial"",""time""
""focus"",""0"",""0""
""fullscreenenter"",""0"",""36611""
""blur"",""2"",""62508""
""focus"",""2"",""69971""
","""event"",""trial"",""time""
""blur"",""2"",""62508""
","""event"",""trial"",""time""
""focus"",""0"",""0""
""focus"",""2"",""69971""
","""event"",""trial"",""time""
""fullscreenenter"",""0"",""36611""
","
","1108","run_exp/static/images/Set 6_rs/055a.jpg","78","","","","","","learn","SL",""
"","show_choice","122","179972","0.0-122.0","""event"",""trial"",""time""
""focus"",""0"",""0""
""fullscreenenter"",""0"",""36611""
""blur"",""2"",""62508""
""focus"",""2"",""69971""
","""event"",""trial"",""time""
""blur"",""2"",""62508""
","""event"",""trial"",""time""
""focus"",""0"",""0""
""focus"",""2"",""69971""
","""event"",""trial"",""time""
""fullscreenenter"",""0"",""36611""
","
","null","run_exp/static/images/Set 6_rs/055a.jpg","null","","","","","","learn","SL",""
"","html-keyboard-response","123","180484","0.0-123.0","""event"",""trial"",""time""
""focus"",""0"",""0""
""fullscreenenter"",""0"",""36611""
""blur"",""2"",""62508""
""focus"",""2"",""69971""
","""event"",""trial"",""time""
""blur"",""2"",""62508""
","""event"",""trial"",""time""
""focus"",""0"",""0""
""focus"",""2"",""69971""
","""event"",""trial"",""time""
""fullscreenenter"",""0"",""36611""
","
","null","<p></p>","null","","","","","","","",""
"","image","124","180601","0.0-124.0","""event"",""trial"",""time""
""focus"",""0"",""0""
""fullscreenenter"",""0"",""36611""
""blur"",""2"",""62508""
""focus"",""2"",""69971""
","""event"",""trial"",""time""
""blur"",""2"",""62508""
","""event"",""trial"",""time""
""focus"",""0"",""0""
""focus"",""2"",""69971""
","""event"",""trial"",""time""
""fullscreenenter"",""0"",""36611""
","
","114","run_exp/static/images/Set 6_rs/057a.jpg","86","","","","","","learn","SL",""
"","show_choice","125","182491","0.0-125.0","""event"",""trial"",""time""
""focus"",""0"",""0""
""fullscreenenter"",""0"",""36611""
""blur"",""2"",""62508""
""focus"",""2"",""69971""
","""event"",""trial"",""time""
""blur"",""2"",""62508""
","""event"",""trial"",""time""
""focus"",""0"",""0""
""focus"",""2"",""69971""
","""event"",""trial"",""time""
""fullscreenenter"",""0"",""36611""
","
","null","run_exp/static/images/Set 6_rs/057a.jpg","null","","","","","","learn","SL",""
"","html-keyboard-response","126","182992","0.0-126.0","""event"",""trial"",""time""
""focus"",""0"",""0""
""fullscreenenter"",""0"",""36611""
""blur"",""2"",""62508""
""focus"",""2"",""69971""
","""event"",""trial"",""time""
""blur"",""2"",""62508""
","""event"",""trial"",""time""
""focus"",""0"",""0""
""focus"",""2"",""69971""
","""event"",""trial"",""time""
""fullscreenenter"",""0"",""36611""
","
","null","<p></p>","null","","","","","","","",""
"","image","127","183982","0.0-127.0","""event"",""trial"",""time""
""focus"",""0"",""0""
""fullscreenenter"",""0"",""36611""
""blur"",""2"",""62508""
""focus"",""2"",""69971""
","""event"",""trial"",""time""
""blur"",""2"",""62508""
","""event"",""trial"",""time""
""focus"",""0"",""0""
""focus"",""2"",""69971""
","""event"",""trial"",""time""
""fullscreenenter"",""0"",""36611""
","
","988","run_exp/static/images/Set 6_rs/116a.jpg","78","","","","","","learn","SL",""
"","show_choice","128","185009","0.0-128.0","""event"",""trial"",""time""
""focus"",""0"",""0""
""fullscreenenter"",""0"",""36611""
""blur"",""2"",""62508""
""focus"",""2"",""69971""
","""event"",""trial"",""time""
""blur"",""2"",""62508""
","""event"",""trial"",""time""
""focus"",""0"",""0""
""focus"",""2"",""69971""
","""event"",""trial"",""time""
""fullscreenenter"",""0"",""36611""
","
","null","run_exp/static/images/Set 6_rs/116a.jpg","null","","","","","","learn","SL",""
"","html-keyboard-response","129","185519","0.0-129.0","""event"",""trial"",""time""
""focus"",""0"",""0""
""fullscreenenter"",""0"",""36611""
""blur"",""2"",""62508""
""focus"",""2"",""69971""
","""event"",""trial"",""time""
""blur"",""2"",""62508""
","""event"",""trial"",""time""
""focus"",""0"",""0""
""focus"",""2"",""69971""
","""event"",""trial"",""time""
""fullscreenenter"",""0"",""36611""
","
","null","<p></p>","null","","","","","","","",""
"","image","130","186787","0.0-130.0","""event"",""trial"",""time""
""focus"",""0"",""0""
""fullscreenenter"",""0"",""36611""
""blur"",""2"",""62508""
""focus"",""2"",""69971""
","""event"",""trial"",""time""
""blur"",""2"",""62508""
","""event"",""trial"",""time""
""focus"",""0"",""0""
""focus"",""2"",""69971""
","""event"",""trial"",""time""
""fullscreenenter"",""0"",""36611""
","
","1268","run_exp/static/images/Set 6_rs/063a.jpg","86","","","","","","learn","SR",""
"","show_choice","131","187532","0.0-131.0","""event"",""trial"",""time""
""focus"",""0"",""0""
""fullscreenenter"",""0"",""36611""
""blur"",""2"",""62508""
""focus"",""2"",""69971""
","""event"",""trial"",""time""
""blur"",""2"",""62508""
","""event"",""trial"",""time""
""focus"",""0"",""0""
""focus"",""2"",""69971""
","""event"",""trial"",""time""
""fullscreenenter"",""0"",""36611""
","
","null","run_exp/static/images/Set 6_rs/063a.jpg","null","","","","","","learn","SR",""
"","html-keyboard-response","132","188038","0.0-132.0","""event"",""trial"",""time""
""focus"",""0"",""0""
""fullscreenenter"",""0"",""36611""
""blur"",""2"",""62508""
""focus"",""2"",""69971""
","""event"",""trial"",""time""
""blur"",""2"",""62508""
","""event"",""trial"",""time""
""focus"",""0"",""0""
""focus"",""2"",""69971""
","""event"",""trial"",""time""
""fullscreenenter"",""0"",""36611""
","
","null","<p></p>","null","","","","","","","",""
"","image","133","189899","0.0-133.0","""event"",""trial"",""time""
""focus"",""0"",""0""
""fullscreenenter"",""0"",""36611""
""blur"",""2"",""62508""
""focus"",""2"",""69971""
","""event"",""trial"",""time""
""blur"",""2"",""62508""
","""event"",""trial"",""time""
""focus"",""0"",""0""
""focus"",""2"",""69971""
","""event"",""trial"",""time""
""fullscreenenter"",""0"",""36611""
","
","1858","run_exp/static/images/Set 6_rs/016a.jpg","78","","","","","","learn","SL",""
"","show_choice","134","190053","0.0-134.0","""event"",""trial"",""time""
""focus"",""0"",""0""
""fullscreenenter"",""0"",""36611""
""blur"",""2"",""62508""
""focus"",""2"",""69971""
","""event"",""trial"",""time""
""blur"",""2"",""62508""
","""event"",""trial"",""time""
""focus"",""0"",""0""
""focus"",""2"",""69971""
","""event"",""trial"",""time""
""fullscreenenter"",""0"",""36611""
","
","null","run_exp/static/images/Set 6_rs/016a.jpg","null","","","","","","learn","SL",""
"","html-keyboard-response","135","190566","0.0-135.0","""event"",""trial"",""time""
""focus"",""0"",""0""
""fullscreenenter"",""0"",""36611""
""blur"",""2"",""62508""
""focus"",""2"",""69971""
","""event"",""trial"",""time""
""blur"",""2"",""62508""
","""event"",""trial"",""time""
""focus"",""0"",""0""
""focus"",""2"",""69971""
","""event"",""trial"",""time""
""fullscreenenter"",""0"",""36611""
","
","null","<p></p>","null","","","","","","","",""
"","image","136","192223","0.0-136.0","""event"",""trial"",""time""
""focus"",""0"",""0""
""fullscreenenter"",""0"",""36611""
""blur"",""2"",""62508""
""focus"",""2"",""69971""
","""event"",""trial"",""time""
""blur"",""2"",""62508""
","""event"",""trial"",""time""
""focus"",""0"",""0""
""focus"",""2"",""69971""
","""event"",""trial"",""time""
""fullscreenenter"",""0"",""36611""
","
","1656","run_exp/static/images/Set 6_rs/131a.jpg","86","","","","","","learn","SR",""
"","show_choice","137","192583","0.0-137.0","""event"",""trial"",""time""
""focus"",""0"",""0""
""fullscreenenter"",""0"",""36611""
""blur"",""2"",""62508""
""focus"",""2"",""69971""
","""event"",""trial"",""time""
""blur"",""2"",""62508""
","""event"",""trial"",""time""
""focus"",""0"",""0""
""focus"",""2"",""69971""
","""event"",""trial"",""time""
""fullscreenenter"",""0"",""36611""
","
","null","run_exp/static/images/Set 6_rs/131a.jpg","null","","","","","","learn","SR",""
"","html-keyboard-response","138","193085","0.0-138.0","""event"",""trial"",""time""
""focus"",""0"",""0""
""fullscreenenter"",""0"",""36611""
""blur"",""2"",""62508""
""focus"",""2"",""69971""
","""event"",""trial"",""time""
""blur"",""2"",""62508""
","""event"",""trial"",""time""
""focus"",""0"",""0""
""focus"",""2"",""69971""
","""event"",""trial"",""time""
""fullscreenenter"",""0"",""36611""
","
","null","<p></p>","null","","","","","","","",""
"","image","139","193946","0.0-139.0","""event"",""trial"",""time""
""focus"",""0"",""0""
""fullscreenenter"",""0"",""36611""
""blur"",""2"",""62508""
""focus"",""2"",""69971""
","""event"",""trial"",""time""
""blur"",""2"",""62508""
","""event"",""trial"",""time""
""focus"",""0"",""0""
""focus"",""2"",""69971""
","""event"",""trial"",""time""
""fullscreenenter"",""0"",""36611""
","
","859","run_exp/static/images/Set 6_rs/152a.jpg","86","","","","","","learn","SR",""
"","show_choice","140","195093","0.0-140.0","""event"",""trial"",""time""
""focus"",""0"",""0""
""fullscreenenter"",""0"",""36611""
""blur"",""2"",""62508""
""focus"",""2"",""69971""
","""event"",""trial"",""time""
""blur"",""2"",""62508""
","""event"",""trial"",""time""
""focus"",""0"",""0""
""focus"",""2"",""69971""
","""event"",""trial"",""time""
""fullscreenenter"",""0"",""36611""
","
","null","run_exp/static/images/Set 6_rs/152a.jpg","null","","","","","","learn","SR",""
"","html-keyboard-response","141","195602","0.0-141.0","""event"",""trial"",""time""
""focus"",""0"",""0""
""fullscreenenter"",""0"",""36611""
""blur"",""2"",""62508""
""focus"",""2"",""69971""
","""event"",""trial"",""time""
""blur"",""2"",""62508""
","""event"",""trial"",""time""
""focus"",""0"",""0""
""focus"",""2"",""69971""
","""event"",""trial"",""time""
""fullscreenenter"",""0"",""36611""
","
","null","<p></p>","null","","","","","","","",""
"","image","142","196644","0.0-142.0","""event"",""trial"",""time""
""focus"",""0"",""0""
""fullscreenenter"",""0"",""36611""
""blur"",""2"",""62508""
""focus"",""2"",""69971""
","""event"",""trial"",""time""
""blur"",""2"",""62508""
","""event"",""trial"",""time""
""focus"",""0"",""0""
""focus"",""2"",""69971""
","""event"",""trial"",""time""
""fullscreenenter"",""0"",""36611""
","
","1040","run_exp/static/images/Set 6_rs/023a.jpg","86","","","","","","learn","SR",""
"","show_choice","143","197607","0.0-143.0","""event"",""trial"",""time""
""focus"",""0"",""0""
""fullscreenenter"",""0"",""36611""
""blur"",""2"",""62508""
""focus"",""2"",""69971""
","""event"",""trial"",""time""
""blur"",""2"",""62508""
","""event"",""trial"",""time""
""focus"",""0"",""0""
""focus"",""2"",""69971""
","""event"",""trial"",""time""
""fullscreenenter"",""0"",""36611""
","
","null","run_exp/static/images/Set 6_rs/023a.jpg","null","","","","","","learn","SR",""
"","html-keyboard-response","144","198113","0.0-144.0","""event"",""trial"",""time""
""focus"",""0"",""0""
""fullscreenenter"",""0"",""36611""
""blur"",""2"",""62508""
""focus"",""2"",""69971""
","""event"",""trial"",""time""
""blur"",""2"",""62508""
","""event"",""trial"",""time""
""focus"",""0"",""0""
""focus"",""2"",""69971""
","""event"",""trial"",""time""
""fullscreenenter"",""0"",""36611""
","
","null","<p></p>","null","","","","","","","",""
"","image","145","199042","0.0-145.0","""event"",""trial"",""time""
""focus"",""0"",""0""
""fullscreenenter"",""0"",""36611""
""blur"",""2"",""62508""
""focus"",""2"",""69971""
","""event"",""trial"",""time""
""blur"",""2"",""62508""
","""event"",""trial"",""time""
""focus"",""0"",""0""
""focus"",""2"",""69971""
","""event"",""trial"",""time""
""fullscreenenter"",""0"",""36611""
","
","926","run_exp/static/images/Set 6_rs/079a.jpg","86","","","","","","learn","SL",""
"","show_choice","146","200125","0.0-146.0","""event"",""trial"",""time""
""focus"",""0"",""0""
""fullscreenenter"",""0"",""36611""
""blur"",""2"",""62508""
""focus"",""2"",""69971""
","""event"",""trial"",""time""
""blur"",""2"",""62508""
","""event"",""trial"",""time""
""focus"",""0"",""0""
""focus"",""2"",""69971""
","""event"",""trial"",""time""
""fullscreenenter"",""0"",""36611""
","
","null","run_exp/static/images/Set 6_rs/079a.jpg","null","","","","","","learn","SL",""
"","html-keyboard-response","147","200635","0.0-147.0","""event"",""trial"",""time""
""focus"",""0"",""0""
""fullscreenenter"",""0"",""36611""
""blur"",""2"",""62508""
""focus"",""2"",""69971""
","""event"",""trial"",""time""
""blur"",""2"",""62508""
","""event"",""trial"",""time""
""focus"",""0"",""0""
""focus"",""2"",""69971""
","""event"",""trial"",""time""
""fullscreenenter"",""0"",""36611""
","
","null","<p></p>","null","","","","","","","",""
"","image","148","201422","0.0-148.0","""event"",""trial"",""time""
""focus"",""0"",""0""
""fullscreenenter"",""0"",""36611""
""blur"",""2"",""62508""
""focus"",""2"",""69971""
","""event"",""trial"",""time""
""blur"",""2"",""62508""
","""event"",""trial"",""time""
""focus"",""0"",""0""
""focus"",""2"",""69971""
","""event"",""trial"",""time""
""fullscreenenter"",""0"",""36611""
","
","785","run_exp/static/images/Set 6_rs/112a.jpg","86","","","","","","learn","SR",""
"","show_choice","149","202644","0.0-149.0","""event"",""trial"",""time""
""focus"",""0"",""0""
""fullscreenenter"",""0"",""36611""
""blur"",""2"",""62508""
""focus"",""2"",""69971""
","""event"",""trial"",""time""
""blur"",""2"",""62508""
","""event"",""trial"",""time""
""focus"",""0"",""0""
""focus"",""2"",""69971""
","""event"",""trial"",""time""
""fullscreenenter"",""0"",""36611""
","
","null","run_exp/static/images/Set 6_rs/112a.jpg","null","","","","","","learn","SR",""
"","html-keyboard-response","150","203157","0.0-150.0","""event"",""trial"",""time""
""focus"",""0"",""0""
""fullscreenenter"",""0"",""36611""
""blur"",""2"",""62508""
""focus"",""2"",""69971""
","""event"",""trial"",""time""
""blur"",""2"",""62508""
","""event"",""trial"",""time""
""focus"",""0"",""0""
""focus"",""2"",""69971""
","""event"",""trial"",""time""
""fullscreenenter"",""0"",""36611""
","
","null","<p></p>","null","","","","","","","",""
"","image","151","204426","0.0-151.0","""event"",""trial"",""time""
""focus"",""0"",""0""
""fullscreenenter"",""0"",""36611""
""blur"",""2"",""62508""
""focus"",""2"",""69971""
","""event"",""trial"",""time""
""blur"",""2"",""62508""
","""event"",""trial"",""time""
""focus"",""0"",""0""
""focus"",""2"",""69971""
","""event"",""trial"",""time""
""fullscreenenter"",""0"",""36611""
","
","1267","run_exp/static/images/Set 6_rs/061a.jpg","78","","","","","","learn","SR",""
"","show_choice","152","205162","0.0-152.0","""event"",""trial"",""time""
""focus"",""0"",""0""
""fullscreenenter"",""0"",""36611""
""blur"",""2"",""62508""
""focus"",""2"",""69971""
","""event"",""trial"",""time""
""blur"",""2"",""62508""
","""event"",""trial"",""time""
""focus"",""0"",""0""
""focus"",""2"",""69971""
","""event"",""trial"",""time""
""fullscreenenter"",""0"",""36611""
","
","null","run_exp/static/images/Set 6_rs/061a.jpg","null","","","","","","learn","SR",""
"","html-keyboard-response","153","205666","0.0-153.0","""event"",""trial"",""time""
""focus"",""0"",""0""
""fullscreenenter"",""0"",""36611""
""blur"",""2"",""62508""
""focus"",""2"",""69971""
","""event"",""trial"",""time""
""blur"",""2"",""62508""
","""event"",""trial"",""time""
""focus"",""0"",""0""
""focus"",""2"",""69971""
","""event"",""trial"",""time""
""fullscreenenter"",""0"",""36611""
","
","null","<p></p>","null","","","","","","","",""
"","image","154","207024","0.0-154.0","""event"",""trial"",""time""
""focus"",""0"",""0""
""fullscreenenter"",""0"",""36611""
""blur"",""2"",""62508""
""focus"",""2"",""69971""
","""event"",""trial"",""time""
""blur"",""2"",""62508""
","""event"",""trial"",""time""
""focus"",""0"",""0""
""focus"",""2"",""69971""
","""event"",""trial"",""time""
""fullscreenenter"",""0"",""36611""
","
","1355","run_exp/static/images/Set 6_rs/117a.jpg","78","","","","","","learn","SL",""
"","show_choice","155","207670","0.0-155.0","""event"",""trial"",""time""
""focus"",""0"",""0""
""fullscreenenter"",""0"",""36611""
""blur"",""2"",""62508""
""focus"",""2"",""69971""
","""event"",""trial"",""time""
""blur"",""2"",""62508""
","""event"",""trial"",""time""
""focus"",""0"",""0""
""focus"",""2"",""69971""
","""event"",""trial"",""time""
""fullscreenenter"",""0"",""36611""
","
","null","run_exp/static/images/Set 6_rs/117a.jpg","null","","","","","","learn","SL",""
"","html-keyboard-response","156","208184","0.0-156.0","""event"",""trial"",""time""
""focus"",""0"",""0""
""fullscreenenter"",""0"",""36611""
""blur"",""2"",""62508""
""focus"",""2"",""69971""
","""event"",""trial"",""time""
""blur"",""2"",""62508""
","""event"",""trial"",""time""
""focus"",""0"",""0""
""focus"",""2"",""69971""
","""event"",""trial"",""time""
""fullscreenenter"",""0"",""36611""
","
","null","<p></p>","null","","","","","","","",""
"","image","157","209246","0.0-157.0","""event"",""trial"",""time""
""focus"",""0"",""0""
""fullscreenenter"",""0"",""36611""
""blur"",""2"",""62508""
""focus"",""2"",""69971""
","""event"",""trial"",""time""
""blur"",""2"",""62508""
","""event"",""trial"",""time""
""focus"",""0"",""0""
""focus"",""2"",""69971""
","""event"",""trial"",""time""
""fullscreenenter"",""0"",""36611""
","
","1061","run_exp/static/images/Set 6_rs/012a.jpg","86","","","","","","learn","SR",""
"","show_choice","158","210202","0.0-158.0","""event"",""trial"",""time""
""focus"",""0"",""0""
""fullscreenenter"",""0"",""36611""
""blur"",""2"",""62508""
""focus"",""2"",""69971""
","""event"",""trial"",""time""
""blur"",""2"",""62508""
","""event"",""trial"",""time""
""focus"",""0"",""0""
""focus"",""2"",""69971""
","""event"",""trial"",""time""
""fullscreenenter"",""0"",""36611""
","
","null","run_exp/static/images/Set 6_rs/012a.jpg","null","","","","","","learn","SR",""
"","html-keyboard-response","159","210711","0.0-159.0","""event"",""trial"",""time""
""focus"",""0"",""0""
""fullscreenenter"",""0"",""36611""
""blur"",""2"",""62508""
""focus"",""2"",""69971""
","""event"",""trial"",""time""
""blur"",""2"",""62508""
","""event"",""trial"",""time""
""focus"",""0"",""0""
""focus"",""2"",""69971""
","""event"",""trial"",""time""
""fullscreenenter"",""0"",""36611""
","
","null","<p></p>","null","","","","","","","",""
"","image","160","211550","0.0-160.0","""event"",""trial"",""time""
""focus"",""0"",""0""
""fullscreenenter"",""0"",""36611""
""blur"",""2"",""62508""
""focus"",""2"",""69971""
","""event"",""trial"",""time""
""blur"",""2"",""62508""
","""event"",""trial"",""time""
""focus"",""0"",""0""
""focus"",""2"",""69971""
","""event"",""trial"",""time""
""fullscreenenter"",""0"",""36611""
","
","837","run_exp/static/images/Set 6_rs/075a.jpg","86","","","","","","learn","SR",""
"","show_choice","161","212724","0.0-161.0","""event"",""trial"",""time""
""focus"",""0"",""0""
""fullscreenenter"",""0"",""36611""
""blur"",""2"",""62508""
""focus"",""2"",""69971""
","""event"",""trial"",""time""
""blur"",""2"",""62508""
","""event"",""trial"",""time""
""focus"",""0"",""0""
""focus"",""2"",""69971""
","""event"",""trial"",""time""
""fullscreenenter"",""0"",""36611""
","
","null","run_exp/static/images/Set 6_rs/075a.jpg","null","","","","","","learn","SR",""
"","html-keyboard-response","162","213231","0.0-162.0","""event"",""trial"",""time""
""focus"",""0"",""0""
""fullscreenenter"",""0"",""36611""
""blur"",""2"",""62508""
""focus"",""2"",""69971""
","""event"",""trial"",""time""
""blur"",""2"",""62508""
","""event"",""trial"",""time""
""focus"",""0"",""0""
""focus"",""2"",""69971""
","""event"",""trial"",""time""
""fullscreenenter"",""0"",""36611""
","
","null","<p></p>","null","","","","","","","",""
"","image","163","214625","0.0-163.0","""event"",""trial"",""time""
""focus"",""0"",""0""
""fullscreenenter"",""0"",""36611""
""blur"",""2"",""62508""
""focus"",""2"",""69971""
","""event"",""trial"",""time""
""blur"",""2"",""62508""
","""event"",""trial"",""time""
""focus"",""0"",""0""
""focus"",""2"",""69971""
","""event"",""trial"",""time""
""fullscreenenter"",""0"",""36611""
","
","1392","run_exp/static/images/Set 6_rs/091a.jpg","78","","","","","","learn","SL",""
"","show_choice","164","215245","0.0-164.0","""event"",""trial"",""time""
""focus"",""0"",""0""
""fullscreenenter"",""0"",""36611""
""blur"",""2"",""62508""
""focus"",""2"",""69971""
","""event"",""trial"",""time""
""blur"",""2"",""62508""
","""event"",""trial"",""time""
""focus"",""0"",""0""
""focus"",""2"",""69971""
","""event"",""trial"",""time""
""fullscreenenter"",""0"",""36611""
","
","null","run_exp/static/images/Set 6_rs/091a.jpg","null","","","","","","learn","SL",""
"","html-keyboard-response","165","215750","0.0-165.0","""event"",""trial"",""time""
""focus"",""0"",""0""
""fullscreenenter"",""0"",""36611""
""blur"",""2"",""62508""
""focus"",""2"",""69971""
","""event"",""trial"",""time""
""blur"",""2"",""62508""
","""event"",""trial"",""time""
""focus"",""0"",""0""
""focus"",""2"",""69971""
","""event"",""trial"",""time""
""fullscreenenter"",""0"",""36611""
","
","null","<p></p>","null","","","","","","","",""
"","image","166","217038","0.0-166.0","""event"",""trial"",""time""
""focus"",""0"",""0""
""fullscreenenter"",""0"",""36611""
""blur"",""2"",""62508""
""focus"",""2"",""69971""
","""event"",""trial"",""time""
""blur"",""2"",""62508""
","""event"",""trial"",""time""
""focus"",""0"",""0""
""focus"",""2"",""69971""
","""event"",""trial"",""time""
""fullscreenenter"",""0"",""36611""
","
","1286","run_exp/static/images/Set 6_rs/167a.jpg","86","","","","","","learn","SL",""
"","show_choice","167","217759","0.0-167.0","""event"",""trial"",""time""
""focus"",""0"",""0""
""fullscreenenter"",""0"",""36611""
""blur"",""2"",""62508""
""focus"",""2"",""69971""
","""event"",""trial"",""time""
""blur"",""2"",""62508""
","""event"",""trial"",""time""
""focus"",""0"",""0""
""focus"",""2"",""69971""
","""event"",""trial"",""time""
""fullscreenenter"",""0"",""36611""
","
","null","run_exp/static/images/Set 6_rs/167a.jpg","null","","","","","","learn","SL",""
"","html-keyboard-response","168","218266","0.0-168.0","""event"",""trial"",""time""
""focus"",""0"",""0""
""fullscreenenter"",""0"",""36611""
""blur"",""2"",""62508""
""focus"",""2"",""69971""
","""event"",""trial"",""time""
""blur"",""2"",""62508""
","""event"",""trial"",""time""
""focus"",""0"",""0""
""focus"",""2"",""69971""
","""event"",""trial"",""time""
""fullscreenenter"",""0"",""36611""
","
","null","<p></p>","null","","","","","","","",""
"","image","169","219422","0.0-169.0","""event"",""trial"",""time""
""focus"",""0"",""0""
""fullscreenenter"",""0"",""36611""
""blur"",""2"",""62508""
""focus"",""2"",""69971""
","""event"",""trial"",""time""
""blur"",""2"",""62508""
","""event"",""trial"",""time""
""focus"",""0"",""0""
""focus"",""2"",""69971""
","""event"",""trial"",""time""
""fullscreenenter"",""0"",""36611""
","
","1153","run_exp/static/images/Set 6_rs/064a.jpg","78","","","","","","learn","SR",""
"","show_choice","170","220277","0.0-170.0","""event"",""trial"",""time""
""focus"",""0"",""0""
""fullscreenenter"",""0"",""36611""
""blur"",""2"",""62508""
""focus"",""2"",""69971""
","""event"",""trial"",""time""
""blur"",""2"",""62508""
","""event"",""trial"",""time""
""focus"",""0"",""0""
""focus"",""2"",""69971""
","""event"",""trial"",""time""
""fullscreenenter"",""0"",""36611""
","
","null","run_exp/static/images/Set 6_rs/064a.jpg","null","","","","","","learn","SR",""
"","html-keyboard-response","171","220788","0.0-171.0","""event"",""trial"",""time""
""focus"",""0"",""0""
""fullscreenenter"",""0"",""36611""
""blur"",""2"",""62508""
""focus"",""2"",""69971""
","""event"",""trial"",""time""
""blur"",""2"",""62508""
","""event"",""trial"",""time""
""focus"",""0"",""0""
""focus"",""2"",""69971""
","""event"",""trial"",""time""
""fullscreenenter"",""0"",""36611""
","
","null","<p></p>","null","","","","","","","",""
"","image","172","221998","0.0-172.0","""event"",""trial"",""time""
""focus"",""0"",""0""
""fullscreenenter"",""0"",""36611""
""blur"",""2"",""62508""
""focus"",""2"",""69971""
","""event"",""trial"",""time""
""blur"",""2"",""62508""
","""event"",""trial"",""time""
""focus"",""0"",""0""
""focus"",""2"",""69971""
","""event"",""trial"",""time""
""fullscreenenter"",""0"",""36611""
","
","1207","run_exp/static/images/Set 6_rs/062a.jpg","86","","","","","","learn","SL",""
"","show_choice","173","222803","0.0-173.0","""event"",""trial"",""time""
""focus"",""0"",""0""
""fullscreenenter"",""0"",""36611""
""blur"",""2"",""62508""
""focus"",""2"",""69971""
","""event"",""trial"",""time""
""blur"",""2"",""62508""
","""event"",""trial"",""time""
""focus"",""0"",""0""
""focus"",""2"",""69971""
","""event"",""trial"",""time""
""fullscreenenter"",""0"",""36611""
","
","null","run_exp/static/images/Set 6_rs/062a.jpg","null","","","","","","learn","SL",""
"","html-keyboard-response","174","223311","0.0-174.0","""event"",""trial"",""time""
""focus"",""0"",""0""
""fullscreenenter"",""0"",""36611""
""blur"",""2"",""62508""
""focus"",""2"",""69971""
","""event"",""trial"",""time""
""blur"",""2"",""62508""
","""event"",""trial"",""time""
""focus"",""0"",""0""
""focus"",""2"",""69971""
","""event"",""trial"",""time""
""fullscreenenter"",""0"",""36611""
","
","null","<p></p>","null","","","","","","","",""
"","image","175","224122","0.0-175.0","""event"",""trial"",""time""
""focus"",""0"",""0""
""fullscreenenter"",""0"",""36611""
""blur"",""2"",""62508""
""focus"",""2"",""69971""
","""event"",""trial"",""time""
""blur"",""2"",""62508""
","""event"",""trial"",""time""
""focus"",""0"",""0""
""focus"",""2"",""69971""
","""event"",""trial"",""time""
""fullscreenenter"",""0"",""36611""
","
","806","run_exp/static/images/Set 6_rs/073a.jpg","86","","","","","","learn","SL",""
"","show_choice","176","225321","0.0-176.0","""event"",""trial"",""time""
""focus"",""0"",""0""
""fullscreenenter"",""0"",""36611""
""blur"",""2"",""62508""
""focus"",""2"",""69971""
","""event"",""trial"",""time""
""blur"",""2"",""62508""
","""event"",""trial"",""time""
""focus"",""0"",""0""
""focus"",""2"",""69971""
","""event"",""trial"",""time""
""fullscreenenter"",""0"",""36611""
","
","null","run_exp/static/images/Set 6_rs/073a.jpg","null","","","","","","learn","SL",""
"","html-keyboard-response","177","225823","0.0-177.0","""event"",""trial"",""time""
""focus"",""0"",""0""
""fullscreenenter"",""0"",""36611""
""blur"",""2"",""62508""
""focus"",""2"",""69971""
","""event"",""trial"",""time""
""blur"",""2"",""62508""
","""event"",""trial"",""time""
""focus"",""0"",""0""
""focus"",""2"",""69971""
","""event"",""trial"",""time""
""fullscreenenter"",""0"",""36611""
","
","null","<p></p>","null","","","","","","","",""
"","image","178","227281","0.0-178.0","""event"",""trial"",""time""
""focus"",""0"",""0""
""fullscreenenter"",""0"",""36611""
""blur"",""2"",""62508""
""focus"",""2"",""69971""
","""event"",""trial"",""time""
""blur"",""2"",""62508""
","""event"",""trial"",""time""
""focus"",""0"",""0""
""focus"",""2"",""69971""
","""event"",""trial"",""time""
""fullscreenenter"",""0"",""36611""
","
","1457","run_exp/static/images/Set 6_rs/138a.jpg","78","","","","","","learn","SL",""
"","show_choice","179","227833","0.0-179.0","""event"",""trial"",""time""
""focus"",""0"",""0""
""fullscreenenter"",""0"",""36611""
""blur"",""2"",""62508""
""focus"",""2"",""69971""
","""event"",""trial"",""time""
""blur"",""2"",""62508""
","""event"",""trial"",""time""
""focus"",""0"",""0""
""focus"",""2"",""69971""
","""event"",""trial"",""time""
""fullscreenenter"",""0"",""36611""
","
","null","run_exp/static/images/Set 6_rs/138a.jpg","null","","","","","","learn","SL",""
"","html-keyboard-response","180","228336","0.0-180.0","""event"",""trial"",""time""
""focus"",""0"",""0""
""fullscreenenter"",""0"",""36611""
""blur"",""2"",""62508""
""focus"",""2"",""69971""
","""event"",""trial"",""time""
""blur"",""2"",""62508""
","""event"",""trial"",""time""
""focus"",""0"",""0""
""focus"",""2"",""69971""
","""event"",""trial"",""time""
""fullscreenenter"",""0"",""36611""
","
","null","<p></p>","null","","","","","","","",""
"","image","181","229122","0.0-181.0","""event"",""trial"",""time""
""focus"",""0"",""0""
""fullscreenenter"",""0"",""36611""
""blur"",""2"",""62508""
""focus"",""2"",""69971""
","""event"",""trial"",""time""
""blur"",""2"",""62508""
","""event"",""trial"",""time""
""focus"",""0"",""0""
""focus"",""2"",""69971""
","""event"",""trial"",""time""
""fullscreenenter"",""0"",""36611""
","
","783","run_exp/static/images/Set 6_rs/007a.jpg","86","","","","","","learn","SR",""
"","show_choice","182","230347","0.0-182.0","""event"",""trial"",""time""
""focus"",""0"",""0""
""fullscreenenter"",""0"",""36611""
""blur"",""2"",""62508""
""focus"",""2"",""69971""
","""event"",""trial"",""time""
""blur"",""2"",""62508""
","""event"",""trial"",""time""
""focus"",""0"",""0""
""focus"",""2"",""69971""
","""event"",""trial"",""time""
""fullscreenenter"",""0"",""36611""
","
","null","run_exp/static/images/Set 6_rs/007a.jpg","null","","","","","","learn","SR",""
"","html-keyboard-response","183","230863","0.0-183.0","""event"",""trial"",""time""
""focus"",""0"",""0""
""fullscreenenter"",""0"",""36611""
""blur"",""2"",""62508""
""focus"",""2"",""69971""
","""event"",""trial"",""time""
""blur"",""2"",""62508""
","""event"",""trial"",""time""
""focus"",""0"",""0""
""focus"",""2"",""69971""
","""event"",""trial"",""time""
""fullscreenenter"",""0"",""36611""
","
","null","<p></p>","null","","","","","","","",""
"","image","184","231656","0.0-184.0","""event"",""trial"",""time""
""focus"",""0"",""0""
""fullscreenenter"",""0"",""36611""
""blur"",""2"",""62508""
""focus"",""2"",""69971""
","""event"",""trial"",""time""
""blur"",""2"",""62508""
","""event"",""trial"",""time""
""focus"",""0"",""0""
""focus"",""2"",""69971""
","""event"",""trial"",""time""
""fullscreenenter"",""0"",""36611""
","
","791","run_exp/static/images/Set 6_rs/144a.jpg","86","","","","","","learn","SL",""
"","show_choice","185","232875","0.0-185.0","""event"",""trial"",""time""
""focus"",""0"",""0""
""fullscreenenter"",""0"",""36611""
""blur"",""2"",""62508""
""focus"",""2"",""69971""
","""event"",""trial"",""time""
""blur"",""2"",""62508""
","""event"",""trial"",""time""
""focus"",""0"",""0""
""focus"",""2"",""69971""
","""event"",""trial"",""time""
""fullscreenenter"",""0"",""36611""
","
","null","run_exp/static/images/Set 6_rs/144a.jpg","null","","","","","","learn","SL",""
"","html-keyboard-response","186","233376","0.0-186.0","""event"",""trial"",""time""
""focus"",""0"",""0""
""fullscreenenter"",""0"",""36611""
""blur"",""2"",""62508""
""focus"",""2"",""69971""
","""event"",""trial"",""time""
""blur"",""2"",""62508""
","""event"",""trial"",""time""
""focus"",""0"",""0""
""focus"",""2"",""69971""
","""event"",""trial"",""time""
""fullscreenenter"",""0"",""36611""
","
","null","<p></p>","null","","","","","","","",""
"","image","187","234392","0.0-187.0","""event"",""trial"",""time""
""focus"",""0"",""0""
""fullscreenenter"",""0"",""36611""
""blur"",""2"",""62508""
""focus"",""2"",""69971""
","""event"",""trial"",""time""
""blur"",""2"",""62508""
","""event"",""trial"",""time""
""focus"",""0"",""0""
""focus"",""2"",""69971""
","""event"",""trial"",""time""
""fullscreenenter"",""0"",""36611""
","
","1014","run_exp/static/images/Set 6_rs/006a.jpg","86","","","","","","learn","SL",""
"","show_choice","188","235386","0.0-188.0","""event"",""trial"",""time""
""focus"",""0"",""0""
""fullscreenenter"",""0"",""36611""
""blur"",""2"",""62508""
""focus"",""2"",""69971""
","""event"",""trial"",""time""
""blur"",""2"",""62508""
","""event"",""trial"",""time""
""focus"",""0"",""0""
""focus"",""2"",""69971""
","""event"",""trial"",""time""
""fullscreenenter"",""0"",""36611""
","
","null","run_exp/static/images/Set 6_rs/006a.jpg","null","","","","","","learn","SL",""
"","html-keyboard-response","189","235887","0.0-189.0","""event"",""trial"",""time""
""focus"",""0"",""0""
""fullscreenenter"",""0"",""36611""
""blur"",""2"",""62508""
""focus"",""2"",""69971""
","""event"",""trial"",""time""
""blur"",""2"",""62508""
","""event"",""trial"",""time""
""focus"",""0"",""0""
""focus"",""2"",""69971""
","""event"",""trial"",""time""
""fullscreenenter"",""0"",""36611""
","
","null","<p></p>","null","","","","","","","",""
"","image","190","237899","0.0-190.0","""event"",""trial"",""time""
""focus"",""0"",""0""
""fullscreenenter"",""0"",""36611""
""blur"",""2"",""62508""
""focus"",""2"",""69971""
","""event"",""trial"",""time""
""blur"",""2"",""62508""
","""event"",""trial"",""time""
""focus"",""0"",""0""
""focus"",""2"",""69971""
","""event"",""trial"",""time""
""fullscreenenter"",""0"",""36611""
","
","null","run_exp/static/images/Set 6_rs/008a.jpg","null","","","","","","learn","SL",""
"","show_choice","191","239909","0.0-191.0","""event"",""trial"",""time""
""focus"",""0"",""0""
""fullscreenenter"",""0"",""36611""
""blur"",""2"",""62508""
""focus"",""2"",""69971""
","""event"",""trial"",""time""
""blur"",""2"",""62508""
","""event"",""trial"",""time""
""focus"",""0"",""0""
""focus"",""2"",""69971""
","""event"",""trial"",""time""
""fullscreenenter"",""0"",""36611""
","
","null","run_exp/static/images/blank.png","null","","","","","","learn","SL",""
"","html-keyboard-response","192","240412","0.0-192.0","""event"",""trial"",""time""
""focus"",""0"",""0""
""fullscreenenter"",""0"",""36611""
""blur"",""2"",""62508""
""focus"",""2"",""69971""
","""event"",""trial"",""time""
""blur"",""2"",""62508""
","""event"",""trial"",""time""
""focus"",""0"",""0""
""focus"",""2"",""69971""
","""event"",""trial"",""time""
""fullscreenenter"",""0"",""36611""
","
","null","<p></p>","null","","","","","","","",""
"","image","193","241660","0.0-193.0","""event"",""trial"",""time""
""focus"",""0"",""0""
""fullscreenenter"",""0"",""36611""
""blur"",""2"",""62508""
""focus"",""2"",""69971""
","""event"",""trial"",""time""
""blur"",""2"",""62508""
","""event"",""trial"",""time""
""focus"",""0"",""0""
""focus"",""2"",""69971""
","""event"",""trial"",""time""
""fullscreenenter"",""0"",""36611""
","
","1247","run_exp/static/images/Set 6_rs/121a.jpg","86","","","","","","learn","SR",""
"","show_choice","194","242416","0.0-194.0","""event"",""trial"",""time""
""focus"",""0"",""0""
""fullscreenenter"",""0"",""36611""
""blur"",""2"",""62508""
""focus"",""2"",""69971""
","""event"",""trial"",""time""
""blur"",""2"",""62508""
","""event"",""trial"",""time""
""focus"",""0"",""0""
""focus"",""2"",""69971""
","""event"",""trial"",""time""
""fullscreenenter"",""0"",""36611""
","
","null","run_exp/static/images/Set 6_rs/121a.jpg","null","","","","","","learn","SR",""
"","html-keyboard-response","195","242918","0.0-195.0","""event"",""trial"",""time""
""focus"",""0"",""0""
""fullscreenenter"",""0"",""36611""
""blur"",""2"",""62508""
""focus"",""2"",""69971""
","""event"",""trial"",""time""
""blur"",""2"",""62508""
","""event"",""trial"",""time""
""focus"",""0"",""0""
""focus"",""2"",""69971""
","""event"",""trial"",""time""
""fullscreenenter"",""0"",""36611""
","
","null","<p></p>","null","","","","","","","",""
"","test_intro","196","279774","0.0-196.0","""event"",""trial"",""time""
""focus"",""0"",""0""
""fullscreenenter"",""0"",""36611""
""blur"",""2"",""62508""
""focus"",""2"",""69971""
","""event"",""trial"",""time""
""blur"",""2"",""62508""
","""event"",""trial"",""time""
""focus"",""0"",""0""
""focus"",""2"",""69971""
","""event"",""trial"",""time""
""fullscreenenter"",""0"",""36611""
","
","null","run_exp/static/audio/clip_2_memory.m4a","null","","","","","<div class='center'><p>Now, lets see how much you remember about the items you just saw.  For each item, you need to indicate if it was <b>old</b> by pressing the <b>v</b> key, <b>similar</b> by pressing the <b>b</b> key, or <b>new</b> by pressing the <b>n</b> key.</p><p>Old refers to an item that you saw before in the indoor/outdoor game that you just played, new refers to an item you have <b>not</b> seen before within the indoor/outdoor game, and similar refers to an item that is similar to an item youve seen before but is not exactly the same. </p><p>Before we begin, lets go over some brief demonstrations to make sure you understand.</p></div>","","",""
"","html-keyboard-response","197","341861","0.0-197.0","""event"",""trial"",""time""
""focus"",""0"",""0""
""fullscreenenter"",""0"",""36611""
""blur"",""2"",""62508""
""focus"",""2"",""69971""
","""event"",""trial"",""time""
""blur"",""2"",""62508""
","""event"",""trial"",""time""
""focus"",""0"",""0""
""focus"",""2"",""69971""
","""event"",""trial"",""time""
""fullscreenenter"",""0"",""36611""
","
","62086","<div class='center'><p>Now, lets see how much you remember about the items you just saw.  For each item, you need to indicate if it was <b>old</b> by pressing the <b>v</b> key, <b>similar</b> by pressing the <b>b</b> key, or <b>new</b> by pressing the <b>n</b> key.</p><p>Old refers to an item that you saw before in the indoor/outdoor game that you just played, new refers to an item you have <b>not</b> seen before within the indoor/outdoor game, and similar refers to an item that is similar to an item youve seen before but is not exactly the same. </p><p>Before we begin, lets go over some brief demonstrations to make sure you understand.</p><div><p><b>[Press the space bar to continue]</b></p></div>","32","","","","","","","",""
"","items","198","349372","0.0-198.0","""event"",""trial"",""time""
""focus"",""0"",""0""
""fullscreenenter"",""0"",""36611""
""blur"",""2"",""62508""
""focus"",""2"",""69971""
","""event"",""trial"",""time""
""blur"",""2"",""62508""
","""event"",""trial"",""time""
""focus"",""0"",""0""
""focus"",""2"",""69971""
","""event"",""trial"",""time""
""fullscreenenter"",""0"",""36611""
","
","null","run_exp/static/audio/clip_3_items.m4a","null","","","","","","","",""
"","mop","199","353888","0.0-199.0","""event"",""trial"",""time""
""focus"",""0"",""0""
""fullscreenenter"",""0"",""36611""
""blur"",""2"",""62508""
""focus"",""2"",""69971""
","""event"",""trial"",""time""
""blur"",""2"",""62508""
","""event"",""trial"",""time""
""focus"",""0"",""0""
""focus"",""2"",""69971""
","""event"",""trial"",""time""
""fullscreenenter"",""0"",""36611""
","
","null","run_exp/static/audio/clip_4_mop.m4a","null","","","","","","","",""
"","baseball","200","357403","0.0-200.0","""event"",""trial"",""time""
""focus"",""0"",""0""
""fullscreenenter"",""0"",""36611""
""blur"",""2"",""62508""
""focus"",""2"",""69971""
","""event"",""trial"",""time""
""blur"",""2"",""62508""
","""event"",""trial"",""time""
""focus"",""0"",""0""
""focus"",""2"",""69971""
","""event"",""trial"",""time""
""fullscreenenter"",""0"",""36611""
","
","null","run_exp/static/audio/clip_5_baseball.m4a","null","","","","","","","",""
"","trumpet","201","360915","0.0-201.0","""event"",""trial"",""time""
""focus"",""0"",""0""
""fullscreenenter"",""0"",""36611""
""blur"",""2"",""62508""
""focus"",""2"",""69971""
","""event"",""trial"",""time""
""blur"",""2"",""62508""
","""event"",""trial"",""time""
""focus"",""0"",""0""
""focus"",""2"",""69971""
","""event"",""trial"",""time""
""fullscreenenter"",""0"",""36611""
","
","null","run_exp/static/audio/clip_6_trumpet.m4a","null","","","","","","","",""
"","gummies","202","364418","0.0-202.0","""event"",""trial"",""time""
