"success","trial_type","trial_index","time_elapsed","internal_node_id","interactions","blur_events","focus_events","fullscreenenter_events","fullscreenexit_events","rt","stimulus","key_press","subject_id","participant_id","age","gender","prompt","phase","condition","lure_bin"
"true","fullscreen","0","2855","0.0-0.0","""event"",""trial"",""time""
""fullscreenenter"",""0"",""1890""
","
","
","""event"",""trial"",""time""
""fullscreenenter"",""0"",""1890""
","
","","","","","","","","","","",""
"","pavlovia","1","2865","0.0-1.0","""event"",""trial"",""time""
""fullscreenenter"",""0"",""1890""
","
","
","""event"",""trial"",""time""
""fullscreenenter"",""0"",""1890""
","
","","","","","","","","","","",""
"","welcome","2","37824","0.0-2.0","""event"",""trial"",""time""
""fullscreenenter"",""0"",""1890""
","
","
","""event"",""trial"",""time""
""fullscreenenter"",""0"",""1890""
","
","null","run_exp/static/audio/clip_1_welcome.m4a","null","1301","1249","16","Female","<div class='center'><p>Welcome to the third part of the study! First, you'll be shown pictures of items one at a time. For each picture, you have to decide if the item is typically found indoors or outdoors.</p><p>If you think it's usually found indoors, then press <b>v</b> key on your keyboard. If you think it's usually found outdoors, then press the <b>n</b> key.There will be reminders on the screen to help you remember which keys to press. </p><p>If you're not sure whether the item is an indoor item or an outdoor item, go ahead and take a guess but try your best not to skip that choice. </p></div>","","",""
"","html-keyboard-response","3","41543","0.0-3.0","""event"",""trial"",""time""
""fullscreenenter"",""0"",""1890""
","
","
","""event"",""trial"",""time""
""fullscreenenter"",""0"",""1890""
","
","3665.0999999999767","<div class='center'><p>Welcome to the third part of the study! First, you'll be shown pictures of items one at a time. For each picture, you have to decide if the item is typically found indoors or outdoors.</p><p>If you think it's usually found indoors, then press <b>v</b> key on your keyboard. If you think it's usually found outdoors, then press the <b>n</b> key.There will be reminders on the screen to help you remember which keys to press. </p><p>If you're not sure whether the item is an indoor item or an outdoor item, go ahead and take a guess but try your best not to skip that choice. </p><div><p><b>[Press the space bar to continue]</b></p></div>","32","","","","","","","",""
"","image","4","43550","0.0-4.0","""event"",""trial"",""time""
""fullscreenenter"",""0"",""1890""
","
","
","""event"",""trial"",""time""
""fullscreenenter"",""0"",""1890""
","
","null","run_exp/static/images/Set 6_rs/150a.jpg","null","","","","","","learn","SR",""
"","show_choice","5","45563","0.0-5.0","""event"",""trial"",""time""
""fullscreenenter"",""0"",""1890""
","
","
","""event"",""trial"",""time""
""fullscreenenter"",""0"",""1890""
","
","null","run_exp/static/images/blank.png","null","","","","","","learn","SR",""
"","html-keyboard-response","6","46070","0.0-6.0","""event"",""trial"",""time""
""fullscreenenter"",""0"",""1890""
","
","
","""event"",""trial"",""time""
""fullscreenenter"",""0"",""1890""
","
","null","<p></p>","null","","","","","","","",""
"","image","7","47274","0.0-7.0","""event"",""trial"",""time""
""fullscreenenter"",""0"",""1890""
","
","
","""event"",""trial"",""time""
""fullscreenenter"",""0"",""1890""
","
","1201.0999999999767","run_exp/static/images/Set 6_rs/095a.jpg","86","","","","","","learn","SL",""
"","show_choice","8","48080","0.0-8.0","""event"",""trial"",""time""
""fullscreenenter"",""0"",""1890""
","
","
","""event"",""trial"",""time""
""fullscreenenter"",""0"",""1890""
","
","null","run_exp/static/images/Set 6_rs/095a.jpg","null","","","","","","learn","SL",""
"","html-keyboard-response","9","48587","0.0-9.0","""event"",""trial"",""time""
""fullscreenenter"",""0"",""1890""
","
","
","""event"",""trial"",""time""
""fullscreenenter"",""0"",""1890""
","
","null","<p></p>","null","","","","","","","",""
"","image","10","50133","0.0-10.0","""event"",""trial"",""time""
""fullscreenenter"",""0"",""1890""
","
","
","""event"",""trial"",""time""
""fullscreenenter"",""0"",""1890""
","
","1544.7000000000698","run_exp/static/images/Set 6_rs/073a.jpg","86","","","","","","learn","SL",""
"","show_choice","11","50595","0.0-11.0","""event"",""trial"",""time""
""fullscreenenter"",""0"",""1890""
","
","
","""event"",""trial"",""time""
""fullscreenenter"",""0"",""1890""
","
","null","run_exp/static/images/Set 6_rs/073a.jpg","null","","","","","","learn","SL",""
"","html-keyboard-response","12","51110","0.0-12.0","""event"",""trial"",""time""
""fullscreenenter"",""0"",""1890""
","
","
","""event"",""trial"",""time""
""fullscreenenter"",""0"",""1890""
","
","null","<p></p>","null","","","","","","","",""
"","image","13","52034","0.0-13.0","""event"",""trial"",""time""
""fullscreenenter"",""0"",""1890""
","
","
","""event"",""trial"",""time""
""fullscreenenter"",""0"",""1890""
","
","921.0999999999767","run_exp/static/images/Set 6_rs/085a.jpg","86","","","","","","learn","SL",""
"","show_choice","14","53125","0.0-14.0","""event"",""trial"",""time""
""fullscreenenter"",""0"",""1890""
","
","
","""event"",""trial"",""time""
""fullscreenenter"",""0"",""1890""
","
","null","run_exp/static/images/Set 6_rs/085a.jpg","null","","","","","","learn","SL",""
"","html-keyboard-response","15","53633","0.0-15.0","""event"",""trial"",""time""
""fullscreenenter"",""0"",""1890""
","
","
","""event"",""trial"",""time""
""fullscreenenter"",""0"",""1890""
","
","null","<p></p>","null","","","","","","","",""
"","image","16","54684","0.0-16.0","""event"",""trial"",""time""
""fullscreenenter"",""0"",""1890""
","
","
","""event"",""trial"",""time""
""fullscreenenter"",""0"",""1890""
","
","1049.3000000000466","run_exp/static/images/Set 6_rs/079a.jpg","86","","","","","","learn","SL",""
"","show_choice","17","55639","0.0-17.0","""event"",""trial"",""time""
""fullscreenenter"",""0"",""1890""
","
","
","""event"",""trial"",""time""
""fullscreenenter"",""0"",""1890""
","
","null","run_exp/static/images/Set 6_rs/079a.jpg","null","","","","","","learn","SL",""
"","html-keyboard-response","18","56149","0.0-18.0","""event"",""trial"",""time""
""fullscreenenter"",""0"",""1890""
","
","
","""event"",""trial"",""time""
""fullscreenenter"",""0"",""1890""
","
","null","<p></p>","null","","","","","","","",""
"","image","19","57159","0.0-19.0","""event"",""trial"",""time""
""fullscreenenter"",""0"",""1890""
","
","
","""event"",""trial"",""time""
""fullscreenenter"",""0"",""1890""
","
","1008","run_exp/static/images/Set 6_rs/172a.jpg","78","","","","","","learn","SR",""
"","show_choice","20","58160","0.0-20.0","""event"",""trial"",""time""
""fullscreenenter"",""0"",""1890""
","
","
","""event"",""trial"",""time""
""fullscreenenter"",""0"",""1890""
","
","null","run_exp/static/images/Set 6_rs/172a.jpg","null","","","","","","learn","SR",""
"","html-keyboard-response","21","58669","0.0-21.0","""event"",""trial"",""time""
""fullscreenenter"",""0"",""1890""
","
","
","""event"",""trial"",""time""
""fullscreenenter"",""0"",""1890""
","
","null","<p></p>","null","","","","","","","",""
"","image","22","59967","0.0-22.0","""event"",""trial"",""time""
""fullscreenenter"",""0"",""1890""
","
","
","""event"",""trial"",""time""
""fullscreenenter"",""0"",""1890""
","
","1295","run_exp/static/images/Set 6_rs/141a.jpg","78","","","","","","learn","SR",""
"","show_choice","23","60676","0.0-23.0","""event"",""trial"",""time""
""fullscreenenter"",""0"",""1890""
","
","
","""event"",""trial"",""time""
""fullscreenenter"",""0"",""1890""
","
","null","run_exp/static/images/Set 6_rs/141a.jpg","null","","","","","","learn","SR",""
"","html-keyboard-response","24","61181","0.0-24.0","""event"",""trial"",""time""
""fullscreenenter"",""0"",""1890""
","
","
","""event"",""trial"",""time""
""fullscreenenter"",""0"",""1890""
","
","null","<p></p>","null","","","","","","","",""
"","image","25","61852","0.0-25.0","""event"",""trial"",""time""
""fullscreenenter"",""0"",""1890""
","
","
","""event"",""trial"",""time""
""fullscreenenter"",""0"",""1890""
","
","669.0999999999767","run_exp/static/images/Set 6_rs/007a.jpg","86","","","","","","learn","SR",""
"","show_choice","26","63183","0.0-26.0","""event"",""trial"",""time""
""fullscreenenter"",""0"",""1890""
","
","
","""event"",""trial"",""time""
""fullscreenenter"",""0"",""1890""
","
","null","run_exp/static/images/Set 6_rs/007a.jpg","null","","","","","","learn","SR",""
"","html-keyboard-response","27","63692","0.0-27.0","""event"",""trial"",""time""
""fullscreenenter"",""0"",""1890""
","
","
","""event"",""trial"",""time""
""fullscreenenter"",""0"",""1890""
","
","null","<p></p>","null","","","","","","","",""
"","image","28","64535","0.0-28.0","""event"",""trial"",""time""
""fullscreenenter"",""0"",""1890""
","
","
","""event"",""trial"",""time""
""fullscreenenter"",""0"",""1890""
","
","840.1999999999534","run_exp/static/images/Set 6_rs/024a.jpg","86","","","","","","learn","SR",""
"","show_choice","29","65696","0.0-29.0","""event"",""trial"",""time""
""fullscreenenter"",""0"",""1890""
","
","
","""event"",""trial"",""time""
""fullscreenenter"",""0"",""1890""
","
","null","run_exp/static/images/Set 6_rs/024a.jpg","null","","","","","","learn","SR",""
"","html-keyboard-response","30","66199","0.0-30.0","""event"",""trial"",""time""
""fullscreenenter"",""0"",""1890""
","
","
","""event"",""trial"",""time""
""fullscreenenter"",""0"",""1890""
","
","null","<p></p>","null","","","","","","","",""
"","image","31","66879","0.0-31.0","""event"",""trial"",""time""
""fullscreenenter"",""0"",""1890""
","
","
","""event"",""trial"",""time""
""fullscreenenter"",""0"",""1890""
","
","677.5999999999767","run_exp/static/images/Set 6_rs/070a.jpg","86","","","","","","learn","SR",""
"","show_choice","32","68207","0.0-32.0","""event"",""trial"",""time""
""fullscreenenter"",""0"",""1890""
","
","
","""event"",""trial"",""time""
""fullscreenenter"",""0"",""1890""
","
","null","run_exp/static/images/Set 6_rs/070a.jpg","null","","","","","","learn","SR",""
"","html-keyboard-response","33","68716","0.0-33.0","""event"",""trial"",""time""
""fullscreenenter"",""0"",""1890""
","
","
","""event"",""trial"",""time""
""fullscreenenter"",""0"",""1890""
","
","null","<p></p>","null","","","","","","","",""
"","image","34","69560","0.0-34.0","""event"",""trial"",""time""
""fullscreenenter"",""0"",""1890""
","
","
","""event"",""trial"",""time""
""fullscreenenter"",""0"",""1890""
","
","841.5","run_exp/static/images/Set 6_rs/074a.jpg","78","","","","","","learn","SL",""
"","show_choice","35","70723","0.0-35.0","""event"",""trial"",""time""
""fullscreenenter"",""0"",""1890""
","
","
","""event"",""trial"",""time""
""fullscreenenter"",""0"",""1890""
","
","null","run_exp/static/images/Set 6_rs/074a.jpg","null","","","","","","learn","SL",""
"","html-keyboard-response","36","71226","0.0-36.0","""event"",""trial"",""time""
""fullscreenenter"",""0"",""1890""
","
","
","""event"",""trial"",""time""
""fullscreenenter"",""0"",""1890""
","
","null","<p></p>","null","","","","","","","",""
"","image","37","72434","0.0-37.0","""event"",""trial"",""time""
""fullscreenenter"",""0"",""1890""
","
","
","""event"",""trial"",""time""
""fullscreenenter"",""0"",""1890""
","
","1206.0999999999767","run_exp/static/images/Set 6_rs/016a.jpg","86","","","","","","learn","SL",""
"","show_choice","38","73233","0.0-38.0","""event"",""trial"",""time""
""fullscreenenter"",""0"",""1890""
","
","
","""event"",""trial"",""time""
""fullscreenenter"",""0"",""1890""
","
","null","run_exp/static/images/Set 6_rs/016a.jpg","null","","","","","","learn","SL",""
"","html-keyboard-response","39","73739","0.0-39.0","""event"",""trial"",""time""
""fullscreenenter"",""0"",""1890""
","
","
","""event"",""trial"",""time""
""fullscreenenter"",""0"",""1890""
","
","null","<p></p>","null","","","","","","","",""
"","image","40","74532","0.0-40.0","""event"",""trial"",""time""
""fullscreenenter"",""0"",""1890""
","
","
","""event"",""trial"",""time""
""fullscreenenter"",""0"",""1890""
","
","791.3000000000466","run_exp/static/images/Set 6_rs/055a.jpg","86","","","","","","learn","SL",""
"","show_choice","41","75747","0.0-41.0","""event"",""trial"",""time""
""fullscreenenter"",""0"",""1890""
","
","
","""event"",""trial"",""time""
""fullscreenenter"",""0"",""1890""
","
","null","run_exp/static/images/Set 6_rs/055a.jpg","null","","","","","","learn","SL",""
"","html-keyboard-response","42","76251","0.0-42.0","""event"",""trial"",""time""
""fullscreenenter"",""0"",""1890""
","
","
","""event"",""trial"",""time""
""fullscreenenter"",""0"",""1890""
","
","null","<p></p>","null","","","","","","","",""
"","image","43","77576","0.0-43.0","""event"",""trial"",""time""
""fullscreenenter"",""0"",""1890""
","
","
","""event"",""trial"",""time""
""fullscreenenter"",""0"",""1890""
","
","1322.5999999999767","run_exp/static/images/Set 6_rs/121a.jpg","86","","","","","","learn","SR",""
"","show_choice","44","78255","0.0-44.0","""event"",""trial"",""time""
""fullscreenenter"",""0"",""1890""
","
","
","""event"",""trial"",""time""
""fullscreenenter"",""0"",""1890""
","
","null","run_exp/static/images/Set 6_rs/121a.jpg","null","","","","","","learn","SR",""
"","html-keyboard-response","45","78763","0.0-45.0","""event"",""trial"",""time""
""fullscreenenter"",""0"",""1890""
","
","
","""event"",""trial"",""time""
""fullscreenenter"",""0"",""1890""
","
","null","<p></p>","null","","","","","","","",""
"","image","46","80009","0.0-46.0","""event"",""trial"",""time""
""fullscreenenter"",""0"",""1890""
","
","
","""event"",""trial"",""time""
""fullscreenenter"",""0"",""1890""
","
","1243.7999999999302","run_exp/static/images/Set 6_rs/132a.jpg","78","","","","","","learn","SR",""
"","show_choice","47","80773","0.0-47.0","""event"",""trial"",""time""
""fullscreenenter"",""0"",""1890""
","
","
","""event"",""trial"",""time""
""fullscreenenter"",""0"",""1890""
","
","null","run_exp/static/images/Set 6_rs/132a.jpg","null","","","","","","learn","SR",""
"","html-keyboard-response","48","81279","0.0-48.0","""event"",""trial"",""time""
""fullscreenenter"",""0"",""1890""
","
","
","""event"",""trial"",""time""
""fullscreenenter"",""0"",""1890""
","
","null","<p></p>","null","","","","","","","",""
"","image","49","82939","0.0-49.0","""event"",""trial"",""time""
""fullscreenenter"",""0"",""1890""
","
","
","""event"",""trial"",""time""
""fullscreenenter"",""0"",""1890""
","
","1657.3999999999069","run_exp/static/images/Set 6_rs/066a.jpg","78","","","","","","learn","SL",""
"","show_choice","50","83292","0.0-50.0","""event"",""trial"",""time""
""fullscreenenter"",""0"",""1890""
","
","
","""event"",""trial"",""time""
""fullscreenenter"",""0"",""1890""
","
","null","run_exp/static/images/Set 6_rs/066a.jpg","null","","","","","","learn","SL",""
"","html-keyboard-response","51","83802","0.0-51.0","""event"",""trial"",""time""
""fullscreenenter"",""0"",""1890""
","
","
","""event"",""trial"",""time""
""fullscreenenter"",""0"",""1890""
","
","null","<p></p>","null","","","","","","","",""
"","image","52","85125","0.0-52.0","""event"",""trial"",""time""
""fullscreenenter"",""0"",""1890""
","
","
","""event"",""trial"",""time""
""fullscreenenter"",""0"",""1890""
","
","1320","run_exp/static/images/Set 6_rs/186a.jpg","86","","","","","","learn","SR",""
"","show_choice","53","85811","0.0-53.0","""event"",""trial"",""time""
""fullscreenenter"",""0"",""1890""
","
","
","""event"",""trial"",""time""
""fullscreenenter"",""0"",""1890""
","
","null","run_exp/static/images/Set 6_rs/186a.jpg","null","","","","","","learn","SR",""
"","html-keyboard-response","54","86317","0.0-54.0","""event"",""trial"",""time""
""fullscreenenter"",""0"",""1890""
","
","
","""event"",""trial"",""time""
""fullscreenenter"",""0"",""1890""
","
","null","<p></p>","null","","","","","","","",""
"","image","55","87675","0.0-55.0","""event"",""trial"",""time""
""fullscreenenter"",""0"",""1890""
","
","
","""event"",""trial"",""time""
""fullscreenenter"",""0"",""1890""
","
","1355.6999999999534","run_exp/static/images/Set 6_rs/154a.jpg","86","","","","","","learn","SR",""
"","show_choice","56","88325","0.0-56.0","""event"",""trial"",""time""
""fullscreenenter"",""0"",""1890""
","
","
","""event"",""trial"",""time""
""fullscreenenter"",""0"",""1890""
","
","null","run_exp/static/images/Set 6_rs/154a.jpg","null","","","","","","learn","SR",""
"","html-keyboard-response","57","88828","0.0-57.0","""event"",""trial"",""time""
""fullscreenenter"",""0"",""1890""
","
","
","""event"",""trial"",""time""
""fullscreenenter"",""0"",""1890""
","
","null","<p></p>","null","","","","","","","",""
"","image","58","89650","0.0-58.0","""event"",""trial"",""time""
""fullscreenenter"",""0"",""1890""
","
","
","""event"",""trial"",""time""
""fullscreenenter"",""0"",""1890""
","
","819.6999999999534","run_exp/static/images/Set 6_rs/131a.jpg","86","","","","","","learn","SR",""
"","show_choice","59","90833","0.0-59.0","""event"",""trial"",""time""
""fullscreenenter"",""0"",""1890""
","
","
","""event"",""trial"",""time""
""fullscreenenter"",""0"",""1890""
","
","null","run_exp/static/images/Set 6_rs/131a.jpg","null","","","","","","learn","SR",""
"","html-keyboard-response","60","91339","0.0-60.0","""event"",""trial"",""time""
""fullscreenenter"",""0"",""1890""
","
","
","""event"",""trial"",""time""
""fullscreenenter"",""0"",""1890""
","
","null","<p></p>","null","","","","","","","",""
"","image","61","91904","0.0-61.0","""event"",""trial"",""time""
""fullscreenenter"",""0"",""1890""
","
","
","""event"",""trial"",""time""
""fullscreenenter"",""0"",""1890""
","
","562.7000000000698","run_exp/static/images/Set 6_rs/045a.jpg","86","","","","","","learn","SR",""
"","show_choice","62","93347","0.0-62.0","""event"",""trial"",""time""
""fullscreenenter"",""0"",""1890""
","
","
","""event"",""trial"",""time""
""fullscreenenter"",""0"",""1890""
","
","null","run_exp/static/images/Set 6_rs/045a.jpg","null","","","","","","learn","SR",""
"","html-keyboard-response","63","93856","0.0-63.0","""event"",""trial"",""time""
""fullscreenenter"",""0"",""1890""
","
","
","""event"",""trial"",""time""
""fullscreenenter"",""0"",""1890""
","
","null","<p></p>","null","","","","","","","",""
"","image","64","94483","0.0-64.0","""event"",""trial"",""time""
""fullscreenenter"",""0"",""1890""
","
","
","""event"",""trial"",""time""
""fullscreenenter"",""0"",""1890""
","
","624.5999999999767","run_exp/static/images/Set 6_rs/111a.jpg","86","","","","","","learn","SL",""
"","show_choice","65","95875","0.0-65.0","""event"",""trial"",""time""
""fullscreenenter"",""0"",""1890""
","
","
","""event"",""trial"",""time""
""fullscreenenter"",""0"",""1890""
","
","null","run_exp/static/images/Set 6_rs/111a.jpg","null","","","","","","learn","SL",""
"","html-keyboard-response","66","96382","0.0-66.0","""event"",""trial"",""time""
""fullscreenenter"",""0"",""1890""
","
","
","""event"",""trial"",""time""
""fullscreenenter"",""0"",""1890""
","
","null","<p></p>","null","","","","","","","",""
"","image","67","97372","0.0-67.0","""event"",""trial"",""time""
""fullscreenenter"",""0"",""1890""
","
","
","""event"",""trial"",""time""
""fullscreenenter"",""0"",""1890""
","
","988.1000000000931","run_exp/static/images/Set 6_rs/169a.jpg","78","","","","","","learn","SR",""
"","show_choice","68","98394","0.0-68.0","""event"",""trial"",""time""
""fullscreenenter"",""0"",""1890""
","
","
","""event"",""trial"",""time""
""fullscreenenter"",""0"",""1890""
","
","null","run_exp/static/images/Set 6_rs/169a.jpg","null","","","","","","learn","SR",""
"","html-keyboard-response","69","98905","0.0-69.0","""event"",""trial"",""time""
""fullscreenenter"",""0"",""1890""
","
","
","""event"",""trial"",""time""
""fullscreenenter"",""0"",""1890""
","
","null","<p></p>","null","","","","","","","",""
"","image","70","100752","0.0-70.0","""event"",""trial"",""time""
""fullscreenenter"",""0"",""1890""
","
","
","""event"",""trial"",""time""
""fullscreenenter"",""0"",""1890""
","
","1844.8000000000466","run_exp/static/images/Set 6_rs/166a.jpg","86","","","","","","learn","SR",""
"","show_choice","71","100916","0.0-71.0","""event"",""trial"",""time""
""fullscreenenter"",""0"",""1890""
","
","
","""event"",""trial"",""time""
""fullscreenenter"",""0"",""1890""
","
","null","run_exp/static/images/Set 6_rs/166a.jpg","null","","","","","","learn","SR",""
"","html-keyboard-response","72","101421","0.0-72.0","""event"",""trial"",""time""
""fullscreenenter"",""0"",""1890""
","
","
","""event"",""trial"",""time""
""fullscreenenter"",""0"",""1890""
","
","null","<p></p>","null","","","","","","","",""
"","image","73","102559","0.0-73.0","""event"",""trial"",""time""
""fullscreenenter"",""0"",""1890""
","
","
","""event"",""trial"",""time""
""fullscreenenter"",""0"",""1890""
","
","1136","run_exp/static/images/Set 6_rs/050a.jpg","86","","","","","","learn","SL",""
"","show_choice","74","103427","0.0-74.0","""event"",""trial"",""time""
""fullscreenenter"",""0"",""1890""
","
","
","""event"",""trial"",""time""
""fullscreenenter"",""0"",""1890""
","
","null","run_exp/static/images/Set 6_rs/050a.jpg","null","","","","","","learn","SL",""
"","html-keyboard-response","75","103931","0.0-75.0","""event"",""trial"",""time""
""fullscreenenter"",""0"",""1890""
","
","
","""event"",""trial"",""time""
""fullscreenenter"",""0"",""1890""
","
","null","<p></p>","null","","","","","","","",""
"","image","76","104900","0.0-76.0","""event"",""trial"",""time""
""fullscreenenter"",""0"",""1890""
","
","
","""event"",""trial"",""time""
""fullscreenenter"",""0"",""1890""
","
","967.2999999999302","run_exp/static/images/Set 6_rs/089a.jpg","86","","","","","","learn","SL",""
"","show_choice","77","105939","0.0-77.0","""event"",""trial"",""time""
""fullscreenenter"",""0"",""1890""
","
","
","""event"",""trial"",""time""
""fullscreenenter"",""0"",""1890""
","
","null","run_exp/static/images/Set 6_rs/089a.jpg","null","","","","","","learn","SL",""
"","html-keyboard-response","78","106443","0.0-78.0","""event"",""trial"",""time""
""fullscreenenter"",""0"",""1890""
","
","
","""event"",""trial"",""time""
""fullscreenenter"",""0"",""1890""
","
","null","<p></p>","null","","","","","","","",""
"","image","79","107101","0.0-79.0","""event"",""trial"",""time""
""fullscreenenter"",""0"",""1890""
","
","
","""event"",""trial"",""time""
""fullscreenenter"",""0"",""1890""
","
","655.6999999999534","run_exp/static/images/Set 6_rs/108a.jpg","86","","","","","","learn","SR",""
"","show_choice","80","108454","0.0-80.0","""event"",""trial"",""time""
""fullscreenenter"",""0"",""1890""
","
","
","""event"",""trial"",""time""
""fullscreenenter"",""0"",""1890""
","
","null","run_exp/static/images/Set 6_rs/108a.jpg","null","","","","","","learn","SR",""
"","html-keyboard-response","81","108967","0.0-81.0","""event"",""trial"",""time""
""fullscreenenter"",""0"",""1890""
","
","
","""event"",""trial"",""time""
""fullscreenenter"",""0"",""1890""
","
","null","<p></p>","null","","","","","","","",""
"","image","82","109874","0.0-82.0","""event"",""trial"",""time""
""fullscreenenter"",""0"",""1890""
","
","
","""event"",""trial"",""time""
""fullscreenenter"",""0"",""1890""
","
","905","run_exp/static/images/Set 6_rs/076a.jpg","78","","","","","","learn","SR",""
"","show_choice","83","110982","0.0-83.0","""event"",""trial"",""time""
""fullscreenenter"",""0"",""1890""
","
","
","""event"",""trial"",""time""
""fullscreenenter"",""0"",""1890""
","
","null","run_exp/static/images/Set 6_rs/076a.jpg","null","","","","","","learn","SR",""
"","html-keyboard-response","84","111491","0.0-84.0","""event"",""trial"",""time""
""fullscreenenter"",""0"",""1890""
","
","
","""event"",""trial"",""time""
""fullscreenenter"",""0"",""1890""
","
","null","<p></p>","null","","","","","","","",""
"","image","85","112067","0.0-85.0","""event"",""trial"",""time""
""fullscreenenter"",""0"",""1890""
","
","
","""event"",""trial"",""time""
""fullscreenenter"",""0"",""1890""
","
","574.9000000000233","run_exp/static/images/Set 6_rs/134a.jpg","86","","","","","","learn","SR",""
"","show_choice","86","113499","0.0-86.0","""event"",""trial"",""time""
""fullscreenenter"",""0"",""1890""
","
","
","""event"",""trial"",""time""
""fullscreenenter"",""0"",""1890""
","
","null","run_exp/static/images/Set 6_rs/134a.jpg","null","","","","","","learn","SR",""
"","html-keyboard-response","87","114000","0.0-87.0","""event"",""trial"",""time""
""fullscreenenter"",""0"",""1890""
","
","
","""event"",""trial"",""time""
""fullscreenenter"",""0"",""1890""
","
","null","<p></p>","null","","","","","","","",""
"","image","88","115484","0.0-88.0","""event"",""trial"",""time""
""fullscreenenter"",""0"",""1890""
","
","
","""event"",""trial"",""time""
""fullscreenenter"",""0"",""1890""
","
","1482","run_exp/static/images/Set 6_rs/129a.jpg","86","","","","","","learn","SL",""
"","show_choice","89","116016","0.0-89.0","""event"",""trial"",""time""
""fullscreenenter"",""0"",""1890""
","
","
","""event"",""trial"",""time""
""fullscreenenter"",""0"",""1890""
","
","null","run_exp/static/images/Set 6_rs/129a.jpg","null","","","","","","learn","SL",""
"","html-keyboard-response","90","116526","0.0-90.0","""event"",""trial"",""time""
""fullscreenenter"",""0"",""1890""
","
","
","""event"",""trial"",""time""
""fullscreenenter"",""0"",""1890""
","
","null","<p></p>","null","","","","","","","",""
"","image","91","117547","0.0-91.0","""event"",""trial"",""time""
""fullscreenenter"",""0"",""1890""
","
","
","""event"",""trial"",""time""
""fullscreenenter"",""0"",""1890""
","
","1018.8000000000466","run_exp/static/images/Set 6_rs/168a.jpg","86","","","","","","learn","SL",""
"","show_choice","92","118534","0.0-92.0","""event"",""trial"",""time""
""fullscreenenter"",""0"",""1890""
","
","
","""event"",""trial"",""time""
""fullscreenenter"",""0"",""1890""
","
","null","run_exp/static/images/Set 6_rs/168a.jpg","null","","","","","","learn","SL",""
"","html-keyboard-response","93","119042","0.0-93.0","""event"",""trial"",""time""
""fullscreenenter"",""0"",""1890""
","
","
","""event"",""trial"",""time""
""fullscreenenter"",""0"",""1890""
","
","null","<p></p>","null","","","","","","","",""
"","image","94","119633","0.0-94.0","""event"",""trial"",""time""
""fullscreenenter"",""0"",""1890""
","
","
","""event"",""trial"",""time""
""fullscreenenter"",""0"",""1890""
","
","588.9000000001397","run_exp/static/images/Set 6_rs/181a.jpg","86","","","","","","learn","SL",""
"","show_choice","95","121049","0.0-95.0","""event"",""trial"",""time""
""fullscreenenter"",""0"",""1890""
","
","
","""event"",""trial"",""time""
""fullscreenenter"",""0"",""1890""
","
","null","run_exp/static/images/Set 6_rs/181a.jpg","null","","","","","","learn","SL",""
"","html-keyboard-response","96","121563","0.0-96.0","""event"",""trial"",""time""
""fullscreenenter"",""0"",""1890""
","
","
","""event"",""trial"",""time""
""fullscreenenter"",""0"",""1890""
","
","null","<p></p>","null","","","","","","","",""
"","image","97","122325","0.0-97.0","""event"",""trial"",""time""
""fullscreenenter"",""0"",""1890""
","
","
","""event"",""trial"",""time""
""fullscreenenter"",""0"",""1890""
","
","760.5999999998603","run_exp/static/images/Set 6_rs/057a.jpg","86","","","","","","learn","SL",""
"","show_choice","98","123568","0.0-98.0","""event"",""trial"",""time""
""fullscreenenter"",""0"",""1890""
","
","
","""event"",""trial"",""time""
""fullscreenenter"",""0"",""1890""
","
","null","run_exp/static/images/Set 6_rs/057a.jpg","null","","","","","","learn","SL",""
"","html-keyboard-response","99","124073","0.0-99.0","""event"",""trial"",""time""
""fullscreenenter"",""0"",""1890""
","
","
","""event"",""trial"",""time""
""fullscreenenter"",""0"",""1890""
","
","null","<p></p>","null","","","","","","","",""
"","image","100","124863","0.0-100.0","""event"",""trial"",""time""
""fullscreenenter"",""0"",""1890""
","
","
","""event"",""trial"",""time""
""fullscreenenter"",""0"",""1890""
","
","787.8000000000466","run_exp/static/images/Set 6_rs/071a.jpg","86","","","","","","learn","SL",""
"","show_choice","101","126082","0.0-101.0","""event"",""trial"",""time""
""fullscreenenter"",""0"",""1890""
","
","
","""event"",""trial"",""time""
""fullscreenenter"",""0"",""1890""
","
","null","run_exp/static/images/Set 6_rs/071a.jpg","null","","","","","","learn","SL",""
"","html-keyboard-response","102","126592","0.0-102.0","""event"",""trial"",""time""
""fullscreenenter"",""0"",""1890""
","
","
","""event"",""trial"",""time""
""fullscreenenter"",""0"",""1890""
","
","null","<p></p>","null","","","","","","","",""
"","image","103","127256","0.0-103.0","""event"",""trial"",""time""
""fullscreenenter"",""0"",""1890""
","
","
","""event"",""trial"",""time""
""fullscreenenter"",""0"",""1890""
","
","663.1999999999534","run_exp/static/images/Set 6_rs/023a.jpg","86","","","","","","learn","SR",""
"","show_choice","104","128599","0.0-104.0","""event"",""trial"",""time""
""fullscreenenter"",""0"",""1890""
","
","
","""event"",""trial"",""time""
""fullscreenenter"",""0"",""1890""
","
","null","run_exp/static/images/Set 6_rs/023a.jpg","null","","","","","","learn","SR",""
"","html-keyboard-response","105","129115","0.0-105.0","""event"",""trial"",""time""
""fullscreenenter"",""0"",""1890""
","
","
","""event"",""trial"",""time""
""fullscreenenter"",""0"",""1890""
","
","null","<p></p>","null","","","","","","","",""
"","image","106","129736","0.0-106.0","""event"",""trial"",""time""
""fullscreenenter"",""0"",""1890""
","
","
","""event"",""trial"",""time""
""fullscreenenter"",""0"",""1890""
","
","619.3000000000466","run_exp/static/images/Set 6_rs/025a.jpg","78","","","","","","learn","SL",""
"","show_choice","107","131128","0.0-107.0","""event"",""trial"",""time""
""fullscreenenter"",""0"",""1890""
","
","
","""event"",""trial"",""time""
""fullscreenenter"",""0"",""1890""
","
","null","run_exp/static/images/Set 6_rs/025a.jpg","null","","","","","","learn","SL",""
"","html-keyboard-response","108","131634","0.0-108.0","""event"",""trial"",""time""
""fullscreenenter"",""0"",""1890""
","
","
","""event"",""trial"",""time""
""fullscreenenter"",""0"",""1890""
","
","null","<p></p>","null","","","","","","","",""
"","image","109","132240","0.0-109.0","""event"",""trial"",""time""
""fullscreenenter"",""0"",""1890""
","
","
","""event"",""trial"",""time""
""fullscreenenter"",""0"",""1890""
","
","604.0999999998603","run_exp/static/images/Set 6_rs/063a.jpg","86","","","","","","learn","SR",""
"","show_choice","110","133642","0.0-110.0","""event"",""trial"",""time""
""fullscreenenter"",""0"",""1890""
","
","
","""event"",""trial"",""time""
""fullscreenenter"",""0"",""1890""
","
","null","run_exp/static/images/Set 6_rs/063a.jpg","null","","","","","","learn","SR",""
"","html-keyboard-response","111","134147","0.0-111.0","""event"",""trial"",""time""
""fullscreenenter"",""0"",""1890""
","
","
","""event"",""trial"",""time""
""fullscreenenter"",""0"",""1890""
","
","null","<p></p>","null","","","","","","","",""
"","image","112","135375","0.0-112.0","""event"",""trial"",""time""
""fullscreenenter"",""0"",""1890""
","
","
","""event"",""trial"",""time""
""fullscreenenter"",""0"",""1890""
","
","1226.1999999999534","run_exp/static/images/Set 6_rs/008a.jpg","86","","","","","","learn","SL",""
"","show_choice","113","136153","0.0-113.0","""event"",""trial"",""time""
""fullscreenenter"",""0"",""1890""
","
","
","""event"",""trial"",""time""
""fullscreenenter"",""0"",""1890""
","
","null","run_exp/static/images/Set 6_rs/008a.jpg","null","","","","","","learn","SL",""
"","html-keyboard-response","114","136658","0.0-114.0","""event"",""trial"",""time""
""fullscreenenter"",""0"",""1890""
","
","
","""event"",""trial"",""time""
""fullscreenenter"",""0"",""1890""
","
","null","<p></p>","null","","","","","","","",""
"","image","115","137476","0.0-115.0","""event"",""trial"",""time""
""fullscreenenter"",""0"",""1890""
","
","
","""event"",""trial"",""time""
""fullscreenenter"",""0"",""1890""
","
","815.8000000000466","run_exp/static/images/Set 6_rs/167a.jpg","86","","","","","","learn","SL",""
"","show_choice","116","138667","0.0-116.0","""event"",""trial"",""time""
""fullscreenenter"",""0"",""1890""
","
","
","""event"",""trial"",""time""
""fullscreenenter"",""0"",""1890""
","
","null","run_exp/static/images/Set 6_rs/167a.jpg","null","","","","","","learn","SL",""
"","html-keyboard-response","117","139172","0.0-117.0","""event"",""trial"",""time""
""fullscreenenter"",""0"",""1890""
","
","
","""event"",""trial"",""time""
""fullscreenenter"",""0"",""1890""
","
","null","<p></p>","null","","","","","","","",""
"","image","118","140592","0.0-118.0","""event"",""trial"",""time""
""fullscreenenter"",""0"",""1890""
","
","
","""event"",""trial"",""time""
""fullscreenenter"",""0"",""1890""
","
","1417.5","run_exp/static/images/Set 6_rs/191a.jpg","78","","","","","","learn","SL",""
"","show_choice","119","141185","0.0-119.0","""event"",""trial"",""time""
""fullscreenenter"",""0"",""1890""
","
","
","""event"",""trial"",""time""
""fullscreenenter"",""0"",""1890""
","
","null","run_exp/static/images/Set 6_rs/191a.jpg","null","","","","","","learn","SL",""
"","html-keyboard-response","120","141689","0.0-120.0","""event"",""trial"",""time""
""fullscreenenter"",""0"",""1890""
","
","
","""event"",""trial"",""time""
""fullscreenenter"",""0"",""1890""
","
","null","<p></p>","null","","","","","","","",""
"","image","121","142466","0.0-121.0","""event"",""trial"",""time""
""fullscreenenter"",""0"",""1890""
","
","
","""event"",""trial"",""time""
""fullscreenenter"",""0"",""1890""
","
","774.3999999999069","run_exp/static/images/Set 6_rs/138a.jpg","78","","","","","","learn","SL",""
"","show_choice","122","143692","0.0-122.0","""event"",""trial"",""time""
""fullscreenenter"",""0"",""1890""
","
","
","""event"",""trial"",""time""
""fullscreenenter"",""0"",""1890""
","
","null","run_exp/static/images/Set 6_rs/138a.jpg","null","","","","","","learn","SL",""
"","html-keyboard-response","123","144194","0.0-123.0","""event"",""trial"",""time""
""fullscreenenter"",""0"",""1890""
","
","
","""event"",""trial"",""time""
""fullscreenenter"",""0"",""1890""
","
","null","<p></p>","null","","","","","","","",""
"","image","124","144840","0.0-124.0","""event"",""trial"",""time""
""fullscreenenter"",""0"",""1890""
","
","
","""event"",""trial"",""time""
""fullscreenenter"",""0"",""1890""
","
","644.6000000000931","run_exp/static/images/Set 6_rs/144a.jpg","86","","","","","","learn","SL",""
"","show_choice","125","146199","0.0-125.0","""event"",""trial"",""time""
""fullscreenenter"",""0"",""1890""
","
","
","""event"",""trial"",""time""
""fullscreenenter"",""0"",""1890""
","
","null","run_exp/static/images/Set 6_rs/144a.jpg","null","","","","","","learn","SL",""
"","html-keyboard-response","126","146705","0.0-126.0","""event"",""trial"",""time""
""fullscreenenter"",""0"",""1890""
","
","
","""event"",""trial"",""time""
""fullscreenenter"",""0"",""1890""
","
","null","<p></p>","null","","","","","","","",""
"","image","127","147499","0.0-127.0","""event"",""trial"",""time""
""fullscreenenter"",""0"",""1890""
","
","
","""event"",""trial"",""time""
""fullscreenenter"",""0"",""1890""
","
","792.1999999999534","run_exp/static/images/Set 6_rs/064a.jpg","78","","","","","","learn","SR",""
"","show_choice","128","148714","0.0-128.0","""event"",""trial"",""time""
""fullscreenenter"",""0"",""1890""
","
","
","""event"",""trial"",""time""
""fullscreenenter"",""0"",""1890""
","
","null","run_exp/static/images/Set 6_rs/064a.jpg","null","","","","","","learn","SR",""
"","html-keyboard-response","129","149218","0.0-129.0","""event"",""trial"",""time""
""fullscreenenter"",""0"",""1890""
","
","
","""event"",""trial"",""time""
""fullscreenenter"",""0"",""1890""
","
","null","<p></p>","null","","","","","","","",""
"","image","130","150083","0.0-130.0","""event"",""trial"",""time""
""fullscreenenter"",""0"",""1890""
","
","
","""event"",""trial"",""time""
""fullscreenenter"",""0"",""1890""
","
","863","run_exp/static/images/Set 6_rs/123a.jpg","78","","","","","","learn","SL",""
"","show_choice","131","151224","0.0-131.0","""event"",""trial"",""time""
""fullscreenenter"",""0"",""1890""
","
","
","""event"",""trial"",""time""
""fullscreenenter"",""0"",""1890""
","
","null","run_exp/static/images/Set 6_rs/123a.jpg","null","","","","","","learn","SL",""
"","html-keyboard-response","132","151730","0.0-132.0","""event"",""trial"",""time""
""fullscreenenter"",""0"",""1890""
","
","
","""event"",""trial"",""time""
""fullscreenenter"",""0"",""1890""
","
","null","<p></p>","null","","","","","","","",""
"","image","133","152261","0.0-133.0","""event"",""trial"",""time""
""fullscreenenter"",""0"",""1890""
","
","
","""event"",""trial"",""time""
""fullscreenenter"",""0"",""1890""
","
","528.9000000001397","run_exp/static/images/Set 6_rs/117a.jpg","86","","","","","","learn","SL",""
"","show_choice","134","153740","0.0-134.0","""event"",""trial"",""time""
""fullscreenenter"",""0"",""1890""
","
","
","""event"",""trial"",""time""
""fullscreenenter"",""0"",""1890""
","
","null","run_exp/static/images/Set 6_rs/117a.jpg","null","","","","","","learn","SL",""
"","html-keyboard-response","135","154246","0.0-135.0","""event"",""trial"",""time""
""fullscreenenter"",""0"",""1890""
","
","
","""event"",""trial"",""time""
""fullscreenenter"",""0"",""1890""
","
","null","<p></p>","null","","","","","","","",""
"","image","136","155346","0.0-136.0","""event"",""trial"",""time""
""fullscreenenter"",""0"",""1890""
","
","
","""event"",""trial"",""time""
""fullscreenenter"",""0"",""1890""
","
","1098.6000000000931","run_exp/static/images/Set 6_rs/122a.jpg","86","","","","","","learn","SR",""
"","show_choice","137","156267","0.0-137.0","""event"",""trial"",""time""
""fullscreenenter"",""0"",""1890""
","
","
","""event"",""trial"",""time""
""fullscreenenter"",""0"",""1890""
","
","null","run_exp/static/images/Set 6_rs/122a.jpg","null","","","","","","learn","SR",""
"","html-keyboard-response","138","156773","0.0-138.0","""event"",""trial"",""time""
""fullscreenenter"",""0"",""1890""
","
","
","""event"",""trial"",""time""
""fullscreenenter"",""0"",""1890""
","
","null","<p></p>","null","","","","","","","",""
"","image","139","157541","0.0-139.0","""event"",""trial"",""time""
""fullscreenenter"",""0"",""1890""
","
","
","""event"",""trial"",""time""
""fullscreenenter"",""0"",""1890""
","
","765.1999999999534","run_exp/static/images/Set 6_rs/088a.jpg","86","","","","","","learn","SR",""
"","show_choice","140","158777","0.0-140.0","""event"",""trial"",""time""
""fullscreenenter"",""0"",""1890""
","
","
","""event"",""trial"",""time""
""fullscreenenter"",""0"",""1890""
","
","null","run_exp/static/images/Set 6_rs/088a.jpg","null","","","","","","learn","SR",""
"","html-keyboard-response","141","159278","0.0-141.0","""event"",""trial"",""time""
""fullscreenenter"",""0"",""1890""
","
","
","""event"",""trial"",""time""
""fullscreenenter"",""0"",""1890""
","
","null","<p></p>","null","","","","","","","",""
"","image","142","160411","0.0-142.0","""event"",""trial"",""time""
""fullscreenenter"",""0"",""1890""
","
","
","""event"",""trial"",""time""
""fullscreenenter"",""0"",""1890""
","
","1129.5","run_exp/static/images/Set 6_rs/062a.jpg","86","","","","","","learn","SL",""
"","show_choice","143","161296","0.0-143.0","""event"",""trial"",""time""
""fullscreenenter"",""0"",""1890""
","
","
","""event"",""trial"",""time""
""fullscreenenter"",""0"",""1890""
","
","null","run_exp/static/images/Set 6_rs/062a.jpg","null","","","","","","learn","SL",""
"","html-keyboard-response","144","161804","0.0-144.0","""event"",""trial"",""time""
""fullscreenenter"",""0"",""1890""
","
","
","""event"",""trial"",""time""
""fullscreenenter"",""0"",""1890""
","
","null","<p></p>","null","","","","","","","",""
"","image","145","162562","0.0-145.0","""event"",""trial"",""time""
""fullscreenenter"",""0"",""1890""
","
","
","""event"",""trial"",""time""
""fullscreenenter"",""0"",""1890""
","
","755.3999999999069","run_exp/static/images/Set 6_rs/177a.jpg","78","","","","","","learn","SR",""
"","show_choice","146","163813","0.0-146.0","""event"",""trial"",""time""
""fullscreenenter"",""0"",""1890""
","
","
","""event"",""trial"",""time""
""fullscreenenter"",""0"",""1890""
","
","null","run_exp/static/images/Set 6_rs/177a.jpg","null","","","","","","learn","SR",""
"","html-keyboard-response","147","164324","0.0-147.0","""event"",""trial"",""time""
""fullscreenenter"",""0"",""1890""
","
","
","""event"",""trial"",""time""
""fullscreenenter"",""0"",""1890""
","
","null","<p></p>","null","","","","","","","",""
"","image","148","165570","0.0-148.0","""event"",""trial"",""time""
""fullscreenenter"",""0"",""1890""
","
","
","""event"",""trial"",""time""
""fullscreenenter"",""0"",""1890""
","
","1244.3999999999069","run_exp/static/images/Set 6_rs/010a.jpg","86","","","","","","learn","SR",""
"","show_choice","149","166331","0.0-149.0","""event"",""trial"",""time""
""fullscreenenter"",""0"",""1890""
","
","
","""event"",""trial"",""time""
""fullscreenenter"",""0"",""1890""
","
","null","run_exp/static/images/Set 6_rs/010a.jpg","null","","","","","","learn","SR",""
"","html-keyboard-response","150","166835","0.0-150.0","""event"",""trial"",""time""
""fullscreenenter"",""0"",""1890""
","
","
","""event"",""trial"",""time""
""fullscreenenter"",""0"",""1890""
","
","null","<p></p>","null","","","","","","","",""
"","image","151","167556","0.0-151.0","""event"",""trial"",""time""
""fullscreenenter"",""0"",""1890""
","
","
","""event"",""trial"",""time""
""fullscreenenter"",""0"",""1890""
","
","719.1999999999534","run_exp/static/images/Set 6_rs/116a.jpg","78","","","","","","learn","SL",""
"","show_choice","152","168843","0.0-152.0","""event"",""trial"",""time""
""fullscreenenter"",""0"",""1890""
","
","
","""event"",""trial"",""time""
""fullscreenenter"",""0"",""1890""
","
","null","run_exp/static/images/Set 6_rs/116a.jpg","null","","","","","","learn","SL",""
"","html-keyboard-response","153","169348","0.0-153.0","""event"",""trial"",""time""
""fullscreenenter"",""0"",""1890""
","
","
","""event"",""trial"",""time""
""fullscreenenter"",""0"",""1890""
","
","null","<p></p>","null","","","","","","","",""
"","image","154","170881","0.0-154.0","""event"",""trial"",""time""
""fullscreenenter"",""0"",""1890""
","
","
","""event"",""trial"",""time""
""fullscreenenter"",""0"",""1890""
","
","1530.8999999999069","run_exp/static/images/Set 6_rs/017a.jpg","86","","","","","","learn","SL",""
"","show_choice","155","171357","0.0-155.0","""event"",""trial"",""time""
""fullscreenenter"",""0"",""1890""
","
","
","""event"",""trial"",""time""
""fullscreenenter"",""0"",""1890""
","
","null","run_exp/static/images/Set 6_rs/017a.jpg","null","","","","","","learn","SL",""
"","html-keyboard-response","156","171866","0.0-156.0","""event"",""trial"",""time""
""fullscreenenter"",""0"",""1890""
","
","
","""event"",""trial"",""time""
""fullscreenenter"",""0"",""1890""
","
","null","<p></p>","null","","","","","","","",""
"","image","157","172847","0.0-157.0","""event"",""trial"",""time""
""fullscreenenter"",""0"",""1890""
","
","
","""event"",""trial"",""time""
""fullscreenenter"",""0"",""1890""
","
","978.8999999999069","run_exp/static/images/Set 6_rs/061a.jpg","78","","","","","","learn","SR",""
"","show_choice","158","173873","0.0-158.0","""event"",""trial"",""time""
""fullscreenenter"",""0"",""1890""
","
","
","""event"",""trial"",""time""
""fullscreenenter"",""0"",""1890""
","
","null","run_exp/static/images/Set 6_rs/061a.jpg","null","","","","","","learn","SR",""
"","html-keyboard-response","159","174380","0.0-159.0","""event"",""trial"",""time""
""fullscreenenter"",""0"",""1890""
","
","
","""event"",""trial"",""time""
""fullscreenenter"",""0"",""1890""
","
","null","<p></p>","null","","","","","","","",""
"","image","160","175086","0.0-160.0","""event"",""trial"",""time""
""fullscreenenter"",""0"",""1890""
","
","
","""event"",""trial"",""time""
""fullscreenenter"",""0"",""1890""
","
","703.3000000000466","run_exp/static/images/Set 6_rs/112a.jpg","86","","","","","","learn","SR",""
"","show_choice","161","176386","0.0-161.0","""event"",""trial"",""time""
""fullscreenenter"",""0"",""1890""
","
","
","""event"",""trial"",""time""
""fullscreenenter"",""0"",""1890""
","
","null","run_exp/static/images/Set 6_rs/112a.jpg","null","","","","","","learn","SR",""
"","html-keyboard-response","162","176889","0.0-162.0","""event"",""trial"",""time""
""fullscreenenter"",""0"",""1890""
","
","
","""event"",""trial"",""time""
""fullscreenenter"",""0"",""1890""
","
","null","<p></p>","null","","","","","","","",""
"","image","163","178245","0.0-163.0","""event"",""trial"",""time""
""fullscreenenter"",""0"",""1890""
","
","
","""event"",""trial"",""time""
""fullscreenenter"",""0"",""1890""
","
","1353.8000000000466","run_exp/static/images/Set 6_rs/006a.jpg","86","","","","","","learn","SL",""
"","show_choice","164","178901","0.0-164.0","""event"",""trial"",""time""
""fullscreenenter"",""0"",""1890""
","
","
","""event"",""trial"",""time""
""fullscreenenter"",""0"",""1890""
","
","null","run_exp/static/images/Set 6_rs/006a.jpg","null","","","","","","learn","SL",""
"","html-keyboard-response","165","179404","0.0-165.0","""event"",""trial"",""time""
""fullscreenenter"",""0"",""1890""
","
","
","""event"",""trial"",""time""
""fullscreenenter"",""0"",""1890""
","
","null","<p></p>","null","","","","","","","",""
"","image","166","180873","0.0-166.0","""event"",""trial"",""time""
""fullscreenenter"",""0"",""1890""
","
","
","""event"",""trial"",""time""
""fullscreenenter"",""0"",""1890""
","
","1466.1000000000931","run_exp/static/images/Set 6_rs/152a.jpg","86","","","","","","learn","SR",""
"","show_choice","167","181410","0.0-167.0","""event"",""trial"",""time""
""fullscreenenter"",""0"",""1890""
","
","
","""event"",""trial"",""time""
""fullscreenenter"",""0"",""1890""
","
","null","run_exp/static/images/Set 6_rs/152a.jpg","null","","","","","","learn","SR",""
"","html-keyboard-response","168","181917","0.0-168.0","""event"",""trial"",""time""
""fullscreenenter"",""0"",""1890""
","
","
","""event"",""trial"",""time""
""fullscreenenter"",""0"",""1890""
","
","null","<p></p>","null","","","","","","","",""
"","image","169","182898","0.0-169.0","""event"",""trial"",""time""
""fullscreenenter"",""0"",""1890""
","
","
","""event"",""trial"",""time""
""fullscreenenter"",""0"",""1890""
","
","979","run_exp/static/images/Set 6_rs/014a.jpg","86","","","","","","learn","SL",""
"","show_choice","170","183922","0.0-170.0","""event"",""trial"",""time""
""fullscreenenter"",""0"",""1890""
","
","
","""event"",""trial"",""time""
""fullscreenenter"",""0"",""1890""
","
","null","run_exp/static/images/Set 6_rs/014a.jpg","null","","","","","","learn","SL",""
"","html-keyboard-response","171","184429","0.0-171.0","""event"",""trial"",""time""
""fullscreenenter"",""0"",""1890""
","
","
","""event"",""trial"",""time""
""fullscreenenter"",""0"",""1890""
","
","null","<p></p>","null","","","","","","","",""
"","image","172","185125","0.0-172.0","""event"",""trial"",""time""
""fullscreenenter"",""0"",""1890""
","
","
","""event"",""trial"",""time""
""fullscreenenter"",""0"",""1890""
","
","693.1999999999534","run_exp/static/images/Set 6_rs/126a.jpg","78","","","","","","learn","SR",""
"","show_choice","173","186434","0.0-173.0","""event"",""trial"",""time""
""fullscreenenter"",""0"",""1890""
","
","
","""event"",""trial"",""time""
""fullscreenenter"",""0"",""1890""
","
","null","run_exp/static/images/Set 6_rs/126a.jpg","null","","","","","","learn","SR",""
"","html-keyboard-response","174","186937","0.0-174.0","""event"",""trial"",""time""
""fullscreenenter"",""0"",""1890""
","
","
","""event"",""trial"",""time""
""fullscreenenter"",""0"",""1890""
","
","null","<p></p>","null","","","","","","","",""
"","image","175","187613","0.0-175.0","""event"",""trial"",""time""
""fullscreenenter"",""0"",""1890""
","
","
","""event"",""trial"",""time""
""fullscreenenter"",""0"",""1890""
","
","674.5999999998603","run_exp/static/images/Set 6_rs/178a.jpg","78","","","","","","learn","SR",""
"","show_choice","176","188942","0.0-176.0","""event"",""trial"",""time""
""fullscreenenter"",""0"",""1890""
","
","
","""event"",""trial"",""time""
""fullscreenenter"",""0"",""1890""
","
","null","run_exp/static/images/Set 6_rs/178a.jpg","null","","","","","","learn","SR",""
"","html-keyboard-response","177","189451","0.0-177.0","""event"",""trial"",""time""
""fullscreenenter"",""0"",""1890""
","
","
","""event"",""trial"",""time""
""fullscreenenter"",""0"",""1890""
","
","null","<p></p>","null","","","","","","","",""
"","image","178","189971","0.0-178.0","""event"",""trial"",""time""
""fullscreenenter"",""0"",""1890""
","
","
","""event"",""trial"",""time""
""fullscreenenter"",""0"",""1890""
","
","517","run_exp/static/images/Set 6_rs/036a.jpg","86","","","","","","learn","SL",""
"","show_choice","179","191463","0.0-179.0","""event"",""trial"",""time""
""fullscreenenter"",""0"",""1890""
","
","
","""event"",""trial"",""time""
""fullscreenenter"",""0"",""1890""
","
","null","run_exp/static/images/Set 6_rs/036a.jpg","null","","","","","","learn","SL",""
"","html-keyboard-response","180","191966","0.0-180.0","""event"",""trial"",""time""
""fullscreenenter"",""0"",""1890""
","
","
","""event"",""trial"",""time""
""fullscreenenter"",""0"",""1890""
","
","null","<p></p>","null","","","","","","","",""
"","image","181","192972","0.0-181.0","""event"",""trial"",""time""
""fullscreenenter"",""0"",""1890""
","
","
","""event"",""trial"",""time""
""fullscreenenter"",""0"",""1890""
","
","1003.2000000001863","run_exp/static/images/Set 6_rs/187a.jpg","86","","","","","","learn","SR",""
"","show_choice","182","193971","0.0-182.0","""event"",""trial"",""time""
""fullscreenenter"",""0"",""1890""
","
","
","""event"",""trial"",""time""
""fullscreenenter"",""0"",""1890""
","
","null","run_exp/static/images/Set 6_rs/187a.jpg","null","","","","","","learn","SR",""
"","html-keyboard-response","183","194476","0.0-183.0","""event"",""trial"",""time""
""fullscreenenter"",""0"",""1890""
","
","
","""event"",""trial"",""time""
""fullscreenenter"",""0"",""1890""
","
","null","<p></p>","null","","","","","","","",""
"","image","184","195034","0.0-184.0","""event"",""trial"",""time""
""fullscreenenter"",""0"",""1890""
","
","
","""event"",""trial"",""time""
""fullscreenenter"",""0"",""1890""
","
","555.1000000000931","run_exp/static/images/Set 6_rs/012a.jpg","86","","","","","","learn","SR",""
"","show_choice","185","196479","0.0-185.0","""event"",""trial"",""time""
""fullscreenenter"",""0"",""1890""
","
","
","""event"",""trial"",""time""
""fullscreenenter"",""0"",""1890""
","
","null","run_exp/static/images/Set 6_rs/012a.jpg","null","","","","","","learn","SR",""
"","html-keyboard-response","186","196984","0.0-186.0","""event"",""trial"",""time""
""fullscreenenter"",""0"",""1890""
","
","
","""event"",""trial"",""time""
""fullscreenenter"",""0"",""1890""
","
","null","<p></p>","null","","","","","","","",""
"","image","187","197789","0.0-187.0","""event"",""trial"",""time""
""fullscreenenter"",""0"",""1890""
","
","
","""event"",""trial"",""time""
""fullscreenenter"",""0"",""1890""
","
","803.0999999998603","run_exp/static/images/Set 6_rs/075a.jpg","86","","","","","","learn","SR",""
"","show_choice","188","198999","0.0-188.0","""event"",""trial"",""time""
""fullscreenenter"",""0"",""1890""
","
","
","""event"",""trial"",""time""
""fullscreenenter"",""0"",""1890""
","
","null","run_exp/static/images/Set 6_rs/075a.jpg","null","","","","","","learn","SR",""
"","html-keyboard-response","189","199514","0.0-189.0","""event"",""trial"",""time""
""fullscreenenter"",""0"",""1890""
","
","
","""event"",""trial"",""time""
""fullscreenenter"",""0"",""1890""
","
","null","<p></p>","null","","","","","","","",""
"","image","190","200930","0.0-190.0","""event"",""trial"",""time""
""fullscreenenter"",""0"",""1890""
","
","
","""event"",""trial"",""time""
""fullscreenenter"",""0"",""1890""
","
","1413.7999999998137","run_exp/static/images/Set 6_rs/091a.jpg","78","","","","","","learn","SL",""
"","show_choice","191","201531","0.0-191.0","""event"",""trial"",""time""
""fullscreenenter"",""0"",""1890""
","
","
","""event"",""trial"",""time""
""fullscreenenter"",""0"",""1890""
","
","null","run_exp/static/images/Set 6_rs/091a.jpg","null","","","","","","learn","SL",""
"","html-keyboard-response","192","202036","0.0-192.0","""event"",""trial"",""time""
""fullscreenenter"",""0"",""1890""
","
","
","""event"",""trial"",""time""
""fullscreenenter"",""0"",""1890""
","
","null","<p></p>","null","","","","","","","",""
"","image","193","204040","0.0-193.0","""event"",""trial"",""time""
""fullscreenenter"",""0"",""1890""
","
","
","""event"",""trial"",""time""
""fullscreenenter"",""0"",""1890""
","
","null","run_exp/static/images/Set 6_rs/019a.jpg","null","","","","","","learn","SL",""
"","show_choice","194","206043","0.0-194.0","""event"",""trial"",""time""
""fullscreenenter"",""0"",""1890""
","
","
","""event"",""trial"",""time""
""fullscreenenter"",""0"",""1890""
","
","null","run_exp/static/images/blank.png","null","","","","","","learn","SL",""
"","html-keyboard-response","195","206548","0.0-195.0","""event"",""trial"",""time""
""fullscreenenter"",""0"",""1890""
","
","
","""event"",""trial"",""time""
""fullscreenenter"",""0"",""1890""
","
","null","<p></p>","null","","","","","","","",""
"","test_intro","196","244578","0.0-196.0","""event"",""trial"",""time""
""fullscreenenter"",""0"",""1890""
","
","
","""event"",""trial"",""time""
""fullscreenenter"",""0"",""1890""
","
","null","run_exp/static/audio/clip_2_memory.m4a","null","","","","","<div class='center'><p>Now, lets see how much you remember about the items you just saw.  For each item, you need to indicate if it was <b>old</b> by pressing the <b>v</b> key, <b>similar</b> by pressing the <b>b</b> key, or <b>new</b> by pressing the <b>n</b> key.</p><p>Old refers to an item that you saw before in the indoor/outdoor game that you just played, new refers to an item you have <b>not</b> seen before within the indoor/outdoor game, and similar refers to an item that is similar to an item youve seen before but is not exactly the same. </p><p>Before we begin, lets go over some brief demonstrations to make sure you understand.</p></div>","","",""
"","html-keyboard-response","197","246268","0.0-197.0","""event"",""trial"",""time""
""fullscreenenter"",""0"",""1890""
","
","
","""event"",""trial"",""time""
""fullscreenenter"",""0"",""1890""
","
","1687.0999999998603","<div class='center'><p>Now, lets see how much you remember about the items you just saw.  For each item, you need to indicate if it was <b>old</b> by pressing the <b>v</b> key, <b>similar</b> by pressing the <b>b</b> key, or <b>new</b> by pressing the <b>n</b> key.</p><p>Old refers to an item that you saw before in the indoor/outdoor game that you just played, new refers to an item you have <b>not</b> seen before within the indoor/outdoor game, and similar refers to an item that is similar to an item youve seen before but is not exactly the same. </p><p>Before we begin, lets go over some brief demonstrations to make sure you understand.</p><div><p><b>[Press the space bar to continue]</b></p></div>","32","","","","","","","",""
"","items","198","253777","0.0-198.0","""event"",""trial"",""time""
""fullscreenenter"",""0"",""1890""
","
","
","""event"",""trial"",""time""
""fullscreenenter"",""0"",""1890""
","
","null","run_exp/static/audio/clip_3_items.m4a","null","","","","","","","",""
"","mop","199","258288","0.0-199.0","""event"",""trial"",""time""
""fullscreenenter"",""0"",""1890""
","
","
","""event"",""trial"",""time""
""fullscreenenter"",""0"",""1890""
","
","null","run_exp/static/audio/clip_4_mop.m4a","null","","","","","","","",""
"","baseball","200","261799","0.0-200.0","""event"",""trial"",""time""
""fullscreenenter"",""0"",""1890""
","
","
","""event"",""trial"",""time""
""fullscreenenter"",""0"",""1890""
","
","null","run_exp/static/audio/clip_5_baseball.m4a","null","","","","","","","",""
"","trumpet","201","265306","0.0-201.0","""event"",""trial"",""time""
""fullscreenenter"",""0"",""1890""
","
","
","""event"",""trial"",""time""
""fullscreenenter"",""0"",""1890""
","
","null","run_exp/static/audio/clip_6_trumpet.m4a","null","","","","","","","",""
"","gummies","202","268817","0.0-202.0","""event"",""trial"",""time""
""fullscreenenter"",""0"",""1890""
","
","
","""event"",""trial"",""time""
""fullscreenenter"",""0"",""1890""
","
","null","run_exp/static/audio/clip_7_gummies.m4a","null","","","","","","","",""
"","osn","203","273327","0.0-203.0","""event"",""trial"",""time""
""fullscreenenter"",""0"",""1890""
","
","
","""event"",""trial"",""time""
""fullscreenenter"",""0"",""1890""
","
","null","run_exp/static/audio/clip_8_osn.m4a","null","","","","","","","",""
"","old_1","204","279837","0.0-204.0","""event"",""trial"",""time""
""fullscreenenter"",""0"",""1890""
","
","
","""event"",""trial"",""time""
""fullscreenenter"",""0"",""1890""
","
","null","run_exp/static/audio/clip_9_old_trumpet.m4a","null","","","","","","","",""
"","new_1","205","287345","0.0-205.0","""event"",""trial"",""time""
""fullscreenenter"",""0"",""1890""
","
","
","""event"",""trial"",""time""
""fullscreenenter"",""0"",""1890""
","
","null","run_exp/static/audio/clip_10_new_balloon.m4a","null","","","","","","","",""
"","similar_1a","206","291867","0.0-206.0","""event"",""trial"",""time""
""fullscreenenter"",""0"",""1890""
","
","
","""event"",""trial"",""time""
""fullscreenenter"",""0"",""1890""
","
","null","run_exp/static/audio/clip_11a_similar_mop.m4a","null","","","","","","","",""
"","similar_1b","207","298372","0.0-207.0","""event"",""trial"",""time""
""fullscreenenter"",""0"",""1890""
","
","
","""event"",""trial"",""time""
""fullscreenenter"",""0"",""1890""
","
","null","run_exp/static/audio/clip_11b_similar_mop.m4a","null","","","","","","","",""
"","new_2","208","301877","0.0-208.0","""event"",""trial"",""time""
""fullscreenenter"",""0"",""1890""
","
","
","""event"",""trial"",""time""
""fullscreenenter"",""0"",""1890""
","
","null","run_exp/static/audio/clip_12_new_stoplight.m4a","null","","","","","","","",""
"","old_2","209","305388","0.0-209.0","""event"",""trial"",""time""
""fullscreenenter"",""0"",""1890""
","
","
","""event"",""trial"",""time""
""fullscreenenter"",""0"",""1890""
","
","null","run_exp/static/audio/clip_13_old_baseball.m4a","null","","","","","","","",""
"","similar_2a","210","308895","0.0-210.0","""event"",""trial"",""time""
""fullscreenenter"",""0"",""1890""
","
","
","""event"",""trial"",""time""
""fullscreenenter"",""0"",""1890""
","
","null","run_exp/static/audio/clip_14a_similar_gummies.m4a","null","","","","","","","",""
"","similar_2b","211","316407","0.0-211.0","""event"",""trial"",""time""
""fullscreenenter"",""0"",""1890""
","
","
","""event"",""trial"",""time""
""fullscreenenter"",""0"",""1890""
","
","null","run_exp/static/audio/clip_14b_similar_gummies.m4a","null","","","","","","","",""
"","practice","212","358620","0.0-212.0","""event"",""trial"",""time""
""fullscreenenter"",""0"",""1890""
","
","
","""event"",""trial"",""time""
""fullscreenenter"",""0"",""1890""
","
","null","run_exp/static/audio/clip_15_practice.m4a","null","","","","","<div class='center'><p>Lets practice a little to make sure you understand the difference between new, similar, and old. Lets say you saw these three items in the indoor/outdoor game.</p><p> Try your best to remember these images because youll soon be tested on them in a practice game. In the practice game, youll be shown images and youll have to say if they are old (one of the three images belows), similar (similar to one of the images below but not exactly the same), or new (are not one of the images below nor similar to them).</p><p>Once you press the space bar youll be shown these images again but one at time. Then youll begin the practice game.</p><p><img src='run_exp/static/images/tutorial/test/three_indoor_outdoor.png' height='300'></p></div>","","",""
"","html-keyboard-response","213","359491","0.0-213.0","""event"",""trial"",""time""
""fullscreenenter"",""0"",""1890""
","
","
","""event"",""trial"",""time""
""fullscreenenter"",""0"",""1890""
","
","867","<div class='center'><p>Lets practice a little to make sure you understand the difference between new, similar, and old. Lets say you saw these three items in the indoor/outdoor game.</p><p> Try your best to remember these images because youll soon be tested on them in a practice game. In the practice game, youll be shown images and youll have to say if they are old (one of the three images belows), similar (similar to one of the images below but not exactly the same), or new (are not one of the images below nor similar to them).</p><p>Once you press the space bar youll be shown these images again but one at time. Then youll begin the practice game.</p><p><img src='run_exp/static/images/tutorial/test/three_indoor_outdoor.png' height='300'></p><div><p><b>[Press the space bar to continue]</b></p></div>","32","","","","","","","",""
"","planet","214","361497","0.0-214.0","""event"",""trial"",""time""
""fullscreenenter"",""0"",""1890""
","
","
","""event"",""trial"",""time""
""fullscreenenter"",""0"",""1890""
","
","null","run_exp/static/images/tutorial/test/008a.jpg","null","","","","","","","",""
"","boot","215","363509","0.0-215.0","""event"",""trial"",""time""
""fullscreenenter"",""0"",""1890""
","
","
","""event"",""trial"",""time""
""fullscreenenter"",""0"",""1890""
","
","null","run_exp/static/images/tutorial/test/011a.jpg","null","","","","","","","",""
"","lemon","216","365518","0.0-216.0","""event"",""trial"",""time""
""fullscreenenter"",""0"",""1890""
","
","
","""event"",""trial"",""time""
""fullscreenenter"",""0"",""1890""
","
","null","run_exp/static/images/tutorial/test/018a.jpg","null","","","","","","","",""
"","practice_q1","217","367323","0.0-217.0","""event"",""trial"",""time""
""fullscreenenter"",""0"",""1890""
","
","
","""event"",""trial"",""time""
""fullscreenenter"",""0"",""1890""
","
","1800.2000000001863","run_exp/static/audio/clip_16_practice_question.m4a","78","","","","","","","",""
"","correct","218","369301","0.0-218.0-0.0","""event"",""trial"",""time""
""fullscreenenter"",""0"",""1890""
","
","
","""event"",""trial"",""time""
""fullscreenenter"",""0"",""1890""
","
","null","run_exp/static/audio/clip_17_correct.m4a","null","","","","","<div class='center'><p>That's correct!</p></div>","","",""
"","html-keyboard-response","219","369876","0.0-218.0-1.0","""event"",""trial"",""time""
""fullscreenenter"",""0"",""1890""
","
","
","""event"",""trial"",""time""
""fullscreenenter"",""0"",""1890""
","
","572.5","<div class='center'><p>That's correct!</p><div><p><b>[Press the space bar to continue]</b></p></div>","32","","","","","","","",""
"","practice_q2","220","371722","0.0-218.0-2.0","""event"",""trial"",""time""
""fullscreenenter"",""0"",""1890""
","
","
","""event"",""trial"",""time""
""fullscreenenter"",""0"",""1890""
","
","1844","run_exp/static/audio/clip_16_practice_question.m4a","86","","","","","","","",""
"","correct","221","373621","0.0-219.0-0.0","""event"",""trial"",""time""
""fullscreenenter"",""0"",""1890""
","
","
","""event"",""trial"",""time""
""fullscreenenter"",""0"",""1890""
","
","null","run_exp/static/audio/clip_17_correct.m4a","null","","","","","<div class='center'><p>That's correct!</p></div>","","",""
"","html-keyboard-response","222","374145","0.0-219.0-1.0","""event"",""trial"",""time""
""fullscreenenter"",""0"",""1890""
","
","
","""event"",""trial"",""time""
""fullscreenenter"",""0"",""1890""
","
","521.6999999999534","<div class='center'><p>That's correct!</p><div><p><b>[Press the space bar to continue]</b></p></div>","32","","","","","","","",""
"","practice_q3","223","376009","0.0-219.0-2.0","""event"",""trial"",""time""
""fullscreenenter"",""0"",""1890""
","
","
","""event"",""trial"",""time""
""fullscreenenter"",""0"",""1890""
","
","1861.1999999999534","run_exp/static/audio/clip_16_practice_question.m4a","66","","","","","","","",""
"","correct","224","378142","0.0-220.0-0.0","""event"",""trial"",""time""
""fullscreenenter"",""0"",""1890""
","
","
","""event"",""trial"",""time""
""fullscreenenter"",""0"",""1890""
","
","null","run_exp/static/audio/clip_17_correct.m4a","null","","","","","<div class='center'><p>That's correct!</p></div>","","",""
"","html-keyboard-response","225","378911","0.0-220.0-1.0","""event"",""trial"",""time""
""fullscreenenter"",""0"",""1890""
","
","
","""event"",""trial"",""time""
""fullscreenenter"",""0"",""1890""
","
","767.5999999998603","<div class='center'><p>That's correct!</p><div><p><b>[Press the space bar to continue]</b></p></div>","32","","","","","","","",""
"","begin_text","226","397441","0.0-221.0-0.0","""event"",""trial"",""time""
""fullscreenenter"",""0"",""1890""
","
","
","""event"",""trial"",""time""
""fullscreenenter"",""0"",""1890""
","
","null","run_exp/static/audio/clip_22_begin_test.m4a","null","","","","","<div class='center'><p>On to the real game where well test your memory of items from the indoor/outdoor game. For each item, you need to indicate if the item is <b>old</b> by pressing the <b>v</b> key, <b>similar</b> by pressing the <b>b</b> key, or <b>new</b> by pressing the <b>n</b> key. </p></div>","","",""
"","html-keyboard-response","227","397966","0.0-221.0-1.0","""event"",""trial"",""time""
""fullscreenenter"",""0"",""1890""
","
","
","""event"",""trial"",""time""
""fullscreenenter"",""0"",""1890""
","
","523.2999999998137","<div class='center'><p>On to the real game where well test your memory of items from the indoor/outdoor game. For each item, you need to indicate if the item is <b>old</b> by pressing the <b>v</b> key, <b>similar</b> by pressing the <b>b</b> key, or <b>new</b> by pressing the <b>n</b> key. </p><div><p><b>[Press the space bar to continue]</b></p></div>","32","","","","","","","",""
"","image","228","400041","0.0-222.0-0.0","""event"",""trial"",""time""
""fullscreenenter"",""0"",""1890""
","
","
","""event"",""trial"",""time""
""fullscreenenter"",""0"",""1890""
","
","2072.600000000093","run_exp/static/images/Set 6_rs/036b.jpg","78","","","","","","test","TL","4"
"","show_choice","229","400555","0.0-222.0-1.0","""event"",""trial"",""time""
""fullscreenenter"",""0"",""1890""
","
","
","""event"",""trial"",""time""
""fullscreenenter"",""0"",""1890""
","
","null","run_exp/static/images/Set 6_rs/036b.jpg","null","","","","","","test","TL",""
"","html-keyboard-response","230","401059","0.0-222.0-2.0","""event"",""trial"",""time""
""fullscreenenter"",""0"",""1890""
","
","
","""event"",""trial"",""time""
""fullscreenenter"",""0"",""1890""
","
","null","<p></p>","null","","","","","","","",""
"","image","231","402621","0.0-223.0-0.0","""event"",""trial"",""time""
""fullscreenenter"",""0"",""1890""
","
","
","""event"",""trial"",""time""
""fullscreenenter"",""0"",""1890""
","
","1559.5","run_exp/static/images/Set 6_rs/170a.jpg","78","","","","","","test","TF","2"
"","show_choice","232","403128","0.0-223.0-1.0","""event"",""trial"",""time""
""fullscreenenter"",""0"",""1890""
","
","
","""event"",""trial"",""time""
""fullscreenenter"",""0"",""1890""
","
","null","run_exp/static/images/Set 6_rs/170a.jpg","null","","","","","","test","TF",""
"","html-keyboard-response","233","403638","0.0-223.0-2.0","""event"",""trial"",""time""
""fullscreenenter"",""0"",""1890""
","
","
","""event"",""trial"",""time""
""fullscreenenter"",""0"",""1890""
","
","null","<p></p>","null","","","","","","","",""
"","image","234","405246","0.0-224.0-0.0","""event"",""trial"",""time""
""fullscreenenter"",""0"",""1890""
","
","
","""event"",""trial"",""time""
""fullscreenenter"",""0"",""1890""
","
","1605.6999999999534","run_exp/static/images/Set 6_rs/129b.jpg","78","","","","","","test","TL","1"
"","show_choice","235","405748","0.0-224.0-1.0","""event"",""trial"",""time""
""fullscreenenter"",""0"",""1890""
","
","
","""event"",""trial"",""time""
""fullscreenenter"",""0"",""1890""
","
","null","run_exp/static/images/Set 6_rs/129b.jpg","null","","","","","","test","TL",""
"","html-keyboard-response","236","406258","0.0-224.0-2.0","""event"",""trial"",""time""
""fullscreenenter"",""0"",""1890""
","
","
","""event"",""trial"",""time""
""fullscreenenter"",""0"",""1890""
","
","null","<p></p>","null","","","","","","","",""
"","image","237","407090","0.0-225.0-0.0","""event"",""trial"",""time""
""fullscreenenter"",""0"",""1890""
","
","
","""event"",""trial"",""time""
""fullscreenenter"",""0"",""1890""
","
","829.3000000000466","run_exp/static/images/Set 6_rs/019b.jpg","78","","","","","","test","TL","2"
"","show_choice","238","407598","0.0-225.0-1.0","""event"",""trial"",""time""
""fullscreenenter"",""0"",""1890""
","
","
","""event"",""trial"",""time""
""fullscreenenter"",""0"",""1890""
","
","null","run_exp/static/images/Set 6_rs/019b.jpg","null","","","","","","test","TL",""
"","html-keyboard-response","239","408106","0.0-225.0-2.0","""event"",""trial"",""time""
""fullscreenenter"",""0"",""1890""
","
","
","""event"",""trial"",""time""
""fullscreenenter"",""0"",""1890""
","
","null","<p></p>","null","","","","","","","",""
"","image","240","410156","0.0-226.0-0.0","""event"",""trial"",""time""
""fullscreenenter"",""0"",""1890""
","
","
","""event"",""trial"",""time""
""fullscreenenter"",""0"",""1890""
","
","2049","run_exp/static/images/Set 6_rs/070a.jpg","86","","","","","","test","TR","2"
"","show_choice","241","410662","0.0-226.0-1.0","""event"",""trial"",""time""
""fullscreenenter"",""0"",""1890""
","
","
","""event"",""trial"",""time""
""fullscreenenter"",""0"",""1890""
","
","null","run_exp/static/images/Set 6_rs/070a.jpg","null","","","","","","test","TR",""
"","html-keyboard-response","242","411170","0.0-226.0-2.0","""event"",""trial"",""time""
""fullscreenenter"",""0"",""1890""
","
","
","""event"",""trial"",""time""
""fullscreenenter"",""0"",""1890""
","
","null","<p></p>","null","","","","","","","",""
"","image","243","412028","0.0-227.0-0.0","""event"",""trial"",""time""
""fullscreenenter"",""0"",""1890""
","
","
","""event"",""trial"",""time""
""fullscreenenter"",""0"",""1890""
","
","856.6000000000931","run_exp/static/images/Set 6_rs/056a.jpg","78","","","","","","test","TF","3"
"","show_choice","244","412532","0.0-227.0-1.0","""event"",""trial"",""time""
""fullscreenenter"",""0"",""1890""
","
","
","""event"",""trial"",""time""
""fullscreenenter"",""0"",""1890""
","
","null","run_exp/static/images/Set 6_rs/056a.jpg","null","","","","","","test","TF",""
"","html-keyboard-response","245","413043","0.0-227.0-2.0","""event"",""trial"",""time""
""fullscreenenter"",""0"",""1890""
","
","
","""event"",""trial"",""time""
""fullscreenenter"",""0"",""1890""
","
","null","<p></p>","null","","","","","","","",""
"","image","246","413956","0.0-228.0-0.0","""event"",""trial"",""time""
""fullscreenenter"",""0"",""1890""
","
","
","""event"",""trial"",""time""
""fullscreenenter"",""0"",""1890""
","
","911.2999999998137","run_exp/static/images/Set 6_rs/149a.jpg","78","","","","","","test","TF","1"
"","show_choice","247","414473","0.0-228.0-1.0","""event"",""trial"",""time""
""fullscreenenter"",""0"",""1890""
","
","
","""event"",""trial"",""time""
""fullscreenenter"",""0"",""1890""
","
","null","run_exp/static/images/Set 6_rs/149a.jpg","null","","","","","","test","TF",""
"","html-keyboard-response","248","414980","0.0-228.0-2.0","""event"",""trial"",""time""
""fullscreenenter"",""0"",""1890""
","
","
","""event"",""trial"",""time""
""fullscreenenter"",""0"",""1890""
","
","null","<p></p>","null","","","","","","","",""
"","image","249","416477","0.0-229.0-0.0","""event"",""trial"",""time""
""fullscreenenter"",""0"",""1890""
","
","
","""event"",""trial"",""time""
""fullscreenenter"",""0"",""1890""
","
","1494.8999999999069","run_exp/static/images/Set 6_rs/140a.jpg","78","","","","","","test","TF","1"
"","show_choice","250","416985","0.0-229.0-1.0","""event"",""trial"",""time""
""fullscreenenter"",""0"",""1890""
","
","
","""event"",""trial"",""time""
""fullscreenenter"",""0"",""1890""
","
","null","run_exp/static/images/Set 6_rs/140a.jpg","null","","","","","","test","TF",""
"","html-keyboard-response","251","417488","0.0-229.0-2.0","""event"",""trial"",""time""
""fullscreenenter"",""0"",""1890""
","
","
","""event"",""trial"",""time""
""fullscreenenter"",""0"",""1890""
","
","null","<p></p>","null","","","","","","","",""
"","image","252","419463","0.0-230.0-0.0","""event"",""trial"",""time""
""fullscreenenter"",""0"",""1890""
","
","
","""event"",""trial"",""time""
""fullscreenenter"",""0"",""1890""
","
","1973.6999999999534","run_exp/static/images/Set 6_rs/133a.jpg","78","","","","","","test","TF","4"
"","show_choice","253","419974","0.0-230.0-1.0","""event"",""trial"",""time""
""fullscreenenter"",""0"",""1890""
","
","
","""event"",""trial"",""time""
""fullscreenenter"",""0"",""1890""
","
","null","run_exp/static/images/Set 6_rs/133a.jpg","null","","","","","","test","TF",""
"","html-keyboard-response","254","420482","0.0-230.0-2.0","""event"",""trial"",""time""
""fullscreenenter"",""0"",""1890""
","
","
","""event"",""trial"",""time""
""fullscreenenter"",""0"",""1890""
","
","null","<p></p>","null","","","","","","","",""
"","image","255","421829","0.0-231.0-0.0","""event"",""trial"",""time""
""fullscreenenter"",""0"",""1890""
","
","
","""event"",""trial"",""time""
""fullscreenenter"",""0"",""1890""
","
","1343.8000000000466","run_exp/static/images/Set 6_rs/022a.jpg","78","","","","","","test","TF","4"
"","show_choice","256","422338","0.0-231.0-1.0","""event"",""trial"",""time""
""fullscreenenter"",""0"",""1890""
","
","
","""event"",""trial"",""time""
""fullscreenenter"",""0"",""1890""
","
","null","run_exp/static/images/Set 6_rs/022a.jpg","null","","","","","","test","TF",""
"","html-keyboard-response","257","422841","0.0-231.0-2.0","""event"",""trial"",""time""
""fullscreenenter"",""0"",""1890""
","
","
","""event"",""trial"",""time""
""fullscreenenter"",""0"",""1890""
","
","null","<p></p>","null","","","","","","","",""
"","image","258","423815","0.0-232.0-0.0","""event"",""trial"",""time""
""fullscreenenter"",""0"",""1890""
","
","
","""event"",""trial"",""time""
""fullscreenenter"",""0"",""1890""
","
","971.8000000000466","run_exp/static/images/Set 6_rs/025b.jpg","66","","","","","","test","TL","5"
"","show_choice","259","424318","0.0-232.0-1.0","""event"",""trial"",""time""
""fullscreenenter"",""0"",""1890""
","
","
","""event"",""trial"",""time""
""fullscreenenter"",""0"",""1890""
","
","null","run_exp/static/images/Set 6_rs/025b.jpg","null","","","","","","test","TL",""
"","html-keyboard-response","260","424827","0.0-232.0-2.0","""event"",""trial"",""time""
""fullscreenenter"",""0"",""1890""
","
","
","""event"",""trial"",""time""
""fullscreenenter"",""0"",""1890""
","
","null","<p></p>","null","","","","","","","",""
"","image","261","425568","0.0-233.0-0.0","""event"",""trial"",""time""
""fullscreenenter"",""0"",""1890""
","
","
","""event"",""trial"",""time""
""fullscreenenter"",""0"",""1890""
","
","739.3000000000466","run_exp/static/images/Set 6_rs/118a.jpg","78","","","","","","test","TF","5"
"","show_choice","262","426080","0.0-233.0-1.0","""event"",""trial"",""time""
""fullscreenenter"",""0"",""1890""
","
","
","""event"",""trial"",""time""
""fullscreenenter"",""0"",""1890""
","
","null","run_exp/static/images/Set 6_rs/118a.jpg","null","","","","","","test","TF",""
"","html-keyboard-response","263","426589","0.0-233.0-2.0","""event"",""trial"",""time""
""fullscreenenter"",""0"",""1890""
","
","
","""event"",""trial"",""time""
""fullscreenenter"",""0"",""1890""
","
","null","<p></p>","null","","","","","","","",""
"","image","264","427595","0.0-234.0-0.0","""event"",""trial"",""time""
""fullscreenenter"",""0"",""1890""
","
","
","""event"",""trial"",""time""
""fullscreenenter"",""0"",""1890""
","
","1004.3999999999069","run_exp/static/images/Set 6_rs/109a.jpg","78","","","","","","test","TF","5"
"","show_choice","265","428100","0.0-234.0-1.0","""event"",""trial"",""time""
""fullscreenenter"",""0"",""1890""
","
","
","""event"",""trial"",""time""
""fullscreenenter"",""0"",""1890""
","
","null","run_exp/static/images/Set 6_rs/109a.jpg","null","","","","","","test","TF",""
"","html-keyboard-response","266","428602","0.0-234.0-2.0","""event"",""trial"",""time""
""fullscreenenter"",""0"",""1890""
","
","
","""event"",""trial"",""time""
""fullscreenenter"",""0"",""1890""
","
","null","<p></p>","null","","","","","","","",""
"","image","267","430290","0.0-235.0-0.0","""event"",""trial"",""time""
""fullscreenenter"",""0"",""1890""
","
","
","""event"",""trial"",""time""
""fullscreenenter"",""0"",""1890""
","
","1685.3000000000466","run_exp/static/images/Set 6_rs/166a.jpg","86","","","","","","test","TR","1"
"","show_choice","268","430796","0.0-235.0-1.0","""event"",""trial"",""time""
""fullscreenenter"",""0"",""1890""
","
","
","""event"",""trial"",""time""
""fullscreenenter"",""0"",""1890""
","
","null","run_exp/static/images/Set 6_rs/166a.jpg","null","","","","","","test","TR",""
"","html-keyboard-response","269","431302","0.0-235.0-2.0","""event"",""trial"",""time""
""fullscreenenter"",""0"",""1890""
","
","
","""event"",""trial"",""time""
""fullscreenenter"",""0"",""1890""
","
","null","<p></p>","null","","","","","","","",""
"","image","270","433028","0.0-236.0-0.0","""event"",""trial"",""time""
""fullscreenenter"",""0"",""1890""
","
","
","""event"",""trial"",""time""
""fullscreenenter"",""0"",""1890""
","
","1724.6000000000931","run_exp/static/images/Set 6_rs/091b.jpg","66","","","","","","test","TL","3"
"","show_choice","271","433532","0.0-236.0-1.0","""event"",""trial"",""time""
""fullscreenenter"",""0"",""1890""
","
","
","""event"",""trial"",""time""
""fullscreenenter"",""0"",""1890""
","
","null","run_exp/static/images/Set 6_rs/091b.jpg","null","","","","","","test","TL",""
"","html-keyboard-response","272","434048","0.0-236.0-2.0","""event"",""trial"",""time""
""fullscreenenter"",""0"",""1890""
","
","
","""event"",""trial"",""time""
""fullscreenenter"",""0"",""1890""
","
","null","<p></p>","null","","","","","","","",""
"","image","273","434885","0.0-237.0-0.0","""event"",""trial"",""time""
""fullscreenenter"",""0"",""1890""
","
","
","""event"",""trial"",""time""
""fullscreenenter"",""0"",""1890""
","
","834.3999999999069","run_exp/static/images/Set 6_rs/078a.jpg","78","","","","","","test","TF","1"
"","show_choice","274","435403","0.0-237.0-1.0","""event"",""trial"",""time""
""fullscreenenter"",""0"",""1890""
","
","
","""event"",""trial"",""time""
""fullscreenenter"",""0"",""1890""
","
","null","run_exp/static/images/Set 6_rs/078a.jpg","null","","","","","","test","TF",""
"","html-keyboard-response","275","435912","0.0-237.0-2.0","""event"",""trial"",""time""
""fullscreenenter"",""0"",""1890""
","
","
","""event"",""trial"",""time""
""fullscreenenter"",""0"",""1890""
","
","null","<p></p>","null","","","","","","","",""
"","image","276","436767","0.0-238.0-0.0","""event"",""trial"",""time""
""fullscreenenter"",""0"",""1890""
","
","
","""event"",""trial"",""time""
""fullscreenenter"",""0"",""1890""
","
","851.8000000000466","run_exp/static/images/Set 6_rs/021a.jpg","78","","","","","","test","TF","2"
"","show_choice","277","437277","0.0-238.0-1.0","""event"",""trial"",""time""
""fullscreenenter"",""0"",""1890""
","
","
","""event"",""trial"",""time""
""fullscreenenter"",""0"",""1890""
","
","null","run_exp/static/images/Set 6_rs/021a.jpg","null","","","","","","test","TF",""
"","html-keyboard-response","278","437783","0.0-238.0-2.0","""event"",""trial"",""time""
""fullscreenenter"",""0"",""1890""
","
","
","""event"",""trial"",""time""
""fullscreenenter"",""0"",""1890""
","
","null","<p></p>","null","","","","","","","",""
"","image","279","439454","0.0-239.0-0.0","""event"",""trial"",""time""
""fullscreenenter"",""0"",""1890""
","
","
","""event"",""trial"",""time""
""fullscreenenter"",""0"",""1890""
","
","1668.5","run_exp/static/images/Set 6_rs/132a.jpg","78","","","","","","test","TR","5"
"","show_choice","280","439971","0.0-239.0-1.0","""event"",""trial"",""time""
""fullscreenenter"",""0"",""1890""
","
","
","""event"",""trial"",""time""
""fullscreenenter"",""0"",""1890""
","
","null","run_exp/static/images/Set 6_rs/132a.jpg","null","","","","","","test","TR",""
"","html-keyboard-response","281","440485","0.0-239.0-2.0","""event"",""trial"",""time""
""fullscreenenter"",""0"",""1890""
","
","
","""event"",""trial"",""time""
""fullscreenenter"",""0"",""1890""
","
","null","<p></p>","null","","","","","","","",""
"","image","282","442734","0.0-240.0-0.0","""event"",""trial"",""time""
""fullscreenenter"",""0"",""1890""
","
","
","""event"",""trial"",""time""
""fullscreenenter"",""0"",""1890""
","
","2246.1999999999534","run_exp/static/images/Set 6_rs/123b.jpg","66","","","","","","test","TL","2"
"","show_choice","283","443240","0.0-240.0-1.0","""event"",""trial"",""time""
""fullscreenenter"",""0"",""1890""
","
","
","""event"",""trial"",""time""
""fullscreenenter"",""0"",""1890""
","
","null","run_exp/static/images/Set 6_rs/123b.jpg","null","","","","","","test","TL",""
"","html-keyboard-response","284","443746","0.0-240.0-2.0","""event"",""trial"",""time""
""fullscreenenter"",""0"",""1890""
","
","
","""event"",""trial"",""time""
""fullscreenenter"",""0"",""1890""
","
","null","<p></p>","null","","","","","","","",""
"","image","285","444710","0.0-241.0-0.0","""event"",""trial"",""time""
""fullscreenenter"",""0"",""1890""
","
","
","""event"",""trial"",""time""
""fullscreenenter"",""0"",""1890""
","
","962.5","run_exp/static/images/Set 6_rs/077a.jpg","78","","","","","","test","TF","3"
"","show_choice","286","445219","0.0-241.0-1.0","""event"",""trial"",""time""
""fullscreenenter"",""0"",""1890""
","
","
","""event"",""trial"",""time""
""fullscreenenter"",""0"",""1890""
","
","null","run_exp/static/images/Set 6_rs/077a.jpg","null","","","","","","test","TF",""
"","html-keyboard-response","287","445722","0.0-241.0-2.0","""event"",""trial"",""time""
""fullscreenenter"",""0"",""1890""
","
","
","""event"",""trial"",""time""
""fullscreenenter"",""0"",""1890""
","
","null","<p></p>","null","","","","","","","",""
"","image","288","446594","0.0-242.0-0.0","""event"",""trial"",""time""
""fullscreenenter"",""0"",""1890""
","
","
","""event"",""trial"",""time""
""fullscreenenter"",""0"",""1890""
","
","869.1999999999534","run_exp/static/images/Set 6_rs/055b.jpg","78","","","","","","test","TL","4"
"","show_choice","289","447097","0.0-242.0-1.0","""event"",""trial"",""time""
""fullscreenenter"",""0"",""1890""
","
","
","""event"",""trial"",""time""
""fullscreenenter"",""0"",""1890""
","
","null","run_exp/static/images/Set 6_rs/055b.jpg","null","","","","","","test","TL",""
"","html-keyboard-response","290","447600","0.0-242.0-2.0","""event"",""trial"",""time""
""fullscreenenter"",""0"",""1890""
","
","
","""event"",""trial"",""time""
""fullscreenenter"",""0"",""1890""
","
","null","<p></p>","null","","","","","","","",""
"","image","291","448783","0.0-243.0-0.0","""event"",""trial"",""time""
""fullscreenenter"",""0"",""1890""
","
","
","""event"",""trial"",""time""
""fullscreenenter"",""0"",""1890""
","
","1180.2999999998137","run_exp/static/images/Set 6_rs/100a.jpg","78","","","","","","test","TF","2"
"","show_choice","292","449288","0.0-243.0-1.0","""event"",""trial"",""time""
""fullscreenenter"",""0"",""1890""
","
","
","""event"",""trial"",""time""
""fullscreenenter"",""0"",""1890""
","
","null","run_exp/static/images/Set 6_rs/100a.jpg","null","","","","","","test","TF",""
"","html-keyboard-response","293","449791","0.0-243.0-2.0","""event"",""trial"",""time""
""fullscreenenter"",""0"",""1890""
","
","
","""event"",""trial"",""time""
""fullscreenenter"",""0"",""1890""
","
","null","<p></p>","null","","","","","","","",""
"","image","294","450901","0.0-244.0-0.0","""event"",""trial"",""time""
""fullscreenenter"",""0"",""1890""
","
","
","""event"",""trial"",""time""
""fullscreenenter"",""0"",""1890""
","
","1107.8000000000466","run_exp/static/images/Set 6_rs/112a.jpg","66","","","","","","test","TR","5"
"","show_choice","295","451406","0.0-244.0-1.0","""event"",""trial"",""time""
""fullscreenenter"",""0"",""1890""
","
","
","""event"",""trial"",""time""
""fullscreenenter"",""0"",""1890""
","
","null","run_exp/static/images/Set 6_rs/112a.jpg","null","","","","","","test","TR",""
"","html-keyboard-response","296","451910","0.0-244.0-2.0","""event"",""trial"",""time""
""fullscreenenter"",""0"",""1890""
","
","
","""event"",""trial"",""time""
""fullscreenenter"",""0"",""1890""
","
","null","<p></p>","null","","","","","","","",""
"","image","297","453201","0.0-245.0-0.0","""event"",""trial"",""time""
""fullscreenenter"",""0"",""1890""
","
","
","""event"",""trial"",""time""
""fullscreenenter"",""0"",""1890""
","
","1289","run_exp/static/images/Set 6_rs/001a.jpg","78","","","","","","test","TF","1"
"","show_choice","298","453706","0.0-245.0-1.0","""event"",""trial"",""time""
""fullscreenenter"",""0"",""1890""
","
","
","""event"",""trial"",""time""
""fullscreenenter"",""0"",""1890""
","
","null","run_exp/static/images/Set 6_rs/001a.jpg","null","","","","","","test","TF",""
"","html-keyboard-response","299","454216","0.0-245.0-2.0","""event"",""trial"",""time""
""fullscreenenter"",""0"",""1890""
","
","
","""event"",""trial"",""time""
""fullscreenenter"",""0"",""1890""
","
","null","<p></p>","null","","","","","","","",""
"","image","300","455636","0.0-246.0-0.0","""event"",""trial"",""time""
""fullscreenenter"",""0"",""1890""
","
","
","""event"",""trial"",""time""
""fullscreenenter"",""0"",""1890""
","
","1416.8000000000466","run_exp/static/images/Set 6_rs/073b.jpg","66","","","","","","test","TL","3"
"","show_choice","301","456139","0.0-246.0-1.0","""event"",""trial"",""time""
""fullscreenenter"",""0"",""1890""
","
","
","""event"",""trial"",""time""
""fullscreenenter"",""0"",""1890""
","
","null","run_exp/static/images/Set 6_rs/073b.jpg","null","","","","","","test","TL",""
"","html-keyboard-response","302","456647","0.0-246.0-2.0","""event"",""trial"",""time""
""fullscreenenter"",""0"",""1890""
","
","
","""event"",""trial"",""time""
""fullscreenenter"",""0"",""1890""
","
","null","<p></p>","null","","","","","","","",""
"","image","303","457919","0.0-247.0-0.0","""event"",""trial"",""time""
""fullscreenenter"",""0"",""1890""
","
","
","""event"",""trial"",""time""
""fullscreenenter"",""0"",""1890""
","
","1270","run_exp/static/images/Set 6_rs/190a.jpg","78","","","","","","test","TF","3"
"","show_choice","304","458427","0.0-247.0-1.0","""event"",""trial"",""time""
""fullscreenenter"",""0"",""1890""
","
","
","""event"",""trial"",""time""
""fullscreenenter"",""0"",""1890""
","
","null","run_exp/static/images/Set 6_rs/190a.jpg","null","","","","","","test","TF",""
"","html-keyboard-response","305","458934","0.0-247.0-2.0","""event"",""trial"",""time""
""fullscreenenter"",""0"",""1890""
","
","
","""event"",""trial"",""time""
""fullscreenenter"",""0"",""1890""
","
","null","<p></p>","null","","","","","","","",""
"","image","306","460026","0.0-248.0-0.0","""event"",""trial"",""time""
""fullscreenenter"",""0"",""1890""
","
","
","""event"",""trial"",""time""
""fullscreenenter"",""0"",""1890""
","
","1089.8000000000466","run_exp/static/images/Set 6_rs/007a.jpg","86","","","","","","test","TR","3"
"","show_choice","307","460530","0.0-248.0-1.0","""event"",""trial"",""time""
""fullscreenenter"",""0"",""1890""
","
","
","""event"",""trial"",""time""
""fullscreenenter"",""0"",""1890""
","
","null","run_exp/static/images/Set 6_rs/007a.jpg","null","","","","","","test","TR",""
"","html-keyboard-response","308","461037","0.0-248.0-2.0","""event"",""trial"",""time""
""fullscreenenter"",""0"",""1890""
","
","
","""event"",""trial"",""time""
""fullscreenenter"",""0"",""1890""
","
","null","<p></p>","null","","","","","","","",""
"","image","309","461835","0.0-249.0-0.0","""event"",""trial"",""time""
""fullscreenenter"",""0"",""1890""
","
","
","""event"",""trial"",""time""
""fullscreenenter"",""0"",""1890""
","
","795.5","run_exp/static/images/Set 6_rs/167b.jpg","86","","","","","","test","TL","2"
"","show_choice","310","462344","0.0-249.0-1.0","""event"",""trial"",""time""
""fullscreenenter"",""0"",""1890""
","
","
","""event"",""trial"",""time""
""fullscreenenter"",""0"",""1890""
","
","null","run_exp/static/images/Set 6_rs/167b.jpg","null","","","","","","test","TL",""
"","html-keyboard-response","311","462853","0.0-249.0-2.0","""event"",""trial"",""time""
""fullscreenenter"",""0"",""1890""
","
","
","""event"",""trial"",""time""
""fullscreenenter"",""0"",""1890""
","
","null","<p></p>","null","","","","","","","",""
"","image","312","465685","0.0-250.0-0.0","""event"",""trial"",""time""
""fullscreenenter"",""0"",""1890""
","
","
","""event"",""trial"",""time""
""fullscreenenter"",""0"",""1890""
","
","2829.600000000093","run_exp/static/images/Set 6_rs/141a.jpg","86","","","","","","test","TR","2"
"","show_choice","313","466191","0.0-250.0-1.0","""event"",""trial"",""time""
""fullscreenenter"",""0"",""1890""
","
","
","""event"",""trial"",""time""
""fullscreenenter"",""0"",""1890""
","
","null","run_exp/static/images/Set 6_rs/141a.jpg","null","","","","","","test","TR",""
"","html-keyboard-response","314","466693","0.0-250.0-2.0","""event"",""trial"",""time""
""fullscreenenter"",""0"",""1890""
","
","
","""event"",""trial"",""time""
""fullscreenenter"",""0"",""1890""
","
","null","<p></p>","null","","","","","","","",""
"","image","315","467516","0.0-251.0-0.0","""event"",""trial"",""time""
""fullscreenenter"",""0"",""1890""
","
","
","""event"",""trial"",""time""
""fullscreenenter"",""0"",""1890""
","
","820","run_exp/static/images/Set 6_rs/088a.jpg","86","","","","","","test","TR","2"
"","show_choice","316","468021","0.0-251.0-1.0","""event"",""trial"",""time""
""fullscreenenter"",""0"",""1890""
","
","
","""event"",""trial"",""time""
""fullscreenenter"",""0"",""1890""
","
","null","run_exp/static/images/Set 6_rs/088a.jpg","null","","","","","","test","TR",""
"","html-keyboard-response","317","468530","0.0-251.0-2.0","""event"",""trial"",""time""
""fullscreenenter"",""0"",""1890""
","
","
","""event"",""trial"",""time""
""fullscreenenter"",""0"",""1890""
","
","null","<p></p>","null","","","","","","","",""
"","image","318","469383","0.0-252.0-0.0","""event"",""trial"",""time""
""fullscreenenter"",""0"",""1890""
","
","
","""event"",""trial"",""time""
""fullscreenenter"",""0"",""1890""
","
","851.5","run_exp/static/images/Set 6_rs/061a.jpg","86","","","","","","test","TR","5"
"","show_choice","319","469891","0.0-252.0-1.0","""event"",""trial"",""time""
""fullscreenenter"",""0"",""1890""
","
","
","""event"",""trial"",""time""
""fullscreenenter"",""0"",""1890""
","
","null","run_exp/static/images/Set 6_rs/061a.jpg","null","","","","","","test","TR",""
"","html-keyboard-response","320","470399","0.0-252.0-2.0","""event"",""trial"",""time""
""fullscreenenter"",""0"",""1890""
","
","
","""event"",""trial"",""time""
""fullscreenenter"",""0"",""1890""
","
","null","<p></p>","null","","","","","","","",""
"","image","321","471535","0.0-253.0-0.0","""event"",""trial"",""time""
""fullscreenenter"",""0"",""1890""
","
","
","""event"",""trial"",""time""
""fullscreenenter"",""0"",""1890""
","
","1134","run_exp/static/images/Set 6_rs/116b.jpg","86","","","","","","test","TL","2"
"","show_choice","322","472042","0.0-253.0-1.0","""event"",""trial"",""time""
""fullscreenenter"",""0"",""1890""
","
","
","""event"",""trial"",""time""
""fullscreenenter"",""0"",""1890""
","
","null","run_exp/static/images/Set 6_rs/116b.jpg","null","","","","","","test","TL",""
"","html-keyboard-response","323","472547","0.0-253.0-2.0","""event"",""trial"",""time""
""fullscreenenter"",""0"",""1890""
","
","
","""event"",""trial"",""time""
""fullscreenenter"",""0"",""1890""
","
","null","<p></p>","null","","","","","","","",""
"","image","324","473819","0.0-254.0-0.0","""event"",""trial"",""time""
""fullscreenenter"",""0"",""1890""
","
","
","""event"",""trial"",""time""
""fullscreenenter"",""0"",""1890""
","
","1268.5999999998603","run_exp/static/images/Set 6_rs/057b.jpg","86","","","","","","test","TL","1"
"","show_choice","325","474329","0.0-254.0-1.0","""event"",""trial"",""time""
""fullscreenenter"",""0"",""1890""
","
","
","""event"",""trial"",""time""
""fullscreenenter"",""0"",""1890""
","
","null","run_exp/static/images/Set 6_rs/057b.jpg","null","","","","","","test","TL",""
"","html-keyboard-response","326","474846","0.0-254.0-2.0","""event"",""trial"",""time""
""fullscreenenter"",""0"",""1890""
","
","
","""event"",""trial"",""time""
""fullscreenenter"",""0"",""1890""
","
","null","<p></p>","null","","","","","","","",""
"","image","327","475822","0.0-255.0-0.0","""event"",""trial"",""time""
""fullscreenenter"",""0"",""1890""
","
","
","""event"",""trial"",""time""
""fullscreenenter"",""0"",""1890""
","
","974.1999999999534","run_exp/static/images/Set 6_rs/186a.jpg","78","","","","","","test","TR","5"
"","show_choice","328","476338","0.0-255.0-1.0","""event"",""trial"",""time""
""fullscreenenter"",""0"",""1890""
","
","
","""event"",""trial"",""time""
""fullscreenenter"",""0"",""1890""
","
","null","run_exp/static/images/Set 6_rs/186a.jpg","null","","","","","","test","TR",""
"","html-keyboard-response","329","476849","0.0-255.0-2.0","""event"",""trial"",""time""
""fullscreenenter"",""0"",""1890""
","
","
","""event"",""trial"",""time""
""fullscreenenter"",""0"",""1890""
","
","null","<p></p>","null","","","","","","","",""
"","image","330","478196","0.0-256.0-0.0","""event"",""trial"",""time""
""fullscreenenter"",""0"",""1890""
","
","
","""event"",""trial"",""time""
""fullscreenenter"",""0"",""1890""
","
","1345","run_exp/static/images/Set 6_rs/035a.jpg","78","","","","","","test","TF","4"
"","show_choice","331","478710","0.0-256.0-1.0","""event"",""trial"",""time""
""fullscreenenter"",""0"",""1890""
","
","
","""event"",""trial"",""time""
""fullscreenenter"",""0"",""1890""
","
","null","run_exp/static/images/Set 6_rs/035a.jpg","null","","","","","","test","TF",""
"","html-keyboard-response","332","479215","0.0-256.0-2.0","""event"",""trial"",""time""
""fullscreenenter"",""0"",""1890""
","
","
","""event"",""trial"",""time""
""fullscreenenter"",""0"",""1890""
","
","null","<p></p>","null","","","","","","","",""
"","image","333","480220","0.0-257.0-0.0","""event"",""trial"",""time""
""fullscreenenter"",""0"",""1890""
","
","
","""event"",""trial"",""time""
""fullscreenenter"",""0"",""1890""
","
","1001.8000000000466","run_exp/static/images/Set 6_rs/134a.jpg","86","","","","","","test","TR","3"
"","show_choice","334","480738","0.0-257.0-1.0","""event"",""trial"",""time""
""fullscreenenter"",""0"",""1890""
","
","
","""event"",""trial"",""time""
""fullscreenenter"",""0"",""1890""
","
","null","run_exp/static/images/Set 6_rs/134a.jpg","null","","","","","","test","TR",""
"","html-keyboard-response","335","481248","0.0-257.0-2.0","""event"",""trial"",""time""
""fullscreenenter"",""0"",""1890""
","
","
","""event"",""trial"",""time""
""fullscreenenter"",""0"",""1890""
","
","null","<p></p>","null","","","","","","","",""
"","image","336","482679","0.0-258.0-0.0","""event"",""trial"",""time""
""fullscreenenter"",""0"",""1890""
","
","
","""event"",""trial"",""time""
""fullscreenenter"",""0"",""1890""
","
","1427.5","run_exp/static/images/Set 6_rs/131a.jpg","66","","","","","","test","TR","5"
"","show_choice","337","483190","0.0-258.0-1.0","""event"",""trial"",""time""
""fullscreenenter"",""0"",""1890""
","
","
","""event"",""trial"",""time""
""fullscreenenter"",""0"",""1890""
","
","null","run_exp/static/images/Set 6_rs/131a.jpg","null","","","","","","test","TR",""
"","html-keyboard-response","338","483696","0.0-258.0-2.0","""event"",""trial"",""time""
""fullscreenenter"",""0"",""1890""
","
","
","""event"",""trial"",""time""
""fullscreenenter"",""0"",""1890""
","
","null","<p></p>","null","","","","","","","",""
"","image","339","486517","0.0-259.0-0.0","""event"",""trial"",""time""
""fullscreenenter"",""0"",""1890""
","
","
","""event"",""trial"",""time""
""fullscreenenter"",""0"",""1890""
","
","2818.1999999999534","run_exp/static/images/Set 6_rs/066b.jpg","66","","","","","","test","TL","5"
"","show_choice","340","487021","0.0-259.0-1.0","""event"",""trial"",""time""
""fullscreenenter"",""0"",""1890""
","
","
","""event"",""trial"",""time""
""fullscreenenter"",""0"",""1890""
","
","null","run_exp/static/images/Set 6_rs/066b.jpg","null","","","","","","test","TL",""
"","html-keyboard-response","341","487532","0.0-259.0-2.0","""event"",""trial"",""time""
""fullscreenenter"",""0"",""1890""
","
","
