"success","trial_type","trial_index","time_elapsed","internal_node_id","interactions","blur_events","focus_events","fullscreenenter_events","fullscreenexit_events","rt","stimulus","key_press","subject_id","participant_id","age","gender","prompt","phase","condition","lure_bin"
"true","fullscreen","0","4374","0.0-0.0","""event"",""trial"",""time""
""fullscreenenter"",""0"",""3385""
","
","
","""event"",""trial"",""time""
""fullscreenenter"",""0"",""3385""
","
","","","","","","","","","","",""
"","pavlovia","1","4388","0.0-1.0","""event"",""trial"",""time""
""fullscreenenter"",""0"",""3385""
","
","
","""event"",""trial"",""time""
""fullscreenenter"",""0"",""3385""
","
","","","","","","","","","","",""
"","welcome","2","39231","0.0-2.0","""event"",""trial"",""time""
""fullscreenenter"",""0"",""3385""
","
","
","""event"",""trial"",""time""
""fullscreenenter"",""0"",""3385""
","
","null","run_exp/static/audio/clip_1_welcome.m4a","null","1489","1457","14","Female","<div class='center'><p>Welcome to the third part of the study! First, you'll be shown pictures of items one at a time. For each picture, you have to decide if the item is typically found indoors or outdoors.</p><p>If you think it's usually found indoors, then press <b>v</b> key on your keyboard. If you think it's usually found outdoors, then press the <b>n</b> key.There will be reminders on the screen to help you remember which keys to press. </p><p>If you're not sure whether the item is an indoor item or an outdoor item, go ahead and take a guess but try your best not to skip that choice. </p></div>","","",""
"","html-keyboard-response","3","39926","0.0-3.0","""event"",""trial"",""time""
""fullscreenenter"",""0"",""3385""
","
","
","""event"",""trial"",""time""
""fullscreenenter"",""0"",""3385""
","
","686.2999999999884","<div class='center'><p>Welcome to the third part of the study! First, you'll be shown pictures of items one at a time. For each picture, you have to decide if the item is typically found indoors or outdoors.</p><p>If you think it's usually found indoors, then press <b>v</b> key on your keyboard. If you think it's usually found outdoors, then press the <b>n</b> key.There will be reminders on the screen to help you remember which keys to press. </p><p>If you're not sure whether the item is an indoor item or an outdoor item, go ahead and take a guess but try your best not to skip that choice. </p><div><p><b>[Press the space bar to continue]</b></p></div>","32","","","","","","","",""
"","image","4","41932","0.0-4.0","""event"",""trial"",""time""
""fullscreenenter"",""0"",""3385""
","
","
","""event"",""trial"",""time""
""fullscreenenter"",""0"",""3385""
","
","null","run_exp/static/images/Set 6_rs/085a.jpg","null","","","","","","learn","SL",""
"","show_choice","5","43938","0.0-5.0","""event"",""trial"",""time""
""fullscreenenter"",""0"",""3385""
","
","
","""event"",""trial"",""time""
""fullscreenenter"",""0"",""3385""
","
","null","run_exp/static/images/blank.png","null","","","","","","learn","SL",""
"","html-keyboard-response","6","44443","0.0-6.0","""event"",""trial"",""time""
""fullscreenenter"",""0"",""3385""
","
","
","""event"",""trial"",""time""
""fullscreenenter"",""0"",""3385""
","
","null","<p></p>","null","","","","","","","",""
"","image","7","46450","0.0-7.0","""event"",""trial"",""time""
""fullscreenenter"",""0"",""3385""
","
","
","""event"",""trial"",""time""
""fullscreenenter"",""0"",""3385""
","
","null","run_exp/static/images/Set 6_rs/191a.jpg","null","","","","","","learn","SL",""
"","show_choice","8","48455","0.0-8.0","""event"",""trial"",""time""
""fullscreenenter"",""0"",""3385""
","
","
","""event"",""trial"",""time""
""fullscreenenter"",""0"",""3385""
","
","null","run_exp/static/images/blank.png","null","","","","","","learn","SL",""
"","html-keyboard-response","9","48963","0.0-9.0","""event"",""trial"",""time""
""fullscreenenter"",""0"",""3385""
","
","
","""event"",""trial"",""time""
""fullscreenenter"",""0"",""3385""
","
","null","<p></p>","null","","","","","","","",""
"","image","10","50257","0.0-10.0","""event"",""trial"",""time""
""fullscreenenter"",""0"",""3385""
","
","
","""event"",""trial"",""time""
""fullscreenenter"",""0"",""3385""
","
","1288.0999999999767","run_exp/static/images/Set 6_rs/169a.jpg","78","","","","","","learn","SR",""
"","show_choice","11","50974","0.0-11.0","""event"",""trial"",""time""
""fullscreenenter"",""0"",""3385""
","
","
","""event"",""trial"",""time""
""fullscreenenter"",""0"",""3385""
","
","null","run_exp/static/images/Set 6_rs/169a.jpg","null","","","","","","learn","SR",""
"","html-keyboard-response","12","51478","0.0-12.0","""event"",""trial"",""time""
""fullscreenenter"",""0"",""3385""
","
","
","""event"",""trial"",""time""
""fullscreenenter"",""0"",""3385""
","
","null","<p></p>","null","","","","","","","",""
"","image","13","52672","0.0-13.0","""event"",""trial"",""time""
""fullscreenenter"",""0"",""3385""
","
","
","""event"",""trial"",""time""
""fullscreenenter"",""0"",""3385""
","
","1183.0999999999767","run_exp/static/images/Set 6_rs/122a.jpg","86","","","","","","learn","SR",""
"","show_choice","14","53495","0.0-14.0","""event"",""trial"",""time""
""fullscreenenter"",""0"",""3385""
","
","
","""event"",""trial"",""time""
""fullscreenenter"",""0"",""3385""
","
","null","run_exp/static/images/Set 6_rs/122a.jpg","null","","","","","","learn","SR",""
"","html-keyboard-response","15","53999","0.0-15.0","""event"",""trial"",""time""
""fullscreenenter"",""0"",""3385""
","
","
","""event"",""trial"",""time""
""fullscreenenter"",""0"",""3385""
","
","null","<p></p>","null","","","","","","","",""
"","image","16","55186","0.0-16.0","""event"",""trial"",""time""
""fullscreenenter"",""0"",""3385""
","
","
","""event"",""trial"",""time""
""fullscreenenter"",""0"",""3385""
","
","1180.7999999999884","run_exp/static/images/Set 6_rs/186a.jpg","86","","","","","","learn","SR",""
"","show_choice","17","56012","0.0-17.0","""event"",""trial"",""time""
""fullscreenenter"",""0"",""3385""
","
","
","""event"",""trial"",""time""
""fullscreenenter"",""0"",""3385""
","
","null","run_exp/static/images/Set 6_rs/186a.jpg","null","","","","","","learn","SR",""
"","html-keyboard-response","18","56516","0.0-18.0","""event"",""trial"",""time""
""fullscreenenter"",""0"",""3385""
","
","
","""event"",""trial"",""time""
""fullscreenenter"",""0"",""3385""
","
","null","<p></p>","null","","","","","","","",""
"","image","19","57561","0.0-19.0","""event"",""trial"",""time""
""fullscreenenter"",""0"",""3385""
","
","
","""event"",""trial"",""time""
""fullscreenenter"",""0"",""3385""
","
","1039","run_exp/static/images/Set 6_rs/070a.jpg","86","","","","","","learn","SR",""
"","show_choice","20","58528","0.0-20.0","""event"",""trial"",""time""
""fullscreenenter"",""0"",""3385""
","
","
","""event"",""trial"",""time""
""fullscreenenter"",""0"",""3385""
","
","null","run_exp/static/images/Set 6_rs/070a.jpg","null","","","","","","learn","SR",""
"","html-keyboard-response","21","59032","0.0-21.0","""event"",""trial"",""time""
""fullscreenenter"",""0"",""3385""
","
","
","""event"",""trial"",""time""
""fullscreenenter"",""0"",""3385""
","
","null","<p></p>","null","","","","","","","",""
"","image","22","59953","0.0-22.0","""event"",""trial"",""time""
""fullscreenenter"",""0"",""3385""
","
","
","""event"",""trial"",""time""
""fullscreenenter"",""0"",""3385""
","
","912.7999999999884","run_exp/static/images/Set 6_rs/095a.jpg","86","","","","","","learn","SL",""
"","show_choice","23","61044","0.0-23.0","""event"",""trial"",""time""
""fullscreenenter"",""0"",""3385""
","
","
","""event"",""trial"",""time""
""fullscreenenter"",""0"",""3385""
","
","null","run_exp/static/images/Set 6_rs/095a.jpg","null","","","","","","learn","SL",""
"","html-keyboard-response","24","61549","0.0-24.0","""event"",""trial"",""time""
""fullscreenenter"",""0"",""3385""
","
","
","""event"",""trial"",""time""
""fullscreenenter"",""0"",""3385""
","
","null","<p></p>","null","","","","","","","",""
"","image","25","62517","0.0-25.0","""event"",""trial"",""time""
""fullscreenenter"",""0"",""3385""
","
","
","""event"",""trial"",""time""
""fullscreenenter"",""0"",""3385""
","
","961.7999999999884","run_exp/static/images/Set 6_rs/076a.jpg","78","","","","","","learn","SR",""
"","show_choice","26","63560","0.0-26.0","""event"",""trial"",""time""
""fullscreenenter"",""0"",""3385""
","
","
","""event"",""trial"",""time""
""fullscreenenter"",""0"",""3385""
","
","null","run_exp/static/images/Set 6_rs/076a.jpg","null","","","","","","learn","SR",""
"","html-keyboard-response","27","64062","0.0-27.0","""event"",""trial"",""time""
""fullscreenenter"",""0"",""3385""
","
","
","""event"",""trial"",""time""
""fullscreenenter"",""0"",""3385""
","
","null","<p></p>","null","","","","","","","",""
"","image","28","65501","0.0-28.0","""event"",""trial"",""time""
""fullscreenenter"",""0"",""3385""
","
","
","""event"",""trial"",""time""
""fullscreenenter"",""0"",""3385""
","
","1430.6999999999534","run_exp/static/images/Set 6_rs/091a.jpg","78","","","","","","learn","SL",""
"","show_choice","29","66077","0.0-29.0","""event"",""trial"",""time""
""fullscreenenter"",""0"",""3385""
","
","
","""event"",""trial"",""time""
""fullscreenenter"",""0"",""3385""
","
","null","run_exp/static/images/Set 6_rs/091a.jpg","null","","","","","","learn","SL",""
"","html-keyboard-response","30","66581","0.0-30.0","""event"",""trial"",""time""
""fullscreenenter"",""0"",""3385""
","
","
","""event"",""trial"",""time""
""fullscreenenter"",""0"",""3385""
","
","null","<p></p>","null","","","","","","","",""
"","image","31","68589","0.0-31.0","""event"",""trial"",""time""
""fullscreenenter"",""0"",""3385""
","
","
","""event"",""trial"",""time""
""fullscreenenter"",""0"",""3385""
","
","null","run_exp/static/images/Set 6_rs/134a.jpg","null","","","","","","learn","SR",""
"","show_choice","32","70597","0.0-32.0","""event"",""trial"",""time""
""fullscreenenter"",""0"",""3385""
","
","
","""event"",""trial"",""time""
""fullscreenenter"",""0"",""3385""
","
","null","run_exp/static/images/blank.png","null","","","","","","learn","SR",""
"","html-keyboard-response","33","71101","0.0-33.0","""event"",""trial"",""time""
""fullscreenenter"",""0"",""3385""
","
","
","""event"",""trial"",""time""
""fullscreenenter"",""0"",""3385""
","
","null","<p></p>","null","","","","","","","",""
"","image","34","72334","0.0-34.0","""event"",""trial"",""time""
""fullscreenenter"",""0"",""3385""
","
","
","""event"",""trial"",""time""
""fullscreenenter"",""0"",""3385""
","
","1226.2000000000116","run_exp/static/images/Set 6_rs/108a.jpg","78","","","","","","learn","SR",""
"","show_choice","35","73114","0.0-35.0","""event"",""trial"",""time""
""fullscreenenter"",""0"",""3385""
","
","
","""event"",""trial"",""time""
""fullscreenenter"",""0"",""3385""
","
","null","run_exp/static/images/Set 6_rs/108a.jpg","null","","","","","","learn","SR",""
"","html-keyboard-response","36","73619","0.0-36.0","""event"",""trial"",""time""
""fullscreenenter"",""0"",""3385""
","
","
","""event"",""trial"",""time""
""fullscreenenter"",""0"",""3385""
","
","null","<p></p>","null","","","","","","","",""
"","image","37","74721","0.0-37.0","""event"",""trial"",""time""
""fullscreenenter"",""0"",""3385""
","
","
","""event"",""trial"",""time""
""fullscreenenter"",""0"",""3385""
","
","1098.2000000000116","run_exp/static/images/Set 6_rs/129a.jpg","86","","","","","","learn","SL",""
"","show_choice","38","75629","0.0-38.0","""event"",""trial"",""time""
""fullscreenenter"",""0"",""3385""
","
","
","""event"",""trial"",""time""
""fullscreenenter"",""0"",""3385""
","
","null","run_exp/static/images/Set 6_rs/129a.jpg","null","","","","","","learn","SL",""
"","html-keyboard-response","39","76132","0.0-39.0","""event"",""trial"",""time""
""fullscreenenter"",""0"",""3385""
","
","
","""event"",""trial"",""time""
""fullscreenenter"",""0"",""3385""
","
","null","<p></p>","null","","","","","","","",""
"","image","40","77486","0.0-40.0","""event"",""trial"",""time""
""fullscreenenter"",""0"",""3385""
","
","
","""event"",""trial"",""time""
""fullscreenenter"",""0"",""3385""
","
","1347.6999999999534","run_exp/static/images/Set 6_rs/079a.jpg","86","","","","","","learn","SL",""
"","show_choice","41","78142","0.0-41.0","""event"",""trial"",""time""
""fullscreenenter"",""0"",""3385""
","
","
","""event"",""trial"",""time""
""fullscreenenter"",""0"",""3385""
","
","null","run_exp/static/images/Set 6_rs/079a.jpg","null","","","","","","learn","SL",""
"","html-keyboard-response","42","78645","0.0-42.0","""event"",""trial"",""time""
""fullscreenenter"",""0"",""3385""
","
","
","""event"",""trial"",""time""
""fullscreenenter"",""0"",""3385""
","
","null","<p></p>","null","","","","","","","",""
"","image","43","79824","0.0-43.0","""event"",""trial"",""time""
""fullscreenenter"",""0"",""3385""
","
","
","""event"",""trial"",""time""
""fullscreenenter"",""0"",""3385""
","
","1173","run_exp/static/images/Set 6_rs/063a.jpg","86","","","","","","learn","SR",""
"","show_choice","44","80657","0.0-44.0","""event"",""trial"",""time""
""fullscreenenter"",""0"",""3385""
","
","
","""event"",""trial"",""time""
""fullscreenenter"",""0"",""3385""
","
","null","run_exp/static/images/Set 6_rs/063a.jpg","null","","","","","","learn","SR",""
"","html-keyboard-response","45","81162","0.0-45.0","""event"",""trial"",""time""
""fullscreenenter"",""0"",""3385""
","
","
","""event"",""trial"",""time""
""fullscreenenter"",""0"",""3385""
","
","null","<p></p>","null","","","","","","","",""
"","image","46","82109","0.0-46.0","""event"",""trial"",""time""
""fullscreenenter"",""0"",""3385""
","
","
","""event"",""trial"",""time""
""fullscreenenter"",""0"",""3385""
","
","937.5","run_exp/static/images/Set 6_rs/025a.jpg","78","","","","","","learn","SL",""
"","show_choice","47","83177","0.0-47.0","""event"",""trial"",""time""
""fullscreenenter"",""0"",""3385""
","
","
","""event"",""trial"",""time""
""fullscreenenter"",""0"",""3385""
","
","null","run_exp/static/images/Set 6_rs/025a.jpg","null","","","","","","learn","SL",""
"","html-keyboard-response","48","83681","0.0-48.0","""event"",""trial"",""time""
""fullscreenenter"",""0"",""3385""
","
","
","""event"",""trial"",""time""
""fullscreenenter"",""0"",""3385""
","
","null","<p></p>","null","","","","","","","",""
"","image","49","84689","0.0-49.0","""event"",""trial"",""time""
""fullscreenenter"",""0"",""3385""
","
","
","""event"",""trial"",""time""
""fullscreenenter"",""0"",""3385""
","
","999.7000000000116","run_exp/static/images/Set 6_rs/057a.jpg","86","","","","","","learn","SL",""
"","show_choice","50","85696","0.0-50.0","""event"",""trial"",""time""
""fullscreenenter"",""0"",""3385""
","
","
","""event"",""trial"",""time""
""fullscreenenter"",""0"",""3385""
","
","null","run_exp/static/images/Set 6_rs/057a.jpg","null","","","","","","learn","SL",""
"","html-keyboard-response","51","86200","0.0-51.0","""event"",""trial"",""time""
""fullscreenenter"",""0"",""3385""
","
","
","""event"",""trial"",""time""
""fullscreenenter"",""0"",""3385""
","
","null","<p></p>","null","","","","","","","",""
"","image","52","87393","0.0-52.0","""event"",""trial"",""time""
""fullscreenenter"",""0"",""3385""
","
","
","""event"",""trial"",""time""
""fullscreenenter"",""0"",""3385""
","
","1186.5999999999767","run_exp/static/images/Set 6_rs/121a.jpg","86","","","","","","learn","SR",""
"","show_choice","53","88210","0.0-53.0","""event"",""trial"",""time""
""fullscreenenter"",""0"",""3385""
","
","
","""event"",""trial"",""time""
""fullscreenenter"",""0"",""3385""
","
","null","run_exp/static/images/Set 6_rs/121a.jpg","null","","","","","","learn","SR",""
"","html-keyboard-response","54","88714","0.0-54.0","""event"",""trial"",""time""
""fullscreenenter"",""0"",""3385""
","
","
","""event"",""trial"",""time""
""fullscreenenter"",""0"",""3385""
","
","null","<p></p>","null","","","","","","","",""
"","image","55","89658","0.0-55.0","""event"",""trial"",""time""
""fullscreenenter"",""0"",""3385""
","
","
","""event"",""trial"",""time""
""fullscreenenter"",""0"",""3385""
","
","935.1000000000349","run_exp/static/images/Set 6_rs/006a.jpg","86","","","","","","learn","SL",""
"","show_choice","56","90728","0.0-56.0","""event"",""trial"",""time""
""fullscreenenter"",""0"",""3385""
","
","
","""event"",""trial"",""time""
""fullscreenenter"",""0"",""3385""
","
","null","run_exp/static/images/Set 6_rs/006a.jpg","null","","","","","","learn","SL",""
"","html-keyboard-response","57","91231","0.0-57.0","""event"",""trial"",""time""
""fullscreenenter"",""0"",""3385""
","
","
","""event"",""trial"",""time""
""fullscreenenter"",""0"",""3385""
","
","null","<p></p>","null","","","","","","","",""
"","image","58","92380","0.0-58.0","""event"",""trial"",""time""
""fullscreenenter"",""0"",""3385""
","
","
","""event"",""trial"",""time""
""fullscreenenter"",""0"",""3385""
","
","1143.5","run_exp/static/images/Set 6_rs/088a.jpg","86","","","","","","learn","SR",""
"","show_choice","59","93241","0.0-59.0","""event"",""trial"",""time""
""fullscreenenter"",""0"",""3385""
","
","
","""event"",""trial"",""time""
""fullscreenenter"",""0"",""3385""
","
","null","run_exp/static/images/Set 6_rs/088a.jpg","null","","","","","","learn","SR",""
"","html-keyboard-response","60","93745","0.0-60.0","""event"",""trial"",""time""
""fullscreenenter"",""0"",""3385""
","
","
","""event"",""trial"",""time""
""fullscreenenter"",""0"",""3385""
","
","null","<p></p>","null","","","","","","","",""
"","image","61","94534","0.0-61.0","""event"",""trial"",""time""
""fullscreenenter"",""0"",""3385""
","
","
","""event"",""trial"",""time""
""fullscreenenter"",""0"",""3385""
","
","783.5","run_exp/static/images/Set 6_rs/064a.jpg","78","","","","","","learn","SR",""
"","show_choice","62","95755","0.0-62.0","""event"",""trial"",""time""
""fullscreenenter"",""0"",""3385""
","
","
","""event"",""trial"",""time""
""fullscreenenter"",""0"",""3385""
","
","null","run_exp/static/images/Set 6_rs/064a.jpg","null","","","","","","learn","SR",""
"","html-keyboard-response","63","96261","0.0-63.0","""event"",""trial"",""time""
""fullscreenenter"",""0"",""3385""
","
","
","""event"",""trial"",""time""
""fullscreenenter"",""0"",""3385""
","
","null","<p></p>","null","","","","","","","",""
"","image","64","97297","0.0-64.0","""event"",""trial"",""time""
""fullscreenenter"",""0"",""3385""
","
","
","""event"",""trial"",""time""
""fullscreenenter"",""0"",""3385""
","
","1031.2000000000116","run_exp/static/images/Set 6_rs/075a.jpg","86","","","","","","learn","SR",""
"","show_choice","65","98271","0.0-65.0","""event"",""trial"",""time""
""fullscreenenter"",""0"",""3385""
","
","
","""event"",""trial"",""time""
""fullscreenenter"",""0"",""3385""
","
","null","run_exp/static/images/Set 6_rs/075a.jpg","null","","","","","","learn","SR",""
"","html-keyboard-response","66","98776","0.0-66.0","""event"",""trial"",""time""
""fullscreenenter"",""0"",""3385""
","
","
","""event"",""trial"",""time""
""fullscreenenter"",""0"",""3385""
","
","null","<p></p>","null","","","","","","","",""
"","image","67","99587","0.0-67.0","""event"",""trial"",""time""
""fullscreenenter"",""0"",""3385""
","
","
","""event"",""trial"",""time""
""fullscreenenter"",""0"",""3385""
","
","804.7999999999884","run_exp/static/images/Set 6_rs/132a.jpg","78","","","","","","learn","SR",""
"","show_choice","68","100788","0.0-68.0","""event"",""trial"",""time""
""fullscreenenter"",""0"",""3385""
","
","
","""event"",""trial"",""time""
""fullscreenenter"",""0"",""3385""
","
","null","run_exp/static/images/Set 6_rs/132a.jpg","null","","","","","","learn","SR",""
"","html-keyboard-response","69","101291","0.0-69.0","""event"",""trial"",""time""
""fullscreenenter"",""0"",""3385""
","
","
","""event"",""trial"",""time""
""fullscreenenter"",""0"",""3385""
","
","null","<p></p>","null","","","","","","","",""
"","image","70","102305","0.0-70.0","""event"",""trial"",""time""
""fullscreenenter"",""0"",""3385""
","
","
","""event"",""trial"",""time""
""fullscreenenter"",""0"",""3385""
","
","1010.7000000000116","run_exp/static/images/Set 6_rs/138a.jpg","78","","","","","","learn","SL",""
"","show_choice","71","103299","0.0-71.0","""event"",""trial"",""time""
""fullscreenenter"",""0"",""3385""
","
","
","""event"",""trial"",""time""
""fullscreenenter"",""0"",""3385""
","
","null","run_exp/static/images/Set 6_rs/138a.jpg","null","","","","","","learn","SL",""
"","html-keyboard-response","72","103803","0.0-72.0","""event"",""trial"",""time""
""fullscreenenter"",""0"",""3385""
","
","
","""event"",""trial"",""time""
""fullscreenenter"",""0"",""3385""
","
","null","<p></p>","null","","","","","","","",""
"","image","73","105074","0.0-73.0","""event"",""trial"",""time""
""fullscreenenter"",""0"",""3385""
","
","
","""event"",""trial"",""time""
""fullscreenenter"",""0"",""3385""
","
","1265.899999999965","run_exp/static/images/Set 6_rs/089a.jpg","86","","","","","","learn","SL",""
"","show_choice","74","105815","0.0-74.0","""event"",""trial"",""time""
""fullscreenenter"",""0"",""3385""
","
","
","""event"",""trial"",""time""
""fullscreenenter"",""0"",""3385""
","
","null","run_exp/static/images/Set 6_rs/089a.jpg","null","","","","","","learn","SL",""
"","html-keyboard-response","75","106320","0.0-75.0","""event"",""trial"",""time""
""fullscreenenter"",""0"",""3385""
","
","
","""event"",""trial"",""time""
""fullscreenenter"",""0"",""3385""
","
","null","<p></p>","null","","","","","","","",""
"","image","76","107010","0.0-76.0","""event"",""trial"",""time""
""fullscreenenter"",""0"",""3385""
","
","
","""event"",""trial"",""time""
""fullscreenenter"",""0"",""3385""
","
","683.1000000000349","run_exp/static/images/Set 6_rs/181a.jpg","78","","","","","","learn","SL",""
"","show_choice","77","108329","0.0-77.0","""event"",""trial"",""time""
""fullscreenenter"",""0"",""3385""
","
","
","""event"",""trial"",""time""
""fullscreenenter"",""0"",""3385""
","
","null","run_exp/static/images/Set 6_rs/181a.jpg","null","","","","","","learn","SL",""
"","html-keyboard-response","78","108833","0.0-78.0","""event"",""trial"",""time""
""fullscreenenter"",""0"",""3385""
","
","
","""event"",""trial"",""time""
""fullscreenenter"",""0"",""3385""
","
","null","<p></p>","null","","","","","","","",""
"","image","79","109604","0.0-79.0","""event"",""trial"",""time""
""fullscreenenter"",""0"",""3385""
","
","
","""event"",""trial"",""time""
""fullscreenenter"",""0"",""3385""
","
","764.5","run_exp/static/images/Set 6_rs/062a.jpg","78","","","","","","learn","SL",""
"","show_choice","80","110845","0.0-80.0","""event"",""trial"",""time""
""fullscreenenter"",""0"",""3385""
","
","
","""event"",""trial"",""time""
""fullscreenenter"",""0"",""3385""
","
","null","run_exp/static/images/Set 6_rs/062a.jpg","null","","","","","","learn","SL",""
"","html-keyboard-response","81","111348","0.0-81.0","""event"",""trial"",""time""
""fullscreenenter"",""0"",""3385""
","
","
","""event"",""trial"",""time""
""fullscreenenter"",""0"",""3385""
","
","null","<p></p>","null","","","","","","","",""
"","image","82","112687","0.0-82.0","""event"",""trial"",""time""
""fullscreenenter"",""0"",""3385""
","
","
","""event"",""trial"",""time""
""fullscreenenter"",""0"",""3385""
","
","1333","run_exp/static/images/Set 6_rs/017a.jpg","78","","","","","","learn","SL",""
"","show_choice","83","113360","0.0-83.0","""event"",""trial"",""time""
""fullscreenenter"",""0"",""3385""
","
","
","""event"",""trial"",""time""
""fullscreenenter"",""0"",""3385""
","
","null","run_exp/static/images/Set 6_rs/017a.jpg","null","","","","","","learn","SL",""
"","html-keyboard-response","84","113863","0.0-84.0","""event"",""trial"",""time""
""fullscreenenter"",""0"",""3385""
","
","
","""event"",""trial"",""time""
""fullscreenenter"",""0"",""3385""
","
","null","<p></p>","null","","","","","","","",""
"","image","85","115142","0.0-85.0","""event"",""trial"",""time""
""fullscreenenter"",""0"",""3385""
","
","
","""event"",""trial"",""time""
""fullscreenenter"",""0"",""3385""
","
","1273.2000000000116","run_exp/static/images/Set 6_rs/036a.jpg","86","","","","","","learn","SL",""
"","show_choice","86","115873","0.0-86.0","""event"",""trial"",""time""
""fullscreenenter"",""0"",""3385""
","
","
","""event"",""trial"",""time""
""fullscreenenter"",""0"",""3385""
","
","null","run_exp/static/images/Set 6_rs/036a.jpg","null","","","","","","learn","SL",""
"","html-keyboard-response","87","116377","0.0-87.0","""event"",""trial"",""time""
""fullscreenenter"",""0"",""3385""
","
","
","""event"",""trial"",""time""
""fullscreenenter"",""0"",""3385""
","
","null","<p></p>","null","","","","","","","",""
"","image","88","117156","0.0-88.0","""event"",""trial"",""time""
""fullscreenenter"",""0"",""3385""
","
","
","""event"",""trial"",""time""
""fullscreenenter"",""0"",""3385""
","
","773.3999999999651","run_exp/static/images/Set 6_rs/071a.jpg","78","","","","","","learn","SL",""
"","show_choice","89","118394","0.0-89.0","""event"",""trial"",""time""
""fullscreenenter"",""0"",""3385""
","
","
","""event"",""trial"",""time""
""fullscreenenter"",""0"",""3385""
","
","null","run_exp/static/images/Set 6_rs/071a.jpg","null","","","","","","learn","SL",""
"","html-keyboard-response","90","118898","0.0-90.0","""event"",""trial"",""time""
""fullscreenenter"",""0"",""3385""
","
","
","""event"",""trial"",""time""
""fullscreenenter"",""0"",""3385""
","
","null","<p></p>","null","","","","","","","",""
"","image","91","119684","0.0-91.0","""event"",""trial"",""time""
""fullscreenenter"",""0"",""3385""
","
","
","""event"",""trial"",""time""
""fullscreenenter"",""0"",""3385""
","
","777.6999999999534","run_exp/static/images/Set 6_rs/131a.jpg","86","","","","","","learn","SR",""
"","show_choice","92","120911","0.0-92.0","""event"",""trial"",""time""
""fullscreenenter"",""0"",""3385""
","
","
","""event"",""trial"",""time""
""fullscreenenter"",""0"",""3385""
","
","null","run_exp/static/images/Set 6_rs/131a.jpg","null","","","","","","learn","SR",""
"","html-keyboard-response","93","121414","0.0-93.0","""event"",""trial"",""time""
""fullscreenenter"",""0"",""3385""
","
","
","""event"",""trial"",""time""
""fullscreenenter"",""0"",""3385""
","
","null","<p></p>","null","","","","","","","",""
"","image","94","122308","0.0-94.0","""event"",""trial"",""time""
""fullscreenenter"",""0"",""3385""
","
","
","""event"",""trial"",""time""
""fullscreenenter"",""0"",""3385""
","
","887.2000000000116","run_exp/static/images/Set 6_rs/168a.jpg","86","","","","","","learn","SL",""
"","show_choice","95","123425","0.0-95.0","""event"",""trial"",""time""
""fullscreenenter"",""0"",""3385""
","
","
","""event"",""trial"",""time""
""fullscreenenter"",""0"",""3385""
","
","null","run_exp/static/images/Set 6_rs/168a.jpg","null","","","","","","learn","SL",""
"","html-keyboard-response","96","123927","0.0-96.0","""event"",""trial"",""time""
""fullscreenenter"",""0"",""3385""
","
","
","""event"",""trial"",""time""
""fullscreenenter"",""0"",""3385""
","
","null","<p></p>","null","","","","","","","",""
"","image","97","124701","0.0-97.0","""event"",""trial"",""time""
""fullscreenenter"",""0"",""3385""
","
","
","""event"",""trial"",""time""
""fullscreenenter"",""0"",""3385""
","
","770.3999999999651","run_exp/static/images/Set 6_rs/167a.jpg","86","","","","","","learn","SL",""
"","show_choice","98","125933","0.0-98.0","""event"",""trial"",""time""
""fullscreenenter"",""0"",""3385""
","
","
","""event"",""trial"",""time""
""fullscreenenter"",""0"",""3385""
","
","null","run_exp/static/images/Set 6_rs/167a.jpg","null","","","","","","learn","SL",""
"","html-keyboard-response","99","126435","0.0-99.0","""event"",""trial"",""time""
""fullscreenenter"",""0"",""3385""
","
","
","""event"",""trial"",""time""
""fullscreenenter"",""0"",""3385""
","
","null","<p></p>","null","","","","","","","",""
"","image","100","127162","0.0-100.0","""event"",""trial"",""time""
""fullscreenenter"",""0"",""3385""
","
","
","""event"",""trial"",""time""
""fullscreenenter"",""0"",""3385""
","
","721.6999999999534","run_exp/static/images/Set 6_rs/112a.jpg","86","","","","","","learn","SR",""
"","show_choice","101","128445","0.0-101.0","""event"",""trial"",""time""
""fullscreenenter"",""0"",""3385""
","
","
","""event"",""trial"",""time""
""fullscreenenter"",""0"",""3385""
","
","null","run_exp/static/images/Set 6_rs/112a.jpg","null","","","","","","learn","SR",""
"","html-keyboard-response","102","128949","0.0-102.0","""event"",""trial"",""time""
""fullscreenenter"",""0"",""3385""
","
","
","""event"",""trial"",""time""
""fullscreenenter"",""0"",""3385""
","
","null","<p></p>","null","","","","","","","",""
"","image","103","129614","0.0-103.0","""event"",""trial"",""time""
""fullscreenenter"",""0"",""3385""
","
","
","""event"",""trial"",""time""
""fullscreenenter"",""0"",""3385""
","
","657.2000000000116","run_exp/static/images/Set 6_rs/074a.jpg","86","","","","","","learn","SL",""
"","show_choice","104","130961","0.0-104.0","""event"",""trial"",""time""
""fullscreenenter"",""0"",""3385""
","
","
","""event"",""trial"",""time""
""fullscreenenter"",""0"",""3385""
","
","null","run_exp/static/images/Set 6_rs/074a.jpg","null","","","","","","learn","SL",""
"","html-keyboard-response","105","131465","0.0-105.0","""event"",""trial"",""time""
""fullscreenenter"",""0"",""3385""
","
","
","""event"",""trial"",""time""
""fullscreenenter"",""0"",""3385""
","
","null","<p></p>","null","","","","","","","",""
"","image","106","132292","0.0-106.0","""event"",""trial"",""time""
""fullscreenenter"",""0"",""3385""
","
","
","""event"",""trial"",""time""
""fullscreenenter"",""0"",""3385""
","
","819.5999999999767","run_exp/static/images/Set 6_rs/066a.jpg","86","","","","","","learn","SL",""
"","show_choice","107","133479","0.0-107.0","""event"",""trial"",""time""
""fullscreenenter"",""0"",""3385""
","
","
","""event"",""trial"",""time""
""fullscreenenter"",""0"",""3385""
","
","null","run_exp/static/images/Set 6_rs/066a.jpg","null","","","","","","learn","SL",""
"","html-keyboard-response","108","133983","0.0-108.0","""event"",""trial"",""time""
""fullscreenenter"",""0"",""3385""
","
","
","""event"",""trial"",""time""
""fullscreenenter"",""0"",""3385""
","
","null","<p></p>","null","","","","","","","",""
"","image","109","134817","0.0-109.0","""event"",""trial"",""time""
""fullscreenenter"",""0"",""3385""
","
","
","""event"",""trial"",""time""
""fullscreenenter"",""0"",""3385""
","
","828.4000000000233","run_exp/static/images/Set 6_rs/050a.jpg","86","","","","","","learn","SL",""
"","show_choice","110","135993","0.0-110.0","""event"",""trial"",""time""
""fullscreenenter"",""0"",""3385""
","
","
","""event"",""trial"",""time""
""fullscreenenter"",""0"",""3385""
","
","null","run_exp/static/images/Set 6_rs/050a.jpg","null","","","","","","learn","SL",""
"","html-keyboard-response","111","136496","0.0-111.0","""event"",""trial"",""time""
""fullscreenenter"",""0"",""3385""
","
","
","""event"",""trial"",""time""
""fullscreenenter"",""0"",""3385""
","
","null","<p></p>","null","","","","","","","",""
"","image","112","137270","0.0-112.0","""event"",""trial"",""time""
""fullscreenenter"",""0"",""3385""
","
","
","""event"",""trial"",""time""
""fullscreenenter"",""0"",""3385""
","
","769.0999999999767","run_exp/static/images/Set 6_rs/152a.jpg","86","","","","","","learn","SR",""
"","show_choice","113","138504","0.0-113.0","""event"",""trial"",""time""
""fullscreenenter"",""0"",""3385""
","
","
","""event"",""trial"",""time""
""fullscreenenter"",""0"",""3385""
","
","null","run_exp/static/images/Set 6_rs/152a.jpg","null","","","","","","learn","SR",""
"","html-keyboard-response","114","139008","0.0-114.0","""event"",""trial"",""time""
""fullscreenenter"",""0"",""3385""
","
","
","""event"",""trial"",""time""
""fullscreenenter"",""0"",""3385""
","
","null","<p></p>","null","","","","","","","",""
"","image","115","139815","0.0-115.0","""event"",""trial"",""time""
""fullscreenenter"",""0"",""3385""
","
","
","""event"",""trial"",""time""
""fullscreenenter"",""0"",""3385""
","
","802.5999999999767","run_exp/static/images/Set 6_rs/016a.jpg","86","","","","","","learn","SL",""
"","show_choice","116","141015","0.0-116.0","""event"",""trial"",""time""
""fullscreenenter"",""0"",""3385""
","
","
","""event"",""trial"",""time""
""fullscreenenter"",""0"",""3385""
","
","null","run_exp/static/images/Set 6_rs/016a.jpg","null","","","","","","learn","SL",""
"","html-keyboard-response","117","141518","0.0-117.0","""event"",""trial"",""time""
""fullscreenenter"",""0"",""3385""
","
","
","""event"",""trial"",""time""
""fullscreenenter"",""0"",""3385""
","
","null","<p></p>","null","","","","","","","",""
"","image","118","142694","0.0-118.0","""event"",""trial"",""time""
""fullscreenenter"",""0"",""3385""
","
","
","""event"",""trial"",""time""
""fullscreenenter"",""0"",""3385""
","
","1171","run_exp/static/images/Set 6_rs/019a.jpg","86","","","","","","learn","SL",""
"","show_choice","119","143528","0.0-119.0","""event"",""trial"",""time""
""fullscreenenter"",""0"",""3385""
","
","
","""event"",""trial"",""time""
""fullscreenenter"",""0"",""3385""
","
","null","run_exp/static/images/Set 6_rs/019a.jpg","null","","","","","","learn","SL",""
"","html-keyboard-response","120","144032","0.0-120.0","""event"",""trial"",""time""
""fullscreenenter"",""0"",""3385""
","
","
","""event"",""trial"",""time""
""fullscreenenter"",""0"",""3385""
","
","null","<p></p>","null","","","","","","","",""
"","image","121","144849","0.0-121.0","""event"",""trial"",""time""
""fullscreenenter"",""0"",""3385""
","
","
","""event"",""trial"",""time""
""fullscreenenter"",""0"",""3385""
","
","810.2999999999884","run_exp/static/images/Set 6_rs/116a.jpg","78","","","","","","learn","SL",""
"","show_choice","122","146043","0.0-122.0","""event"",""trial"",""time""
""fullscreenenter"",""0"",""3385""
","
","
","""event"",""trial"",""time""
""fullscreenenter"",""0"",""3385""
","
","null","run_exp/static/images/Set 6_rs/116a.jpg","null","","","","","","learn","SL",""
"","html-keyboard-response","123","146546","0.0-123.0","""event"",""trial"",""time""
""fullscreenenter"",""0"",""3385""
","
","
","""event"",""trial"",""time""
""fullscreenenter"",""0"",""3385""
","
","null","<p></p>","null","","","","","","","",""
"","image","124","147388","0.0-124.0","""event"",""trial"",""time""
""fullscreenenter"",""0"",""3385""
","
","
","""event"",""trial"",""time""
""fullscreenenter"",""0"",""3385""
","
","835.5999999999767","run_exp/static/images/Set 6_rs/061a.jpg","78","","","","","","learn","SR",""
"","show_choice","125","148559","0.0-125.0","""event"",""trial"",""time""
""fullscreenenter"",""0"",""3385""
","
","
","""event"",""trial"",""time""
""fullscreenenter"",""0"",""3385""
","
","null","run_exp/static/images/Set 6_rs/061a.jpg","null","","","","","","learn","SR",""
"","html-keyboard-response","126","149064","0.0-126.0","""event"",""trial"",""time""
""fullscreenenter"",""0"",""3385""
","
","
","""event"",""trial"",""time""
""fullscreenenter"",""0"",""3385""
","
","null","<p></p>","null","","","","","","","",""
"","image","127","149703","0.0-127.0","""event"",""trial"",""time""
""fullscreenenter"",""0"",""3385""
","
","
","""event"",""trial"",""time""
""fullscreenenter"",""0"",""3385""
","
","633.2999999999884","run_exp/static/images/Set 6_rs/010a.jpg","86","","","","","","learn","SR",""
"","show_choice","128","151073","0.0-128.0","""event"",""trial"",""time""
""fullscreenenter"",""0"",""3385""
","
","
","""event"",""trial"",""time""
""fullscreenenter"",""0"",""3385""
","
","null","run_exp/static/images/Set 6_rs/010a.jpg","null","","","","","","learn","SR",""
"","html-keyboard-response","129","151578","0.0-129.0","""event"",""trial"",""time""
""fullscreenenter"",""0"",""3385""
","
","
","""event"",""trial"",""time""
""fullscreenenter"",""0"",""3385""
","
","null","<p></p>","null","","","","","","","",""
"","image","130","152284","0.0-130.0","""event"",""trial"",""time""
""fullscreenenter"",""0"",""3385""
","
","
","""event"",""trial"",""time""
""fullscreenenter"",""0"",""3385""
","
","699.6999999999534","run_exp/static/images/Set 6_rs/117a.jpg","86","","","","","","learn","SL",""
"","show_choice","131","153590","0.0-131.0","""event"",""trial"",""time""
""fullscreenenter"",""0"",""3385""
","
","
","""event"",""trial"",""time""
""fullscreenenter"",""0"",""3385""
","
","null","run_exp/static/images/Set 6_rs/117a.jpg","null","","","","","","learn","SL",""
"","html-keyboard-response","132","154094","0.0-132.0","""event"",""trial"",""time""
""fullscreenenter"",""0"",""3385""
","
","
","""event"",""trial"",""time""
""fullscreenenter"",""0"",""3385""
","
","null","<p></p>","null","","","","","","","",""
"","image","133","154832","0.0-133.0","""event"",""trial"",""time""
""fullscreenenter"",""0"",""3385""
","
","
","""event"",""trial"",""time""
""fullscreenenter"",""0"",""3385""
","
","734.1000000000349","run_exp/static/images/Set 6_rs/073a.jpg","86","","","","","","learn","SL",""
"","show_choice","134","156103","0.0-134.0","""event"",""trial"",""time""
""fullscreenenter"",""0"",""3385""
","
","
","""event"",""trial"",""time""
""fullscreenenter"",""0"",""3385""
","
","null","run_exp/static/images/Set 6_rs/073a.jpg","null","","","","","","learn","SL",""
"","html-keyboard-response","135","156606","0.0-135.0","""event"",""trial"",""time""
""fullscreenenter"",""0"",""3385""
","
","
","""event"",""trial"",""time""
""fullscreenenter"",""0"",""3385""
","
","null","<p></p>","null","","","","","","","",""
"","image","136","157286","0.0-136.0","""event"",""trial"",""time""
""fullscreenenter"",""0"",""3385""
","
","
","""event"",""trial"",""time""
""fullscreenenter"",""0"",""3385""
","
","675.7000000000116","run_exp/static/images/Set 6_rs/154a.jpg","86","","","","","","learn","SR",""
"","show_choice","137","158615","0.0-137.0","""event"",""trial"",""time""
""fullscreenenter"",""0"",""3385""
","
","
","""event"",""trial"",""time""
""fullscreenenter"",""0"",""3385""
","
","null","run_exp/static/images/Set 6_rs/154a.jpg","null","","","","","","learn","SR",""
"","html-keyboard-response","138","159118","0.0-138.0","""event"",""trial"",""time""
""fullscreenenter"",""0"",""3385""
","
","
","""event"",""trial"",""time""
""fullscreenenter"",""0"",""3385""
","
","null","<p></p>","null","","","","","","","",""
"","image","139","160133","0.0-139.0","""event"",""trial"",""time""
""fullscreenenter"",""0"",""3385""
","
","
","""event"",""trial"",""time""
""fullscreenenter"",""0"",""3385""
","
","1010.5","run_exp/static/images/Set 6_rs/111a.jpg","86","","","","","","learn","SL",""
"","show_choice","140","161128","0.0-140.0","""event"",""trial"",""time""
""fullscreenenter"",""0"",""3385""
","
","
","""event"",""trial"",""time""
""fullscreenenter"",""0"",""3385""
","
","null","run_exp/static/images/Set 6_rs/111a.jpg","null","","","","","","learn","SL",""
"","html-keyboard-response","141","161632","0.0-141.0","""event"",""trial"",""time""
""fullscreenenter"",""0"",""3385""
","
","
","""event"",""trial"",""time""
""fullscreenenter"",""0"",""3385""
","
","null","<p></p>","null","","","","","","","",""
"","image","142","162423","0.0-142.0","""event"",""trial"",""time""
""fullscreenenter"",""0"",""3385""
","
","
","""event"",""trial"",""time""
""fullscreenenter"",""0"",""3385""
","
","787","run_exp/static/images/Set 6_rs/055a.jpg","86","","","","","","learn","SL",""
"","show_choice","143","163642","0.0-143.0","""event"",""trial"",""time""
""fullscreenenter"",""0"",""3385""
","
","
","""event"",""trial"",""time""
""fullscreenenter"",""0"",""3385""
","
","null","run_exp/static/images/Set 6_rs/055a.jpg","null","","","","","","learn","SL",""
"","html-keyboard-response","144","164144","0.0-144.0","""event"",""trial"",""time""
""fullscreenenter"",""0"",""3385""
","
","
","""event"",""trial"",""time""
""fullscreenenter"",""0"",""3385""
","
","null","<p></p>","null","","","","","","","",""
"","image","145","165150","0.0-145.0","""event"",""trial"",""time""
""fullscreenenter"",""0"",""3385""
","
","
","""event"",""trial"",""time""
""fullscreenenter"",""0"",""3385""
","
","999","run_exp/static/images/Set 6_rs/166a.jpg","86","","","","","","learn","SR",""
"","show_choice","146","166157","0.0-146.0","""event"",""trial"",""time""
""fullscreenenter"",""0"",""3385""
","
","
","""event"",""trial"",""time""
""fullscreenenter"",""0"",""3385""
","
","null","run_exp/static/images/Set 6_rs/166a.jpg","null","","","","","","learn","SR",""
"","html-keyboard-response","147","166661","0.0-147.0","""event"",""trial"",""time""
""fullscreenenter"",""0"",""3385""
","
","
","""event"",""trial"",""time""
""fullscreenenter"",""0"",""3385""
","
","null","<p></p>","null","","","","","","","",""
"","image","148","167230","0.0-148.0","""event"",""trial"",""time""
""fullscreenenter"",""0"",""3385""
","
","
","""event"",""trial"",""time""
""fullscreenenter"",""0"",""3385""
","
","563.2999999999884","run_exp/static/images/Set 6_rs/187a.jpg","86","","","","","","learn","SR",""
"","show_choice","149","168673","0.0-149.0","""event"",""trial"",""time""
""fullscreenenter"",""0"",""3385""
","
","
","""event"",""trial"",""time""
""fullscreenenter"",""0"",""3385""
","
","null","run_exp/static/images/Set 6_rs/187a.jpg","null","","","","","","learn","SR",""
"","html-keyboard-response","150","169176","0.0-150.0","""event"",""trial"",""time""
""fullscreenenter"",""0"",""3385""
","
","
","""event"",""trial"",""time""
""fullscreenenter"",""0"",""3385""
","
","null","<p></p>","null","","","","","","","",""
"","image","151","169891","0.0-151.0","""event"",""trial"",""time""
""fullscreenenter"",""0"",""3385""
","
","
","""event"",""trial"",""time""
""fullscreenenter"",""0"",""3385""
","
","708.5","run_exp/static/images/Set 6_rs/150a.jpg","86","","","","","","learn","SR",""
"","show_choice","152","171188","0.0-152.0","""event"",""trial"",""time""
""fullscreenenter"",""0"",""3385""
","
","
","""event"",""trial"",""time""
""fullscreenenter"",""0"",""3385""
","
","null","run_exp/static/images/Set 6_rs/150a.jpg","null","","","","","","learn","SR",""
"","html-keyboard-response","153","171692","0.0-153.0","""event"",""trial"",""time""
""fullscreenenter"",""0"",""3385""
","
","
","""event"",""trial"",""time""
""fullscreenenter"",""0"",""3385""
","
","null","<p></p>","null","","","","","","","",""
"","image","154","172473","0.0-154.0","""event"",""trial"",""time""
""fullscreenenter"",""0"",""3385""
","
","
","""event"",""trial"",""time""
""fullscreenenter"",""0"",""3385""
","
","773.8999999999651","run_exp/static/images/Set 6_rs/144a.jpg","86","","","","","","learn","SL",""
"","show_choice","155","173707","0.0-155.0","""event"",""trial"",""time""
""fullscreenenter"",""0"",""3385""
","
","
","""event"",""trial"",""time""
""fullscreenenter"",""0"",""3385""
","
","null","run_exp/static/images/Set 6_rs/144a.jpg","null","","","","","","learn","SL",""
"","html-keyboard-response","156","174211","0.0-156.0","""event"",""trial"",""time""
""fullscreenenter"",""0"",""3385""
","
","
","""event"",""trial"",""time""
""fullscreenenter"",""0"",""3385""
","
","null","<p></p>","null","","","","","","","",""
"","image","157","174852","0.0-157.0","""event"",""trial"",""time""
""fullscreenenter"",""0"",""3385""
","
","
","""event"",""trial"",""time""
""fullscreenenter"",""0"",""3385""
","
","634.2999999999884","run_exp/static/images/Set 6_rs/012a.jpg","86","","","","","","learn","SR",""
"","show_choice","158","176223","0.0-158.0","""event"",""trial"",""time""
""fullscreenenter"",""0"",""3385""
","
","
","""event"",""trial"",""time""
""fullscreenenter"",""0"",""3385""
","
","null","run_exp/static/images/Set 6_rs/012a.jpg","null","","","","","","learn","SR",""
"","html-keyboard-response","159","176727","0.0-159.0","""event"",""trial"",""time""
""fullscreenenter"",""0"",""3385""
","
","
","""event"",""trial"",""time""
""fullscreenenter"",""0"",""3385""
","
","null","<p></p>","null","","","","","","","",""
"","image","160","177336","0.0-160.0","""event"",""trial"",""time""
""fullscreenenter"",""0"",""3385""
","
","
","""event"",""trial"",""time""
""fullscreenenter"",""0"",""3385""
","
","603.1000000000349","run_exp/static/images/Set 6_rs/178a.jpg","86","","","","","","learn","SR",""
"","show_choice","161","178738","0.0-161.0","""event"",""trial"",""time""
""fullscreenenter"",""0"",""3385""
","
","
","""event"",""trial"",""time""
""fullscreenenter"",""0"",""3385""
","
","null","run_exp/static/images/Set 6_rs/178a.jpg","null","","","","","","learn","SR",""
"","html-keyboard-response","162","179241","0.0-162.0","""event"",""trial"",""time""
""fullscreenenter"",""0"",""3385""
","
","
","""event"",""trial"",""time""
""fullscreenenter"",""0"",""3385""
","
","null","<p></p>","null","","","","","","","",""
"","image","163","180323","0.0-163.0","""event"",""trial"",""time""
""fullscreenenter"",""0"",""3385""
","
","
","""event"",""trial"",""time""
""fullscreenenter"",""0"",""3385""
","
","1072.7999999999884","run_exp/static/images/Set 6_rs/126a.jpg","78","","","","","","learn","SR",""
"","show_choice","164","181254","0.0-164.0","""event"",""trial"",""time""
""fullscreenenter"",""0"",""3385""
","
","
","""event"",""trial"",""time""
""fullscreenenter"",""0"",""3385""
","
","null","run_exp/static/images/Set 6_rs/126a.jpg","null","","","","","","learn","SR",""
"","html-keyboard-response","165","181758","0.0-165.0","""event"",""trial"",""time""
""fullscreenenter"",""0"",""3385""
","
","
","""event"",""trial"",""time""
""fullscreenenter"",""0"",""3385""
","
","null","<p></p>","null","","","","","","","",""
"","image","166","182561","0.0-166.0","""event"",""trial"",""time""
""fullscreenenter"",""0"",""3385""
","
","
","""event"",""trial"",""time""
""fullscreenenter"",""0"",""3385""
","
","796.2999999999884","run_exp/static/images/Set 6_rs/045a.jpg","86","","","","","","learn","SR",""
"","show_choice","167","183771","0.0-167.0","""event"",""trial"",""time""
""fullscreenenter"",""0"",""3385""
","
","
","""event"",""trial"",""time""
""fullscreenenter"",""0"",""3385""
","
","null","run_exp/static/images/Set 6_rs/045a.jpg","null","","","","","","learn","SR",""
"","html-keyboard-response","168","184275","0.0-168.0","""event"",""trial"",""time""
""fullscreenenter"",""0"",""3385""
","
","
","""event"",""trial"",""time""
""fullscreenenter"",""0"",""3385""
","
","null","<p></p>","null","","","","","","","",""
"","image","169","185069","0.0-169.0","""event"",""trial"",""time""
""fullscreenenter"",""0"",""3385""
","
","
","""event"",""trial"",""time""
""fullscreenenter"",""0"",""3385""
","
","788.7999999999884","run_exp/static/images/Set 6_rs/172a.jpg","78","","","","","","learn","SR",""
"","show_choice","170","186290","0.0-170.0","""event"",""trial"",""time""
""fullscreenenter"",""0"",""3385""
","
","
","""event"",""trial"",""time""
""fullscreenenter"",""0"",""3385""
","
","null","run_exp/static/images/Set 6_rs/172a.jpg","null","","","","","","learn","SR",""
"","html-keyboard-response","171","186793","0.0-171.0","""event"",""trial"",""time""
""fullscreenenter"",""0"",""3385""
","
","
","""event"",""trial"",""time""
""fullscreenenter"",""0"",""3385""
","
","null","<p></p>","null","","","","","","","",""
"","image","172","187569","0.0-172.0","""event"",""trial"",""time""
""fullscreenenter"",""0"",""3385""
","
","
","""event"",""trial"",""time""
""fullscreenenter"",""0"",""3385""
","
","769.8999999999651","run_exp/static/images/Set 6_rs/177a.jpg","78","","","","","","learn","SR",""
"","show_choice","173","188804","0.0-173.0","""event"",""trial"",""time""
""fullscreenenter"",""0"",""3385""
","
","
","""event"",""trial"",""time""
""fullscreenenter"",""0"",""3385""
","
","null","run_exp/static/images/Set 6_rs/177a.jpg","null","","","","","","learn","SR",""
"","html-keyboard-response","174","189309","0.0-174.0","""event"",""trial"",""time""
""fullscreenenter"",""0"",""3385""
","
","
","""event"",""trial"",""time""
""fullscreenenter"",""0"",""3385""
","
","null","<p></p>","null","","","","","","","",""
"","image","175","189933","0.0-175.0","""event"",""trial"",""time""
""fullscreenenter"",""0"",""3385""
","
","
","""event"",""trial"",""time""
""fullscreenenter"",""0"",""3385""
","
","616.7999999999884","run_exp/static/images/Set 6_rs/123a.jpg","78","","","","","","learn","SL",""
"","show_choice","176","191320","0.0-176.0","""event"",""trial"",""time""
""fullscreenenter"",""0"",""3385""
","
","
","""event"",""trial"",""time""
""fullscreenenter"",""0"",""3385""
","
","null","run_exp/static/images/Set 6_rs/123a.jpg","null","","","","","","learn","SL",""
"","html-keyboard-response","177","191825","0.0-177.0","""event"",""trial"",""time""
""fullscreenenter"",""0"",""3385""
","
","
","""event"",""trial"",""time""
""fullscreenenter"",""0"",""3385""
","
","null","<p></p>","null","","","","","","","",""
"","image","178","192520","0.0-178.0","""event"",""trial"",""time""
""fullscreenenter"",""0"",""3385""
","
","
","""event"",""trial"",""time""
""fullscreenenter"",""0"",""3385""
","
","689.1000000000349","run_exp/static/images/Set 6_rs/024a.jpg","86","","","","","","learn","SR",""
"","show_choice","179","193837","0.0-179.0","""event"",""trial"",""time""
""fullscreenenter"",""0"",""3385""
","
","
","""event"",""trial"",""time""
""fullscreenenter"",""0"",""3385""
","
","null","run_exp/static/images/Set 6_rs/024a.jpg","null","","","","","","learn","SR",""
"","html-keyboard-response","180","194341","0.0-180.0","""event"",""trial"",""time""
""fullscreenenter"",""0"",""3385""
","
","
","""event"",""trial"",""time""
""fullscreenenter"",""0"",""3385""
","
","null","<p></p>","null","","","","","","","",""
"","image","181","195730","0.0-181.0","""event"",""trial"",""time""
""fullscreenenter"",""0"",""3385""
","
","
","""event"",""trial"",""time""
""fullscreenenter"",""0"",""3385""
","
","1384","run_exp/static/images/Set 6_rs/008a.jpg","86","","","","","","learn","SL",""
"","show_choice","182","196352","0.0-182.0","""event"",""trial"",""time""
""fullscreenenter"",""0"",""3385""
","
","
","""event"",""trial"",""time""
""fullscreenenter"",""0"",""3385""
","
","null","run_exp/static/images/Set 6_rs/008a.jpg","null","","","","","","learn","SL",""
"","html-keyboard-response","183","196857","0.0-183.0","""event"",""trial"",""time""
""fullscreenenter"",""0"",""3385""
","
","
","""event"",""trial"",""time""
""fullscreenenter"",""0"",""3385""
","
","null","<p></p>","null","","","","","","","",""
"","image","184","198169","0.0-184.0","""event"",""trial"",""time""
""fullscreenenter"",""0"",""3385""
","
","
","""event"",""trial"",""time""
""fullscreenenter"",""0"",""3385""
","
","1306.5","run_exp/static/images/Set 6_rs/014a.jpg","86","","","","","","learn","SL",""
"","show_choice","185","198867","0.0-185.0","""event"",""trial"",""time""
""fullscreenenter"",""0"",""3385""
","
","
","""event"",""trial"",""time""
""fullscreenenter"",""0"",""3385""
","
","null","run_exp/static/images/Set 6_rs/014a.jpg","null","","","","","","learn","SL",""
"","html-keyboard-response","186","199371","0.0-186.0","""event"",""trial"",""time""
""fullscreenenter"",""0"",""3385""
","
","
","""event"",""trial"",""time""
""fullscreenenter"",""0"",""3385""
","
","null","<p></p>","null","","","","","","","",""
"","image","187","200260","0.0-187.0","""event"",""trial"",""time""
""fullscreenenter"",""0"",""3385""
","
","
","""event"",""trial"",""time""
""fullscreenenter"",""0"",""3385""
","
","883.0999999999767","run_exp/static/images/Set 6_rs/141a.jpg","78","","","","","","learn","SR",""
"","show_choice","188","201381","0.0-188.0","""event"",""trial"",""time""
""fullscreenenter"",""0"",""3385""
","
","
","""event"",""trial"",""time""
""fullscreenenter"",""0"",""3385""
","
","null","run_exp/static/images/Set 6_rs/141a.jpg","null","","","","","","learn","SR",""
"","html-keyboard-response","189","201884","0.0-189.0","""event"",""trial"",""time""
""fullscreenenter"",""0"",""3385""
","
","
","""event"",""trial"",""time""
""fullscreenenter"",""0"",""3385""
","
","null","<p></p>","null","","","","","","","",""
"","image","190","202501","0.0-190.0","""event"",""trial"",""time""
""fullscreenenter"",""0"",""3385""
","
","
","""event"",""trial"",""time""
""fullscreenenter"",""0"",""3385""
","
","611","run_exp/static/images/Set 6_rs/007a.jpg","86","","","","","","learn","SR",""
"","show_choice","191","203896","0.0-191.0","""event"",""trial"",""time""
""fullscreenenter"",""0"",""3385""
","
","
","""event"",""trial"",""time""
""fullscreenenter"",""0"",""3385""
","
","null","run_exp/static/images/Set 6_rs/007a.jpg","null","","","","","","learn","SR",""
"","html-keyboard-response","192","204400","0.0-192.0","""event"",""trial"",""time""
""fullscreenenter"",""0"",""3385""
","
","
","""event"",""trial"",""time""
""fullscreenenter"",""0"",""3385""
","
","null","<p></p>","null","","","","","","","",""
"","image","193","205560","0.0-193.0","""event"",""trial"",""time""
""fullscreenenter"",""0"",""3385""
","
","
","""event"",""trial"",""time""
""fullscreenenter"",""0"",""3385""
","
","1154.5","run_exp/static/images/Set 6_rs/023a.jpg","86","","","","","","learn","SR",""
"","show_choice","194","206411","0.0-194.0","""event"",""trial"",""time""
""fullscreenenter"",""0"",""3385""
","
","
","""event"",""trial"",""time""
""fullscreenenter"",""0"",""3385""
","
","null","run_exp/static/images/Set 6_rs/023a.jpg","null","","","","","","learn","SR",""
"","html-keyboard-response","195","206916","0.0-195.0","""event"",""trial"",""time""
""fullscreenenter"",""0"",""3385""
","
","
","""event"",""trial"",""time""
""fullscreenenter"",""0"",""3385""
","
","null","<p></p>","null","","","","","","","",""
"","test_intro","196","243824","0.0-196.0","""event"",""trial"",""time""
""fullscreenenter"",""0"",""3385""
","
","
","""event"",""trial"",""time""
""fullscreenenter"",""0"",""3385""
","
","null","run_exp/static/audio/clip_2_memory.m4a","null","","","","","<div class='center'><p>Now, lets see how much you remember about the items you just saw.  For each item, you need to indicate if it was <b>old</b> by pressing the <b>v</b> key, <b>similar</b> by pressing the <b>b</b> key, or <b>new</b> by pressing the <b>n</b> key.</p><p>Old refers to an item that you saw before in the indoor/outdoor game that you just played, new refers to an item you have <b>not</b> seen before within the indoor/outdoor game, and similar refers to an item that is similar to an item youve seen before but is not exactly the same. </p><p>Before we begin, lets go over some brief demonstrations to make sure you understand.</p></div>","","",""
"","html-keyboard-response","197","263618","0.0-197.0","""event"",""trial"",""time""
""fullscreenenter"",""0"",""3385""
","
","
","""event"",""trial"",""time""
""fullscreenenter"",""0"",""3385""
","
","19787.399999999965","<div class='center'><p>Now, lets see how much you remember about the items you just saw.  For each item, you need to indicate if it was <b>old</b> by pressing the <b>v</b> key, <b>similar</b> by pressing the <b>b</b> key, or <b>new</b> by pressing the <b>n</b> key.</p><p>Old refers to an item that you saw before in the indoor/outdoor game that you just played, new refers to an item you have <b>not</b> seen before within the indoor/outdoor game, and similar refers to an item that is similar to an item youve seen before but is not exactly the same. </p><p>Before we begin, lets go over some brief demonstrations to make sure you understand.</p><div><p><b>[Press the space bar to continue]</b></p></div>","32","","","","","","","",""
"","items","198","271123","0.0-198.0","""event"",""trial"",""time""
""fullscreenenter"",""0"",""3385""
","
","
","""event"",""trial"",""time""
""fullscreenenter"",""0"",""3385""
","
","null","run_exp/static/audio/clip_3_items.m4a","null","","","","","","","",""
"","mop","199","275633","0.0-199.0","""event"",""trial"",""time""
""fullscreenenter"",""0"",""3385""
","
","
","""event"",""trial"",""time""
""fullscreenenter"",""0"",""3385""
","
","null","run_exp/static/audio/clip_4_mop.m4a","null","","","","","","","",""
"","baseball","200","279141","0.0-200.0","""event"",""trial"",""time""
""fullscreenenter"",""0"",""3385""
","
","
","""event"",""trial"",""time""
""fullscreenenter"",""0"",""3385""
","
","null","run_exp/static/audio/clip_5_baseball.m4a","null","","","","","","","",""
"","trumpet","201","282652","0.0-201.0","""event"",""trial"",""time""
""fullscreenenter"",""0"",""3385""
","
","
","""event"",""trial"",""time""
""fullscreenenter"",""0"",""3385""
","
","null","run_exp/static/audio/clip_6_trumpet.m4a","null","","","","","","","",""
"","gummies","202","286162","0.0-202.0","""event"",""trial"",""time""
""fullscreenenter"",""0"",""3385""
","
","
","""event"",""trial"",""time""
""fullscreenenter"",""0"",""3385""
","
","null","run_exp/static/audio/clip_7_gummies.m4a","null","","","","","","","",""
"","osn","203","290671","0.0-203.0","""event"",""trial"",""time""
""fullscreenenter"",""0"",""3385""
","
","
","""event"",""trial"",""time""
""fullscreenenter"",""0"",""3385""
","
","null","run_exp/static/audio/clip_8_osn.m4a","null","","","","","","","",""
"","old_1","204","297183","0.0-204.0","""event"",""trial"",""time""
""fullscreenenter"",""0"",""3385""
","
","
","""event"",""trial"",""time""
""fullscreenenter"",""0"",""3385""
","
","null","run_exp/static/audio/clip_9_old_trumpet.m4a","null","","","","","","","",""
"","new_1","205","304696","0.0-205.0","""event"",""trial"",""time""
""fullscreenenter"",""0"",""3385""
","
","
","""event"",""trial"",""time""
""fullscreenenter"",""0"",""3385""
","
","null","run_exp/static/audio/clip_10_new_balloon.m4a","null","","","","","","","",""
"","similar_1a","206","309207","0.0-206.0","""event"",""trial"",""time""
""fullscreenenter"",""0"",""3385""
","
","
","""event"",""trial"",""time""
""fullscreenenter"",""0"",""3385""
","
","null","run_exp/static/audio/clip_11a_similar_mop.m4a","null","","","","","","","",""
"","similar_1b","207","315716","0.0-207.0","""event"",""trial"",""time""
""fullscreenenter"",""0"",""3385""
","
","
","""event"",""trial"",""time""
""fullscreenenter"",""0"",""3385""
","
","null","run_exp/static/audio/clip_11b_similar_mop.m4a","null","","","","","","","",""
"","new_2","208","319226","0.0-208.0","""event"",""trial"",""time""
""fullscreenenter"",""0"",""3385""
","
","
","""event"",""trial"",""time""
""fullscreenenter"",""0"",""3385""
","
","null","run_exp/static/audio/clip_12_new_stoplight.m4a","null","","","","","","","",""
"","old_2","209","322733","0.0-209.0","""event"",""trial"",""time""
""fullscreenenter"",""0"",""3385""
","
","
","""event"",""trial"",""time""
""fullscreenenter"",""0"",""3385""
","
","null","run_exp/static/audio/clip_13_old_baseball.m4a","null","","","","","","","",""
"","similar_2a","210","326241","0.0-210.0","""event"",""trial"",""time""
""fullscreenenter"",""0"",""3385""
","
","
","""event"",""trial"",""time""
""fullscreenenter"",""0"",""3385""
","
","null","run_exp/static/audio/clip_14a_similar_gummies.m4a","null","","","","","","","",""
"","similar_2b","211","333749","0.0-211.0","""event"",""trial"",""time""
""fullscreenenter"",""0"",""3385""
","
","
","""event"",""trial"",""time""
""fullscreenenter"",""0"",""3385""
","
","null","run_exp/static/audio/clip_14b_similar_gummies.m4a","null","","","","","","","",""
"","practice","212","376062","0.0-212.0","""event"",""trial"",""time""
""fullscreenenter"",""0"",""3385""
","
","
","""event"",""trial"",""time""
""fullscreenenter"",""0"",""3385""
","
","null","run_exp/static/audio/clip_15_practice.m4a","null","","","","","<div class='center'><p>Lets practice a little to make sure you understand the difference between new, similar, and old. Lets say you saw these three items in the indoor/outdoor game.</p><p> Try your best to remember these images because youll soon be tested on them in a practice game. In the practice game, youll be shown images and youll have to say if they are old (one of the three images belows), similar (similar to one of the images below but not exactly the same), or new (are not one of the images below nor similar to them).</p><p>Once you press the space bar youll be shown these images again but one at time. Then youll begin the practice game.</p><p><img src='run_exp/static/images/tutorial/test/three_indoor_outdoor.png' height='300'></p></div>","","",""
"","html-keyboard-response","213","410502","0.0-213.0","""event"",""trial"",""time""
""fullscreenenter"",""0"",""3385""
","
","
","""event"",""trial"",""time""
""fullscreenenter"",""0"",""3385""
","
","34431.20000000007","<div class='center'><p>Lets practice a little to make sure you understand the difference between new, similar, and old. Lets say you saw these three items in the indoor/outdoor game.</p><p> Try your best to remember these images because youll soon be tested on them in a practice game. In the practice game, youll be shown images and youll have to say if they are old (one of the three images belows), similar (similar to one of the images below but not exactly the same), or new (are not one of the images below nor similar to them).</p><p>Once you press the space bar youll be shown these images again but one at time. Then youll begin the practice game.</p><p><img src='run_exp/static/images/tutorial/test/three_indoor_outdoor.png' height='300'></p><div><p><b>[Press the space bar to continue]</b></p></div>","32","","","","","","","",""
"","planet","214","412508","0.0-214.0","""event"",""trial"",""time""
""fullscreenenter"",""0"",""3385""
","
","
","""event"",""trial"",""time""
""fullscreenenter"",""0"",""3385""
","
","null","run_exp/static/images/tutorial/test/008a.jpg","null","","","","","","","",""
"","boot","215","414514","0.0-215.0","""event"",""trial"",""time""
""fullscreenenter"",""0"",""3385""
","
","
","""event"",""trial"",""time""
""fullscreenenter"",""0"",""3385""
","
","null","run_exp/static/images/tutorial/test/011a.jpg","null","","","","","","","",""
"","lemon","216","416519","0.0-216.0","""event"",""trial"",""time""
""fullscreenenter"",""0"",""3385""
","
","
","""event"",""trial"",""time""
""fullscreenenter"",""0"",""3385""
","
","null","run_exp/static/images/tutorial/test/018a.jpg","null","","","","","","","",""
"","practice_q1","217","423407","0.0-217.0","""event"",""trial"",""time""
""fullscreenenter"",""0"",""3385""
","
","
","""event"",""trial"",""time""
""fullscreenenter"",""0"",""3385""
","
","6878.5","run_exp/static/audio/clip_16_practice_question.m4a","78","","","","","","","",""
"","correct","218","425530","0.0-218.0-0.0","""event"",""trial"",""time""
""fullscreenenter"",""0"",""3385""
","
","
","""event"",""trial"",""time""
""fullscreenenter"",""0"",""3385""
","
","null","run_exp/static/audio/clip_17_correct.m4a","null","","","","","<div class='center'><p>That's correct!</p></div>","","",""
"","html-keyboard-response","219","439783","0.0-218.0-1.0","""event"",""trial"",""time""
""fullscreenenter"",""0"",""3385""
","
","
","""event"",""trial"",""time""
""fullscreenenter"",""0"",""3385""
","
","14246.599999999977","<div class='center'><p>That's correct!</p><div><p><b>[Press the space bar to continue]</b></p></div>","32","","","","","","","",""
"","practice_q2","220","446072","0.0-218.0-2.0","""event"",""trial"",""time""
""fullscreenenter"",""0"",""3385""
","
","
","""event"",""trial"",""time""
""fullscreenenter"",""0"",""3385""
","
","6283.900000000023","run_exp/static/audio/clip_16_practice_question.m4a","78","","","","","","","",""
"","incorrect_q2","221","449295","0.0-219.0-0.0","""event"",""trial"",""time""
""fullscreenenter"",""0"",""3385""
","
","
","""event"",""trial"",""time""
""fullscreenenter"",""0"",""3385""
","
","null","run_exp/static/audio/clip_19_incorrect_old.m4a","null","","","","","<div class='center'><p>Thats incorrect. Its old.</p></div>","","",""
"","html-keyboard-response","222","451681","0.0-219.0-1.0","""event"",""trial"",""time""
""fullscreenenter"",""0"",""3385""
","
","
","""event"",""trial"",""time""
""fullscreenenter"",""0"",""3385""
","
","2378.9000000000233","<div class='center'><p>Thats incorrect. Its old.</p><div><p><b>[Press the space bar to continue]</b></p></div>","32","","","","","","","",""
"","practice_q3","223","454320","0.0-219.0-2.0","""event"",""trial"",""time""
""fullscreenenter"",""0"",""3385""
","
","
","""event"",""trial"",""time""
""fullscreenenter"",""0"",""3385""
","
","2631.5999999999767","run_exp/static/audio/clip_16_practice_question.m4a","86","","","","","","","",""
"","incorrect_q3","224","457312","0.0-220.0-0.0","""event"",""trial"",""time""
""fullscreenenter"",""0"",""3385""
","
","
","""event"",""trial"",""time""
""fullscreenenter"",""0"",""3385""
","
","null","run_exp/static/audio/clip_20_incorrect_similar.m4a","null","","","","","<div class='center'><p>Thats incorrect. Its similar.</p><p><img src='run_exp/static/images/tutorial/test/boot_comparison.png' height='300'></p></div>","","",""
"","html-keyboard-response","225","458967","0.0-220.0-1.0","""event"",""trial"",""time""
""fullscreenenter"",""0"",""3385""
","
","
","""event"",""trial"",""time""
""fullscreenenter"",""0"",""3385""
","
","1647.6999999999534","<div class='center'><p>Thats incorrect. Its similar.</p><p><img src='run_exp/static/images/tutorial/test/boot_comparison.png' height='300'></p><div><p><b>[Press the space bar to continue]</b></p></div>","32","","","","","","","",""
"","repeat","226","463880","0.0-221.0-0.0","""event"",""trial"",""time""
""fullscreenenter"",""0"",""3385""
","
","
","""event"",""trial"",""time""
""fullscreenenter"",""0"",""3385""
","
","null","run_exp/static/audio/clip_21_practice_again.m4a","null","","","","","<div class='center'><p>Oops. you missed at least one of these questions. Let's try practicing again. </p></div>","","",""
"","html-keyboard-response","227","465049","0.0-221.0-1.0","""event"",""trial"",""time""
""fullscreenenter"",""0"",""3385""
","
","
","""event"",""trial"",""time""
""fullscreenenter"",""0"",""3385""
","
","1161.5999999999767","<div class='center'><p>Oops. you missed at least one of these questions. Let's try practicing again. </p><div><p><b>[Press the space bar to continue]</b></p></div>","32","","","","","","","",""
"","practice_q1","228","468593","0.0-221.0-2.0","""event"",""trial"",""time""
""fullscreenenter"",""0"",""3385""
","
","
","""event"",""trial"",""time""
""fullscreenenter"",""0"",""3385""
","
","3538.0999999999767","run_exp/static/audio/clip_16_practice_question.m4a","78","","","","","","","",""
"","correct","229","470704","0.0-222.0-0.0","""event"",""trial"",""time""
""fullscreenenter"",""0"",""3385""
","
","
","""event"",""trial"",""time""
""fullscreenenter"",""0"",""3385""
","
","null","run_exp/static/audio/clip_17_correct.m4a","null","","","","","<div class='center'><p>That's correct!</p></div>","","",""
"","html-keyboard-response","230","471528","0.0-222.0-1.0","""event"",""trial"",""time""
""fullscreenenter"",""0"",""3385""
","
","
","""event"",""trial"",""time""
""fullscreenenter"",""0"",""3385""
","
","818.4000000000233","<div class='center'><p>That's correct!</p><div><p><b>[Press the space bar to continue]</b></p></div>","32","","","","","","","",""
"","practice_q2","231","474412","0.0-222.0-2.0","""event"",""trial"",""time""
""fullscreenenter"",""0"",""3385""
","
","
","""event"",""trial"",""time""
""fullscreenenter"",""0"",""3385""
","
","2873.5","run_exp/static/audio/clip_16_practice_question.m4a","86","","","","","","","",""
"","correct","232","476504","0.0-223.0-0.0","""event"",""trial"",""time""
""fullscreenenter"",""0"",""3385""
","
","
","""event"",""trial"",""time""
""fullscreenenter"",""0"",""3385""
","
","null","run_exp/static/audio/clip_17_correct.m4a","null","","","","","<div class='center'><p>That's correct!</p></div>","","",""
"","html-keyboard-response","233","477013","0.0-223.0-1.0","""event"",""trial"",""time""
""fullscreenenter"",""0"",""3385""
","
","
","""event"",""trial"",""time""
""fullscreenenter"",""0"",""3385""
","
","501.69999999995343","<div class='center'><p>That's correct!</p><div><p><b>[Press the space bar to continue]</b></p></div>","32","","","","","","","",""
"","practice_q3","234","477779","0.0-223.0-2.0","""event"",""trial"",""time""
""fullscreenenter"",""0"",""3385""
","
","
","""event"",""trial"",""time""
""fullscreenenter"",""0"",""3385""
","
","759","run_exp/static/audio/clip_16_practice_question.m4a","66","","","","","","","",""
"","correct","235","480428","0.0-224.0-0.0","""event"",""trial"",""time""
""fullscreenenter"",""0"",""3385""
","
","
","""event"",""trial"",""time""
""fullscreenenter"",""0"",""3385""
","
","null","run_exp/static/audio/clip_17_correct.m4a","null","","","","","<div class='center'><p>That's correct!</p></div>","","",""
"","html-keyboard-response","236","481832","0.0-224.0-1.0","""event"",""trial"",""time""
""fullscreenenter"",""0"",""3385""
","
","
","""event"",""trial"",""time""
""fullscreenenter"",""0"",""3385""
","
","1396.4000000000233","<div class='center'><p>That's correct!</p><div><p><b>[Press the space bar to continue]</b></p></div>","32","","","","","","","",""
"","begin_text","237","500473","0.0-225.0-0.0","""event"",""trial"",""time""
""fullscreenenter"",""0"",""3385""
","
","
","""event"",""trial"",""time""
""fullscreenenter"",""0"",""3385""
","
","null","run_exp/static/audio/clip_22_begin_test.m4a","null","","","","","<div class='center'><p>On to the real game where well test your memory of items from the indoor/outdoor game. For each item, you need to indicate if the item is <b>old</b> by pressing the <b>v</b> key, <b>similar</b> by pressing the <b>b</b> key, or <b>new</b> by pressing the <b>n</b> key. </p></div>","","",""
"","html-keyboard-response","238","502922","0.0-225.0-1.0","""event"",""trial"",""time""
""fullscreenenter"",""0"",""3385""
","
","
","""event"",""trial"",""time""
""fullscreenenter"",""0"",""3385""
","
","2440.29999999993","<div class='center'><p>On to the real game where well test your memory of items from the indoor/outdoor game. For each item, you need to indicate if the item is <b>old</b> by pressing the <b>v</b> key, <b>similar</b> by pressing the <b>b</b> key, or <b>new</b> by pressing the <b>n</b> key. </p><div><p><b>[Press the space bar to continue]</b></p></div>","32","","","","","","","",""
"","image","239","504741","0.0-226.0-0.0","""event"",""trial"",""time""
""fullscreenenter"",""0"",""3385""
","
","
","""event"",""trial"",""time""
""fullscreenenter"",""0"",""3385""
","
","1811.6999999999534","run_exp/static/images/Set 6_rs/015a.jpg","78","","","","","","test","TF","4"
"","show_choice","240","505248","0.0-226.0-1.0","""event"",""trial"",""time""
""fullscreenenter"",""0"",""3385""
","
","
","""event"",""trial"",""time""
""fullscreenenter"",""0"",""3385""
","
","null","run_exp/static/images/Set 6_rs/015a.jpg","null","","","","","","test","TF",""
"","html-keyboard-response","241","505753","0.0-226.0-2.0","""event"",""trial"",""time""
""fullscreenenter"",""0"",""3385""
","
","
","""event"",""trial"",""time""
""fullscreenenter"",""0"",""3385""
","
","null","<p></p>","null","","","","","","","",""
"","image","242","507496","0.0-227.0-0.0","""event"",""trial"",""time""
""fullscreenenter"",""0"",""3385""
","
","
","""event"",""trial"",""time""
""fullscreenenter"",""0"",""3385""
","
","1734.8000000000466","run_exp/static/images/Set 6_rs/061a.jpg","86","","","","","","test","TR","5"
"","show_choice","243","508002","0.0-227.0-1.0","""event"",""trial"",""time""
""fullscreenenter"",""0"",""3385""
","
","
","""event"",""trial"",""time""
""fullscreenenter"",""0"",""3385""
","
","null","run_exp/static/images/Set 6_rs/061a.jpg","null","","","","","","test","TR",""
"","html-keyboard-response","244","508507","0.0-227.0-2.0","""event"",""trial"",""time""
""fullscreenenter"",""0"",""3385""
","
","
","""event"",""trial"",""time""
""fullscreenenter"",""0"",""3385""
","
","null","<p></p>","null","","","","","","","",""
"","image","245","509982","0.0-228.0-0.0","""event"",""trial"",""time""
""fullscreenenter"",""0"",""3385""
","
","
","""event"",""trial"",""time""
""fullscreenenter"",""0"",""3385""
","
","1466.7000000000698","run_exp/static/images/Set 6_rs/188a.jpg","78","","","","","","test","TF","3"
"","show_choice","246","510489","0.0-228.0-1.0","""event"",""trial"",""time""
""fullscreenenter"",""0"",""3385""
","
","
","""event"",""trial"",""time""
""fullscreenenter"",""0"",""3385""
","
","null","run_exp/static/images/Set 6_rs/188a.jpg","null","","","","","","test","TF",""
"","html-keyboard-response","247","510993","0.0-228.0-2.0","""event"",""trial"",""time""
""fullscreenenter"",""0"",""3385""
","
","
","""event"",""trial"",""time""
""fullscreenenter"",""0"",""3385""
","
","null","<p></p>","null","","","","","","","",""
"","image","248","512528","0.0-229.0-0.0","""event"",""trial"",""time""
""fullscreenenter"",""0"",""3385""
","
","
","""event"",""trial"",""time""
""fullscreenenter"",""0"",""3385""
","
","1531.7999999999302","run_exp/static/images/Set 6_rs/014b.jpg","86","","","","","","test","TL","5"
"","show_choice","249","513031","0.0-229.0-1.0","""event"",""trial"",""time""
""fullscreenenter"",""0"",""3385""
","
","
","""event"",""trial"",""time""
""fullscreenenter"",""0"",""3385""
","
","null","run_exp/static/images/Set 6_rs/014b.jpg","null","","","","","","test","TL",""
"","html-keyboard-response","250","513535","0.0-229.0-2.0","""event"",""trial"",""time""
""fullscreenenter"",""0"",""3385""
","
","
","""event"",""trial"",""time""
""fullscreenenter"",""0"",""3385""
","
","null","<p></p>","null","","","","","","","",""
"","image","251","514680","0.0-230.0-0.0","""event"",""trial"",""time""
""fullscreenenter"",""0"",""3385""
","
","
","""event"",""trial"",""time""
""fullscreenenter"",""0"",""3385""
","
","1138.5","run_exp/static/images/Set 6_rs/057b.jpg","86","","","","","","test","TL","1"
"","show_choice","252","515186","0.0-230.0-1.0","""event"",""trial"",""time""
""fullscreenenter"",""0"",""3385""
","
","
","""event"",""trial"",""time""
""fullscreenenter"",""0"",""3385""
","
","null","run_exp/static/images/Set 6_rs/057b.jpg","null","","","","","","test","TL",""
"","html-keyboard-response","253","515691","0.0-230.0-2.0","""event"",""trial"",""time""
""fullscreenenter"",""0"",""3385""
","
","
","""event"",""trial"",""time""
""fullscreenenter"",""0"",""3385""
","
","null","<p></p>","null","","","","","","","",""
"","image","254","516920","0.0-231.0-0.0","""event"",""trial"",""time""
""fullscreenenter"",""0"",""3385""
","
","
","""event"",""trial"",""time""
""fullscreenenter"",""0"",""3385""
","
","1219.5999999999767","run_exp/static/images/Set 6_rs/097a.jpg","78","","","","","","test","TF","5"
"","show_choice","255","517425","0.0-231.0-1.0","""event"",""trial"",""time""
""fullscreenenter"",""0"",""3385""
","
","
","""event"",""trial"",""time""
""fullscreenenter"",""0"",""3385""
","
","null","run_exp/static/images/Set 6_rs/097a.jpg","null","","","","","","test","TF",""
"","html-keyboard-response","256","517927","0.0-231.0-2.0","""event"",""trial"",""time""
""fullscreenenter"",""0"",""3385""
","
","
","""event"",""trial"",""time""
""fullscreenenter"",""0"",""3385""
","
","null","<p></p>","null","","","","","","","",""
"","image","257","519891","0.0-232.0-0.0","""event"",""trial"",""time""
""fullscreenenter"",""0"",""3385""
","
","
","""event"",""trial"",""time""
""fullscreenenter"",""0"",""3385""
","
","1959.4000000000233","run_exp/static/images/Set 6_rs/024a.jpg","86","","","","","","test","TR","5"
"","show_choice","258","520397","0.0-232.0-1.0","""event"",""trial"",""time""
""fullscreenenter"",""0"",""3385""
","
","
","""event"",""trial"",""time""
""fullscreenenter"",""0"",""3385""
","
","null","run_exp/static/images/Set 6_rs/024a.jpg","null","","","","","","test","TR",""
"","html-keyboard-response","259","520903","0.0-232.0-2.0","""event"",""trial"",""time""
""fullscreenenter"",""0"",""3385""
","
","
","""event"",""trial"",""time""
""fullscreenenter"",""0"",""3385""
","
","null","<p></p>","null","","","","","","","",""
"","image","260","522449","0.0-233.0-0.0","""event"",""trial"",""time""
""fullscreenenter"",""0"",""3385""
","
","
","""event"",""trial"",""time""
""fullscreenenter"",""0"",""3385""
","
","1539.7999999999302","run_exp/static/images/Set 6_rs/023a.jpg","86","","","","","","test","TR","3"
"","show_choice","261","522956","0.0-233.0-1.0","""event"",""trial"",""time""
""fullscreenenter"",""0"",""3385""
","
","
","""event"",""trial"",""time""
""fullscreenenter"",""0"",""3385""
","
","null","run_exp/static/images/Set 6_rs/023a.jpg","null","","","","","","test","TR",""
"","html-keyboard-response","262","523459","0.0-233.0-2.0","""event"",""trial"",""time""
""fullscreenenter"",""0"",""3385""
","
","
","""event"",""trial"",""time""
""fullscreenenter"",""0"",""3385""
","
","null","<p></p>","null","","","","","","","",""
"","image","263","525117","0.0-234.0-0.0","""event"",""trial"",""time""
""fullscreenenter"",""0"",""3385""
","
","
","""event"",""trial"",""time""
""fullscreenenter"",""0"",""3385""
","
","1650.5","run_exp/static/images/Set 6_rs/133a.jpg","78","","","","","","test","TF","4"
"","show_choice","264","525622","0.0-234.0-1.0","""event"",""trial"",""time""
""fullscreenenter"",""0"",""3385""
","
","
","""event"",""trial"",""time""
""fullscreenenter"",""0"",""3385""
","
","null","run_exp/static/images/Set 6_rs/133a.jpg","null","","","","","","test","TF",""
"","html-keyboard-response","265","526125","0.0-234.0-2.0","""event"",""trial"",""time""
""fullscreenenter"",""0"",""3385""
","
","
","""event"",""trial"",""time""
""fullscreenenter"",""0"",""3385""
","
","null","<p></p>","null","","","","","","","",""
"","image","266","527263","0.0-235.0-0.0","""event"",""trial"",""time""
""fullscreenenter"",""0"",""3385""
","
","
","""event"",""trial"",""time""
""fullscreenenter"",""0"",""3385""
","
","1133.6000000000931","run_exp/static/images/Set 6_rs/055b.jpg","66","","","","","","test","TL","4"
"","show_choice","267","527769","0.0-235.0-1.0","""event"",""trial"",""time""
""fullscreenenter"",""0"",""3385""
","
","
","""event"",""trial"",""time""
""fullscreenenter"",""0"",""3385""
","
","null","run_exp/static/images/Set 6_rs/055b.jpg","null","","","","","","test","TL",""
"","html-keyboard-response","268","528274","0.0-235.0-2.0","""event"",""trial"",""time""
""fullscreenenter"",""0"",""3385""
","
","
","""event"",""trial"",""time""
""fullscreenenter"",""0"",""3385""
","
","null","<p></p>","null","","","","","","","",""
"","image","269","529360","0.0-236.0-0.0","""event"",""trial"",""time""
""fullscreenenter"",""0"",""3385""
","
","
","""event"",""trial"",""time""
""fullscreenenter"",""0"",""3385""
","
","1081.5999999999767","run_exp/static/images/Set 6_rs/141a.jpg","66","","","","","","test","TR","2"
"","show_choice","270","529866","0.0-236.0-1.0","""event"",""trial"",""time""
""fullscreenenter"",""0"",""3385""
","
","
","""event"",""trial"",""time""
""fullscreenenter"",""0"",""3385""
","
","null","run_exp/static/images/Set 6_rs/141a.jpg","null","","","","","","test","TR",""
"","html-keyboard-response","271","530370","0.0-236.0-2.0","""event"",""trial"",""time""
""fullscreenenter"",""0"",""3385""
","
","
","""event"",""trial"",""time""
""fullscreenenter"",""0"",""3385""
","
","null","<p></p>","null","","","","","","","",""
"","image","272","531945","0.0-237.0-0.0","""event"",""trial"",""time""
""fullscreenenter"",""0"",""3385""
","
","
","""event"",""trial"",""time""
""fullscreenenter"",""0"",""3385""
","
","1569.1999999999534","run_exp/static/images/Set 6_rs/089b.jpg","66","","","","","","test","TL","4"
"","show_choice","273","532451","0.0-237.0-1.0","""event"",""trial"",""time""
""fullscreenenter"",""0"",""3385""
","
","
","""event"",""trial"",""time""
""fullscreenenter"",""0"",""3385""
","
","null","run_exp/static/images/Set 6_rs/089b.jpg","null","","","","","","test","TL",""
"","html-keyboard-response","274","532956","0.0-237.0-2.0","""event"",""trial"",""time""
""fullscreenenter"",""0"",""3385""
","
","
","""event"",""trial"",""time""
""fullscreenenter"",""0"",""3385""
","
","null","<p></p>","null","","","","","","","",""
"","image","275","534632","0.0-238.0-0.0","""event"",""trial"",""time""
""fullscreenenter"",""0"",""3385""
","
","
","""event"",""trial"",""time""
""fullscreenenter"",""0"",""3385""
","
","1667.6999999999534","run_exp/static/images/Set 6_rs/144b.jpg","86","","","","","","test","TL","4"
"","show_choice","276","535138","0.0-238.0-1.0","""event"",""trial"",""time""
""fullscreenenter"",""0"",""3385""
","
","
","""event"",""trial"",""time""
""fullscreenenter"",""0"",""3385""
","
","null","run_exp/static/images/Set 6_rs/144b.jpg","null","","","","","","test","TL",""
"","html-keyboard-response","277","535643","0.0-238.0-2.0","""event"",""trial"",""time""
""fullscreenenter"",""0"",""3385""
","
","
","""event"",""trial"",""time""
""fullscreenenter"",""0"",""3385""
","
","null","<p></p>","null","","","","","","","",""
"","image","278","536930","0.0-239.0-0.0","""event"",""trial"",""time""
""fullscreenenter"",""0"",""3385""
","
","
","""event"",""trial"",""time""
""fullscreenenter"",""0"",""3385""
","
","1280.0999999999767","run_exp/static/images/Set 6_rs/172a.jpg","66","","","","","","test","TR","1"
"","show_choice","279","537435","0.0-239.0-1.0","""event"",""trial"",""time""
""fullscreenenter"",""0"",""3385""
","
","
","""event"",""trial"",""time""
""fullscreenenter"",""0"",""3385""
","
","null","run_exp/static/images/Set 6_rs/172a.jpg","null","","","","","","test","TR",""
"","html-keyboard-response","280","537940","0.0-239.0-2.0","""event"",""trial"",""time""
""fullscreenenter"",""0"",""3385""
","
","
","""event"",""trial"",""time""
""fullscreenenter"",""0"",""3385""
","
","null","<p></p>","null","","","","","","","",""
"","image","281","538780","0.0-240.0-0.0","""event"",""trial"",""time""
""fullscreenenter"",""0"",""3385""
","
","
","""event"",""trial"",""time""
""fullscreenenter"",""0"",""3385""
","
","836.3000000000466","run_exp/static/images/Set 6_rs/105a.jpg","86","","","","","","test","TF","5"
"","show_choice","282","539287","0.0-240.0-1.0","""event"",""trial"",""time""
""fullscreenenter"",""0"",""3385""
","
","
","""event"",""trial"",""time""
""fullscreenenter"",""0"",""3385""
","
","null","run_exp/static/images/Set 6_rs/105a.jpg","null","","","","","","test","TF",""
"","html-keyboard-response","283","539792","0.0-240.0-2.0","""event"",""trial"",""time""
""fullscreenenter"",""0"",""3385""
","
","
","""event"",""trial"",""time""
""fullscreenenter"",""0"",""3385""
","
","null","<p></p>","null","","","","","","","",""
"","image","284","540961","0.0-241.0-0.0","""event"",""trial"",""time""
""fullscreenenter"",""0"",""3385""
","
","
","""event"",""trial"",""time""
""fullscreenenter"",""0"",""3385""
","
","1161.5999999999767","run_exp/static/images/Set 6_rs/155a.jpg","78","","","","","","test","TF","4"
"","show_choice","285","541468","0.0-241.0-1.0","""event"",""trial"",""time""
""fullscreenenter"",""0"",""3385""
","
","
","""event"",""trial"",""time""
""fullscreenenter"",""0"",""3385""
","
","null","run_exp/static/images/Set 6_rs/155a.jpg","null","","","","","","test","TF",""
"","html-keyboard-response","286","541973","0.0-241.0-2.0","""event"",""trial"",""time""
""fullscreenenter"",""0"",""3385""
","
","
","""event"",""trial"",""time""
""fullscreenenter"",""0"",""3385""
","
","null","<p></p>","null","","","","","","","",""
"","image","287","544940","0.0-242.0-0.0","""event"",""trial"",""time""
""fullscreenenter"",""0"",""3385""
","
","
","""event"",""trial"",""time""
""fullscreenenter"",""0"",""3385""
","
","2960.399999999907","run_exp/static/images/Set 6_rs/062b.jpg","86","","","","","","test","TL","1"
"","show_choice","288","545444","0.0-242.0-1.0","""event"",""trial"",""time""
""fullscreenenter"",""0"",""3385""
","
","
","""event"",""trial"",""time""
""fullscreenenter"",""0"",""3385""
","
","null","run_exp/static/images/Set 6_rs/062b.jpg","null","","","","","","test","TL",""
"","html-keyboard-response","289","545947","0.0-242.0-2.0","""event"",""trial"",""time""
""fullscreenenter"",""0"",""3385""
","
","
","""event"",""trial"",""time""
""fullscreenenter"",""0"",""3385""
","
","null","<p></p>","null","","","","","","","",""
"","image","290","546596","0.0-243.0-0.0","""event"",""trial"",""time""
""fullscreenenter"",""0"",""3385""
","
","
","""event"",""trial"",""time""
""fullscreenenter"",""0"",""3385""
","
","644.5","run_exp/static/images/Set 6_rs/166a.jpg","86","","","","","","test","TR","1"
"","show_choice","291","547101","0.0-243.0-1.0","""event"",""trial"",""time""
""fullscreenenter"",""0"",""3385""
","
","
","""event"",""trial"",""time""
""fullscreenenter"",""0"",""3385""
","
","null","run_exp/static/images/Set 6_rs/166a.jpg","null","","","","","","test","TR",""
"","html-keyboard-response","292","547606","0.0-243.0-2.0","""event"",""trial"",""time""
""fullscreenenter"",""0"",""3385""
","
","
","""event"",""trial"",""time""
""fullscreenenter"",""0"",""3385""
","
","null","<p></p>","null","","","","","","","",""
"","image","293","549596","0.0-244.0-0.0","""event"",""trial"",""time""
""fullscreenenter"",""0"",""3385""
","
","
","""event"",""trial"",""time""
""fullscreenenter"",""0"",""3385""
","
","1984.5999999999767","run_exp/static/images/Set 6_rs/085b.jpg","78","","","","","","test","TL","1"
"","show_choice","294","550101","0.0-244.0-1.0","""event"",""trial"",""time""
""fullscreenenter"",""0"",""3385""
","
","
","""event"",""trial"",""time""
""fullscreenenter"",""0"",""3385""
","
","null","run_exp/static/images/Set 6_rs/085b.jpg","null","","","","","","test","TL",""
"","html-keyboard-response","295","550606","0.0-244.0-2.0","""event"",""trial"",""time""
""fullscreenenter"",""0"",""3385""
","
","
","""event"",""trial"",""time""
""fullscreenenter"",""0"",""3385""
","
","null","<p></p>","null","","","","","","","",""
"","image","296","553057","0.0-245.0-0.0","""event"",""trial"",""time""
""fullscreenenter"",""0"",""3385""
","
","
","""event"",""trial"",""time""
""fullscreenenter"",""0"",""3385""
","
","2443.4000000000233","run_exp/static/images/Set 6_rs/052a.jpg","78","","","","","","test","TF","1"
"","show_choice","297","553563","0.0-245.0-1.0","""event"",""trial"",""time""
""fullscreenenter"",""0"",""3385""
","
","
","""event"",""trial"",""time""
""fullscreenenter"",""0"",""3385""
","
","null","run_exp/static/images/Set 6_rs/052a.jpg","null","","","","","","test","TF",""
"","html-keyboard-response","298","554068","0.0-245.0-2.0","""event"",""trial"",""time""
""fullscreenenter"",""0"",""3385""
","
","
","""event"",""trial"",""time""
""fullscreenenter"",""0"",""3385""
","
","null","<p></p>","null","","","","","","","",""
"","image","299","555476","0.0-246.0-0.0","""event"",""trial"",""time""
""fullscreenenter"",""0"",""3385""
","
","
","""event"",""trial"",""time""
""fullscreenenter"",""0"",""3385""
","
","1396.7000000000698","run_exp/static/images/Set 6_rs/176a.jpg","66","","","","","","test","TF","4"
"","show_choice","300","555980","0.0-246.0-1.0","""event"",""trial"",""time""
""fullscreenenter"",""0"",""3385""
","
","
","""event"",""trial"",""time""
""fullscreenenter"",""0"",""3385""
","
","null","run_exp/static/images/Set 6_rs/176a.jpg","null","","","","","","test","TF",""
"","html-keyboard-response","301","556485","0.0-246.0-2.0","""event"",""trial"",""time""
""fullscreenenter"",""0"",""3385""
","
","
","""event"",""trial"",""time""
""fullscreenenter"",""0"",""3385""
","
","null","<p></p>","null","","","","","","","",""
"","image","302","559379","0.0-247.0-0.0","""event"",""trial"",""time""
""fullscreenenter"",""0"",""3385""
","
","
","""event"",""trial"",""time""
""fullscreenenter"",""0"",""3385""
","
","2889.5999999999767","run_exp/static/images/Set 6_rs/121a.jpg","86","","","","","","test","TR","4"
"","show_choice","303","559886","0.0-247.0-1.0","""event"",""trial"",""time""
""fullscreenenter"",""0"",""3385""
","
","
","""event"",""trial"",""time""
""fullscreenenter"",""0"",""3385""
","
","null","run_exp/static/images/Set 6_rs/121a.jpg","null","","","","","","test","TR",""
"","html-keyboard-response","304","560390","0.0-247.0-2.0","""event"",""trial"",""time""
""fullscreenenter"",""0"",""3385""
","
","
","""event"",""trial"",""time""
""fullscreenenter"",""0"",""3385""
","
","null","<p></p>","null","","","","","","","",""
"","image","305","562031","0.0-248.0-0.0","""event"",""trial"",""time""
""fullscreenenter"",""0"",""3385""
","
","
","""event"",""trial"",""time""
""fullscreenenter"",""0"",""3385""
","
","1634.9000000000233","run_exp/static/images/Set 6_rs/134a.jpg","86","","","","","","test","TR","3"
"","show_choice","306","562538","0.0-248.0-1.0","""event"",""trial"",""time""
""fullscreenenter"",""0"",""3385""
","
","
","""event"",""trial"",""time""
""fullscreenenter"",""0"",""3385""
","
","null","run_exp/static/images/Set 6_rs/134a.jpg","null","","","","","","test","TR",""
"","html-keyboard-response","307","563042","0.0-248.0-2.0","""event"",""trial"",""time""
""fullscreenenter"",""0"",""3385""
","
","
","""event"",""trial"",""time""
""fullscreenenter"",""0"",""3385""
","
","null","<p></p>","null","","","","","","","",""
"","image","308","566051","0.0-249.0-0.0","""event"",""trial"",""time""
""fullscreenenter"",""0"",""3385""
","
","
","""event"",""trial"",""time""
""fullscreenenter"",""0"",""3385""
","
","null","run_exp/static/images/Set 6_rs/170a.jpg","null","","","","","","test","TF","2"
"","show_choice","309","566559","0.0-249.0-1.0","""event"",""trial"",""time""
""fullscreenenter"",""0"",""3385""
","
","
","""event"",""trial"",""time""
""fullscreenenter"",""0"",""3385""
","
","null","run_exp/static/images/Set 6_rs/170a.jpg","null","","","","","","test","TF",""
"","html-keyboard-response","310","567064","0.0-249.0-2.0","""event"",""trial"",""time""
""fullscreenenter"",""0"",""3385""
","
","
","""event"",""trial"",""time""
""fullscreenenter"",""0"",""3385""
","
","null","<p></p>","null","","","","","","","",""
"","image","311","570072","0.0-250.0-0.0","""event"",""trial"",""time""
""fullscreenenter"",""0"",""3385""
","
","
","""event"",""trial"",""time""
""fullscreenenter"",""0"",""3385""
","
","null","run_exp/static/images/Set 6_rs/168b.jpg","null","","","","","","test","TL","3"
"","show_choice","312","570578","0.0-250.0-1.0","""event"",""trial"",""time""
""fullscreenenter"",""0"",""3385""
","
","
","""event"",""trial"",""time""
""fullscreenenter"",""0"",""3385""
","
","null","run_exp/static/images/Set 6_rs/168b.jpg","null","","","","","","test","TL",""
"","html-keyboard-response","313","571084","0.0-250.0-2.0","""event"",""trial"",""time""
""fullscreenenter"",""0"",""3385""
","
","
","""event"",""trial"",""time""
""fullscreenenter"",""0"",""3385""
","
","null","<p></p>","null","","","","","","","",""
"","image","314","573213","0.0-251.0-0.0","""event"",""trial"",""time""
""fullscreenenter"",""0"",""3385""
","
","
","""event"",""trial"",""time""
""fullscreenenter"",""0"",""3385""
","
","2122.5","run_exp/static/images/Set 6_rs/129b.jpg","86","","","","","","test","TL","1"
"","show_choice","315","573719","0.0-251.0-1.0","""event"",""trial"",""time""
""fullscreenenter"",""0"",""3385""
","
","
","""event"",""trial"",""time""
""fullscreenenter"",""0"",""3385""
","
","null","run_exp/static/images/Set 6_rs/129b.jpg","null","","","","","","test","TL",""
"","html-keyboard-response","316","574223","0.0-251.0-2.0","""event"",""trial"",""time""
""fullscreenenter"",""0"",""3385""
","
","
","""event"",""trial"",""time""
""fullscreenenter"",""0"",""3385""
","
","null","<p></p>","null","","","","","","","",""
"","image","317","575739","0.0-252.0-0.0","""event"",""trial"",""time""
""fullscreenenter"",""0"",""3385""
","
","
","""event"",""trial"",""time""
""fullscreenenter"",""0"",""3385""
","
","1507.9000000000233","run_exp/static/images/Set 6_rs/181b.jpg","78","","","","","","test","TL","1"
"","show_choice","318","576246","0.0-252.0-1.0","""event"",""trial"",""time""
""fullscreenenter"",""0"",""3385""
","
","
","""event"",""trial"",""time""
""fullscreenenter"",""0"",""3385""
","
","null","run_exp/static/images/Set 6_rs/181b.jpg","null","","","","","","test","TL",""
"","html-keyboard-response","319","576753","0.0-252.0-2.0","""event"",""trial"",""time""
""fullscreenenter"",""0"",""3385""
","
","
","""event"",""trial"",""time""
""fullscreenenter"",""0"",""3385""
","
","null","<p></p>","null","","","","","","","",""
"","image","320","577776","0.0-253.0-0.0","""event"",""trial"",""time""
""fullscreenenter"",""0"",""3385""
","
","
","""event"",""trial"",""time""
""fullscreenenter"",""0"",""3385""
","
","1013.3000000000466","run_exp/static/images/Set 6_rs/074b.jpg","86","","","","","","test","TL","4"
"","show_choice","321","578283","0.0-253.0-1.0","""event"",""trial"",""time""
""fullscreenenter"",""0"",""3385""
","
","
","""event"",""trial"",""time""
""fullscreenenter"",""0"",""3385""
","
","null","run_exp/static/images/Set 6_rs/074b.jpg","null","","","","","","test","TL",""
"","html-keyboard-response","322","578785","0.0-253.0-2.0","""event"",""trial"",""time""
""fullscreenenter"",""0"",""3385""
","
","
","""event"",""trial"",""time""
""fullscreenenter"",""0"",""3385""
","
","null","<p></p>","null","","","","","","","",""
"","image","323","579690","0.0-254.0-0.0","""event"",""trial"",""time""
""fullscreenenter"",""0"",""3385""
","
","
","""event"",""trial"",""time""
""fullscreenenter"",""0"",""3385""
","
","899.3000000000466","run_exp/static/images/Set 6_rs/076a.jpg","86","","","","","","test","TR","4"
"","show_choice","324","580196","0.0-254.0-1.0","""event"",""trial"",""time""
""fullscreenenter"",""0"",""3385""
","
","
","""event"",""trial"",""time""
""fullscreenenter"",""0"",""3385""
","
","null","run_exp/static/images/Set 6_rs/076a.jpg","null","","","","","","test","TR",""
"","html-keyboard-response","325","580701","0.0-254.0-2.0","""event"",""trial"",""time""
""fullscreenenter"",""0"",""3385""
","
","
","""event"",""trial"",""time""
""fullscreenenter"",""0"",""3385""
","
","null","<p></p>","null","","","","","","","",""
"","image","326","581487","0.0-255.0-0.0","""event"",""trial"",""time""
""fullscreenenter"",""0"",""3385""
","
","
","""event"",""trial"",""time""
""fullscreenenter"",""0"",""3385""
","
","780.1999999999534","run_exp/static/images/Set 6_rs/095b.jpg","86","","","","","","test","TL","5"
"","show_choice","327","581990","0.0-255.0-1.0","""event"",""trial"",""time""
""fullscreenenter"",""0"",""3385""
","
","
","""event"",""trial"",""time""
""fullscreenenter"",""0"",""3385""
","
","null","run_exp/static/images/Set 6_rs/095b.jpg","null","","","","","","test","TL",""
"","html-keyboard-response","328","582494","0.0-255.0-2.0","""event"",""trial"",""time""
""fullscreenenter"",""0"",""3385""
","
","
","""event"",""trial"",""time""
""fullscreenenter"",""0"",""3385""
","
","null","<p></p>","null","","","","","","","",""
"","image","329","583923","0.0-256.0-0.0","""event"",""trial"",""time""
""fullscreenenter"",""0"",""3385""
","
","
","""event"",""trial"",""time""
""fullscreenenter"",""0"",""3385""
","
","1424.1999999999534","run_exp/static/images/Set 6_rs/017b.jpg","86","","","","","","test","TL","3"
"","show_choice","330","584428","0.0-256.0-1.0","""event"",""trial"",""time""
""fullscreenenter"",""0"",""3385""
","
","
","""event"",""trial"",""time""
""fullscreenenter"",""0"",""3385""
","
","null","run_exp/static/images/Set 6_rs/017b.jpg","null","","","","","","test","TL",""
"","html-keyboard-response","331","584933","0.0-256.0-2.0","""event"",""trial"",""time""
""fullscreenenter"",""0"",""3385""
","
","
","""event"",""trial"",""time""
""fullscreenenter"",""0"",""3385""
","
","null","<p></p>","null","","","","","","","",""
"","image","332","585633","0.0-257.0-0.0","""event"",""trial"",""time""
""fullscreenenter"",""0"",""3385""
","
","
","""event"",""trial"",""time""
""fullscreenenter"",""0"",""3385""
","
","688.5999999999767","run_exp/static/images/Set 6_rs/150a.jpg","86","","","","","","test","TR","1"
"","show_choice","333","586141","0.0-257.0-1.0","""event"",""trial"",""time""
""fullscreenenter"",""0"",""3385""
","
","
","""event"",""trial"",""time""
""fullscreenenter"",""0"",""3385""
","
","null","run_exp/static/images/Set 6_rs/150a.jpg","null","","","","","","test","TR",""
"","html-keyboard-response","334","586646","0.0-257.0-2.0","""event"",""trial"",""time""
""fullscreenenter"",""0"",""3385""
","
","
","""event"",""trial"",""time""
""fullscreenenter"",""0"",""3385""
","
","null","<p></p>","null","","","","","","","",""
"","image","335","587310","0.0-258.0-0.0","""event"",""trial"",""time""
""fullscreenenter"",""0"",""3385""
","
","
","""event"",""trial"",""time""
""fullscreenenter"",""0"",""3385""
","
","656.2000000000698","run_exp/static/images/Set 6_rs/064a.jpg","86","","","","","","test","TR","5"
"","show_choice","336","587817","0.0-258.0-1.0","""event"",""trial"",""time""
""fullscreenenter"",""0"",""3385""
","
","
","""event"",""trial"",""time""
""fullscreenenter"",""0"",""3385""
","
","null","run_exp/static/images/Set 6_rs/064a.jpg","null","","","","","","test","TR",""
"","html-keyboard-response","337","588322","0.0-258.0-2.0","""event"",""trial"",""time""
""fullscreenenter"",""0"",""3385""
","
","
","""event"",""trial"",""time""
""fullscreenenter"",""0"",""3385""
","
","null","<p></p>","null","","","","","","","",""
