"success","trial_type","trial_index","time_elapsed","internal_node_id","interactions","blur_events","focus_events","fullscreenenter_events","fullscreenexit_events","rt","stimulus","key_press","subject_id","participant_id","age","gender","prompt","phase","condition","lure_bin"
"true","fullscreen","0","7042","0.0-0.0","""event"",""trial"",""time""
""fullscreenenter"",""0"",""6084""
","
","
","""event"",""trial"",""time""
""fullscreenenter"",""0"",""6084""
","
","","","","","","","","","","",""
"","pavlovia","1","7075","0.0-1.0","""event"",""trial"",""time""
""fullscreenenter"",""0"",""6084""
""fullscreenexit"",""2"",""18666""
""blur"",""2"",""20065""
""focus"",""2"",""22907""
""blur"",""2"",""27357""
""focus"",""2"",""29472""
""blur"",""2"",""31626""
""focus"",""2"",""34674""
","""event"",""trial"",""time""
""blur"",""2"",""20065""
""blur"",""2"",""27357""
""blur"",""2"",""31626""
","""event"",""trial"",""time""
""focus"",""2"",""22907""
""focus"",""2"",""29472""
""focus"",""2"",""34674""
","""event"",""trial"",""time""
""fullscreenenter"",""0"",""6084""
","""event"",""trial"",""time""
""fullscreenexit"",""2"",""18666""
","","","","","","","","","","",""
"","welcome","2","41879","0.0-2.0","""event"",""trial"",""time""
""fullscreenenter"",""0"",""6084""
""fullscreenexit"",""2"",""18666""
""blur"",""2"",""20065""
""focus"",""2"",""22907""
""blur"",""2"",""27357""
""focus"",""2"",""29472""
""blur"",""2"",""31626""
""focus"",""2"",""34674""
""blur"",""3"",""50777""
""focus"",""3"",""52422""
","""event"",""trial"",""time""
""blur"",""2"",""20065""
""blur"",""2"",""27357""
""blur"",""2"",""31626""
""blur"",""3"",""50777""
","""event"",""trial"",""time""
""focus"",""2"",""22907""
""focus"",""2"",""29472""
""focus"",""2"",""34674""
""focus"",""3"",""52422""
","""event"",""trial"",""time""
""fullscreenenter"",""0"",""6084""
","""event"",""trial"",""time""
""fullscreenexit"",""2"",""18666""
","null","run_exp/static/audio/clip_1_welcome.m4a","null","2108","202","9","Male","<div class='center'><p>Welcome to the third part of the study! First, you'll be shown pictures of items one at a time. For each picture, you have to decide if the item is typically found indoors or outdoors.</p><p>If you think it's usually found indoors, then press <b>v</b> key on your keyboard. If you think it's usually found outdoors, then press the <b>n</b> key.There will be reminders on the screen to help you remember which keys to press. </p><p>If you're not sure whether the item is an indoor item or an outdoor item, go ahead and take a guess but try your best not to skip that choice. </p></div>","","",""
"","html-keyboard-response","3","53502","0.0-3.0","""event"",""trial"",""time""
""fullscreenenter"",""0"",""6084""
""fullscreenexit"",""2"",""18666""
""blur"",""2"",""20065""
""focus"",""2"",""22907""
""blur"",""2"",""27357""
""focus"",""2"",""29472""
""blur"",""2"",""31626""
""focus"",""2"",""34674""
""blur"",""3"",""50777""
""focus"",""3"",""52422""
","""event"",""trial"",""time""
""blur"",""2"",""20065""
""blur"",""2"",""27357""
""blur"",""2"",""31626""
""blur"",""3"",""50777""
","""event"",""trial"",""time""
""focus"",""2"",""22907""
""focus"",""2"",""29472""
""focus"",""2"",""34674""
""focus"",""3"",""52422""
","""event"",""trial"",""time""
""fullscreenenter"",""0"",""6084""
","""event"",""trial"",""time""
""fullscreenexit"",""2"",""18666""
","11615.199999988079","<div class='center'><p>Welcome to the third part of the study! First, you'll be shown pictures of items one at a time. For each picture, you have to decide if the item is typically found indoors or outdoors.</p><p>If you think it's usually found indoors, then press <b>v</b> key on your keyboard. If you think it's usually found outdoors, then press the <b>n</b> key.There will be reminders on the screen to help you remember which keys to press. </p><p>If you're not sure whether the item is an indoor item or an outdoor item, go ahead and take a guess but try your best not to skip that choice. </p><div><p><b>[Press the space bar to continue]</b></p></div>","32","","","","","","","",""
"","image","4","55507","0.0-4.0","""event"",""trial"",""time""
""fullscreenenter"",""0"",""6084""
""fullscreenexit"",""2"",""18666""
""blur"",""2"",""20065""
""focus"",""2"",""22907""
""blur"",""2"",""27357""
""focus"",""2"",""29472""
""blur"",""2"",""31626""
""focus"",""2"",""34674""
""blur"",""3"",""50777""
""focus"",""3"",""52422""
","""event"",""trial"",""time""
""blur"",""2"",""20065""
""blur"",""2"",""27357""
""blur"",""2"",""31626""
""blur"",""3"",""50777""
","""event"",""trial"",""time""
""focus"",""2"",""22907""
""focus"",""2"",""29472""
""focus"",""2"",""34674""
""focus"",""3"",""52422""
","""event"",""trial"",""time""
""fullscreenenter"",""0"",""6084""
","""event"",""trial"",""time""
""fullscreenexit"",""2"",""18666""
","null","run_exp/static/images/Set 6_rs/024a.jpg","null","","","","","","learn","SR",""
"","show_choice","5","57517","0.0-5.0","""event"",""trial"",""time""
""fullscreenenter"",""0"",""6084""
""fullscreenexit"",""2"",""18666""
""blur"",""2"",""20065""
""focus"",""2"",""22907""
""blur"",""2"",""27357""
""focus"",""2"",""29472""
""blur"",""2"",""31626""
""focus"",""2"",""34674""
""blur"",""3"",""50777""
""focus"",""3"",""52422""
","""event"",""trial"",""time""
""blur"",""2"",""20065""
""blur"",""2"",""27357""
""blur"",""2"",""31626""
""blur"",""3"",""50777""
","""event"",""trial"",""time""
""focus"",""2"",""22907""
""focus"",""2"",""29472""
""focus"",""2"",""34674""
""focus"",""3"",""52422""
","""event"",""trial"",""time""
""fullscreenenter"",""0"",""6084""
","""event"",""trial"",""time""
""fullscreenexit"",""2"",""18666""
","null","run_exp/static/images/blank.png","null","","","","","","learn","SR",""
"","html-keyboard-response","6","58022","0.0-6.0","""event"",""trial"",""time""
""fullscreenenter"",""0"",""6084""
""fullscreenexit"",""2"",""18666""
""blur"",""2"",""20065""
""focus"",""2"",""22907""
""blur"",""2"",""27357""
""focus"",""2"",""29472""
""blur"",""2"",""31626""
""focus"",""2"",""34674""
""blur"",""3"",""50777""
""focus"",""3"",""52422""
","""event"",""trial"",""time""
""blur"",""2"",""20065""
""blur"",""2"",""27357""
""blur"",""2"",""31626""
""blur"",""3"",""50777""
","""event"",""trial"",""time""
""focus"",""2"",""22907""
""focus"",""2"",""29472""
""focus"",""2"",""34674""
""focus"",""3"",""52422""
","""event"",""trial"",""time""
""fullscreenenter"",""0"",""6084""
","""event"",""trial"",""time""
""fullscreenexit"",""2"",""18666""
","null","<p></p>","null","","","","","","","",""
"","image","7","59025","0.0-7.0","""event"",""trial"",""time""
""fullscreenenter"",""0"",""6084""
""fullscreenexit"",""2"",""18666""
""blur"",""2"",""20065""
""focus"",""2"",""22907""
""blur"",""2"",""27357""
""focus"",""2"",""29472""
""blur"",""2"",""31626""
""focus"",""2"",""34674""
""blur"",""3"",""50777""
""focus"",""3"",""52422""
","""event"",""trial"",""time""
""blur"",""2"",""20065""
""blur"",""2"",""27357""
""blur"",""2"",""31626""
""blur"",""3"",""50777""
","""event"",""trial"",""time""
""focus"",""2"",""22907""
""focus"",""2"",""29472""
""focus"",""2"",""34674""
""focus"",""3"",""52422""
","""event"",""trial"",""time""
""fullscreenenter"",""0"",""6084""
","""event"",""trial"",""time""
""fullscreenexit"",""2"",""18666""
","1000.8999999761581","run_exp/static/images/Set 6_rs/112a.jpg","86","","","","","","learn","SR",""
"","show_choice","8","60035","0.0-8.0","""event"",""trial"",""time""
""fullscreenenter"",""0"",""6084""
""fullscreenexit"",""2"",""18666""
""blur"",""2"",""20065""
""focus"",""2"",""22907""
""blur"",""2"",""27357""
""focus"",""2"",""29472""
""blur"",""2"",""31626""
""focus"",""2"",""34674""
""blur"",""3"",""50777""
""focus"",""3"",""52422""
","""event"",""trial"",""time""
""blur"",""2"",""20065""
""blur"",""2"",""27357""
""blur"",""2"",""31626""
""blur"",""3"",""50777""
","""event"",""trial"",""time""
""focus"",""2"",""22907""
""focus"",""2"",""29472""
""focus"",""2"",""34674""
""focus"",""3"",""52422""
","""event"",""trial"",""time""
""fullscreenenter"",""0"",""6084""
","""event"",""trial"",""time""
""fullscreenexit"",""2"",""18666""
","null","run_exp/static/images/Set 6_rs/112a.jpg","null","","","","","","learn","SR",""
"","html-keyboard-response","9","60539","0.0-9.0","""event"",""trial"",""time""
""fullscreenenter"",""0"",""6084""
""fullscreenexit"",""2"",""18666""
""blur"",""2"",""20065""
""focus"",""2"",""22907""
""blur"",""2"",""27357""
""focus"",""2"",""29472""
""blur"",""2"",""31626""
""focus"",""2"",""34674""
""blur"",""3"",""50777""
""focus"",""3"",""52422""
","""event"",""trial"",""time""
""blur"",""2"",""20065""
""blur"",""2"",""27357""
""blur"",""2"",""31626""
""blur"",""3"",""50777""
","""event"",""trial"",""time""
""focus"",""2"",""22907""
""focus"",""2"",""29472""
""focus"",""2"",""34674""
""focus"",""3"",""52422""
","""event"",""trial"",""time""
""fullscreenenter"",""0"",""6084""
","""event"",""trial"",""time""
""fullscreenexit"",""2"",""18666""
","null","<p></p>","null","","","","","","","",""
"","image","10","61416","0.0-10.0","""event"",""trial"",""time""
""fullscreenenter"",""0"",""6084""
""fullscreenexit"",""2"",""18666""
""blur"",""2"",""20065""
""focus"",""2"",""22907""
""blur"",""2"",""27357""
""focus"",""2"",""29472""
""blur"",""2"",""31626""
""focus"",""2"",""34674""
""blur"",""3"",""50777""
""focus"",""3"",""52422""
","""event"",""trial"",""time""
""blur"",""2"",""20065""
""blur"",""2"",""27357""
""blur"",""2"",""31626""
""blur"",""3"",""50777""
","""event"",""trial"",""time""
""focus"",""2"",""22907""
""focus"",""2"",""29472""
""focus"",""2"",""34674""
""focus"",""3"",""52422""
","""event"",""trial"",""time""
""fullscreenenter"",""0"",""6084""
","""event"",""trial"",""time""
""fullscreenexit"",""2"",""18666""
","876","run_exp/static/images/Set 6_rs/095a.jpg","86","","","","","","learn","SL",""
"","show_choice","11","62546","0.0-11.0","""event"",""trial"",""time""
""fullscreenenter"",""0"",""6084""
""fullscreenexit"",""2"",""18666""
""blur"",""2"",""20065""
""focus"",""2"",""22907""
""blur"",""2"",""27357""
""focus"",""2"",""29472""
""blur"",""2"",""31626""
""focus"",""2"",""34674""
""blur"",""3"",""50777""
""focus"",""3"",""52422""
","""event"",""trial"",""time""
""blur"",""2"",""20065""
""blur"",""2"",""27357""
""blur"",""2"",""31626""
""blur"",""3"",""50777""
","""event"",""trial"",""time""
""focus"",""2"",""22907""
""focus"",""2"",""29472""
""focus"",""2"",""34674""
""focus"",""3"",""52422""
","""event"",""trial"",""time""
""fullscreenenter"",""0"",""6084""
","""event"",""trial"",""time""
""fullscreenexit"",""2"",""18666""
","null","run_exp/static/images/Set 6_rs/095a.jpg","null","","","","","","learn","SL",""
"","html-keyboard-response","12","63050","0.0-12.0","""event"",""trial"",""time""
""fullscreenenter"",""0"",""6084""
""fullscreenexit"",""2"",""18666""
""blur"",""2"",""20065""
""focus"",""2"",""22907""
""blur"",""2"",""27357""
""focus"",""2"",""29472""
""blur"",""2"",""31626""
""focus"",""2"",""34674""
""blur"",""3"",""50777""
""focus"",""3"",""52422""
","""event"",""trial"",""time""
""blur"",""2"",""20065""
""blur"",""2"",""27357""
""blur"",""2"",""31626""
""blur"",""3"",""50777""
","""event"",""trial"",""time""
""focus"",""2"",""22907""
""focus"",""2"",""29472""
""focus"",""2"",""34674""
""focus"",""3"",""52422""
","""event"",""trial"",""time""
""fullscreenenter"",""0"",""6084""
","""event"",""trial"",""time""
""fullscreenexit"",""2"",""18666""
","null","<p></p>","null","","","","","","","",""
"","image","13","64636","0.0-13.0","""event"",""trial"",""time""
""fullscreenenter"",""0"",""6084""
""fullscreenexit"",""2"",""18666""
""blur"",""2"",""20065""
""focus"",""2"",""22907""
""blur"",""2"",""27357""
""focus"",""2"",""29472""
""blur"",""2"",""31626""
""focus"",""2"",""34674""
""blur"",""3"",""50777""
""focus"",""3"",""52422""
","""event"",""trial"",""time""
""blur"",""2"",""20065""
""blur"",""2"",""27357""
""blur"",""2"",""31626""
""blur"",""3"",""50777""
","""event"",""trial"",""time""
""focus"",""2"",""22907""
""focus"",""2"",""29472""
""focus"",""2"",""34674""
""focus"",""3"",""52422""
","""event"",""trial"",""time""
""fullscreenenter"",""0"",""6084""
","""event"",""trial"",""time""
""fullscreenexit"",""2"",""18666""
","1584.4000000357628","run_exp/static/images/Set 6_rs/141a.jpg","86","","","","","","learn","SR",""
"","show_choice","14","65056","0.0-14.0","""event"",""trial"",""time""
""fullscreenenter"",""0"",""6084""
""fullscreenexit"",""2"",""18666""
""blur"",""2"",""20065""
""focus"",""2"",""22907""
""blur"",""2"",""27357""
""focus"",""2"",""29472""
""blur"",""2"",""31626""
""focus"",""2"",""34674""
""blur"",""3"",""50777""
""focus"",""3"",""52422""
","""event"",""trial"",""time""
""blur"",""2"",""20065""
""blur"",""2"",""27357""
""blur"",""2"",""31626""
""blur"",""3"",""50777""
","""event"",""trial"",""time""
""focus"",""2"",""22907""
""focus"",""2"",""29472""
""focus"",""2"",""34674""
""focus"",""3"",""52422""
","""event"",""trial"",""time""
""fullscreenenter"",""0"",""6084""
","""event"",""trial"",""time""
""fullscreenexit"",""2"",""18666""
","null","run_exp/static/images/Set 6_rs/141a.jpg","null","","","","","","learn","SR",""
"","html-keyboard-response","15","65559","0.0-15.0","""event"",""trial"",""time""
""fullscreenenter"",""0"",""6084""
""fullscreenexit"",""2"",""18666""
""blur"",""2"",""20065""
""focus"",""2"",""22907""
""blur"",""2"",""27357""
""focus"",""2"",""29472""
""blur"",""2"",""31626""
""focus"",""2"",""34674""
""blur"",""3"",""50777""
""focus"",""3"",""52422""
","""event"",""trial"",""time""
""blur"",""2"",""20065""
""blur"",""2"",""27357""
""blur"",""2"",""31626""
""blur"",""3"",""50777""
","""event"",""trial"",""time""
""focus"",""2"",""22907""
""focus"",""2"",""29472""
""focus"",""2"",""34674""
""focus"",""3"",""52422""
","""event"",""trial"",""time""
""fullscreenenter"",""0"",""6084""
","""event"",""trial"",""time""
""fullscreenexit"",""2"",""18666""
","null","<p></p>","null","","","","","","","",""
"","image","16","67569","0.0-16.0","""event"",""trial"",""time""
""fullscreenenter"",""0"",""6084""
""fullscreenexit"",""2"",""18666""
""blur"",""2"",""20065""
""focus"",""2"",""22907""
""blur"",""2"",""27357""
""focus"",""2"",""29472""
""blur"",""2"",""31626""
""focus"",""2"",""34674""
""blur"",""3"",""50777""
""focus"",""3"",""52422""
","""event"",""trial"",""time""
""blur"",""2"",""20065""
""blur"",""2"",""27357""
""blur"",""2"",""31626""
""blur"",""3"",""50777""
","""event"",""trial"",""time""
""focus"",""2"",""22907""
""focus"",""2"",""29472""
""focus"",""2"",""34674""
""focus"",""3"",""52422""
","""event"",""trial"",""time""
""fullscreenenter"",""0"",""6084""
","""event"",""trial"",""time""
""fullscreenexit"",""2"",""18666""
","null","run_exp/static/images/Set 6_rs/008a.jpg","null","","","","","","learn","SL",""
"","show_choice","17","69577","0.0-17.0","""event"",""trial"",""time""
""fullscreenenter"",""0"",""6084""
""fullscreenexit"",""2"",""18666""
""blur"",""2"",""20065""
""focus"",""2"",""22907""
""blur"",""2"",""27357""
""focus"",""2"",""29472""
""blur"",""2"",""31626""
""focus"",""2"",""34674""
""blur"",""3"",""50777""
""focus"",""3"",""52422""
","""event"",""trial"",""time""
""blur"",""2"",""20065""
""blur"",""2"",""27357""
""blur"",""2"",""31626""
""blur"",""3"",""50777""
","""event"",""trial"",""time""
""focus"",""2"",""22907""
""focus"",""2"",""29472""
""focus"",""2"",""34674""
""focus"",""3"",""52422""
","""event"",""trial"",""time""
""fullscreenenter"",""0"",""6084""
","""event"",""trial"",""time""
""fullscreenexit"",""2"",""18666""
","null","run_exp/static/images/blank.png","null","","","","","","learn","SL",""
"","html-keyboard-response","18","70081","0.0-18.0","""event"",""trial"",""time""
""fullscreenenter"",""0"",""6084""
""fullscreenexit"",""2"",""18666""
""blur"",""2"",""20065""
""focus"",""2"",""22907""
""blur"",""2"",""27357""
""focus"",""2"",""29472""
""blur"",""2"",""31626""
""focus"",""2"",""34674""
""blur"",""3"",""50777""
""focus"",""3"",""52422""
","""event"",""trial"",""time""
""blur"",""2"",""20065""
""blur"",""2"",""27357""
""blur"",""2"",""31626""
""blur"",""3"",""50777""
","""event"",""trial"",""time""
""focus"",""2"",""22907""
""focus"",""2"",""29472""
""focus"",""2"",""34674""
""focus"",""3"",""52422""
","""event"",""trial"",""time""
""fullscreenenter"",""0"",""6084""
","""event"",""trial"",""time""
""fullscreenexit"",""2"",""18666""
","null","<p></p>","null","","","","","","","",""
"","image","19","71355","0.0-19.0","""event"",""trial"",""time""
""fullscreenenter"",""0"",""6084""
""fullscreenexit"",""2"",""18666""
""blur"",""2"",""20065""
""focus"",""2"",""22907""
""blur"",""2"",""27357""
""focus"",""2"",""29472""
""blur"",""2"",""31626""
""focus"",""2"",""34674""
""blur"",""3"",""50777""
""focus"",""3"",""52422""
","""event"",""trial"",""time""
""blur"",""2"",""20065""
""blur"",""2"",""27357""
""blur"",""2"",""31626""
""blur"",""3"",""50777""
","""event"",""trial"",""time""
""focus"",""2"",""22907""
""focus"",""2"",""29472""
""focus"",""2"",""34674""
""focus"",""3"",""52422""
","""event"",""trial"",""time""
""fullscreenenter"",""0"",""6084""
","""event"",""trial"",""time""
""fullscreenexit"",""2"",""18666""
","1272.199999988079","run_exp/static/images/Set 6_rs/057a.jpg","86","","","","","","learn","SL",""
"","show_choice","20","72089","0.0-20.0","""event"",""trial"",""time""
""fullscreenenter"",""0"",""6084""
""fullscreenexit"",""2"",""18666""
""blur"",""2"",""20065""
""focus"",""2"",""22907""
""blur"",""2"",""27357""
""focus"",""2"",""29472""
""blur"",""2"",""31626""
""focus"",""2"",""34674""
""blur"",""3"",""50777""
""focus"",""3"",""52422""
","""event"",""trial"",""time""
""blur"",""2"",""20065""
""blur"",""2"",""27357""
""blur"",""2"",""31626""
""blur"",""3"",""50777""
","""event"",""trial"",""time""
""focus"",""2"",""22907""
""focus"",""2"",""29472""
""focus"",""2"",""34674""
""focus"",""3"",""52422""
","""event"",""trial"",""time""
""fullscreenenter"",""0"",""6084""
","""event"",""trial"",""time""
""fullscreenexit"",""2"",""18666""
","null","run_exp/static/images/Set 6_rs/057a.jpg","null","","","","","","learn","SL",""
"","html-keyboard-response","21","72593","0.0-21.0","""event"",""trial"",""time""
""fullscreenenter"",""0"",""6084""
""fullscreenexit"",""2"",""18666""
""blur"",""2"",""20065""
""focus"",""2"",""22907""
""blur"",""2"",""27357""
""focus"",""2"",""29472""
""blur"",""2"",""31626""
""focus"",""2"",""34674""
""blur"",""3"",""50777""
""focus"",""3"",""52422""
","""event"",""trial"",""time""
""blur"",""2"",""20065""
""blur"",""2"",""27357""
""blur"",""2"",""31626""
""blur"",""3"",""50777""
","""event"",""trial"",""time""
""focus"",""2"",""22907""
""focus"",""2"",""29472""
""focus"",""2"",""34674""
""focus"",""3"",""52422""
","""event"",""trial"",""time""
""fullscreenenter"",""0"",""6084""
","""event"",""trial"",""time""
""fullscreenexit"",""2"",""18666""
","null","<p></p>","null","","","","","","","",""
"","image","22","73925","0.0-22.0","""event"",""trial"",""time""
""fullscreenenter"",""0"",""6084""
""fullscreenexit"",""2"",""18666""
""blur"",""2"",""20065""
""focus"",""2"",""22907""
""blur"",""2"",""27357""
""focus"",""2"",""29472""
""blur"",""2"",""31626""
""focus"",""2"",""34674""
""blur"",""3"",""50777""
""focus"",""3"",""52422""
","""event"",""trial"",""time""
""blur"",""2"",""20065""
""blur"",""2"",""27357""
""blur"",""2"",""31626""
""blur"",""3"",""50777""
","""event"",""trial"",""time""
""focus"",""2"",""22907""
""focus"",""2"",""29472""
""focus"",""2"",""34674""
""focus"",""3"",""52422""
","""event"",""trial"",""time""
""fullscreenenter"",""0"",""6084""
","""event"",""trial"",""time""
""fullscreenexit"",""2"",""18666""
","1331.199999988079","run_exp/static/images/Set 6_rs/074a.jpg","78","","","","","","learn","SL",""
"","show_choice","23","74600","0.0-23.0","""event"",""trial"",""time""
""fullscreenenter"",""0"",""6084""
""fullscreenexit"",""2"",""18666""
""blur"",""2"",""20065""
""focus"",""2"",""22907""
""blur"",""2"",""27357""
""focus"",""2"",""29472""
""blur"",""2"",""31626""
""focus"",""2"",""34674""
""blur"",""3"",""50777""
""focus"",""3"",""52422""
","""event"",""trial"",""time""
""blur"",""2"",""20065""
""blur"",""2"",""27357""
""blur"",""2"",""31626""
""blur"",""3"",""50777""
","""event"",""trial"",""time""
""focus"",""2"",""22907""
""focus"",""2"",""29472""
""focus"",""2"",""34674""
""focus"",""3"",""52422""
","""event"",""trial"",""time""
""fullscreenenter"",""0"",""6084""
","""event"",""trial"",""time""
""fullscreenexit"",""2"",""18666""
","null","run_exp/static/images/Set 6_rs/074a.jpg","null","","","","","","learn","SL",""
"","html-keyboard-response","24","75109","0.0-24.0","""event"",""trial"",""time""
""fullscreenenter"",""0"",""6084""
""fullscreenexit"",""2"",""18666""
""blur"",""2"",""20065""
""focus"",""2"",""22907""
""blur"",""2"",""27357""
""focus"",""2"",""29472""
""blur"",""2"",""31626""
""focus"",""2"",""34674""
""blur"",""3"",""50777""
""focus"",""3"",""52422""
","""event"",""trial"",""time""
""blur"",""2"",""20065""
""blur"",""2"",""27357""
""blur"",""2"",""31626""
""blur"",""3"",""50777""
","""event"",""trial"",""time""
""focus"",""2"",""22907""
""focus"",""2"",""29472""
""focus"",""2"",""34674""
""focus"",""3"",""52422""
","""event"",""trial"",""time""
""fullscreenenter"",""0"",""6084""
","""event"",""trial"",""time""
""fullscreenexit"",""2"",""18666""
","null","<p></p>","null","","","","","","","",""
"","image","25","76798","0.0-25.0","""event"",""trial"",""time""
""fullscreenenter"",""0"",""6084""
""fullscreenexit"",""2"",""18666""
""blur"",""2"",""20065""
""focus"",""2"",""22907""
""blur"",""2"",""27357""
""focus"",""2"",""29472""
""blur"",""2"",""31626""
""focus"",""2"",""34674""
""blur"",""3"",""50777""
""focus"",""3"",""52422""
","""event"",""trial"",""time""
""blur"",""2"",""20065""
""blur"",""2"",""27357""
""blur"",""2"",""31626""
""blur"",""3"",""50777""
","""event"",""trial"",""time""
""focus"",""2"",""22907""
""focus"",""2"",""29472""
""focus"",""2"",""34674""
""focus"",""3"",""52422""
","""event"",""trial"",""time""
""fullscreenenter"",""0"",""6084""
","""event"",""trial"",""time""
""fullscreenexit"",""2"",""18666""
","1686.7999999523163","run_exp/static/images/Set 6_rs/111a.jpg","78","","","","","","learn","SL",""
"","show_choice","26","77118","0.0-26.0","""event"",""trial"",""time""
""fullscreenenter"",""0"",""6084""
""fullscreenexit"",""2"",""18666""
""blur"",""2"",""20065""
""focus"",""2"",""22907""
""blur"",""2"",""27357""
""focus"",""2"",""29472""
""blur"",""2"",""31626""
""focus"",""2"",""34674""
""blur"",""3"",""50777""
""focus"",""3"",""52422""
","""event"",""trial"",""time""
""blur"",""2"",""20065""
""blur"",""2"",""27357""
""blur"",""2"",""31626""
""blur"",""3"",""50777""
","""event"",""trial"",""time""
""focus"",""2"",""22907""
""focus"",""2"",""29472""
""focus"",""2"",""34674""
""focus"",""3"",""52422""
","""event"",""trial"",""time""
""fullscreenenter"",""0"",""6084""
","""event"",""trial"",""time""
""fullscreenexit"",""2"",""18666""
","null","run_exp/static/images/Set 6_rs/111a.jpg","null","","","","","","learn","SL",""
"","html-keyboard-response","27","77620","0.0-27.0","""event"",""trial"",""time""
""fullscreenenter"",""0"",""6084""
""fullscreenexit"",""2"",""18666""
""blur"",""2"",""20065""
""focus"",""2"",""22907""
""blur"",""2"",""27357""
""focus"",""2"",""29472""
""blur"",""2"",""31626""
""focus"",""2"",""34674""
""blur"",""3"",""50777""
""focus"",""3"",""52422""
","""event"",""trial"",""time""
""blur"",""2"",""20065""
""blur"",""2"",""27357""
""blur"",""2"",""31626""
""blur"",""3"",""50777""
","""event"",""trial"",""time""
""focus"",""2"",""22907""
""focus"",""2"",""29472""
""focus"",""2"",""34674""
""focus"",""3"",""52422""
","""event"",""trial"",""time""
""fullscreenenter"",""0"",""6084""
","""event"",""trial"",""time""
""fullscreenexit"",""2"",""18666""
","null","<p></p>","null","","","","","","","",""
"","image","28","78732","0.0-28.0","""event"",""trial"",""time""
""fullscreenenter"",""0"",""6084""
""fullscreenexit"",""2"",""18666""
""blur"",""2"",""20065""
""focus"",""2"",""22907""
""blur"",""2"",""27357""
""focus"",""2"",""29472""
""blur"",""2"",""31626""
""focus"",""2"",""34674""
""blur"",""3"",""50777""
""focus"",""3"",""52422""
","""event"",""trial"",""time""
""blur"",""2"",""20065""
""blur"",""2"",""27357""
""blur"",""2"",""31626""
""blur"",""3"",""50777""
","""event"",""trial"",""time""
""focus"",""2"",""22907""
""focus"",""2"",""29472""
""focus"",""2"",""34674""
""focus"",""3"",""52422""
","""event"",""trial"",""time""
""fullscreenenter"",""0"",""6084""
","""event"",""trial"",""time""
""fullscreenexit"",""2"",""18666""
","1110.699999988079","run_exp/static/images/Set 6_rs/108a.jpg","86","","","","","","learn","SR",""
"","show_choice","29","79628","0.0-29.0","""event"",""trial"",""time""
""fullscreenenter"",""0"",""6084""
""fullscreenexit"",""2"",""18666""
""blur"",""2"",""20065""
""focus"",""2"",""22907""
""blur"",""2"",""27357""
""focus"",""2"",""29472""
""blur"",""2"",""31626""
""focus"",""2"",""34674""
""blur"",""3"",""50777""
""focus"",""3"",""52422""
","""event"",""trial"",""time""
""blur"",""2"",""20065""
""blur"",""2"",""27357""
""blur"",""2"",""31626""
""blur"",""3"",""50777""
","""event"",""trial"",""time""
""focus"",""2"",""22907""
""focus"",""2"",""29472""
""focus"",""2"",""34674""
""focus"",""3"",""52422""
","""event"",""trial"",""time""
""fullscreenenter"",""0"",""6084""
","""event"",""trial"",""time""
""fullscreenexit"",""2"",""18666""
","null","run_exp/static/images/Set 6_rs/108a.jpg","null","","","","","","learn","SR",""
"","html-keyboard-response","30","80130","0.0-30.0","""event"",""trial"",""time""
""fullscreenenter"",""0"",""6084""
""fullscreenexit"",""2"",""18666""
""blur"",""2"",""20065""
""focus"",""2"",""22907""
""blur"",""2"",""27357""
""focus"",""2"",""29472""
""blur"",""2"",""31626""
""focus"",""2"",""34674""
""blur"",""3"",""50777""
""focus"",""3"",""52422""
""blur"",""31"",""81581""
","""event"",""trial"",""time""
""blur"",""2"",""20065""
""blur"",""2"",""27357""
""blur"",""2"",""31626""
""blur"",""3"",""50777""
""blur"",""31"",""81581""
","""event"",""trial"",""time""
""focus"",""2"",""22907""
""focus"",""2"",""29472""
""focus"",""2"",""34674""
""focus"",""3"",""52422""
","""event"",""trial"",""time""
""fullscreenenter"",""0"",""6084""
","""event"",""trial"",""time""
""fullscreenexit"",""2"",""18666""
","null","<p></p>","null","","","","","","","",""
"","image","31","82251","0.0-31.0","""event"",""trial"",""time""
""fullscreenenter"",""0"",""6084""
""fullscreenexit"",""2"",""18666""
""blur"",""2"",""20065""
""focus"",""2"",""22907""
""blur"",""2"",""27357""
""focus"",""2"",""29472""
""blur"",""2"",""31626""
""focus"",""2"",""34674""
""blur"",""3"",""50777""
""focus"",""3"",""52422""
""blur"",""31"",""81581""
""focus"",""32"",""83729""
","""event"",""trial"",""time""
""blur"",""2"",""20065""
""blur"",""2"",""27357""
""blur"",""2"",""31626""
""blur"",""3"",""50777""
""blur"",""31"",""81581""
","""event"",""trial"",""time""
""focus"",""2"",""22907""
""focus"",""2"",""29472""
""focus"",""2"",""34674""
""focus"",""3"",""52422""
""focus"",""32"",""83729""
","""event"",""trial"",""time""
""fullscreenenter"",""0"",""6084""
","""event"",""trial"",""time""
""fullscreenexit"",""2"",""18666""
","null","run_exp/static/images/Set 6_rs/016a.jpg","null","","","","","","learn","SL",""
"","show_choice","32","84259","0.0-32.0","""event"",""trial"",""time""
""fullscreenenter"",""0"",""6084""
""fullscreenexit"",""2"",""18666""
""blur"",""2"",""20065""
""focus"",""2"",""22907""
""blur"",""2"",""27357""
""focus"",""2"",""29472""
""blur"",""2"",""31626""
""focus"",""2"",""34674""
""blur"",""3"",""50777""
""focus"",""3"",""52422""
""blur"",""31"",""81581""
""focus"",""32"",""83729""
","""event"",""trial"",""time""
""blur"",""2"",""20065""
""blur"",""2"",""27357""
""blur"",""2"",""31626""
""blur"",""3"",""50777""
""blur"",""31"",""81581""
","""event"",""trial"",""time""
""focus"",""2"",""22907""
""focus"",""2"",""29472""
""focus"",""2"",""34674""
""focus"",""3"",""52422""
""focus"",""32"",""83729""
","""event"",""trial"",""time""
""fullscreenenter"",""0"",""6084""
","""event"",""trial"",""time""
""fullscreenexit"",""2"",""18666""
","null","run_exp/static/images/blank.png","null","","","","","","learn","SL",""
"","html-keyboard-response","33","84768","0.0-33.0","""event"",""trial"",""time""
""fullscreenenter"",""0"",""6084""
""fullscreenexit"",""2"",""18666""
""blur"",""2"",""20065""
""focus"",""2"",""22907""
""blur"",""2"",""27357""
""focus"",""2"",""29472""
""blur"",""2"",""31626""
""focus"",""2"",""34674""
""blur"",""3"",""50777""
""focus"",""3"",""52422""
""blur"",""31"",""81581""
""focus"",""32"",""83729""
","""event"",""trial"",""time""
""blur"",""2"",""20065""
""blur"",""2"",""27357""
""blur"",""2"",""31626""
""blur"",""3"",""50777""
""blur"",""31"",""81581""
","""event"",""trial"",""time""
""focus"",""2"",""22907""
""focus"",""2"",""29472""
""focus"",""2"",""34674""
""focus"",""3"",""52422""
""focus"",""32"",""83729""
","""event"",""trial"",""time""
""fullscreenenter"",""0"",""6084""
","""event"",""trial"",""time""
""fullscreenexit"",""2"",""18666""
","null","<p></p>","null","","","","","","","",""
"","image","34","86778","0.0-34.0","""event"",""trial"",""time""
""fullscreenenter"",""0"",""6084""
""fullscreenexit"",""2"",""18666""
""blur"",""2"",""20065""
""focus"",""2"",""22907""
""blur"",""2"",""27357""
""focus"",""2"",""29472""
""blur"",""2"",""31626""
""focus"",""2"",""34674""
""blur"",""3"",""50777""
""focus"",""3"",""52422""
""blur"",""31"",""81581""
""focus"",""32"",""83729""
","""event"",""trial"",""time""
""blur"",""2"",""20065""
""blur"",""2"",""27357""
""blur"",""2"",""31626""
""blur"",""3"",""50777""
""blur"",""31"",""81581""
","""event"",""trial"",""time""
""focus"",""2"",""22907""
""focus"",""2"",""29472""
""focus"",""2"",""34674""
""focus"",""3"",""52422""
""focus"",""32"",""83729""
","""event"",""trial"",""time""
""fullscreenenter"",""0"",""6084""
","""event"",""trial"",""time""
""fullscreenexit"",""2"",""18666""
","null","run_exp/static/images/Set 6_rs/126a.jpg","null","","","","","","learn","SR",""
"","show_choice","35","88783","0.0-35.0","""event"",""trial"",""time""
""fullscreenenter"",""0"",""6084""
""fullscreenexit"",""2"",""18666""
""blur"",""2"",""20065""
""focus"",""2"",""22907""
""blur"",""2"",""27357""
""focus"",""2"",""29472""
""blur"",""2"",""31626""
""focus"",""2"",""34674""
""blur"",""3"",""50777""
""focus"",""3"",""52422""
""blur"",""31"",""81581""
""focus"",""32"",""83729""
","""event"",""trial"",""time""
""blur"",""2"",""20065""
""blur"",""2"",""27357""
""blur"",""2"",""31626""
""blur"",""3"",""50777""
""blur"",""31"",""81581""
","""event"",""trial"",""time""
""focus"",""2"",""22907""
""focus"",""2"",""29472""
""focus"",""2"",""34674""
""focus"",""3"",""52422""
""focus"",""32"",""83729""
","""event"",""trial"",""time""
""fullscreenenter"",""0"",""6084""
","""event"",""trial"",""time""
""fullscreenexit"",""2"",""18666""
","null","run_exp/static/images/blank.png","null","","","","","","learn","SR",""
"","html-keyboard-response","36","89294","0.0-36.0","""event"",""trial"",""time""
""fullscreenenter"",""0"",""6084""
""fullscreenexit"",""2"",""18666""
""blur"",""2"",""20065""
""focus"",""2"",""22907""
""blur"",""2"",""27357""
""focus"",""2"",""29472""
""blur"",""2"",""31626""
""focus"",""2"",""34674""
""blur"",""3"",""50777""
""focus"",""3"",""52422""
""blur"",""31"",""81581""
""focus"",""32"",""83729""
","""event"",""trial"",""time""
""blur"",""2"",""20065""
""blur"",""2"",""27357""
""blur"",""2"",""31626""
""blur"",""3"",""50777""
""blur"",""31"",""81581""
","""event"",""trial"",""time""
""focus"",""2"",""22907""
""focus"",""2"",""29472""
""focus"",""2"",""34674""
""focus"",""3"",""52422""
""focus"",""32"",""83729""
","""event"",""trial"",""time""
""fullscreenenter"",""0"",""6084""
","""event"",""trial"",""time""
""fullscreenexit"",""2"",""18666""
","null","<p></p>","null","","","","","","","",""
"","image","37","91296","0.0-37.0","""event"",""trial"",""time""
""fullscreenenter"",""0"",""6084""
""fullscreenexit"",""2"",""18666""
""blur"",""2"",""20065""
""focus"",""2"",""22907""
""blur"",""2"",""27357""
""focus"",""2"",""29472""
""blur"",""2"",""31626""
""focus"",""2"",""34674""
""blur"",""3"",""50777""
""focus"",""3"",""52422""
""blur"",""31"",""81581""
""focus"",""32"",""83729""
","""event"",""trial"",""time""
""blur"",""2"",""20065""
""blur"",""2"",""27357""
""blur"",""2"",""31626""
""blur"",""3"",""50777""
""blur"",""31"",""81581""
","""event"",""trial"",""time""
""focus"",""2"",""22907""
""focus"",""2"",""29472""
""focus"",""2"",""34674""
""focus"",""3"",""52422""
""focus"",""32"",""83729""
","""event"",""trial"",""time""
""fullscreenenter"",""0"",""6084""
","""event"",""trial"",""time""
""fullscreenexit"",""2"",""18666""
","null","run_exp/static/images/Set 6_rs/071a.jpg","null","","","","","","learn","SL",""
"","show_choice","38","93302","0.0-38.0","""event"",""trial"",""time""
""fullscreenenter"",""0"",""6084""
""fullscreenexit"",""2"",""18666""
""blur"",""2"",""20065""
""focus"",""2"",""22907""
""blur"",""2"",""27357""
""focus"",""2"",""29472""
""blur"",""2"",""31626""
""focus"",""2"",""34674""
""blur"",""3"",""50777""
""focus"",""3"",""52422""
""blur"",""31"",""81581""
""focus"",""32"",""83729""
","""event"",""trial"",""time""
""blur"",""2"",""20065""
""blur"",""2"",""27357""
""blur"",""2"",""31626""
""blur"",""3"",""50777""
""blur"",""31"",""81581""
","""event"",""trial"",""time""
""focus"",""2"",""22907""
""focus"",""2"",""29472""
""focus"",""2"",""34674""
""focus"",""3"",""52422""
""focus"",""32"",""83729""
","""event"",""trial"",""time""
""fullscreenenter"",""0"",""6084""
","""event"",""trial"",""time""
""fullscreenexit"",""2"",""18666""
","null","run_exp/static/images/blank.png","null","","","","","","learn","SL",""
"","html-keyboard-response","39","93811","0.0-39.0","""event"",""trial"",""time""
""fullscreenenter"",""0"",""6084""
""fullscreenexit"",""2"",""18666""
""blur"",""2"",""20065""
""focus"",""2"",""22907""
""blur"",""2"",""27357""
""focus"",""2"",""29472""
""blur"",""2"",""31626""
""focus"",""2"",""34674""
""blur"",""3"",""50777""
""focus"",""3"",""52422""
""blur"",""31"",""81581""
""focus"",""32"",""83729""
","""event"",""trial"",""time""
""blur"",""2"",""20065""
""blur"",""2"",""27357""
""blur"",""2"",""31626""
""blur"",""3"",""50777""
""blur"",""31"",""81581""
","""event"",""trial"",""time""
""focus"",""2"",""22907""
""focus"",""2"",""29472""
""focus"",""2"",""34674""
""focus"",""3"",""52422""
""focus"",""32"",""83729""
","""event"",""trial"",""time""
""fullscreenenter"",""0"",""6084""
","""event"",""trial"",""time""
""fullscreenexit"",""2"",""18666""
","null","<p></p>","null","","","","","","","",""
"","image","40","94704","0.0-40.0","""event"",""trial"",""time""
""fullscreenenter"",""0"",""6084""
""fullscreenexit"",""2"",""18666""
""blur"",""2"",""20065""
""focus"",""2"",""22907""
""blur"",""2"",""27357""
""focus"",""2"",""29472""
""blur"",""2"",""31626""
""focus"",""2"",""34674""
""blur"",""3"",""50777""
""focus"",""3"",""52422""
""blur"",""31"",""81581""
""focus"",""32"",""83729""
","""event"",""trial"",""time""
""blur"",""2"",""20065""
""blur"",""2"",""27357""
""blur"",""2"",""31626""
""blur"",""3"",""50777""
""blur"",""31"",""81581""
","""event"",""trial"",""time""
""focus"",""2"",""22907""
""focus"",""2"",""29472""
""focus"",""2"",""34674""
""focus"",""3"",""52422""
""focus"",""32"",""83729""
","""event"",""trial"",""time""
""fullscreenenter"",""0"",""6084""
","""event"",""trial"",""time""
""fullscreenexit"",""2"",""18666""
","891.9000000357628","run_exp/static/images/Set 6_rs/055a.jpg","86","","","","","","learn","SL",""
"","show_choice","41","95820","0.0-41.0","""event"",""trial"",""time""
""fullscreenenter"",""0"",""6084""
""fullscreenexit"",""2"",""18666""
""blur"",""2"",""20065""
""focus"",""2"",""22907""
""blur"",""2"",""27357""
""focus"",""2"",""29472""
""blur"",""2"",""31626""
""focus"",""2"",""34674""
""blur"",""3"",""50777""
""focus"",""3"",""52422""
""blur"",""31"",""81581""
""focus"",""32"",""83729""
","""event"",""trial"",""time""
""blur"",""2"",""20065""
""blur"",""2"",""27357""
""blur"",""2"",""31626""
""blur"",""3"",""50777""
""blur"",""31"",""81581""
","""event"",""trial"",""time""
""focus"",""2"",""22907""
""focus"",""2"",""29472""
""focus"",""2"",""34674""
""focus"",""3"",""52422""
""focus"",""32"",""83729""
","""event"",""trial"",""time""
""fullscreenenter"",""0"",""6084""
","""event"",""trial"",""time""
""fullscreenexit"",""2"",""18666""
","null","run_exp/static/images/Set 6_rs/055a.jpg","null","","","","","","learn","SL",""
"","html-keyboard-response","42","96325","0.0-42.0","""event"",""trial"",""time""
""fullscreenenter"",""0"",""6084""
""fullscreenexit"",""2"",""18666""
""blur"",""2"",""20065""
""focus"",""2"",""22907""
""blur"",""2"",""27357""
""focus"",""2"",""29472""
""blur"",""2"",""31626""
""focus"",""2"",""34674""
""blur"",""3"",""50777""
""focus"",""3"",""52422""
""blur"",""31"",""81581""
""focus"",""32"",""83729""
","""event"",""trial"",""time""
""blur"",""2"",""20065""
""blur"",""2"",""27357""
""blur"",""2"",""31626""
""blur"",""3"",""50777""
""blur"",""31"",""81581""
","""event"",""trial"",""time""
""focus"",""2"",""22907""
""focus"",""2"",""29472""
""focus"",""2"",""34674""
""focus"",""3"",""52422""
""focus"",""32"",""83729""
","""event"",""trial"",""time""
""fullscreenenter"",""0"",""6084""
","""event"",""trial"",""time""
""fullscreenexit"",""2"",""18666""
","null","<p></p>","null","","","","","","","",""
"","image","43","97545","0.0-43.0","""event"",""trial"",""time""
""fullscreenenter"",""0"",""6084""
""fullscreenexit"",""2"",""18666""
""blur"",""2"",""20065""
""focus"",""2"",""22907""
""blur"",""2"",""27357""
""focus"",""2"",""29472""
""blur"",""2"",""31626""
""focus"",""2"",""34674""
""blur"",""3"",""50777""
""focus"",""3"",""52422""
""blur"",""31"",""81581""
""focus"",""32"",""83729""
","""event"",""trial"",""time""
""blur"",""2"",""20065""
""blur"",""2"",""27357""
""blur"",""2"",""31626""
""blur"",""3"",""50777""
""blur"",""31"",""81581""
","""event"",""trial"",""time""
""focus"",""2"",""22907""
""focus"",""2"",""29472""
""focus"",""2"",""34674""
""focus"",""3"",""52422""
""focus"",""32"",""83729""
","""event"",""trial"",""time""
""fullscreenenter"",""0"",""6084""
","""event"",""trial"",""time""
""fullscreenexit"",""2"",""18666""
","1218.699999988079","run_exp/static/images/Set 6_rs/073a.jpg","86","","","","","","learn","SL",""
"","show_choice","44","98335","0.0-44.0","""event"",""trial"",""time""
""fullscreenenter"",""0"",""6084""
""fullscreenexit"",""2"",""18666""
""blur"",""2"",""20065""
""focus"",""2"",""22907""
""blur"",""2"",""27357""
""focus"",""2"",""29472""
""blur"",""2"",""31626""
""focus"",""2"",""34674""
""blur"",""3"",""50777""
""focus"",""3"",""52422""
""blur"",""31"",""81581""
""focus"",""32"",""83729""
","""event"",""trial"",""time""
""blur"",""2"",""20065""
""blur"",""2"",""27357""
""blur"",""2"",""31626""
""blur"",""3"",""50777""
""blur"",""31"",""81581""
","""event"",""trial"",""time""
""focus"",""2"",""22907""
""focus"",""2"",""29472""
""focus"",""2"",""34674""
""focus"",""3"",""52422""
""focus"",""32"",""83729""
","""event"",""trial"",""time""
""fullscreenenter"",""0"",""6084""
","""event"",""trial"",""time""
""fullscreenexit"",""2"",""18666""
","null","run_exp/static/images/Set 6_rs/073a.jpg","null","","","","","","learn","SL",""
"","html-keyboard-response","45","98839","0.0-45.0","""event"",""trial"",""time""
""fullscreenenter"",""0"",""6084""
""fullscreenexit"",""2"",""18666""
""blur"",""2"",""20065""
""focus"",""2"",""22907""
""blur"",""2"",""27357""
""focus"",""2"",""29472""
""blur"",""2"",""31626""
""focus"",""2"",""34674""
""blur"",""3"",""50777""
""focus"",""3"",""52422""
""blur"",""31"",""81581""
""focus"",""32"",""83729""
","""event"",""trial"",""time""
""blur"",""2"",""20065""
""blur"",""2"",""27357""
""blur"",""2"",""31626""
""blur"",""3"",""50777""
""blur"",""31"",""81581""
","""event"",""trial"",""time""
""focus"",""2"",""22907""
""focus"",""2"",""29472""
""focus"",""2"",""34674""
""focus"",""3"",""52422""
""focus"",""32"",""83729""
","""event"",""trial"",""time""
""fullscreenenter"",""0"",""6084""
","""event"",""trial"",""time""
""fullscreenexit"",""2"",""18666""
","null","<p></p>","null","","","","","","","",""
"","image","46","100464","0.0-46.0","""event"",""trial"",""time""
""fullscreenenter"",""0"",""6084""
""fullscreenexit"",""2"",""18666""
""blur"",""2"",""20065""
""focus"",""2"",""22907""
""blur"",""2"",""27357""
""focus"",""2"",""29472""
""blur"",""2"",""31626""
""focus"",""2"",""34674""
""blur"",""3"",""50777""
""focus"",""3"",""52422""
""blur"",""31"",""81581""
""focus"",""32"",""83729""
","""event"",""trial"",""time""
""blur"",""2"",""20065""
""blur"",""2"",""27357""
""blur"",""2"",""31626""
""blur"",""3"",""50777""
""blur"",""31"",""81581""
","""event"",""trial"",""time""
""focus"",""2"",""22907""
""focus"",""2"",""29472""
""focus"",""2"",""34674""
""focus"",""3"",""52422""
""focus"",""32"",""83729""
","""event"",""trial"",""time""
""fullscreenenter"",""0"",""6084""
","""event"",""trial"",""time""
""fullscreenexit"",""2"",""18666""
","1624.1000000238419","run_exp/static/images/Set 6_rs/012a.jpg","78","","","","","","learn","SR",""
"","show_choice","47","100848","0.0-47.0","""event"",""trial"",""time""
""fullscreenenter"",""0"",""6084""
""fullscreenexit"",""2"",""18666""
""blur"",""2"",""20065""
""focus"",""2"",""22907""
""blur"",""2"",""27357""
""focus"",""2"",""29472""
""blur"",""2"",""31626""
""focus"",""2"",""34674""
""blur"",""3"",""50777""
""focus"",""3"",""52422""
""blur"",""31"",""81581""
""focus"",""32"",""83729""
","""event"",""trial"",""time""
""blur"",""2"",""20065""
""blur"",""2"",""27357""
""blur"",""2"",""31626""
""blur"",""3"",""50777""
""blur"",""31"",""81581""
","""event"",""trial"",""time""
""focus"",""2"",""22907""
""focus"",""2"",""29472""
""focus"",""2"",""34674""
""focus"",""3"",""52422""
""focus"",""32"",""83729""
","""event"",""trial"",""time""
""fullscreenenter"",""0"",""6084""
","""event"",""trial"",""time""
""fullscreenexit"",""2"",""18666""
","null","run_exp/static/images/Set 6_rs/012a.jpg","null","","","","","","learn","SR",""
"","html-keyboard-response","48","101354","0.0-48.0","""event"",""trial"",""time""
""fullscreenenter"",""0"",""6084""
""fullscreenexit"",""2"",""18666""
""blur"",""2"",""20065""
""focus"",""2"",""22907""
""blur"",""2"",""27357""
""focus"",""2"",""29472""
""blur"",""2"",""31626""
""focus"",""2"",""34674""
""blur"",""3"",""50777""
""focus"",""3"",""52422""
""blur"",""31"",""81581""
""focus"",""32"",""83729""
","""event"",""trial"",""time""
""blur"",""2"",""20065""
""blur"",""2"",""27357""
""blur"",""2"",""31626""
""blur"",""3"",""50777""
""blur"",""31"",""81581""
","""event"",""trial"",""time""
""focus"",""2"",""22907""
""focus"",""2"",""29472""
""focus"",""2"",""34674""
""focus"",""3"",""52422""
""focus"",""32"",""83729""
","""event"",""trial"",""time""
""fullscreenenter"",""0"",""6084""
","""event"",""trial"",""time""
""fullscreenexit"",""2"",""18666""
","null","<p></p>","null","","","","","","","",""
"","image","49","102875","0.0-49.0","""event"",""trial"",""time""
""fullscreenenter"",""0"",""6084""
""fullscreenexit"",""2"",""18666""
""blur"",""2"",""20065""
""focus"",""2"",""22907""
""blur"",""2"",""27357""
""focus"",""2"",""29472""
""blur"",""2"",""31626""
""focus"",""2"",""34674""
""blur"",""3"",""50777""
""focus"",""3"",""52422""
""blur"",""31"",""81581""
""focus"",""32"",""83729""
","""event"",""trial"",""time""
""blur"",""2"",""20065""
""blur"",""2"",""27357""
""blur"",""2"",""31626""
""blur"",""3"",""50777""
""blur"",""31"",""81581""
","""event"",""trial"",""time""
""focus"",""2"",""22907""
""focus"",""2"",""29472""
""focus"",""2"",""34674""
""focus"",""3"",""52422""
""focus"",""32"",""83729""
","""event"",""trial"",""time""
""fullscreenenter"",""0"",""6084""
","""event"",""trial"",""time""
""fullscreenexit"",""2"",""18666""
","1520.3999999761581","run_exp/static/images/Set 6_rs/169a.jpg","78","","","","","","learn","SR",""
"","show_choice","50","103361","0.0-50.0","""event"",""trial"",""time""
""fullscreenenter"",""0"",""6084""
""fullscreenexit"",""2"",""18666""
""blur"",""2"",""20065""
""focus"",""2"",""22907""
""blur"",""2"",""27357""
""focus"",""2"",""29472""
""blur"",""2"",""31626""
""focus"",""2"",""34674""
""blur"",""3"",""50777""
""focus"",""3"",""52422""
""blur"",""31"",""81581""
""focus"",""32"",""83729""
","""event"",""trial"",""time""
""blur"",""2"",""20065""
""blur"",""2"",""27357""
""blur"",""2"",""31626""
""blur"",""3"",""50777""
""blur"",""31"",""81581""
","""event"",""trial"",""time""
""focus"",""2"",""22907""
""focus"",""2"",""29472""
""focus"",""2"",""34674""
""focus"",""3"",""52422""
""focus"",""32"",""83729""
","""event"",""trial"",""time""
""fullscreenenter"",""0"",""6084""
","""event"",""trial"",""time""
""fullscreenexit"",""2"",""18666""
","null","run_exp/static/images/Set 6_rs/169a.jpg","null","","","","","","learn","SR",""
"","html-keyboard-response","51","103865","0.0-51.0","""event"",""trial"",""time""
""fullscreenenter"",""0"",""6084""
""fullscreenexit"",""2"",""18666""
""blur"",""2"",""20065""
""focus"",""2"",""22907""
""blur"",""2"",""27357""
""focus"",""2"",""29472""
""blur"",""2"",""31626""
""focus"",""2"",""34674""
""blur"",""3"",""50777""
""focus"",""3"",""52422""
""blur"",""31"",""81581""
""focus"",""32"",""83729""
","""event"",""trial"",""time""
""blur"",""2"",""20065""
""blur"",""2"",""27357""
""blur"",""2"",""31626""
""blur"",""3"",""50777""
""blur"",""31"",""81581""
","""event"",""trial"",""time""
""focus"",""2"",""22907""
""focus"",""2"",""29472""
""focus"",""2"",""34674""
""focus"",""3"",""52422""
""focus"",""32"",""83729""
","""event"",""trial"",""time""
""fullscreenenter"",""0"",""6084""
","""event"",""trial"",""time""
""fullscreenexit"",""2"",""18666""
","null","<p></p>","null","","","","","","","",""
"","image","52","105072","0.0-52.0","""event"",""trial"",""time""
""fullscreenenter"",""0"",""6084""
""fullscreenexit"",""2"",""18666""
""blur"",""2"",""20065""
""focus"",""2"",""22907""
""blur"",""2"",""27357""
""focus"",""2"",""29472""
""blur"",""2"",""31626""
""focus"",""2"",""34674""
""blur"",""3"",""50777""
""focus"",""3"",""52422""
""blur"",""31"",""81581""
""focus"",""32"",""83729""
","""event"",""trial"",""time""
""blur"",""2"",""20065""
""blur"",""2"",""27357""
""blur"",""2"",""31626""
""blur"",""3"",""50777""
""blur"",""31"",""81581""
","""event"",""trial"",""time""
""focus"",""2"",""22907""
""focus"",""2"",""29472""
""focus"",""2"",""34674""
""focus"",""3"",""52422""
""focus"",""32"",""83729""
","""event"",""trial"",""time""
""fullscreenenter"",""0"",""6084""
","""event"",""trial"",""time""
""fullscreenexit"",""2"",""18666""
","1205.4000000357628","run_exp/static/images/Set 6_rs/154a.jpg","86","","","","","","learn","SR",""
"","show_choice","53","105873","0.0-53.0","""event"",""trial"",""time""
""fullscreenenter"",""0"",""6084""
""fullscreenexit"",""2"",""18666""
""blur"",""2"",""20065""
""focus"",""2"",""22907""
""blur"",""2"",""27357""
""focus"",""2"",""29472""
""blur"",""2"",""31626""
""focus"",""2"",""34674""
""blur"",""3"",""50777""
""focus"",""3"",""52422""
""blur"",""31"",""81581""
""focus"",""32"",""83729""
","""event"",""trial"",""time""
""blur"",""2"",""20065""
""blur"",""2"",""27357""
""blur"",""2"",""31626""
""blur"",""3"",""50777""
""blur"",""31"",""81581""
","""event"",""trial"",""time""
""focus"",""2"",""22907""
""focus"",""2"",""29472""
""focus"",""2"",""34674""
""focus"",""3"",""52422""
""focus"",""32"",""83729""
","""event"",""trial"",""time""
""fullscreenenter"",""0"",""6084""
","""event"",""trial"",""time""
""fullscreenexit"",""2"",""18666""
","null","run_exp/static/images/Set 6_rs/154a.jpg","null","","","","","","learn","SR",""
"","html-keyboard-response","54","106383","0.0-54.0","""event"",""trial"",""time""
""fullscreenenter"",""0"",""6084""
""fullscreenexit"",""2"",""18666""
""blur"",""2"",""20065""
""focus"",""2"",""22907""
""blur"",""2"",""27357""
""focus"",""2"",""29472""
""blur"",""2"",""31626""
""focus"",""2"",""34674""
""blur"",""3"",""50777""
""focus"",""3"",""52422""
""blur"",""31"",""81581""
""focus"",""32"",""83729""
","""event"",""trial"",""time""
""blur"",""2"",""20065""
""blur"",""2"",""27357""
""blur"",""2"",""31626""
""blur"",""3"",""50777""
""blur"",""31"",""81581""
","""event"",""trial"",""time""
""focus"",""2"",""22907""
""focus"",""2"",""29472""
""focus"",""2"",""34674""
""focus"",""3"",""52422""
""focus"",""32"",""83729""
","""event"",""trial"",""time""
""fullscreenenter"",""0"",""6084""
","""event"",""trial"",""time""
""fullscreenexit"",""2"",""18666""
","null","<p></p>","null","","","","","","","",""
"","image","55","108390","0.0-55.0","""event"",""trial"",""time""
""fullscreenenter"",""0"",""6084""
""fullscreenexit"",""2"",""18666""
""blur"",""2"",""20065""
""focus"",""2"",""22907""
""blur"",""2"",""27357""
""focus"",""2"",""29472""
""blur"",""2"",""31626""
""focus"",""2"",""34674""
""blur"",""3"",""50777""
""focus"",""3"",""52422""
""blur"",""31"",""81581""
""focus"",""32"",""83729""
","""event"",""trial"",""time""
""blur"",""2"",""20065""
""blur"",""2"",""27357""
""blur"",""2"",""31626""
""blur"",""3"",""50777""
""blur"",""31"",""81581""
","""event"",""trial"",""time""
""focus"",""2"",""22907""
""focus"",""2"",""29472""
""focus"",""2"",""34674""
""focus"",""3"",""52422""
""focus"",""32"",""83729""
","""event"",""trial"",""time""
""fullscreenenter"",""0"",""6084""
","""event"",""trial"",""time""
""fullscreenexit"",""2"",""18666""
","null","run_exp/static/images/Set 6_rs/036a.jpg","null","","","","","","learn","SL",""
"","show_choice","56","110395","0.0-56.0","""event"",""trial"",""time""
""fullscreenenter"",""0"",""6084""
""fullscreenexit"",""2"",""18666""
""blur"",""2"",""20065""
""focus"",""2"",""22907""
""blur"",""2"",""27357""
""focus"",""2"",""29472""
""blur"",""2"",""31626""
""focus"",""2"",""34674""
""blur"",""3"",""50777""
""focus"",""3"",""52422""
""blur"",""31"",""81581""
""focus"",""32"",""83729""
","""event"",""trial"",""time""
""blur"",""2"",""20065""
""blur"",""2"",""27357""
""blur"",""2"",""31626""
""blur"",""3"",""50777""
""blur"",""31"",""81581""
","""event"",""trial"",""time""
""focus"",""2"",""22907""
""focus"",""2"",""29472""
""focus"",""2"",""34674""
""focus"",""3"",""52422""
""focus"",""32"",""83729""
","""event"",""trial"",""time""
""fullscreenenter"",""0"",""6084""
","""event"",""trial"",""time""
""fullscreenexit"",""2"",""18666""
","null","run_exp/static/images/blank.png","null","","","","","","learn","SL",""
"","html-keyboard-response","57","110897","0.0-57.0","""event"",""trial"",""time""
""fullscreenenter"",""0"",""6084""
""fullscreenexit"",""2"",""18666""
""blur"",""2"",""20065""
""focus"",""2"",""22907""
""blur"",""2"",""27357""
""focus"",""2"",""29472""
""blur"",""2"",""31626""
""focus"",""2"",""34674""
""blur"",""3"",""50777""
""focus"",""3"",""52422""
""blur"",""31"",""81581""
""focus"",""32"",""83729""
","""event"",""trial"",""time""
""blur"",""2"",""20065""
""blur"",""2"",""27357""
""blur"",""2"",""31626""
""blur"",""3"",""50777""
""blur"",""31"",""81581""
","""event"",""trial"",""time""
""focus"",""2"",""22907""
""focus"",""2"",""29472""
""focus"",""2"",""34674""
""focus"",""3"",""52422""
""focus"",""32"",""83729""
","""event"",""trial"",""time""
""fullscreenenter"",""0"",""6084""
","""event"",""trial"",""time""
""fullscreenexit"",""2"",""18666""
","null","<p></p>","null","","","","","","","",""
"","image","58","111963","0.0-58.0","""event"",""trial"",""time""
""fullscreenenter"",""0"",""6084""
""fullscreenexit"",""2"",""18666""
""blur"",""2"",""20065""
""focus"",""2"",""22907""
""blur"",""2"",""27357""
""focus"",""2"",""29472""
""blur"",""2"",""31626""
""focus"",""2"",""34674""
""blur"",""3"",""50777""
""focus"",""3"",""52422""
""blur"",""31"",""81581""
""focus"",""32"",""83729""
","""event"",""trial"",""time""
""blur"",""2"",""20065""
""blur"",""2"",""27357""
""blur"",""2"",""31626""
""blur"",""3"",""50777""
""blur"",""31"",""81581""
","""event"",""trial"",""time""
""focus"",""2"",""22907""
""focus"",""2"",""29472""
""focus"",""2"",""34674""
""focus"",""3"",""52422""
""focus"",""32"",""83729""
","""event"",""trial"",""time""
""fullscreenenter"",""0"",""6084""
","""event"",""trial"",""time""
""fullscreenexit"",""2"",""18666""
","1064","run_exp/static/images/Set 6_rs/191a.jpg","86","","","","","","learn","SL",""
"","show_choice","59","112900","0.0-59.0","""event"",""trial"",""time""
""fullscreenenter"",""0"",""6084""
""fullscreenexit"",""2"",""18666""
""blur"",""2"",""20065""
""focus"",""2"",""22907""
""blur"",""2"",""27357""
""focus"",""2"",""29472""
""blur"",""2"",""31626""
""focus"",""2"",""34674""
""blur"",""3"",""50777""
""focus"",""3"",""52422""
""blur"",""31"",""81581""
""focus"",""32"",""83729""
","""event"",""trial"",""time""
""blur"",""2"",""20065""
""blur"",""2"",""27357""
""blur"",""2"",""31626""
""blur"",""3"",""50777""
""blur"",""31"",""81581""
","""event"",""trial"",""time""
""focus"",""2"",""22907""
""focus"",""2"",""29472""
""focus"",""2"",""34674""
""focus"",""3"",""52422""
""focus"",""32"",""83729""
","""event"",""trial"",""time""
""fullscreenenter"",""0"",""6084""
","""event"",""trial"",""time""
""fullscreenexit"",""2"",""18666""
","null","run_exp/static/images/Set 6_rs/191a.jpg","null","","","","","","learn","SL",""
"","html-keyboard-response","60","113402","0.0-60.0","""event"",""trial"",""time""
""fullscreenenter"",""0"",""6084""
""fullscreenexit"",""2"",""18666""
""blur"",""2"",""20065""
""focus"",""2"",""22907""
""blur"",""2"",""27357""
""focus"",""2"",""29472""
""blur"",""2"",""31626""
""focus"",""2"",""34674""
""blur"",""3"",""50777""
""focus"",""3"",""52422""
""blur"",""31"",""81581""
""focus"",""32"",""83729""
","""event"",""trial"",""time""
""blur"",""2"",""20065""
""blur"",""2"",""27357""
""blur"",""2"",""31626""
""blur"",""3"",""50777""
""blur"",""31"",""81581""
","""event"",""trial"",""time""
""focus"",""2"",""22907""
""focus"",""2"",""29472""
""focus"",""2"",""34674""
""focus"",""3"",""52422""
""focus"",""32"",""83729""
","""event"",""trial"",""time""
""fullscreenenter"",""0"",""6084""
","""event"",""trial"",""time""
""fullscreenexit"",""2"",""18666""
","null","<p></p>","null","","","","","","","",""
"","image","61","114420","0.0-61.0","""event"",""trial"",""time""
""fullscreenenter"",""0"",""6084""
""fullscreenexit"",""2"",""18666""
""blur"",""2"",""20065""
""focus"",""2"",""22907""
""blur"",""2"",""27357""
""focus"",""2"",""29472""
""blur"",""2"",""31626""
""focus"",""2"",""34674""
""blur"",""3"",""50777""
""focus"",""3"",""52422""
""blur"",""31"",""81581""
""focus"",""32"",""83729""
","""event"",""trial"",""time""
""blur"",""2"",""20065""
""blur"",""2"",""27357""
""blur"",""2"",""31626""
""blur"",""3"",""50777""
""blur"",""31"",""81581""
","""event"",""trial"",""time""
""focus"",""2"",""22907""
""focus"",""2"",""29472""
""focus"",""2"",""34674""
""focus"",""3"",""52422""
""focus"",""32"",""83729""
","""event"",""trial"",""time""
""fullscreenenter"",""0"",""6084""
","""event"",""trial"",""time""
""fullscreenexit"",""2"",""18666""
","1016.8000000119209","run_exp/static/images/Set 6_rs/144a.jpg","86","","","","","","learn","SL",""
"","show_choice","62","115420","0.0-62.0","""event"",""trial"",""time""
""fullscreenenter"",""0"",""6084""
""fullscreenexit"",""2"",""18666""
""blur"",""2"",""20065""
""focus"",""2"",""22907""
""blur"",""2"",""27357""
""focus"",""2"",""29472""
""blur"",""2"",""31626""
""focus"",""2"",""34674""
""blur"",""3"",""50777""
""focus"",""3"",""52422""
""blur"",""31"",""81581""
""focus"",""32"",""83729""
","""event"",""trial"",""time""
""blur"",""2"",""20065""
""blur"",""2"",""27357""
""blur"",""2"",""31626""
""blur"",""3"",""50777""
""blur"",""31"",""81581""
","""event"",""trial"",""time""
""focus"",""2"",""22907""
""focus"",""2"",""29472""
""focus"",""2"",""34674""
""focus"",""3"",""52422""
""focus"",""32"",""83729""
","""event"",""trial"",""time""
""fullscreenenter"",""0"",""6084""
","""event"",""trial"",""time""
""fullscreenexit"",""2"",""18666""
","null","run_exp/static/images/Set 6_rs/144a.jpg","null","","","","","","learn","SL",""
"","html-keyboard-response","63","115926","0.0-63.0","""event"",""trial"",""time""
""fullscreenenter"",""0"",""6084""
""fullscreenexit"",""2"",""18666""
""blur"",""2"",""20065""
""focus"",""2"",""22907""
""blur"",""2"",""27357""
""focus"",""2"",""29472""
""blur"",""2"",""31626""
""focus"",""2"",""34674""
""blur"",""3"",""50777""
""focus"",""3"",""52422""
""blur"",""31"",""81581""
""focus"",""32"",""83729""
","""event"",""trial"",""time""
""blur"",""2"",""20065""
""blur"",""2"",""27357""
""blur"",""2"",""31626""
""blur"",""3"",""50777""
""blur"",""31"",""81581""
","""event"",""trial"",""time""
""focus"",""2"",""22907""
""focus"",""2"",""29472""
""focus"",""2"",""34674""
""focus"",""3"",""52422""
""focus"",""32"",""83729""
","""event"",""trial"",""time""
""fullscreenenter"",""0"",""6084""
","""event"",""trial"",""time""
""fullscreenexit"",""2"",""18666""
","null","<p></p>","null","","","","","","","",""
"","image","64","117153","0.0-64.0","""event"",""trial"",""time""
""fullscreenenter"",""0"",""6084""
""fullscreenexit"",""2"",""18666""
""blur"",""2"",""20065""
""focus"",""2"",""22907""
""blur"",""2"",""27357""
""focus"",""2"",""29472""
""blur"",""2"",""31626""
""focus"",""2"",""34674""
""blur"",""3"",""50777""
""focus"",""3"",""52422""
""blur"",""31"",""81581""
""focus"",""32"",""83729""
","""event"",""trial"",""time""
""blur"",""2"",""20065""
""blur"",""2"",""27357""
""blur"",""2"",""31626""
""blur"",""3"",""50777""
""blur"",""31"",""81581""
","""event"",""trial"",""time""
""focus"",""2"",""22907""
""focus"",""2"",""29472""
""focus"",""2"",""34674""
""focus"",""3"",""52422""
""focus"",""32"",""83729""
","""event"",""trial"",""time""
""fullscreenenter"",""0"",""6084""
","""event"",""trial"",""time""
""fullscreenexit"",""2"",""18666""
","1225.699999988079","run_exp/static/images/Set 6_rs/076a.jpg","78","","","","","","learn","SR",""
"","show_choice","65","117943","0.0-65.0","""event"",""trial"",""time""
""fullscreenenter"",""0"",""6084""
""fullscreenexit"",""2"",""18666""
""blur"",""2"",""20065""
""focus"",""2"",""22907""
""blur"",""2"",""27357""
""focus"",""2"",""29472""
""blur"",""2"",""31626""
""focus"",""2"",""34674""
""blur"",""3"",""50777""
""focus"",""3"",""52422""
""blur"",""31"",""81581""
""focus"",""32"",""83729""
","""event"",""trial"",""time""
""blur"",""2"",""20065""
""blur"",""2"",""27357""
""blur"",""2"",""31626""
""blur"",""3"",""50777""
""blur"",""31"",""81581""
","""event"",""trial"",""time""
""focus"",""2"",""22907""
""focus"",""2"",""29472""
""focus"",""2"",""34674""
""focus"",""3"",""52422""
""focus"",""32"",""83729""
","""event"",""trial"",""time""
""fullscreenenter"",""0"",""6084""
","""event"",""trial"",""time""
""fullscreenexit"",""2"",""18666""
","null","run_exp/static/images/Set 6_rs/076a.jpg","null","","","","","","learn","SR",""
"","html-keyboard-response","66","118451","0.0-66.0","""event"",""trial"",""time""
""fullscreenenter"",""0"",""6084""
""fullscreenexit"",""2"",""18666""
""blur"",""2"",""20065""
""focus"",""2"",""22907""
""blur"",""2"",""27357""
""focus"",""2"",""29472""
""blur"",""2"",""31626""
""focus"",""2"",""34674""
""blur"",""3"",""50777""
""focus"",""3"",""52422""
""blur"",""31"",""81581""
""focus"",""32"",""83729""
","""event"",""trial"",""time""
""blur"",""2"",""20065""
""blur"",""2"",""27357""
""blur"",""2"",""31626""
""blur"",""3"",""50777""
""blur"",""31"",""81581""
","""event"",""trial"",""time""
""focus"",""2"",""22907""
""focus"",""2"",""29472""
""focus"",""2"",""34674""
""focus"",""3"",""52422""
""focus"",""32"",""83729""
","""event"",""trial"",""time""
""fullscreenenter"",""0"",""6084""
","""event"",""trial"",""time""
""fullscreenexit"",""2"",""18666""
","null","<p></p>","null","","","","","","","",""
"","image","67","119899","0.0-67.0","""event"",""trial"",""time""
""fullscreenenter"",""0"",""6084""
""fullscreenexit"",""2"",""18666""
""blur"",""2"",""20065""
""focus"",""2"",""22907""
""blur"",""2"",""27357""
""focus"",""2"",""29472""
""blur"",""2"",""31626""
""focus"",""2"",""34674""
""blur"",""3"",""50777""
""focus"",""3"",""52422""
""blur"",""31"",""81581""
""focus"",""32"",""83729""
","""event"",""trial"",""time""
""blur"",""2"",""20065""
""blur"",""2"",""27357""
""blur"",""2"",""31626""
""blur"",""3"",""50777""
""blur"",""31"",""81581""
","""event"",""trial"",""time""
""focus"",""2"",""22907""
""focus"",""2"",""29472""
""focus"",""2"",""34674""
""focus"",""3"",""52422""
""focus"",""32"",""83729""
","""event"",""trial"",""time""
""fullscreenenter"",""0"",""6084""
","""event"",""trial"",""time""
""fullscreenexit"",""2"",""18666""
","1447.2000000476837","run_exp/static/images/Set 6_rs/167a.jpg","86","","","","","","learn","SL",""
"","show_choice","68","120467","0.0-68.0","""event"",""trial"",""time""
""fullscreenenter"",""0"",""6084""
""fullscreenexit"",""2"",""18666""
""blur"",""2"",""20065""
""focus"",""2"",""22907""
""blur"",""2"",""27357""
""focus"",""2"",""29472""
""blur"",""2"",""31626""
""focus"",""2"",""34674""
""blur"",""3"",""50777""
""focus"",""3"",""52422""
""blur"",""31"",""81581""
""focus"",""32"",""83729""
","""event"",""trial"",""time""
""blur"",""2"",""20065""
""blur"",""2"",""27357""
""blur"",""2"",""31626""
""blur"",""3"",""50777""
""blur"",""31"",""81581""
","""event"",""trial"",""time""
""focus"",""2"",""22907""
""focus"",""2"",""29472""
""focus"",""2"",""34674""
""focus"",""3"",""52422""
""focus"",""32"",""83729""
","""event"",""trial"",""time""
""fullscreenenter"",""0"",""6084""
","""event"",""trial"",""time""
""fullscreenexit"",""2"",""18666""
","null","run_exp/static/images/Set 6_rs/167a.jpg","null","","","","","","learn","SL",""
"","html-keyboard-response","69","120976","0.0-69.0","""event"",""trial"",""time""
""fullscreenenter"",""0"",""6084""
""fullscreenexit"",""2"",""18666""
""blur"",""2"",""20065""
""focus"",""2"",""22907""
""blur"",""2"",""27357""
""focus"",""2"",""29472""
""blur"",""2"",""31626""
""focus"",""2"",""34674""
""blur"",""3"",""50777""
""focus"",""3"",""52422""
""blur"",""31"",""81581""
""focus"",""32"",""83729""
","""event"",""trial"",""time""
""blur"",""2"",""20065""
""blur"",""2"",""27357""
""blur"",""2"",""31626""
""blur"",""3"",""50777""
""blur"",""31"",""81581""
","""event"",""trial"",""time""
""focus"",""2"",""22907""
""focus"",""2"",""29472""
""focus"",""2"",""34674""
""focus"",""3"",""52422""
""focus"",""32"",""83729""
","""event"",""trial"",""time""
""fullscreenenter"",""0"",""6084""
","""event"",""trial"",""time""
""fullscreenexit"",""2"",""18666""
","null","<p></p>","null","","","","","","","",""
"","image","70","122398","0.0-70.0","""event"",""trial"",""time""
""fullscreenenter"",""0"",""6084""
""fullscreenexit"",""2"",""18666""
""blur"",""2"",""20065""
""focus"",""2"",""22907""
""blur"",""2"",""27357""
""focus"",""2"",""29472""
""blur"",""2"",""31626""
""focus"",""2"",""34674""
""blur"",""3"",""50777""
""focus"",""3"",""52422""
""blur"",""31"",""81581""
""focus"",""32"",""83729""
","""event"",""trial"",""time""
""blur"",""2"",""20065""
""blur"",""2"",""27357""
""blur"",""2"",""31626""
""blur"",""3"",""50777""
""blur"",""31"",""81581""
","""event"",""trial"",""time""
""focus"",""2"",""22907""
""focus"",""2"",""29472""
""focus"",""2"",""34674""
""focus"",""3"",""52422""
""focus"",""32"",""83729""
","""event"",""trial"",""time""
""fullscreenenter"",""0"",""6084""
","""event"",""trial"",""time""
""fullscreenexit"",""2"",""18666""
","1421","run_exp/static/images/Set 6_rs/014a.jpg","86","","","","","","learn","SL",""
"","show_choice","71","122979","0.0-71.0","""event"",""trial"",""time""
""fullscreenenter"",""0"",""6084""
""fullscreenexit"",""2"",""18666""
""blur"",""2"",""20065""
""focus"",""2"",""22907""
""blur"",""2"",""27357""
""focus"",""2"",""29472""
""blur"",""2"",""31626""
""focus"",""2"",""34674""
""blur"",""3"",""50777""
""focus"",""3"",""52422""
""blur"",""31"",""81581""
""focus"",""32"",""83729""
","""event"",""trial"",""time""
""blur"",""2"",""20065""
""blur"",""2"",""27357""
""blur"",""2"",""31626""
""blur"",""3"",""50777""
""blur"",""31"",""81581""
","""event"",""trial"",""time""
""focus"",""2"",""22907""
""focus"",""2"",""29472""
""focus"",""2"",""34674""
""focus"",""3"",""52422""
""focus"",""32"",""83729""
","""event"",""trial"",""time""
""fullscreenenter"",""0"",""6084""
","""event"",""trial"",""time""
""fullscreenexit"",""2"",""18666""
","null","run_exp/static/images/Set 6_rs/014a.jpg","null","","","","","","learn","SL",""
"","html-keyboard-response","72","123482","0.0-72.0","""event"",""trial"",""time""
""fullscreenenter"",""0"",""6084""
""fullscreenexit"",""2"",""18666""
""blur"",""2"",""20065""
""focus"",""2"",""22907""
""blur"",""2"",""27357""
""focus"",""2"",""29472""
""blur"",""2"",""31626""
""focus"",""2"",""34674""
""blur"",""3"",""50777""
""focus"",""3"",""52422""
""blur"",""31"",""81581""
""focus"",""32"",""83729""
","""event"",""trial"",""time""
""blur"",""2"",""20065""
""blur"",""2"",""27357""
""blur"",""2"",""31626""
""blur"",""3"",""50777""
""blur"",""31"",""81581""
","""event"",""trial"",""time""
""focus"",""2"",""22907""
""focus"",""2"",""29472""
""focus"",""2"",""34674""
""focus"",""3"",""52422""
""focus"",""32"",""83729""
","""event"",""trial"",""time""
""fullscreenenter"",""0"",""6084""
","""event"",""trial"",""time""
""fullscreenexit"",""2"",""18666""
","null","<p></p>","null","","","","","","","",""
"","image","73","125386","0.0-73.0","""event"",""trial"",""time""
""fullscreenenter"",""0"",""6084""
""fullscreenexit"",""2"",""18666""
""blur"",""2"",""20065""
""focus"",""2"",""22907""
""blur"",""2"",""27357""
""focus"",""2"",""29472""
""blur"",""2"",""31626""
""focus"",""2"",""34674""
""blur"",""3"",""50777""
""focus"",""3"",""52422""
""blur"",""31"",""81581""
""focus"",""32"",""83729""
","""event"",""trial"",""time""
""blur"",""2"",""20065""
""blur"",""2"",""27357""
""blur"",""2"",""31626""
""blur"",""3"",""50777""
""blur"",""31"",""81581""
","""event"",""trial"",""time""
""focus"",""2"",""22907""
""focus"",""2"",""29472""
""focus"",""2"",""34674""
""focus"",""3"",""52422""
""focus"",""32"",""83729""
","""event"",""trial"",""time""
""fullscreenenter"",""0"",""6084""
","""event"",""trial"",""time""
""fullscreenexit"",""2"",""18666""
","1902.4000000357628","run_exp/static/images/Set 6_rs/010a.jpg","86","","","","","","learn","SR",""
"","show_choice","74","125490","0.0-74.0","""event"",""trial"",""time""
""fullscreenenter"",""0"",""6084""
""fullscreenexit"",""2"",""18666""
""blur"",""2"",""20065""
""focus"",""2"",""22907""
""blur"",""2"",""27357""
""focus"",""2"",""29472""
""blur"",""2"",""31626""
""focus"",""2"",""34674""
""blur"",""3"",""50777""
""focus"",""3"",""52422""
""blur"",""31"",""81581""
""focus"",""32"",""83729""
","""event"",""trial"",""time""
""blur"",""2"",""20065""
""blur"",""2"",""27357""
""blur"",""2"",""31626""
""blur"",""3"",""50777""
""blur"",""31"",""81581""
","""event"",""trial"",""time""
""focus"",""2"",""22907""
""focus"",""2"",""29472""
""focus"",""2"",""34674""
""focus"",""3"",""52422""
""focus"",""32"",""83729""
","""event"",""trial"",""time""
""fullscreenenter"",""0"",""6084""
","""event"",""trial"",""time""
""fullscreenexit"",""2"",""18666""
","null","run_exp/static/images/Set 6_rs/010a.jpg","null","","","","","","learn","SR",""
"","html-keyboard-response","75","125999","0.0-75.0","""event"",""trial"",""time""
""fullscreenenter"",""0"",""6084""
""fullscreenexit"",""2"",""18666""
""blur"",""2"",""20065""
""focus"",""2"",""22907""
""blur"",""2"",""27357""
""focus"",""2"",""29472""
""blur"",""2"",""31626""
""focus"",""2"",""34674""
""blur"",""3"",""50777""
""focus"",""3"",""52422""
""blur"",""31"",""81581""
""focus"",""32"",""83729""
","""event"",""trial"",""time""
""blur"",""2"",""20065""
""blur"",""2"",""27357""
""blur"",""2"",""31626""
""blur"",""3"",""50777""
""blur"",""31"",""81581""
","""event"",""trial"",""time""
""focus"",""2"",""22907""
""focus"",""2"",""29472""
""focus"",""2"",""34674""
""focus"",""3"",""52422""
""focus"",""32"",""83729""
","""event"",""trial"",""time""
""fullscreenenter"",""0"",""6084""
","""event"",""trial"",""time""
""fullscreenexit"",""2"",""18666""
","null","<p></p>","null","","","","","","","",""
"","image","76","127663","0.0-76.0","""event"",""trial"",""time""
""fullscreenenter"",""0"",""6084""
""fullscreenexit"",""2"",""18666""
""blur"",""2"",""20065""
""focus"",""2"",""22907""
""blur"",""2"",""27357""
""focus"",""2"",""29472""
""blur"",""2"",""31626""
""focus"",""2"",""34674""
""blur"",""3"",""50777""
""focus"",""3"",""52422""
""blur"",""31"",""81581""
""focus"",""32"",""83729""
","""event"",""trial"",""time""
""blur"",""2"",""20065""
""blur"",""2"",""27357""
""blur"",""2"",""31626""
""blur"",""3"",""50777""
""blur"",""31"",""81581""
","""event"",""trial"",""time""
""focus"",""2"",""22907""
""focus"",""2"",""29472""
""focus"",""2"",""34674""
""focus"",""3"",""52422""
""focus"",""32"",""83729""
","""event"",""trial"",""time""
""fullscreenenter"",""0"",""6084""
","""event"",""trial"",""time""
""fullscreenexit"",""2"",""18666""
","1662.800000011921","run_exp/static/images/Set 6_rs/006a.jpg","78","","","","","","learn","SL",""
"","show_choice","77","128007","0.0-77.0","""event"",""trial"",""time""
""fullscreenenter"",""0"",""6084""
""fullscreenexit"",""2"",""18666""
""blur"",""2"",""20065""
""focus"",""2"",""22907""
""blur"",""2"",""27357""
""focus"",""2"",""29472""
""blur"",""2"",""31626""
""focus"",""2"",""34674""
""blur"",""3"",""50777""
""focus"",""3"",""52422""
""blur"",""31"",""81581""
""focus"",""32"",""83729""
","""event"",""trial"",""time""
""blur"",""2"",""20065""
""blur"",""2"",""27357""
""blur"",""2"",""31626""
""blur"",""3"",""50777""
""blur"",""31"",""81581""
","""event"",""trial"",""time""
""focus"",""2"",""22907""
""focus"",""2"",""29472""
""focus"",""2"",""34674""
""focus"",""3"",""52422""
""focus"",""32"",""83729""
","""event"",""trial"",""time""
""fullscreenenter"",""0"",""6084""
","""event"",""trial"",""time""
""fullscreenexit"",""2"",""18666""
","null","run_exp/static/images/Set 6_rs/006a.jpg","null","","","","","","learn","SL",""
"","html-keyboard-response","78","128516","0.0-78.0","""event"",""trial"",""time""
""fullscreenenter"",""0"",""6084""
""fullscreenexit"",""2"",""18666""
""blur"",""2"",""20065""
""focus"",""2"",""22907""
""blur"",""2"",""27357""
""focus"",""2"",""29472""
""blur"",""2"",""31626""
""focus"",""2"",""34674""
""blur"",""3"",""50777""
""focus"",""3"",""52422""
""blur"",""31"",""81581""
""focus"",""32"",""83729""
","""event"",""trial"",""time""
""blur"",""2"",""20065""
""blur"",""2"",""27357""
""blur"",""2"",""31626""
""blur"",""3"",""50777""
""blur"",""31"",""81581""
","""event"",""trial"",""time""
""focus"",""2"",""22907""
""focus"",""2"",""29472""
""focus"",""2"",""34674""
""focus"",""3"",""52422""
""focus"",""32"",""83729""
","""event"",""trial"",""time""
""fullscreenenter"",""0"",""6084""
","""event"",""trial"",""time""
""fullscreenexit"",""2"",""18666""
","null","<p></p>","null","","","","","","","",""
"","image","79","129936","0.0-79.0","""event"",""trial"",""time""
""fullscreenenter"",""0"",""6084""
""fullscreenexit"",""2"",""18666""
""blur"",""2"",""20065""
""focus"",""2"",""22907""
""blur"",""2"",""27357""
""focus"",""2"",""29472""
""blur"",""2"",""31626""
""focus"",""2"",""34674""
""blur"",""3"",""50777""
""focus"",""3"",""52422""
""blur"",""31"",""81581""
""focus"",""32"",""83729""
","""event"",""trial"",""time""
""blur"",""2"",""20065""
""blur"",""2"",""27357""
""blur"",""2"",""31626""
""blur"",""3"",""50777""
""blur"",""31"",""81581""
","""event"",""trial"",""time""
""focus"",""2"",""22907""
""focus"",""2"",""29472""
""focus"",""2"",""34674""
""focus"",""3"",""52422""
""focus"",""32"",""83729""
","""event"",""trial"",""time""
""fullscreenenter"",""0"",""6084""
","""event"",""trial"",""time""
""fullscreenexit"",""2"",""18666""
","1419.7999999523163","run_exp/static/images/Set 6_rs/070a.jpg","86","","","","","","learn","SR",""
"","show_choice","80","130523","0.0-80.0","""event"",""trial"",""time""
""fullscreenenter"",""0"",""6084""
""fullscreenexit"",""2"",""18666""
""blur"",""2"",""20065""
""focus"",""2"",""22907""
""blur"",""2"",""27357""
""focus"",""2"",""29472""
""blur"",""2"",""31626""
""focus"",""2"",""34674""
""blur"",""3"",""50777""
""focus"",""3"",""52422""
""blur"",""31"",""81581""
""focus"",""32"",""83729""
","""event"",""trial"",""time""
""blur"",""2"",""20065""
""blur"",""2"",""27357""
""blur"",""2"",""31626""
""blur"",""3"",""50777""
""blur"",""31"",""81581""
","""event"",""trial"",""time""
""focus"",""2"",""22907""
""focus"",""2"",""29472""
""focus"",""2"",""34674""
""focus"",""3"",""52422""
""focus"",""32"",""83729""
","""event"",""trial"",""time""
""fullscreenenter"",""0"",""6084""
","""event"",""trial"",""time""
""fullscreenexit"",""2"",""18666""
","null","run_exp/static/images/Set 6_rs/070a.jpg","null","","","","","","learn","SR",""
"","html-keyboard-response","81","131028","0.0-81.0","""event"",""trial"",""time""
""fullscreenenter"",""0"",""6084""
""fullscreenexit"",""2"",""18666""
""blur"",""2"",""20065""
""focus"",""2"",""22907""
""blur"",""2"",""27357""
""focus"",""2"",""29472""
""blur"",""2"",""31626""
""focus"",""2"",""34674""
""blur"",""3"",""50777""
""focus"",""3"",""52422""
""blur"",""31"",""81581""
""focus"",""32"",""83729""
","""event"",""trial"",""time""
""blur"",""2"",""20065""
""blur"",""2"",""27357""
""blur"",""2"",""31626""
""blur"",""3"",""50777""
""blur"",""31"",""81581""
","""event"",""trial"",""time""
""focus"",""2"",""22907""
""focus"",""2"",""29472""
""focus"",""2"",""34674""
""focus"",""3"",""52422""
""focus"",""32"",""83729""
","""event"",""trial"",""time""
""fullscreenenter"",""0"",""6084""
","""event"",""trial"",""time""
""fullscreenexit"",""2"",""18666""
","null","<p></p>","null","","","","","","","",""
"","image","82","132741","0.0-82.0","""event"",""trial"",""time""
""fullscreenenter"",""0"",""6084""
""fullscreenexit"",""2"",""18666""
""blur"",""2"",""20065""
""focus"",""2"",""22907""
""blur"",""2"",""27357""
""focus"",""2"",""29472""
""blur"",""2"",""31626""
""focus"",""2"",""34674""
""blur"",""3"",""50777""
""focus"",""3"",""52422""
""blur"",""31"",""81581""
""focus"",""32"",""83729""
","""event"",""trial"",""time""
""blur"",""2"",""20065""
""blur"",""2"",""27357""
""blur"",""2"",""31626""
""blur"",""3"",""50777""
""blur"",""31"",""81581""
","""event"",""trial"",""time""
""focus"",""2"",""22907""
""focus"",""2"",""29472""
""focus"",""2"",""34674""
""focus"",""3"",""52422""
""focus"",""32"",""83729""
","""event"",""trial"",""time""
""fullscreenenter"",""0"",""6084""
","""event"",""trial"",""time""
""fullscreenexit"",""2"",""18666""
","1711.5999999642372","run_exp/static/images/Set 6_rs/050a.jpg","86","","","","","","learn","SL",""
"","show_choice","83","133038","0.0-83.0","""event"",""trial"",""time""
""fullscreenenter"",""0"",""6084""
""fullscreenexit"",""2"",""18666""
""blur"",""2"",""20065""
""focus"",""2"",""22907""
""blur"",""2"",""27357""
""focus"",""2"",""29472""
""blur"",""2"",""31626""
""focus"",""2"",""34674""
""blur"",""3"",""50777""
""focus"",""3"",""52422""
""blur"",""31"",""81581""
""focus"",""32"",""83729""
","""event"",""trial"",""time""
""blur"",""2"",""20065""
""blur"",""2"",""27357""
""blur"",""2"",""31626""
""blur"",""3"",""50777""
""blur"",""31"",""81581""
","""event"",""trial"",""time""
""focus"",""2"",""22907""
""focus"",""2"",""29472""
""focus"",""2"",""34674""
""focus"",""3"",""52422""
""focus"",""32"",""83729""
","""event"",""trial"",""time""
""fullscreenenter"",""0"",""6084""
","""event"",""trial"",""time""
""fullscreenexit"",""2"",""18666""
","null","run_exp/static/images/Set 6_rs/050a.jpg","null","","","","","","learn","SL",""
"","html-keyboard-response","84","133540","0.0-84.0","""event"",""trial"",""time""
""fullscreenenter"",""0"",""6084""
""fullscreenexit"",""2"",""18666""
""blur"",""2"",""20065""
""focus"",""2"",""22907""
""blur"",""2"",""27357""
""focus"",""2"",""29472""
""blur"",""2"",""31626""
""focus"",""2"",""34674""
""blur"",""3"",""50777""
""focus"",""3"",""52422""
""blur"",""31"",""81581""
""focus"",""32"",""83729""
","""event"",""trial"",""time""
""blur"",""2"",""20065""
""blur"",""2"",""27357""
""blur"",""2"",""31626""
""blur"",""3"",""50777""
""blur"",""31"",""81581""
","""event"",""trial"",""time""
""focus"",""2"",""22907""
""focus"",""2"",""29472""
""focus"",""2"",""34674""
""focus"",""3"",""52422""
""focus"",""32"",""83729""
","""event"",""trial"",""time""
""fullscreenenter"",""0"",""6084""
","""event"",""trial"",""time""
""fullscreenexit"",""2"",""18666""
","null","<p></p>","null","","","","","","","",""
"","image","85","134548","0.0-85.0","""event"",""trial"",""time""
""fullscreenenter"",""0"",""6084""
""fullscreenexit"",""2"",""18666""
""blur"",""2"",""20065""
""focus"",""2"",""22907""
""blur"",""2"",""27357""
""focus"",""2"",""29472""
""blur"",""2"",""31626""
""focus"",""2"",""34674""
""blur"",""3"",""50777""
""focus"",""3"",""52422""
""blur"",""31"",""81581""
""focus"",""32"",""83729""
","""event"",""trial"",""time""
""blur"",""2"",""20065""
""blur"",""2"",""27357""
""blur"",""2"",""31626""
""blur"",""3"",""50777""
""blur"",""31"",""81581""
","""event"",""trial"",""time""
""focus"",""2"",""22907""
""focus"",""2"",""29472""
""focus"",""2"",""34674""
""focus"",""3"",""52422""
""focus"",""32"",""83729""
","""event"",""trial"",""time""
""fullscreenenter"",""0"",""6084""
","""event"",""trial"",""time""
""fullscreenexit"",""2"",""18666""
","1005.3000000119209","run_exp/static/images/Set 6_rs/166a.jpg","86","","","","","","learn","SR",""
"","show_choice","86","135548","0.0-86.0","""event"",""trial"",""time""
""fullscreenenter"",""0"",""6084""
""fullscreenexit"",""2"",""18666""
""blur"",""2"",""20065""
""focus"",""2"",""22907""
""blur"",""2"",""27357""
""focus"",""2"",""29472""
""blur"",""2"",""31626""
""focus"",""2"",""34674""
""blur"",""3"",""50777""
""focus"",""3"",""52422""
""blur"",""31"",""81581""
""focus"",""32"",""83729""
","""event"",""trial"",""time""
""blur"",""2"",""20065""
""blur"",""2"",""27357""
""blur"",""2"",""31626""
""blur"",""3"",""50777""
""blur"",""31"",""81581""
","""event"",""trial"",""time""
""focus"",""2"",""22907""
""focus"",""2"",""29472""
""focus"",""2"",""34674""
""focus"",""3"",""52422""
""focus"",""32"",""83729""
","""event"",""trial"",""time""
""fullscreenenter"",""0"",""6084""
","""event"",""trial"",""time""
""fullscreenexit"",""2"",""18666""
","null","run_exp/static/images/Set 6_rs/166a.jpg","null","","","","","","learn","SR",""
"","html-keyboard-response","87","136055","0.0-87.0","""event"",""trial"",""time""
""fullscreenenter"",""0"",""6084""
""fullscreenexit"",""2"",""18666""
""blur"",""2"",""20065""
""focus"",""2"",""22907""
""blur"",""2"",""27357""
""focus"",""2"",""29472""
""blur"",""2"",""31626""
""focus"",""2"",""34674""
""blur"",""3"",""50777""
""focus"",""3"",""52422""
""blur"",""31"",""81581""
""focus"",""32"",""83729""
","""event"",""trial"",""time""
""blur"",""2"",""20065""
""blur"",""2"",""27357""
""blur"",""2"",""31626""
""blur"",""3"",""50777""
""blur"",""31"",""81581""
","""event"",""trial"",""time""
""focus"",""2"",""22907""
""focus"",""2"",""29472""
""focus"",""2"",""34674""
""focus"",""3"",""52422""
""focus"",""32"",""83729""
","""event"",""trial"",""time""
""fullscreenenter"",""0"",""6084""
","""event"",""trial"",""time""
""fullscreenexit"",""2"",""18666""
","null","<p></p>","null","","","","","","","",""
"","image","88","136933","0.0-88.0","""event"",""trial"",""time""
""fullscreenenter"",""0"",""6084""
""fullscreenexit"",""2"",""18666""
""blur"",""2"",""20065""
""focus"",""2"",""22907""
""blur"",""2"",""27357""
""focus"",""2"",""29472""
""blur"",""2"",""31626""
""focus"",""2"",""34674""
""blur"",""3"",""50777""
""focus"",""3"",""52422""
""blur"",""31"",""81581""
""focus"",""32"",""83729""
","""event"",""trial"",""time""
""blur"",""2"",""20065""
""blur"",""2"",""27357""
""blur"",""2"",""31626""
""blur"",""3"",""50777""
""blur"",""31"",""81581""
","""event"",""trial"",""time""
""focus"",""2"",""22907""
""focus"",""2"",""29472""
""focus"",""2"",""34674""
""focus"",""3"",""52422""
""focus"",""32"",""83729""
","""event"",""trial"",""time""
""fullscreenenter"",""0"",""6084""
","""event"",""trial"",""time""
""fullscreenexit"",""2"",""18666""
","877.1000000238419","run_exp/static/images/Set 6_rs/064a.jpg","86","","","","","","learn","SR",""
"","show_choice","89","138059","0.0-89.0","""event"",""trial"",""time""
""fullscreenenter"",""0"",""6084""
""fullscreenexit"",""2"",""18666""
""blur"",""2"",""20065""
""focus"",""2"",""22907""
""blur"",""2"",""27357""
""focus"",""2"",""29472""
""blur"",""2"",""31626""
""focus"",""2"",""34674""
""blur"",""3"",""50777""
""focus"",""3"",""52422""
""blur"",""31"",""81581""
""focus"",""32"",""83729""
","""event"",""trial"",""time""
""blur"",""2"",""20065""
""blur"",""2"",""27357""
""blur"",""2"",""31626""
""blur"",""3"",""50777""
""blur"",""31"",""81581""
","""event"",""trial"",""time""
""focus"",""2"",""22907""
""focus"",""2"",""29472""
""focus"",""2"",""34674""
""focus"",""3"",""52422""
""focus"",""32"",""83729""
","""event"",""trial"",""time""
""fullscreenenter"",""0"",""6084""
","""event"",""trial"",""time""
""fullscreenexit"",""2"",""18666""
","null","run_exp/static/images/Set 6_rs/064a.jpg","null","","","","","","learn","SR",""
"","html-keyboard-response","90","138566","0.0-90.0","""event"",""trial"",""time""
""fullscreenenter"",""0"",""6084""
""fullscreenexit"",""2"",""18666""
""blur"",""2"",""20065""
""focus"",""2"",""22907""
""blur"",""2"",""27357""
""focus"",""2"",""29472""
""blur"",""2"",""31626""
""focus"",""2"",""34674""
""blur"",""3"",""50777""
""focus"",""3"",""52422""
""blur"",""31"",""81581""
""focus"",""32"",""83729""
","""event"",""trial"",""time""
""blur"",""2"",""20065""
""blur"",""2"",""27357""
""blur"",""2"",""31626""
""blur"",""3"",""50777""
""blur"",""31"",""81581""
","""event"",""trial"",""time""
""focus"",""2"",""22907""
""focus"",""2"",""29472""
""focus"",""2"",""34674""
""focus"",""3"",""52422""
""focus"",""32"",""83729""
","""event"",""trial"",""time""
""fullscreenenter"",""0"",""6084""
","""event"",""trial"",""time""
""fullscreenexit"",""2"",""18666""
","null","<p></p>","null","","","","","","","",""
"","image","91","139441","0.0-91.0","""event"",""trial"",""time""
""fullscreenenter"",""0"",""6084""
""fullscreenexit"",""2"",""18666""
""blur"",""2"",""20065""
""focus"",""2"",""22907""
""blur"",""2"",""27357""
""focus"",""2"",""29472""
""blur"",""2"",""31626""
""focus"",""2"",""34674""
""blur"",""3"",""50777""
""focus"",""3"",""52422""
""blur"",""31"",""81581""
""focus"",""32"",""83729""
","""event"",""trial"",""time""
""blur"",""2"",""20065""
""blur"",""2"",""27357""
""blur"",""2"",""31626""
""blur"",""3"",""50777""
""blur"",""31"",""81581""
","""event"",""trial"",""time""
""focus"",""2"",""22907""
""focus"",""2"",""29472""
""focus"",""2"",""34674""
""focus"",""3"",""52422""
""focus"",""32"",""83729""
","""event"",""trial"",""time""
""fullscreenenter"",""0"",""6084""
","""event"",""trial"",""time""
""fullscreenexit"",""2"",""18666""
","873.9000000357628","run_exp/static/images/Set 6_rs/045a.jpg","86","","","","","","learn","SR",""
"","show_choice","92","140570","0.0-92.0","""event"",""trial"",""time""
""fullscreenenter"",""0"",""6084""
""fullscreenexit"",""2"",""18666""
""blur"",""2"",""20065""
""focus"",""2"",""22907""
""blur"",""2"",""27357""
""focus"",""2"",""29472""
""blur"",""2"",""31626""
""focus"",""2"",""34674""
""blur"",""3"",""50777""
""focus"",""3"",""52422""
""blur"",""31"",""81581""
""focus"",""32"",""83729""
","""event"",""trial"",""time""
""blur"",""2"",""20065""
""blur"",""2"",""27357""
""blur"",""2"",""31626""
""blur"",""3"",""50777""
""blur"",""31"",""81581""
","""event"",""trial"",""time""
""focus"",""2"",""22907""
""focus"",""2"",""29472""
""focus"",""2"",""34674""
""focus"",""3"",""52422""
""focus"",""32"",""83729""
","""event"",""trial"",""time""
""fullscreenenter"",""0"",""6084""
","""event"",""trial"",""time""
""fullscreenexit"",""2"",""18666""
","null","run_exp/static/images/Set 6_rs/045a.jpg","null","","","","","","learn","SR",""
"","html-keyboard-response","93","141074","0.0-93.0","""event"",""trial"",""time""
""fullscreenenter"",""0"",""6084""
""fullscreenexit"",""2"",""18666""
""blur"",""2"",""20065""
""focus"",""2"",""22907""
""blur"",""2"",""27357""
""focus"",""2"",""29472""
""blur"",""2"",""31626""
""focus"",""2"",""34674""
""blur"",""3"",""50777""
""focus"",""3"",""52422""
""blur"",""31"",""81581""
""focus"",""32"",""83729""
","""event"",""trial"",""time""
""blur"",""2"",""20065""
""blur"",""2"",""27357""
""blur"",""2"",""31626""
""blur"",""3"",""50777""
""blur"",""31"",""81581""
","""event"",""trial"",""time""
""focus"",""2"",""22907""
""focus"",""2"",""29472""
""focus"",""2"",""34674""
""focus"",""3"",""52422""
""focus"",""32"",""83729""
","""event"",""trial"",""time""
""fullscreenenter"",""0"",""6084""
","""event"",""trial"",""time""
""fullscreenexit"",""2"",""18666""
","null","<p></p>","null","","","","","","","",""
"","image","94","141885","0.0-94.0","""event"",""trial"",""time""
""fullscreenenter"",""0"",""6084""
""fullscreenexit"",""2"",""18666""
""blur"",""2"",""20065""
""focus"",""2"",""22907""
""blur"",""2"",""27357""
""focus"",""2"",""29472""
""blur"",""2"",""31626""
""focus"",""2"",""34674""
""blur"",""3"",""50777""
""focus"",""3"",""52422""
""blur"",""31"",""81581""
""focus"",""32"",""83729""
","""event"",""trial"",""time""
""blur"",""2"",""20065""
""blur"",""2"",""27357""
""blur"",""2"",""31626""
""blur"",""3"",""50777""
""blur"",""31"",""81581""
","""event"",""trial"",""time""
""focus"",""2"",""22907""
""focus"",""2"",""29472""
""focus"",""2"",""34674""
""focus"",""3"",""52422""
""focus"",""32"",""83729""
","""event"",""trial"",""time""
""fullscreenenter"",""0"",""6084""
","""event"",""trial"",""time""
""fullscreenexit"",""2"",""18666""
","808.8999999761581","run_exp/static/images/Set 6_rs/023a.jpg","86","","","","","","learn","SR",""
"","show_choice","95","143080","0.0-95.0","""event"",""trial"",""time""
""fullscreenenter"",""0"",""6084""
""fullscreenexit"",""2"",""18666""
""blur"",""2"",""20065""
""focus"",""2"",""22907""
""blur"",""2"",""27357""
""focus"",""2"",""29472""
""blur"",""2"",""31626""
""focus"",""2"",""34674""
""blur"",""3"",""50777""
""focus"",""3"",""52422""
""blur"",""31"",""81581""
""focus"",""32"",""83729""
","""event"",""trial"",""time""
""blur"",""2"",""20065""
""blur"",""2"",""27357""
""blur"",""2"",""31626""
""blur"",""3"",""50777""
""blur"",""31"",""81581""
","""event"",""trial"",""time""
""focus"",""2"",""22907""
""focus"",""2"",""29472""
""focus"",""2"",""34674""
""focus"",""3"",""52422""
""focus"",""32"",""83729""
","""event"",""trial"",""time""
""fullscreenenter"",""0"",""6084""
","""event"",""trial"",""time""
""fullscreenexit"",""2"",""18666""
","null","run_exp/static/images/Set 6_rs/023a.jpg","null","","","","","","learn","SR",""
"","html-keyboard-response","96","143583","0.0-96.0","""event"",""trial"",""time""
""fullscreenenter"",""0"",""6084""
""fullscreenexit"",""2"",""18666""
""blur"",""2"",""20065""
""focus"",""2"",""22907""
""blur"",""2"",""27357""
""focus"",""2"",""29472""
""blur"",""2"",""31626""
""focus"",""2"",""34674""
""blur"",""3"",""50777""
""focus"",""3"",""52422""
""blur"",""31"",""81581""
""focus"",""32"",""83729""
","""event"",""trial"",""time""
""blur"",""2"",""20065""
""blur"",""2"",""27357""
""blur"",""2"",""31626""
""blur"",""3"",""50777""
""blur"",""31"",""81581""
","""event"",""trial"",""time""
""focus"",""2"",""22907""
""focus"",""2"",""29472""
""focus"",""2"",""34674""
""focus"",""3"",""52422""
""focus"",""32"",""83729""
","""event"",""trial"",""time""
""fullscreenenter"",""0"",""6084""
","""event"",""trial"",""time""
""fullscreenexit"",""2"",""18666""
","null","<p></p>","null","","","","","","","",""
"","image","97","144722","0.0-97.0","""event"",""trial"",""time""
""fullscreenenter"",""0"",""6084""
""fullscreenexit"",""2"",""18666""
""blur"",""2"",""20065""
""focus"",""2"",""22907""
""blur"",""2"",""27357""
""focus"",""2"",""29472""
""blur"",""2"",""31626""
""focus"",""2"",""34674""
""blur"",""3"",""50777""
""focus"",""3"",""52422""
""blur"",""31"",""81581""
""focus"",""32"",""83729""
","""event"",""trial"",""time""
""blur"",""2"",""20065""
""blur"",""2"",""27357""
""blur"",""2"",""31626""
""blur"",""3"",""50777""
""blur"",""31"",""81581""
","""event"",""trial"",""time""
""focus"",""2"",""22907""
""focus"",""2"",""29472""
""focus"",""2"",""34674""
""focus"",""3"",""52422""
""focus"",""32"",""83729""
","""event"",""trial"",""time""
""fullscreenenter"",""0"",""6084""
","""event"",""trial"",""time""
""fullscreenexit"",""2"",""18666""
","1137.1000000238419","run_exp/static/images/Set 6_rs/088a.jpg","86","","","","","","learn","SR",""
"","show_choice","98","145588","0.0-98.0","""event"",""trial"",""time""
""fullscreenenter"",""0"",""6084""
""fullscreenexit"",""2"",""18666""
""blur"",""2"",""20065""
""focus"",""2"",""22907""
""blur"",""2"",""27357""
""focus"",""2"",""29472""
""blur"",""2"",""31626""
""focus"",""2"",""34674""
""blur"",""3"",""50777""
""focus"",""3"",""52422""
""blur"",""31"",""81581""
""focus"",""32"",""83729""
","""event"",""trial"",""time""
""blur"",""2"",""20065""
""blur"",""2"",""27357""
""blur"",""2"",""31626""
""blur"",""3"",""50777""
""blur"",""31"",""81581""
","""event"",""trial"",""time""
""focus"",""2"",""22907""
""focus"",""2"",""29472""
""focus"",""2"",""34674""
""focus"",""3"",""52422""
""focus"",""32"",""83729""
","""event"",""trial"",""time""
""fullscreenenter"",""0"",""6084""
","""event"",""trial"",""time""
""fullscreenexit"",""2"",""18666""
","null","run_exp/static/images/Set 6_rs/088a.jpg","null","","","","","","learn","SR",""
"","html-keyboard-response","99","146095","0.0-99.0","""event"",""trial"",""time""
""fullscreenenter"",""0"",""6084""
""fullscreenexit"",""2"",""18666""
""blur"",""2"",""20065""
""focus"",""2"",""22907""
""blur"",""2"",""27357""
""focus"",""2"",""29472""
""blur"",""2"",""31626""
""focus"",""2"",""34674""
""blur"",""3"",""50777""
""focus"",""3"",""52422""
""blur"",""31"",""81581""
""focus"",""32"",""83729""
","""event"",""trial"",""time""
""blur"",""2"",""20065""
""blur"",""2"",""27357""
""blur"",""2"",""31626""
""blur"",""3"",""50777""
""blur"",""31"",""81581""
","""event"",""trial"",""time""
""focus"",""2"",""22907""
""focus"",""2"",""29472""
""focus"",""2"",""34674""
""focus"",""3"",""52422""
""focus"",""32"",""83729""
","""event"",""trial"",""time""
""fullscreenenter"",""0"",""6084""
","""event"",""trial"",""time""
""fullscreenexit"",""2"",""18666""
","null","<p></p>","null","","","","","","","",""
"","image","100","147339","0.0-100.0","""event"",""trial"",""time""
""fullscreenenter"",""0"",""6084""
""fullscreenexit"",""2"",""18666""
""blur"",""2"",""20065""
""focus"",""2"",""22907""
""blur"",""2"",""27357""
""focus"",""2"",""29472""
""blur"",""2"",""31626""
""focus"",""2"",""34674""
""blur"",""3"",""50777""
""focus"",""3"",""52422""
""blur"",""31"",""81581""
""focus"",""32"",""83729""
","""event"",""trial"",""time""
""blur"",""2"",""20065""
""blur"",""2"",""27357""
""blur"",""2"",""31626""
""blur"",""3"",""50777""
""blur"",""31"",""81581""
","""event"",""trial"",""time""
""focus"",""2"",""22907""
""focus"",""2"",""29472""
""focus"",""2"",""34674""
""focus"",""3"",""52422""
""focus"",""32"",""83729""
","""event"",""trial"",""time""
""fullscreenenter"",""0"",""6084""
","""event"",""trial"",""time""
""fullscreenexit"",""2"",""18666""
","1241.5","run_exp/static/images/Set 6_rs/062a.jpg","86","","","","","","learn","SL",""
"","show_choice","101","148106","0.0-101.0","""event"",""trial"",""time""
""fullscreenenter"",""0"",""6084""
""fullscreenexit"",""2"",""18666""
""blur"",""2"",""20065""
""focus"",""2"",""22907""
""blur"",""2"",""27357""
""focus"",""2"",""29472""
""blur"",""2"",""31626""
""focus"",""2"",""34674""
""blur"",""3"",""50777""
""focus"",""3"",""52422""
""blur"",""31"",""81581""
""focus"",""32"",""83729""
","""event"",""trial"",""time""
""blur"",""2"",""20065""
""blur"",""2"",""27357""
""blur"",""2"",""31626""
""blur"",""3"",""50777""
""blur"",""31"",""81581""
","""event"",""trial"",""time""
""focus"",""2"",""22907""
""focus"",""2"",""29472""
""focus"",""2"",""34674""
""focus"",""3"",""52422""
""focus"",""32"",""83729""
","""event"",""trial"",""time""
""fullscreenenter"",""0"",""6084""
","""event"",""trial"",""time""
""fullscreenexit"",""2"",""18666""
","null","run_exp/static/images/Set 6_rs/062a.jpg","null","","","","","","learn","SL",""
"","html-keyboard-response","102","148611","0.0-102.0","""event"",""trial"",""time""
""fullscreenenter"",""0"",""6084""
""fullscreenexit"",""2"",""18666""
""blur"",""2"",""20065""
""focus"",""2"",""22907""
""blur"",""2"",""27357""
""focus"",""2"",""29472""
""blur"",""2"",""31626""
""focus"",""2"",""34674""
""blur"",""3"",""50777""
""focus"",""3"",""52422""
""blur"",""31"",""81581""
""focus"",""32"",""83729""
","""event"",""trial"",""time""
""blur"",""2"",""20065""
""blur"",""2"",""27357""
""blur"",""2"",""31626""
""blur"",""3"",""50777""
""blur"",""31"",""81581""
","""event"",""trial"",""time""
""focus"",""2"",""22907""
""focus"",""2"",""29472""
""focus"",""2"",""34674""
""focus"",""3"",""52422""
""focus"",""32"",""83729""
","""event"",""trial"",""time""
""fullscreenenter"",""0"",""6084""
","""event"",""trial"",""time""
""fullscreenexit"",""2"",""18666""
","null","<p></p>","null","","","","","","","",""
"","image","103","150622","0.0-103.0","""event"",""trial"",""time""
""fullscreenenter"",""0"",""6084""
""fullscreenexit"",""2"",""18666""
""blur"",""2"",""20065""
""focus"",""2"",""22907""
""blur"",""2"",""27357""
""focus"",""2"",""29472""
""blur"",""2"",""31626""
""focus"",""2"",""34674""
""blur"",""3"",""50777""
""focus"",""3"",""52422""
""blur"",""31"",""81581""
""focus"",""32"",""83729""
","""event"",""trial"",""time""
""blur"",""2"",""20065""
""blur"",""2"",""27357""
""blur"",""2"",""31626""
""blur"",""3"",""50777""
""blur"",""31"",""81581""
","""event"",""trial"",""time""
""focus"",""2"",""22907""
""focus"",""2"",""29472""
""focus"",""2"",""34674""
""focus"",""3"",""52422""
""focus"",""32"",""83729""
","""event"",""trial"",""time""
""fullscreenenter"",""0"",""6084""
","""event"",""trial"",""time""
""fullscreenexit"",""2"",""18666""
","null","run_exp/static/images/Set 6_rs/150a.jpg","null","","","","","","learn","SR",""
"","show_choice","104","152629","0.0-104.0","""event"",""trial"",""time""
""fullscreenenter"",""0"",""6084""
""fullscreenexit"",""2"",""18666""
""blur"",""2"",""20065""
""focus"",""2"",""22907""
""blur"",""2"",""27357""
""focus"",""2"",""29472""
""blur"",""2"",""31626""
""focus"",""2"",""34674""
""blur"",""3"",""50777""
""focus"",""3"",""52422""
""blur"",""31"",""81581""
""focus"",""32"",""83729""
","""event"",""trial"",""time""
""blur"",""2"",""20065""
""blur"",""2"",""27357""
""blur"",""2"",""31626""
""blur"",""3"",""50777""
""blur"",""31"",""81581""
","""event"",""trial"",""time""
""focus"",""2"",""22907""
""focus"",""2"",""29472""
""focus"",""2"",""34674""
""focus"",""3"",""52422""
""focus"",""32"",""83729""
","""event"",""trial"",""time""
""fullscreenenter"",""0"",""6084""
","""event"",""trial"",""time""
""fullscreenexit"",""2"",""18666""
","null","run_exp/static/images/blank.png","null","","","","","","learn","SR",""
"","html-keyboard-response","105","153131","0.0-105.0","""event"",""trial"",""time""
""fullscreenenter"",""0"",""6084""
""fullscreenexit"",""2"",""18666""
""blur"",""2"",""20065""
""focus"",""2"",""22907""
""blur"",""2"",""27357""
""focus"",""2"",""29472""
""blur"",""2"",""31626""
""focus"",""2"",""34674""
""blur"",""3"",""50777""
""focus"",""3"",""52422""
""blur"",""31"",""81581""
""focus"",""32"",""83729""
","""event"",""trial"",""time""
""blur"",""2"",""20065""
""blur"",""2"",""27357""
""blur"",""2"",""31626""
""blur"",""3"",""50777""
""blur"",""31"",""81581""
","""event"",""trial"",""time""
""focus"",""2"",""22907""
""focus"",""2"",""29472""
""focus"",""2"",""34674""
""focus"",""3"",""52422""
""focus"",""32"",""83729""
","""event"",""trial"",""time""
""fullscreenenter"",""0"",""6084""
","""event"",""trial"",""time""
""fullscreenexit"",""2"",""18666""
","null","<p></p>","null","","","","","","","",""
"","image","106","154093","0.0-106.0","""event"",""trial"",""time""
""fullscreenenter"",""0"",""6084""
""fullscreenexit"",""2"",""18666""
""blur"",""2"",""20065""
""focus"",""2"",""22907""
""blur"",""2"",""27357""
""focus"",""2"",""29472""
""blur"",""2"",""31626""
""focus"",""2"",""34674""
""blur"",""3"",""50777""
""focus"",""3"",""52422""
""blur"",""31"",""81581""
""focus"",""32"",""83729""
","""event"",""trial"",""time""
""blur"",""2"",""20065""
""blur"",""2"",""27357""
