"success","trial_type","trial_index","time_elapsed","internal_node_id","interactions","blur_events","focus_events","fullscreenenter_events","fullscreenexit_events","rt","stimulus","key_press","subject_id","participant_id","age","gender","prompt","phase","condition","lure_bin"
"true","fullscreen","0","2485","0.0-0.0","""event"",""trial"",""time""
""focus"",""0"",""0""
""fullscreenenter"",""0"",""1686""
","
","""event"",""trial"",""time""
""focus"",""0"",""0""
","""event"",""trial"",""time""
""fullscreenenter"",""0"",""1686""
","
","","","","","","","","","","",""
"","pavlovia","1","2486","0.0-1.0","""event"",""trial"",""time""
""focus"",""0"",""0""
""fullscreenenter"",""0"",""1686""
","
","""event"",""trial"",""time""
""focus"",""0"",""0""
","""event"",""trial"",""time""
""fullscreenenter"",""0"",""1686""
","
","","","","","","","","","","",""
"","welcome","2","37281","0.0-2.0","""event"",""trial"",""time""
""focus"",""0"",""0""
""fullscreenenter"",""0"",""1686""
","
","""event"",""trial"",""time""
""focus"",""0"",""0""
","""event"",""trial"",""time""
""fullscreenenter"",""0"",""1686""
","
","null","run_exp/static/audio/clip_1_welcome.m4a","null","1685","1685","18","Male","<div class='center'><p>Welcome to the third part of the study! First, you'll be shown pictures of items one at a time. For each picture, you have to decide if the item is typically found indoors or outdoors.</p><p>If you think it's usually found indoors, then press <b>v</b> key on your keyboard. If you think it's usually found outdoors, then press the <b>n</b> key.There will be reminders on the screen to help you remember which keys to press. </p><p>If you're not sure whether the item is an indoor item or an outdoor item, go ahead and take a guess but try your best not to skip that choice. </p></div>","","",""
"","html-keyboard-response","3","124815","0.0-3.0","""event"",""trial"",""time""
""focus"",""0"",""0""
""fullscreenenter"",""0"",""1686""
","
","""event"",""trial"",""time""
""focus"",""0"",""0""
","""event"",""trial"",""time""
""fullscreenenter"",""0"",""1686""
","
","87533","<div class='center'><p>Welcome to the third part of the study! First, you'll be shown pictures of items one at a time. For each picture, you have to decide if the item is typically found indoors or outdoors.</p><p>If you think it's usually found indoors, then press <b>v</b> key on your keyboard. If you think it's usually found outdoors, then press the <b>n</b> key.There will be reminders on the screen to help you remember which keys to press. </p><p>If you're not sure whether the item is an indoor item or an outdoor item, go ahead and take a guess but try your best not to skip that choice. </p><div><p><b>[Press the space bar to continue]</b></p></div>","32","","","","","","","",""
"","image","4","126509","0.0-4.0","""event"",""trial"",""time""
""focus"",""0"",""0""
""fullscreenenter"",""0"",""1686""
","
","""event"",""trial"",""time""
""focus"",""0"",""0""
","""event"",""trial"",""time""
""fullscreenenter"",""0"",""1686""
","
","1692","run_exp/static/images/Set 6_rs/024a.jpg","86","","","","","","learn","SR",""
"","show_choice","5","126826","0.0-5.0","""event"",""trial"",""time""
""focus"",""0"",""0""
""fullscreenenter"",""0"",""1686""
","
","""event"",""trial"",""time""
""focus"",""0"",""0""
","""event"",""trial"",""time""
""fullscreenenter"",""0"",""1686""
","
","null","run_exp/static/images/Set 6_rs/024a.jpg","null","","","","","","learn","SR",""
"","html-keyboard-response","6","127340","0.0-6.0","""event"",""trial"",""time""
""focus"",""0"",""0""
""fullscreenenter"",""0"",""1686""
","
","""event"",""trial"",""time""
""focus"",""0"",""0""
","""event"",""trial"",""time""
""fullscreenenter"",""0"",""1686""
","
","null","<p></p>","null","","","","","","","",""
"","image","7","128137","0.0-7.0","""event"",""trial"",""time""
""focus"",""0"",""0""
""fullscreenenter"",""0"",""1686""
","
","""event"",""trial"",""time""
""focus"",""0"",""0""
","""event"",""trial"",""time""
""fullscreenenter"",""0"",""1686""
","
","796","run_exp/static/images/Set 6_rs/025a.jpg","78","","","","","","learn","SL",""
"","show_choice","8","129346","0.0-8.0","""event"",""trial"",""time""
""focus"",""0"",""0""
""fullscreenenter"",""0"",""1686""
","
","""event"",""trial"",""time""
""focus"",""0"",""0""
","""event"",""trial"",""time""
""fullscreenenter"",""0"",""1686""
","
","null","run_exp/static/images/Set 6_rs/025a.jpg","null","","","","","","learn","SL",""
"","html-keyboard-response","9","129855","0.0-9.0","""event"",""trial"",""time""
""focus"",""0"",""0""
""fullscreenenter"",""0"",""1686""
","
","""event"",""trial"",""time""
""focus"",""0"",""0""
","""event"",""trial"",""time""
""fullscreenenter"",""0"",""1686""
","
","null","<p></p>","null","","","","","","","",""
"","image","10","131468","0.0-10.0","""event"",""trial"",""time""
""focus"",""0"",""0""
""fullscreenenter"",""0"",""1686""
","
","""event"",""trial"",""time""
""focus"",""0"",""0""
","""event"",""trial"",""time""
""fullscreenenter"",""0"",""1686""
","
","1612","run_exp/static/images/Set 6_rs/187a.jpg","86","","","","","","learn","SR",""
"","show_choice","11","131872","0.0-11.0","""event"",""trial"",""time""
""focus"",""0"",""0""
""fullscreenenter"",""0"",""1686""
","
","""event"",""trial"",""time""
""focus"",""0"",""0""
","""event"",""trial"",""time""
""fullscreenenter"",""0"",""1686""
","
","null","run_exp/static/images/Set 6_rs/187a.jpg","null","","","","","","learn","SR",""
"","html-keyboard-response","12","132384","0.0-12.0","""event"",""trial"",""time""
""focus"",""0"",""0""
""fullscreenenter"",""0"",""1686""
","
","""event"",""trial"",""time""
""focus"",""0"",""0""
","""event"",""trial"",""time""
""fullscreenenter"",""0"",""1686""
","
","null","<p></p>","null","","","","","","","",""
"","image","13","133323","0.0-13.0","""event"",""trial"",""time""
""focus"",""0"",""0""
""fullscreenenter"",""0"",""1686""
","
","""event"",""trial"",""time""
""focus"",""0"",""0""
","""event"",""trial"",""time""
""fullscreenenter"",""0"",""1686""
","
","938","run_exp/static/images/Set 6_rs/055a.jpg","86","","","","","","learn","SL",""
"","show_choice","14","134399","0.0-14.0","""event"",""trial"",""time""
""focus"",""0"",""0""
""fullscreenenter"",""0"",""1686""
","
","""event"",""trial"",""time""
""focus"",""0"",""0""
","""event"",""trial"",""time""
""fullscreenenter"",""0"",""1686""
","
","null","run_exp/static/images/Set 6_rs/055a.jpg","null","","","","","","learn","SL",""
"","html-keyboard-response","15","134908","0.0-15.0","""event"",""trial"",""time""
""focus"",""0"",""0""
""fullscreenenter"",""0"",""1686""
","
","""event"",""trial"",""time""
""focus"",""0"",""0""
","""event"",""trial"",""time""
""fullscreenenter"",""0"",""1686""
","
","null","<p></p>","null","","","","","","","",""
"","image","16","136525","0.0-16.0","""event"",""trial"",""time""
""focus"",""0"",""0""
""fullscreenenter"",""0"",""1686""
","
","""event"",""trial"",""time""
""focus"",""0"",""0""
","""event"",""trial"",""time""
""fullscreenenter"",""0"",""1686""
","
","1616","run_exp/static/images/Set 6_rs/085a.jpg","86","","","","","","learn","SL",""
"","show_choice","17","136922","0.0-17.0","""event"",""trial"",""time""
""focus"",""0"",""0""
""fullscreenenter"",""0"",""1686""
","
","""event"",""trial"",""time""
""focus"",""0"",""0""
","""event"",""trial"",""time""
""fullscreenenter"",""0"",""1686""
","
","null","run_exp/static/images/Set 6_rs/085a.jpg","null","","","","","","learn","SL",""
"","html-keyboard-response","18","137435","0.0-18.0","""event"",""trial"",""time""
""focus"",""0"",""0""
""fullscreenenter"",""0"",""1686""
","
","""event"",""trial"",""time""
""focus"",""0"",""0""
","""event"",""trial"",""time""
""fullscreenenter"",""0"",""1686""
","
","null","<p></p>","null","","","","","","","",""
"","image","19","138740","0.0-19.0","""event"",""trial"",""time""
""focus"",""0"",""0""
""fullscreenenter"",""0"",""1686""
","
","""event"",""trial"",""time""
""focus"",""0"",""0""
","""event"",""trial"",""time""
""fullscreenenter"",""0"",""1686""
","
","1303","run_exp/static/images/Set 6_rs/117a.jpg","86","","","","","","learn","SL",""
"","show_choice","20","139443","0.0-20.0","""event"",""trial"",""time""
""focus"",""0"",""0""
""fullscreenenter"",""0"",""1686""
","
","""event"",""trial"",""time""
""focus"",""0"",""0""
","""event"",""trial"",""time""
""fullscreenenter"",""0"",""1686""
","
","null","run_exp/static/images/Set 6_rs/117a.jpg","null","","","","","","learn","SL",""
"","html-keyboard-response","21","139953","0.0-21.0","""event"",""trial"",""time""
""focus"",""0"",""0""
""fullscreenenter"",""0"",""1686""
","
","""event"",""trial"",""time""
""focus"",""0"",""0""
","""event"",""trial"",""time""
""fullscreenenter"",""0"",""1686""
","
","null","<p></p>","null","","","","","","","",""
"","image","22","141753","0.0-22.0","""event"",""trial"",""time""
""focus"",""0"",""0""
""fullscreenenter"",""0"",""1686""
","
","""event"",""trial"",""time""
""focus"",""0"",""0""
","""event"",""trial"",""time""
""fullscreenenter"",""0"",""1686""
","
","1801","run_exp/static/images/Set 6_rs/154a.jpg","86","","","","","","learn","SR",""
"","show_choice","23","141968","0.0-23.0","""event"",""trial"",""time""
""focus"",""0"",""0""
""fullscreenenter"",""0"",""1686""
","
","""event"",""trial"",""time""
""focus"",""0"",""0""
","""event"",""trial"",""time""
""fullscreenenter"",""0"",""1686""
","
","null","run_exp/static/images/Set 6_rs/154a.jpg","null","","","","","","learn","SR",""
"","html-keyboard-response","24","142483","0.0-24.0","""event"",""trial"",""time""
""focus"",""0"",""0""
""fullscreenenter"",""0"",""1686""
","
","""event"",""trial"",""time""
""focus"",""0"",""0""
","""event"",""trial"",""time""
""fullscreenenter"",""0"",""1686""
","
","null","<p></p>","null","","","","","","","",""
"","image","25","144489","0.0-25.0","""event"",""trial"",""time""
""focus"",""0"",""0""
""fullscreenenter"",""0"",""1686""
","
","""event"",""trial"",""time""
""focus"",""0"",""0""
","""event"",""trial"",""time""
""fullscreenenter"",""0"",""1686""
","
","null","run_exp/static/images/Set 6_rs/017a.jpg","null","","","","","","learn","SL",""
"","show_choice","26","146496","0.0-26.0","""event"",""trial"",""time""
""focus"",""0"",""0""
""fullscreenenter"",""0"",""1686""
","
","""event"",""trial"",""time""
""focus"",""0"",""0""
","""event"",""trial"",""time""
""fullscreenenter"",""0"",""1686""
","
","null","run_exp/static/images/blank.png","null","","","","","","learn","SL",""
"","html-keyboard-response","27","147007","0.0-27.0","""event"",""trial"",""time""
""focus"",""0"",""0""
""fullscreenenter"",""0"",""1686""
","
","""event"",""trial"",""time""
""focus"",""0"",""0""
","""event"",""trial"",""time""
""fullscreenenter"",""0"",""1686""
","
","null","<p></p>","null","","","","","","","",""
"","image","28","148090","0.0-28.0","""event"",""trial"",""time""
""focus"",""0"",""0""
""fullscreenenter"",""0"",""1686""
","
","""event"",""trial"",""time""
""focus"",""0"",""0""
","""event"",""trial"",""time""
""fullscreenenter"",""0"",""1686""
","
","1083","run_exp/static/images/Set 6_rs/131a.jpg","86","","","","","","learn","SR",""
"","show_choice","29","149022","0.0-29.0","""event"",""trial"",""time""
""focus"",""0"",""0""
""fullscreenenter"",""0"",""1686""
","
","""event"",""trial"",""time""
""focus"",""0"",""0""
","""event"",""trial"",""time""
""fullscreenenter"",""0"",""1686""
","
","null","run_exp/static/images/Set 6_rs/131a.jpg","null","","","","","","learn","SR",""
"","html-keyboard-response","30","149532","0.0-30.0","""event"",""trial"",""time""
""focus"",""0"",""0""
""fullscreenenter"",""0"",""1686""
","
","""event"",""trial"",""time""
""focus"",""0"",""0""
","""event"",""trial"",""time""
""fullscreenenter"",""0"",""1686""
","
","null","<p></p>","null","","","","","","","",""
"","image","31","150416","0.0-31.0","""event"",""trial"",""time""
""focus"",""0"",""0""
""fullscreenenter"",""0"",""1686""
","
","""event"",""trial"",""time""
""focus"",""0"",""0""
","""event"",""trial"",""time""
""fullscreenenter"",""0"",""1686""
","
","883","run_exp/static/images/Set 6_rs/177a.jpg","78","","","","","","learn","SR",""
"","show_choice","32","151538","0.0-32.0","""event"",""trial"",""time""
""focus"",""0"",""0""
""fullscreenenter"",""0"",""1686""
","
","""event"",""trial"",""time""
""focus"",""0"",""0""
","""event"",""trial"",""time""
""fullscreenenter"",""0"",""1686""
","
","null","run_exp/static/images/Set 6_rs/177a.jpg","null","","","","","","learn","SR",""
"","html-keyboard-response","33","152050","0.0-33.0","""event"",""trial"",""time""
""focus"",""0"",""0""
""fullscreenenter"",""0"",""1686""
","
","""event"",""trial"",""time""
""focus"",""0"",""0""
","""event"",""trial"",""time""
""fullscreenenter"",""0"",""1686""
","
","null","<p></p>","null","","","","","","","",""
"","image","34","152874","0.0-34.0","""event"",""trial"",""time""
""focus"",""0"",""0""
""fullscreenenter"",""0"",""1686""
","
","""event"",""trial"",""time""
""focus"",""0"",""0""
","""event"",""trial"",""time""
""fullscreenenter"",""0"",""1686""
","
","823","run_exp/static/images/Set 6_rs/010a.jpg","86","","","","","","learn","SR",""
"","show_choice","35","154054","0.0-35.0","""event"",""trial"",""time""
""focus"",""0"",""0""
""fullscreenenter"",""0"",""1686""
","
","""event"",""trial"",""time""
""focus"",""0"",""0""
","""event"",""trial"",""time""
""fullscreenenter"",""0"",""1686""
","
","null","run_exp/static/images/Set 6_rs/010a.jpg","null","","","","","","learn","SR",""
"","html-keyboard-response","36","154567","0.0-36.0","""event"",""trial"",""time""
""focus"",""0"",""0""
""fullscreenenter"",""0"",""1686""
","
","""event"",""trial"",""time""
""focus"",""0"",""0""
","""event"",""trial"",""time""
""fullscreenenter"",""0"",""1686""
","
","null","<p></p>","null","","","","","","","",""
"","image","37","155528","0.0-37.0","""event"",""trial"",""time""
""focus"",""0"",""0""
""fullscreenenter"",""0"",""1686""
","
","""event"",""trial"",""time""
""focus"",""0"",""0""
","""event"",""trial"",""time""
""fullscreenenter"",""0"",""1686""
","
","959","run_exp/static/images/Set 6_rs/064a.jpg","86","","","","","","learn","SR",""
"","show_choice","38","156569","0.0-38.0","""event"",""trial"",""time""
""focus"",""0"",""0""
""fullscreenenter"",""0"",""1686""
","
","""event"",""trial"",""time""
""focus"",""0"",""0""
","""event"",""trial"",""time""
""fullscreenenter"",""0"",""1686""
","
","null","run_exp/static/images/Set 6_rs/064a.jpg","null","","","","","","learn","SR",""
"","html-keyboard-response","39","157081","0.0-39.0","""event"",""trial"",""time""
""focus"",""0"",""0""
""fullscreenenter"",""0"",""1686""
","
","""event"",""trial"",""time""
""focus"",""0"",""0""
","""event"",""trial"",""time""
""fullscreenenter"",""0"",""1686""
","
","null","<p></p>","null","","","","","","","",""
"","image","40","157821","0.0-40.0","""event"",""trial"",""time""
""focus"",""0"",""0""
""fullscreenenter"",""0"",""1686""
","
","""event"",""trial"",""time""
""focus"",""0"",""0""
","""event"",""trial"",""time""
""fullscreenenter"",""0"",""1686""
","
","740","run_exp/static/images/Set 6_rs/089a.jpg","86","","","","","","learn","SL",""
"","show_choice","41","159092","0.0-41.0","""event"",""trial"",""time""
""focus"",""0"",""0""
""fullscreenenter"",""0"",""1686""
","
","""event"",""trial"",""time""
""focus"",""0"",""0""
","""event"",""trial"",""time""
""fullscreenenter"",""0"",""1686""
","
","null","run_exp/static/images/Set 6_rs/089a.jpg","null","","","","","","learn","SL",""
"","html-keyboard-response","42","159604","0.0-42.0","""event"",""trial"",""time""
""focus"",""0"",""0""
""fullscreenenter"",""0"",""1686""
","
","""event"",""trial"",""time""
""focus"",""0"",""0""
","""event"",""trial"",""time""
""fullscreenenter"",""0"",""1686""
","
","null","<p></p>","null","","","","","","","",""
"","image","43","160512","0.0-43.0","""event"",""trial"",""time""
""focus"",""0"",""0""
""fullscreenenter"",""0"",""1686""
","
","""event"",""trial"",""time""
""focus"",""0"",""0""
","""event"",""trial"",""time""
""fullscreenenter"",""0"",""1686""
","
","907","run_exp/static/images/Set 6_rs/062a.jpg","86","","","","","","learn","SL",""
"","show_choice","44","161607","0.0-44.0","""event"",""trial"",""time""
""focus"",""0"",""0""
""fullscreenenter"",""0"",""1686""
","
","""event"",""trial"",""time""
""focus"",""0"",""0""
","""event"",""trial"",""time""
""fullscreenenter"",""0"",""1686""
","
","null","run_exp/static/images/Set 6_rs/062a.jpg","null","","","","","","learn","SL",""
"","html-keyboard-response","45","162119","0.0-45.0","""event"",""trial"",""time""
""focus"",""0"",""0""
""fullscreenenter"",""0"",""1686""
","
","""event"",""trial"",""time""
""focus"",""0"",""0""
","""event"",""trial"",""time""
""fullscreenenter"",""0"",""1686""
","
","null","<p></p>","null","","","","","","","",""
"","image","46","163044","0.0-46.0","""event"",""trial"",""time""
""focus"",""0"",""0""
""fullscreenenter"",""0"",""1686""
","
","""event"",""trial"",""time""
""focus"",""0"",""0""
","""event"",""trial"",""time""
""fullscreenenter"",""0"",""1686""
","
","925","run_exp/static/images/Set 6_rs/095a.jpg","86","","","","","","learn","SL",""
"","show_choice","47","164122","0.0-47.0","""event"",""trial"",""time""
""focus"",""0"",""0""
""fullscreenenter"",""0"",""1686""
","
","""event"",""trial"",""time""
""focus"",""0"",""0""
","""event"",""trial"",""time""
""fullscreenenter"",""0"",""1686""
","
","null","run_exp/static/images/Set 6_rs/095a.jpg","null","","","","","","learn","SL",""
"","html-keyboard-response","48","164634","0.0-48.0","""event"",""trial"",""time""
""focus"",""0"",""0""
""fullscreenenter"",""0"",""1686""
","
","""event"",""trial"",""time""
""focus"",""0"",""0""
","""event"",""trial"",""time""
""fullscreenenter"",""0"",""1686""
","
","null","<p></p>","null","","","","","","","",""
"","image","49","165302","0.0-49.0","""event"",""trial"",""time""
""focus"",""0"",""0""
""fullscreenenter"",""0"",""1686""
","
","""event"",""trial"",""time""
""focus"",""0"",""0""
","""event"",""trial"",""time""
""fullscreenenter"",""0"",""1686""
","
","666","run_exp/static/images/Set 6_rs/169a.jpg","86","","","","","","learn","SR",""
"","show_choice","50","166637","0.0-50.0","""event"",""trial"",""time""
""focus"",""0"",""0""
""fullscreenenter"",""0"",""1686""
","
","""event"",""trial"",""time""
""focus"",""0"",""0""
","""event"",""trial"",""time""
""fullscreenenter"",""0"",""1686""
","
","null","run_exp/static/images/Set 6_rs/169a.jpg","null","","","","","","learn","SR",""
"","html-keyboard-response","51","167150","0.0-51.0","""event"",""trial"",""time""
""focus"",""0"",""0""
""fullscreenenter"",""0"",""1686""
","
","""event"",""trial"",""time""
""focus"",""0"",""0""
","""event"",""trial"",""time""
""fullscreenenter"",""0"",""1686""
","
","null","<p></p>","null","","","","","","","",""
"","image","52","167873","0.0-52.0","""event"",""trial"",""time""
""focus"",""0"",""0""
""fullscreenenter"",""0"",""1686""
","
","""event"",""trial"",""time""
""focus"",""0"",""0""
","""event"",""trial"",""time""
""fullscreenenter"",""0"",""1686""
","
","722","run_exp/static/images/Set 6_rs/116a.jpg","86","","","","","","learn","SL",""
"","show_choice","53","169154","0.0-53.0","""event"",""trial"",""time""
""focus"",""0"",""0""
""fullscreenenter"",""0"",""1686""
","
","""event"",""trial"",""time""
""focus"",""0"",""0""
","""event"",""trial"",""time""
""fullscreenenter"",""0"",""1686""
","
","null","run_exp/static/images/Set 6_rs/116a.jpg","null","","","","","","learn","SL",""
"","html-keyboard-response","54","169664","0.0-54.0","""event"",""trial"",""time""
""focus"",""0"",""0""
""fullscreenenter"",""0"",""1686""
","
","""event"",""trial"",""time""
""focus"",""0"",""0""
","""event"",""trial"",""time""
""fullscreenenter"",""0"",""1686""
","
","null","<p></p>","null","","","","","","","",""
"","image","55","170660","0.0-55.0","""event"",""trial"",""time""
""focus"",""0"",""0""
""fullscreenenter"",""0"",""1686""
","
","""event"",""trial"",""time""
""focus"",""0"",""0""
","""event"",""trial"",""time""
""fullscreenenter"",""0"",""1686""
","
","997","run_exp/static/images/Set 6_rs/178a.jpg","86","","","","","","learn","SR",""
"","show_choice","56","171676","0.0-56.0","""event"",""trial"",""time""
""focus"",""0"",""0""
""fullscreenenter"",""0"",""1686""
","
","""event"",""trial"",""time""
""focus"",""0"",""0""
","""event"",""trial"",""time""
""fullscreenenter"",""0"",""1686""
","
","null","run_exp/static/images/Set 6_rs/178a.jpg","null","","","","","","learn","SR",""
"","html-keyboard-response","57","172185","0.0-57.0","""event"",""trial"",""time""
""focus"",""0"",""0""
""fullscreenenter"",""0"",""1686""
","
","""event"",""trial"",""time""
""focus"",""0"",""0""
","""event"",""trial"",""time""
""fullscreenenter"",""0"",""1686""
","
","null","<p></p>","null","","","","","","","",""
"","image","58","173297","0.0-58.0","""event"",""trial"",""time""
""focus"",""0"",""0""
""fullscreenenter"",""0"",""1686""
","
","""event"",""trial"",""time""
""focus"",""0"",""0""
","""event"",""trial"",""time""
""fullscreenenter"",""0"",""1686""
","
","1111","run_exp/static/images/Set 6_rs/050a.jpg","86","","","","","","learn","SL",""
"","show_choice","59","174190","0.0-59.0","""event"",""trial"",""time""
""focus"",""0"",""0""
""fullscreenenter"",""0"",""1686""
","
","""event"",""trial"",""time""
""focus"",""0"",""0""
","""event"",""trial"",""time""
""fullscreenenter"",""0"",""1686""
","
","null","run_exp/static/images/Set 6_rs/050a.jpg","null","","","","","","learn","SL",""
"","html-keyboard-response","60","174700","0.0-60.0","""event"",""trial"",""time""
""focus"",""0"",""0""
""fullscreenenter"",""0"",""1686""
","
","""event"",""trial"",""time""
""focus"",""0"",""0""
","""event"",""trial"",""time""
""fullscreenenter"",""0"",""1686""
","
","null","<p></p>","null","","","","","","","",""
"","image","61","175969","0.0-61.0","""event"",""trial"",""time""
""focus"",""0"",""0""
""fullscreenenter"",""0"",""1686""
","
","""event"",""trial"",""time""
""focus"",""0"",""0""
","""event"",""trial"",""time""
""fullscreenenter"",""0"",""1686""
","
","1270","run_exp/static/images/Set 6_rs/045a.jpg","86","","","","","","learn","SR",""
"","show_choice","62","176701","0.0-62.0","""event"",""trial"",""time""
""focus"",""0"",""0""
""fullscreenenter"",""0"",""1686""
","
","""event"",""trial"",""time""
""focus"",""0"",""0""
","""event"",""trial"",""time""
""fullscreenenter"",""0"",""1686""
","
","null","run_exp/static/images/Set 6_rs/045a.jpg","null","","","","","","learn","SR",""
"","html-keyboard-response","63","177212","0.0-63.0","""event"",""trial"",""time""
""focus"",""0"",""0""
""fullscreenenter"",""0"",""1686""
","
","""event"",""trial"",""time""
""focus"",""0"",""0""
","""event"",""trial"",""time""
""fullscreenenter"",""0"",""1686""
","
","null","<p></p>","null","","","","","","","",""
"","image","64","178543","0.0-64.0","""event"",""trial"",""time""
""focus"",""0"",""0""
""fullscreenenter"",""0"",""1686""
","
","""event"",""trial"",""time""
""focus"",""0"",""0""
","""event"",""trial"",""time""
""fullscreenenter"",""0"",""1686""
","
","1330","run_exp/static/images/Set 6_rs/121a.jpg","86","","","","","","learn","SR",""
"","show_choice","65","179229","0.0-65.0","""event"",""trial"",""time""
""focus"",""0"",""0""
""fullscreenenter"",""0"",""1686""
","
","""event"",""trial"",""time""
""focus"",""0"",""0""
","""event"",""trial"",""time""
""fullscreenenter"",""0"",""1686""
","
","null","run_exp/static/images/Set 6_rs/121a.jpg","null","","","","","","learn","SR",""
"","html-keyboard-response","66","179740","0.0-66.0","""event"",""trial"",""time""
""focus"",""0"",""0""
""fullscreenenter"",""0"",""1686""
","
","""event"",""trial"",""time""
""focus"",""0"",""0""
","""event"",""trial"",""time""
""fullscreenenter"",""0"",""1686""
","
","null","<p></p>","null","","","","","","","",""
"","image","67","180691","0.0-67.0","""event"",""trial"",""time""
""focus"",""0"",""0""
""fullscreenenter"",""0"",""1686""
","
","""event"",""trial"",""time""
""focus"",""0"",""0""
","""event"",""trial"",""time""
""fullscreenenter"",""0"",""1686""
","
","951","run_exp/static/images/Set 6_rs/007a.jpg","86","","","","","","learn","SR",""
"","show_choice","68","181747","0.0-68.0","""event"",""trial"",""time""
""focus"",""0"",""0""
""fullscreenenter"",""0"",""1686""
","
","""event"",""trial"",""time""
""focus"",""0"",""0""
","""event"",""trial"",""time""
""fullscreenenter"",""0"",""1686""
","
","null","run_exp/static/images/Set 6_rs/007a.jpg","null","","","","","","learn","SR",""
"","html-keyboard-response","69","182256","0.0-69.0","""event"",""trial"",""time""
""focus"",""0"",""0""
""fullscreenenter"",""0"",""1686""
","
","""event"",""trial"",""time""
""focus"",""0"",""0""
","""event"",""trial"",""time""
""fullscreenenter"",""0"",""1686""
","
","null","<p></p>","null","","","","","","","",""
"","image","70","183231","0.0-70.0","""event"",""trial"",""time""
""focus"",""0"",""0""
""fullscreenenter"",""0"",""1686""
","
","""event"",""trial"",""time""
""focus"",""0"",""0""
","""event"",""trial"",""time""
""fullscreenenter"",""0"",""1686""
","
","975","run_exp/static/images/Set 6_rs/191a.jpg","86","","","","","","learn","SL",""
"","show_choice","71","184269","0.0-71.0","""event"",""trial"",""time""
""focus"",""0"",""0""
""fullscreenenter"",""0"",""1686""
","
","""event"",""trial"",""time""
""focus"",""0"",""0""
","""event"",""trial"",""time""
""fullscreenenter"",""0"",""1686""
","
","null","run_exp/static/images/Set 6_rs/191a.jpg","null","","","","","","learn","SL",""
"","html-keyboard-response","72","184779","0.0-72.0","""event"",""trial"",""time""
""focus"",""0"",""0""
""fullscreenenter"",""0"",""1686""
","
","""event"",""trial"",""time""
""focus"",""0"",""0""
","""event"",""trial"",""time""
""fullscreenenter"",""0"",""1686""
","
","null","<p></p>","null","","","","","","","",""
"","image","73","185913","0.0-73.0","""event"",""trial"",""time""
""focus"",""0"",""0""
""fullscreenenter"",""0"",""1686""
","
","""event"",""trial"",""time""
""focus"",""0"",""0""
","""event"",""trial"",""time""
""fullscreenenter"",""0"",""1686""
","
","1134","run_exp/static/images/Set 6_rs/071a.jpg","78","","","","","","learn","SL",""
"","show_choice","74","186792","0.0-74.0","""event"",""trial"",""time""
""focus"",""0"",""0""
""fullscreenenter"",""0"",""1686""
","
","""event"",""trial"",""time""
""focus"",""0"",""0""
","""event"",""trial"",""time""
""fullscreenenter"",""0"",""1686""
","
","null","run_exp/static/images/Set 6_rs/071a.jpg","null","","","","","","learn","SL",""
"","html-keyboard-response","75","187304","0.0-75.0","""event"",""trial"",""time""
""focus"",""0"",""0""
""fullscreenenter"",""0"",""1686""
","
","""event"",""trial"",""time""
""focus"",""0"",""0""
","""event"",""trial"",""time""
""fullscreenenter"",""0"",""1686""
","
","null","<p></p>","null","","","","","","","",""
"","image","76","188353","0.0-76.0","""event"",""trial"",""time""
""focus"",""0"",""0""
""fullscreenenter"",""0"",""1686""
","
","""event"",""trial"",""time""
""focus"",""0"",""0""
","""event"",""trial"",""time""
""fullscreenenter"",""0"",""1686""
","
","1048","run_exp/static/images/Set 6_rs/091a.jpg","78","","","","","","learn","SL",""
"","show_choice","77","189312","0.0-77.0","""event"",""trial"",""time""
""focus"",""0"",""0""
""fullscreenenter"",""0"",""1686""
","
","""event"",""trial"",""time""
""focus"",""0"",""0""
","""event"",""trial"",""time""
""fullscreenenter"",""0"",""1686""
","
","null","run_exp/static/images/Set 6_rs/091a.jpg","null","","","","","","learn","SL",""
"","html-keyboard-response","78","189822","0.0-78.0","""event"",""trial"",""time""
""focus"",""0"",""0""
""fullscreenenter"",""0"",""1686""
","
","""event"",""trial"",""time""
""focus"",""0"",""0""
","""event"",""trial"",""time""
""fullscreenenter"",""0"",""1686""
","
","null","<p></p>","null","","","","","","","",""
"","image","79","190902","0.0-79.0","""event"",""trial"",""time""
""focus"",""0"",""0""
""fullscreenenter"",""0"",""1686""
","
","""event"",""trial"",""time""
""focus"",""0"",""0""
","""event"",""trial"",""time""
""fullscreenenter"",""0"",""1686""
","
","1080","run_exp/static/images/Set 6_rs/168a.jpg","86","","","","","","learn","SL",""
"","show_choice","80","191824","0.0-80.0","""event"",""trial"",""time""
""focus"",""0"",""0""
""fullscreenenter"",""0"",""1686""
","
","""event"",""trial"",""time""
""focus"",""0"",""0""
","""event"",""trial"",""time""
""fullscreenenter"",""0"",""1686""
","
","null","run_exp/static/images/Set 6_rs/168a.jpg","null","","","","","","learn","SL",""
"","html-keyboard-response","81","192335","0.0-81.0","""event"",""trial"",""time""
""focus"",""0"",""0""
""fullscreenenter"",""0"",""1686""
","
","""event"",""trial"",""time""
""focus"",""0"",""0""
","""event"",""trial"",""time""
""fullscreenenter"",""0"",""1686""
","
","null","<p></p>","null","","","","","","","",""
"","image","82","193373","0.0-82.0","""event"",""trial"",""time""
""focus"",""0"",""0""
""fullscreenenter"",""0"",""1686""
","
","""event"",""trial"",""time""
""focus"",""0"",""0""
","""event"",""trial"",""time""
""fullscreenenter"",""0"",""1686""
","
","1037","run_exp/static/images/Set 6_rs/134a.jpg","86","","","","","","learn","SR",""
"","show_choice","83","194339","0.0-83.0","""event"",""trial"",""time""
""focus"",""0"",""0""
""fullscreenenter"",""0"",""1686""
","
","""event"",""trial"",""time""
""focus"",""0"",""0""
","""event"",""trial"",""time""
""fullscreenenter"",""0"",""1686""
","
","null","run_exp/static/images/Set 6_rs/134a.jpg","null","","","","","","learn","SR",""
"","html-keyboard-response","84","194849","0.0-84.0","""event"",""trial"",""time""
""focus"",""0"",""0""
""fullscreenenter"",""0"",""1686""
","
","""event"",""trial"",""time""
""focus"",""0"",""0""
","""event"",""trial"",""time""
""fullscreenenter"",""0"",""1686""
","
","null","<p></p>","null","","","","","","","",""
"","image","85","195686","0.0-85.0","""event"",""trial"",""time""
""focus"",""0"",""0""
""fullscreenenter"",""0"",""1686""
","
","""event"",""trial"",""time""
""focus"",""0"",""0""
","""event"",""trial"",""time""
""fullscreenenter"",""0"",""1686""
","
","835","run_exp/static/images/Set 6_rs/019a.jpg","86","","","","","","learn","SL",""
"","show_choice","86","196864","0.0-86.0","""event"",""trial"",""time""
""focus"",""0"",""0""
""fullscreenenter"",""0"",""1686""
","
","""event"",""trial"",""time""
""focus"",""0"",""0""
","""event"",""trial"",""time""
""fullscreenenter"",""0"",""1686""
","
","null","run_exp/static/images/Set 6_rs/019a.jpg","null","","","","","","learn","SL",""
"","html-keyboard-response","87","197378","0.0-87.0","""event"",""trial"",""time""
""focus"",""0"",""0""
""fullscreenenter"",""0"",""1686""
","
","""event"",""trial"",""time""
""focus"",""0"",""0""
","""event"",""trial"",""time""
""fullscreenenter"",""0"",""1686""
","
","null","<p></p>","null","","","","","","","",""
"","image","88","198216","0.0-88.0","""event"",""trial"",""time""
""focus"",""0"",""0""
""fullscreenenter"",""0"",""1686""
","
","""event"",""trial"",""time""
""focus"",""0"",""0""
","""event"",""trial"",""time""
""fullscreenenter"",""0"",""1686""
","
","837","run_exp/static/images/Set 6_rs/152a.jpg","86","","","","","","learn","SR",""
"","show_choice","89","199390","0.0-89.0","""event"",""trial"",""time""
""focus"",""0"",""0""
""fullscreenenter"",""0"",""1686""
","
","""event"",""trial"",""time""
""focus"",""0"",""0""
","""event"",""trial"",""time""
""fullscreenenter"",""0"",""1686""
","
","null","run_exp/static/images/Set 6_rs/152a.jpg","null","","","","","","learn","SR",""
"","html-keyboard-response","90","199899","0.0-90.0","""event"",""trial"",""time""
""focus"",""0"",""0""
""fullscreenenter"",""0"",""1686""
","
","""event"",""trial"",""time""
""focus"",""0"",""0""
","""event"",""trial"",""time""
""fullscreenenter"",""0"",""1686""
","
","null","<p></p>","null","","","","","","","",""
"","image","91","201003","0.0-91.0","""event"",""trial"",""time""
""focus"",""0"",""0""
""fullscreenenter"",""0"",""1686""
","
","""event"",""trial"",""time""
""focus"",""0"",""0""
","""event"",""trial"",""time""
""fullscreenenter"",""0"",""1686""
","
","1104","run_exp/static/images/Set 6_rs/023a.jpg","86","","","","","","learn","SR",""
"","show_choice","92","201913","0.0-92.0","""event"",""trial"",""time""
""focus"",""0"",""0""
""fullscreenenter"",""0"",""1686""
","
","""event"",""trial"",""time""
""focus"",""0"",""0""
","""event"",""trial"",""time""
""fullscreenenter"",""0"",""1686""
","
","null","run_exp/static/images/Set 6_rs/023a.jpg","null","","","","","","learn","SR",""
"","html-keyboard-response","93","202426","0.0-93.0","""event"",""trial"",""time""
""focus"",""0"",""0""
""fullscreenenter"",""0"",""1686""
","
","""event"",""trial"",""time""
""focus"",""0"",""0""
","""event"",""trial"",""time""
""fullscreenenter"",""0"",""1686""
","
","null","<p></p>","null","","","","","","","",""
"","image","94","203181","0.0-94.0","""event"",""trial"",""time""
""focus"",""0"",""0""
""fullscreenenter"",""0"",""1686""
","
","""event"",""trial"",""time""
""focus"",""0"",""0""
","""event"",""trial"",""time""
""fullscreenenter"",""0"",""1686""
","
","754","run_exp/static/images/Set 6_rs/016a.jpg","86","","","","","","learn","SL",""
"","show_choice","95","204435","0.0-95.0","""event"",""trial"",""time""
""focus"",""0"",""0""
""fullscreenenter"",""0"",""1686""
","
","""event"",""trial"",""time""
""focus"",""0"",""0""
","""event"",""trial"",""time""
""fullscreenenter"",""0"",""1686""
","
","null","run_exp/static/images/Set 6_rs/016a.jpg","null","","","","","","learn","SL",""
"","html-keyboard-response","96","204947","0.0-96.0","""event"",""trial"",""time""
""focus"",""0"",""0""
""fullscreenenter"",""0"",""1686""
","
","""event"",""trial"",""time""
""focus"",""0"",""0""
","""event"",""trial"",""time""
""fullscreenenter"",""0"",""1686""
","
","null","<p></p>","null","","","","","","","",""
"","image","97","205586","0.0-97.0","""event"",""trial"",""time""
""focus"",""0"",""0""
""fullscreenenter"",""0"",""1686""
","
","""event"",""trial"",""time""
""focus"",""0"",""0""
","""event"",""trial"",""time""
""fullscreenenter"",""0"",""1686""
","
","639","run_exp/static/images/Set 6_rs/012a.jpg","86","","","","","","learn","SR",""
"","show_choice","98","206954","0.0-98.0","""event"",""trial"",""time""
""focus"",""0"",""0""
""fullscreenenter"",""0"",""1686""
","
","""event"",""trial"",""time""
""focus"",""0"",""0""
","""event"",""trial"",""time""
""fullscreenenter"",""0"",""1686""
","
","null","run_exp/static/images/Set 6_rs/012a.jpg","null","","","","","","learn","SR",""
"","html-keyboard-response","99","207462","0.0-99.0","""event"",""trial"",""time""
""focus"",""0"",""0""
""fullscreenenter"",""0"",""1686""
","
","""event"",""trial"",""time""
""focus"",""0"",""0""
","""event"",""trial"",""time""
""fullscreenenter"",""0"",""1686""
","
","null","<p></p>","null","","","","","","","",""
"","image","100","208020","0.0-100.0","""event"",""trial"",""time""
""focus"",""0"",""0""
""fullscreenenter"",""0"",""1686""
","
","""event"",""trial"",""time""
""focus"",""0"",""0""
","""event"",""trial"",""time""
""fullscreenenter"",""0"",""1686""
","
","558","run_exp/static/images/Set 6_rs/186a.jpg","86","","","","","","learn","SR",""
"","show_choice","101","209477","0.0-101.0","""event"",""trial"",""time""
""focus"",""0"",""0""
""fullscreenenter"",""0"",""1686""
","
","""event"",""trial"",""time""
""focus"",""0"",""0""
","""event"",""trial"",""time""
""fullscreenenter"",""0"",""1686""
","
","null","run_exp/static/images/Set 6_rs/186a.jpg","null","","","","","","learn","SR",""
"","html-keyboard-response","102","209986","0.0-102.0","""event"",""trial"",""time""
""focus"",""0"",""0""
""fullscreenenter"",""0"",""1686""
","
","""event"",""trial"",""time""
""focus"",""0"",""0""
","""event"",""trial"",""time""
""fullscreenenter"",""0"",""1686""
","
","null","<p></p>","null","","","","","","","",""
"","image","103","210838","0.0-103.0","""event"",""trial"",""time""
""focus"",""0"",""0""
""fullscreenenter"",""0"",""1686""
","
","""event"",""trial"",""time""
""focus"",""0"",""0""
","""event"",""trial"",""time""
""fullscreenenter"",""0"",""1686""
","
","852","run_exp/static/images/Set 6_rs/167a.jpg","86","","","","","","learn","SL",""
"","show_choice","104","211989","0.0-104.0","""event"",""trial"",""time""
""focus"",""0"",""0""
""fullscreenenter"",""0"",""1686""
","
","""event"",""trial"",""time""
""focus"",""0"",""0""
","""event"",""trial"",""time""
""fullscreenenter"",""0"",""1686""
","
","null","run_exp/static/images/Set 6_rs/167a.jpg","null","","","","","","learn","SL",""
"","html-keyboard-response","105","212500","0.0-105.0","""event"",""trial"",""time""
""focus"",""0"",""0""
""fullscreenenter"",""0"",""1686""
","
","""event"",""trial"",""time""
""focus"",""0"",""0""
","""event"",""trial"",""time""
""fullscreenenter"",""0"",""1686""
","
","null","<p></p>","null","","","","","","","",""
"","image","106","213352","0.0-106.0","""event"",""trial"",""time""
""focus"",""0"",""0""
""fullscreenenter"",""0"",""1686""
","
","""event"",""trial"",""time""
""focus"",""0"",""0""
","""event"",""trial"",""time""
""fullscreenenter"",""0"",""1686""
","
","853","run_exp/static/images/Set 6_rs/111a.jpg","86","","","","","","learn","SL",""
"","show_choice","107","214514","0.0-107.0","""event"",""trial"",""time""
""focus"",""0"",""0""
""fullscreenenter"",""0"",""1686""
","
","""event"",""trial"",""time""
""focus"",""0"",""0""
","""event"",""trial"",""time""
""fullscreenenter"",""0"",""1686""
","
","null","run_exp/static/images/Set 6_rs/111a.jpg","null","","","","","","learn","SL",""
"","html-keyboard-response","108","215022","0.0-108.0","""event"",""trial"",""time""
""focus"",""0"",""0""
""fullscreenenter"",""0"",""1686""
","
","""event"",""trial"",""time""
""focus"",""0"",""0""
","""event"",""trial"",""time""
""fullscreenenter"",""0"",""1686""
","
","null","<p></p>","null","","","","","","","",""
"","image","109","215793","0.0-109.0","""event"",""trial"",""time""
""focus"",""0"",""0""
""fullscreenenter"",""0"",""1686""
","
","""event"",""trial"",""time""
""focus"",""0"",""0""
","""event"",""trial"",""time""
""fullscreenenter"",""0"",""1686""
","
","771","run_exp/static/images/Set 6_rs/088a.jpg","86","","","","","","learn","SR",""
"","show_choice","110","217029","0.0-110.0","""event"",""trial"",""time""
""focus"",""0"",""0""
""fullscreenenter"",""0"",""1686""
","
","""event"",""trial"",""time""
""focus"",""0"",""0""
","""event"",""trial"",""time""
""fullscreenenter"",""0"",""1686""
","
","null","run_exp/static/images/Set 6_rs/088a.jpg","null","","","","","","learn","SR",""
"","html-keyboard-response","111","217541","0.0-111.0","""event"",""trial"",""time""
""focus"",""0"",""0""
""fullscreenenter"",""0"",""1686""
","
","""event"",""trial"",""time""
""focus"",""0"",""0""
","""event"",""trial"",""time""
""fullscreenenter"",""0"",""1686""
","
","null","<p></p>","null","","","","","","","",""
"","image","112","218167","0.0-112.0","""event"",""trial"",""time""
""focus"",""0"",""0""
""fullscreenenter"",""0"",""1686""
","
","""event"",""trial"",""time""
""focus"",""0"",""0""
","""event"",""trial"",""time""
""fullscreenenter"",""0"",""1686""
","
","624","run_exp/static/images/Set 6_rs/057a.jpg","86","","","","","","learn","SL",""
"","show_choice","113","219544","0.0-113.0","""event"",""trial"",""time""
""focus"",""0"",""0""
""fullscreenenter"",""0"",""1686""
","
","""event"",""trial"",""time""
""focus"",""0"",""0""
","""event"",""trial"",""time""
""fullscreenenter"",""0"",""1686""
","
","null","run_exp/static/images/Set 6_rs/057a.jpg","null","","","","","","learn","SL",""
"","html-keyboard-response","114","220057","0.0-114.0","""event"",""trial"",""time""
""focus"",""0"",""0""
""fullscreenenter"",""0"",""1686""
","
","""event"",""trial"",""time""
""focus"",""0"",""0""
","""event"",""trial"",""time""
""fullscreenenter"",""0"",""1686""
","
","null","<p></p>","null","","","","","","","",""
"","image","115","221049","0.0-115.0","""event"",""trial"",""time""
""focus"",""0"",""0""
""fullscreenenter"",""0"",""1686""
","
","""event"",""trial"",""time""
""focus"",""0"",""0""
","""event"",""trial"",""time""
""fullscreenenter"",""0"",""1686""
","
","993","run_exp/static/images/Set 6_rs/066a.jpg","86","","","","","","learn","SL",""
"","show_choice","116","222069","0.0-116.0","""event"",""trial"",""time""
""focus"",""0"",""0""
""fullscreenenter"",""0"",""1686""
","
","""event"",""trial"",""time""
""focus"",""0"",""0""
","""event"",""trial"",""time""
""fullscreenenter"",""0"",""1686""
","
","null","run_exp/static/images/Set 6_rs/066a.jpg","null","","","","","","learn","SL",""
"","html-keyboard-response","117","222580","0.0-117.0","""event"",""trial"",""time""
""focus"",""0"",""0""
""fullscreenenter"",""0"",""1686""
","
","""event"",""trial"",""time""
""focus"",""0"",""0""
","""event"",""trial"",""time""
""fullscreenenter"",""0"",""1686""
","
","null","<p></p>","null","","","","","","","",""
"","image","118","223812","0.0-118.0","""event"",""trial"",""time""
""focus"",""0"",""0""
""fullscreenenter"",""0"",""1686""
","
","""event"",""trial"",""time""
""focus"",""0"",""0""
","""event"",""trial"",""time""
""fullscreenenter"",""0"",""1686""
","
","1232","run_exp/static/images/Set 6_rs/132a.jpg","78","","","","","","learn","SR",""
"","show_choice","119","224589","0.0-119.0","""event"",""trial"",""time""
""focus"",""0"",""0""
""fullscreenenter"",""0"",""1686""
","
","""event"",""trial"",""time""
""focus"",""0"",""0""
","""event"",""trial"",""time""
""fullscreenenter"",""0"",""1686""
","
","null","run_exp/static/images/Set 6_rs/132a.jpg","null","","","","","","learn","SR",""
"","html-keyboard-response","120","225099","0.0-120.0","""event"",""trial"",""time""
""focus"",""0"",""0""
""fullscreenenter"",""0"",""1686""
","
","""event"",""trial"",""time""
""focus"",""0"",""0""
","""event"",""trial"",""time""
""fullscreenenter"",""0"",""1686""
","
","null","<p></p>","null","","","","","","","",""
"","image","121","225853","0.0-121.0","""event"",""trial"",""time""
""focus"",""0"",""0""
""fullscreenenter"",""0"",""1686""
","
","""event"",""trial"",""time""
""focus"",""0"",""0""
","""event"",""trial"",""time""
""fullscreenenter"",""0"",""1686""
","
","756","run_exp/static/images/Set 6_rs/079a.jpg","86","","","","","","learn","SL",""
"","show_choice","122","227110","0.0-122.0","""event"",""trial"",""time""
""focus"",""0"",""0""
""fullscreenenter"",""0"",""1686""
","
","""event"",""trial"",""time""
""focus"",""0"",""0""
","""event"",""trial"",""time""
""fullscreenenter"",""0"",""1686""
","
","null","run_exp/static/images/Set 6_rs/079a.jpg","null","","","","","","learn","SL",""
"","html-keyboard-response","123","227621","0.0-123.0","""event"",""trial"",""time""
""focus"",""0"",""0""
""fullscreenenter"",""0"",""1686""
","
","""event"",""trial"",""time""
""focus"",""0"",""0""
","""event"",""trial"",""time""
""fullscreenenter"",""0"",""1686""
","
","null","<p></p>","null","","","","","","","",""
"","image","124","228621","0.0-124.0","""event"",""trial"",""time""
""focus"",""0"",""0""
""fullscreenenter"",""0"",""1686""
","
","""event"",""trial"",""time""
""focus"",""0"",""0""
","""event"",""trial"",""time""
""fullscreenenter"",""0"",""1686""
","
","999","run_exp/static/images/Set 6_rs/108a.jpg","86","","","","","","learn","SR",""
"","show_choice","125","229634","0.0-125.0","""event"",""trial"",""time""
""focus"",""0"",""0""
""fullscreenenter"",""0"",""1686""
","
","""event"",""trial"",""time""
""focus"",""0"",""0""
","""event"",""trial"",""time""
""fullscreenenter"",""0"",""1686""
","
","null","run_exp/static/images/Set 6_rs/108a.jpg","null","","","","","","learn","SR",""
"","html-keyboard-response","126","230146","0.0-126.0","""event"",""trial"",""time""
""focus"",""0"",""0""
""fullscreenenter"",""0"",""1686""
","
","""event"",""trial"",""time""
""focus"",""0"",""0""
","""event"",""trial"",""time""
""fullscreenenter"",""0"",""1686""
","
","null","<p></p>","null","","","","","","","",""
"","image","127","230682","0.0-127.0","""event"",""trial"",""time""
""focus"",""0"",""0""
""fullscreenenter"",""0"",""1686""
","
","""event"",""trial"",""time""
""focus"",""0"",""0""
","""event"",""trial"",""time""
""fullscreenenter"",""0"",""1686""
","
","536","run_exp/static/images/Set 6_rs/014a.jpg","86","","","","","","learn","SL",""
"","show_choice","128","232156","0.0-128.0","""event"",""trial"",""time""
""focus"",""0"",""0""
""fullscreenenter"",""0"",""1686""
","
","""event"",""trial"",""time""
""focus"",""0"",""0""
","""event"",""trial"",""time""
""fullscreenenter"",""0"",""1686""
","
","null","run_exp/static/images/Set 6_rs/014a.jpg","null","","","","","","learn","SL",""
"","html-keyboard-response","129","232665","0.0-129.0","""event"",""trial"",""time""
""focus"",""0"",""0""
""fullscreenenter"",""0"",""1686""
","
","""event"",""trial"",""time""
""focus"",""0"",""0""
","""event"",""trial"",""time""
""fullscreenenter"",""0"",""1686""
","
","null","<p></p>","null","","","","","","","",""
"","image","130","233611","0.0-130.0","""event"",""trial"",""time""
""focus"",""0"",""0""
""fullscreenenter"",""0"",""1686""
","
","""event"",""trial"",""time""
""focus"",""0"",""0""
","""event"",""trial"",""time""
""fullscreenenter"",""0"",""1686""
","
","945","run_exp/static/images/Set 6_rs/074a.jpg","86","","","","","","learn","SL",""
"","show_choice","131","234680","0.0-131.0","""event"",""trial"",""time""
""focus"",""0"",""0""
""fullscreenenter"",""0"",""1686""
","
","""event"",""trial"",""time""
""focus"",""0"",""0""
","""event"",""trial"",""time""
""fullscreenenter"",""0"",""1686""
","
","null","run_exp/static/images/Set 6_rs/074a.jpg","null","","","","","","learn","SL",""
"","html-keyboard-response","132","235190","0.0-132.0","""event"",""trial"",""time""
""focus"",""0"",""0""
""fullscreenenter"",""0"",""1686""
","
","""event"",""trial"",""time""
""focus"",""0"",""0""
","""event"",""trial"",""time""
""fullscreenenter"",""0"",""1686""
","
","null","<p></p>","null","","","","","","","",""
"","image","133","235979","0.0-133.0","""event"",""trial"",""time""
""focus"",""0"",""0""
""fullscreenenter"",""0"",""1686""
","
","""event"",""trial"",""time""
""focus"",""0"",""0""
","""event"",""trial"",""time""
""fullscreenenter"",""0"",""1686""
","
","790","run_exp/static/images/Set 6_rs/129a.jpg","86","","","","","","learn","SL",""
"","show_choice","134","237200","0.0-134.0","""event"",""trial"",""time""
""focus"",""0"",""0""
""fullscreenenter"",""0"",""1686""
","
","""event"",""trial"",""time""
""focus"",""0"",""0""
","""event"",""trial"",""time""
""fullscreenenter"",""0"",""1686""
","
","null","run_exp/static/images/Set 6_rs/129a.jpg","null","","","","","","learn","SL",""
"","html-keyboard-response","135","237708","0.0-135.0","""event"",""trial"",""time""
""focus"",""0"",""0""
""fullscreenenter"",""0"",""1686""
","
","""event"",""trial"",""time""
""focus"",""0"",""0""
","""event"",""trial"",""time""
""fullscreenenter"",""0"",""1686""
","
","null","<p></p>","null","","","","","","","",""
"","image","136","238525","0.0-136.0","""event"",""trial"",""time""
""focus"",""0"",""0""
""fullscreenenter"",""0"",""1686""
","
","""event"",""trial"",""time""
""focus"",""0"",""0""
","""event"",""trial"",""time""
""fullscreenenter"",""0"",""1686""
","
","817","run_exp/static/images/Set 6_rs/061a.jpg","86","","","","","","learn","SR",""
"","show_choice","137","239723","0.0-137.0","""event"",""trial"",""time""
""focus"",""0"",""0""
""fullscreenenter"",""0"",""1686""
","
","""event"",""trial"",""time""
""focus"",""0"",""0""
","""event"",""trial"",""time""
""fullscreenenter"",""0"",""1686""
","
","null","run_exp/static/images/Set 6_rs/061a.jpg","null","","","","","","learn","SR",""
"","html-keyboard-response","138","240235","0.0-138.0","""event"",""trial"",""time""
""focus"",""0"",""0""
""fullscreenenter"",""0"",""1686""
","
","""event"",""trial"",""time""
""focus"",""0"",""0""
","""event"",""trial"",""time""
""fullscreenenter"",""0"",""1686""
","
","null","<p></p>","null","","","","","","","",""
"","image","139","241614","0.0-139.0","""event"",""trial"",""time""
""focus"",""0"",""0""
""fullscreenenter"",""0"",""1686""
","
","""event"",""trial"",""time""
""focus"",""0"",""0""
","""event"",""trial"",""time""
""fullscreenenter"",""0"",""1686""
","
","1379","run_exp/static/images/Set 6_rs/141a.jpg","78","","","","","","learn","SR",""
"","show_choice","140","242244","0.0-140.0","""event"",""trial"",""time""
""focus"",""0"",""0""
""fullscreenenter"",""0"",""1686""
","
","""event"",""trial"",""time""
""focus"",""0"",""0""
","""event"",""trial"",""time""
""fullscreenenter"",""0"",""1686""
","
","null","run_exp/static/images/Set 6_rs/141a.jpg","null","","","","","","learn","SR",""
"","html-keyboard-response","141","242755","0.0-141.0","""event"",""trial"",""time""
""focus"",""0"",""0""
""fullscreenenter"",""0"",""1686""
","
","""event"",""trial"",""time""
""focus"",""0"",""0""
","""event"",""trial"",""time""
""fullscreenenter"",""0"",""1686""
","
","null","<p></p>","null","","","","","","","",""
"","image","142","243439","0.0-142.0","""event"",""trial"",""time""
""focus"",""0"",""0""
""fullscreenenter"",""0"",""1686""
","
","""event"",""trial"",""time""
""focus"",""0"",""0""
","""event"",""trial"",""time""
""fullscreenenter"",""0"",""1686""
","
","683","run_exp/static/images/Set 6_rs/112a.jpg","86","","","","","","learn","SR",""
"","show_choice","143","244765","0.0-143.0","""event"",""trial"",""time""
""focus"",""0"",""0""
""fullscreenenter"",""0"",""1686""
","
","""event"",""trial"",""time""
""focus"",""0"",""0""
","""event"",""trial"",""time""
""fullscreenenter"",""0"",""1686""
","
","null","run_exp/static/images/Set 6_rs/112a.jpg","null","","","","","","learn","SR",""
"","html-keyboard-response","144","245275","0.0-144.0","""event"",""trial"",""time""
""focus"",""0"",""0""
""fullscreenenter"",""0"",""1686""
","
","""event"",""trial"",""time""
""focus"",""0"",""0""
","""event"",""trial"",""time""
""fullscreenenter"",""0"",""1686""
","
","null","<p></p>","null","","","","","","","",""
"","image","145","246509","0.0-145.0","""event"",""trial"",""time""
""focus"",""0"",""0""
""fullscreenenter"",""0"",""1686""
","
","""event"",""trial"",""time""
""focus"",""0"",""0""
","""event"",""trial"",""time""
""fullscreenenter"",""0"",""1686""
","
","1235","run_exp/static/images/Set 6_rs/138a.jpg","78","","","","","","learn","SL",""
"","show_choice","146","247285","0.0-146.0","""event"",""trial"",""time""
""focus"",""0"",""0""
""fullscreenenter"",""0"",""1686""
","
","""event"",""trial"",""time""
""focus"",""0"",""0""
","""event"",""trial"",""time""
""fullscreenenter"",""0"",""1686""
","
","null","run_exp/static/images/Set 6_rs/138a.jpg","null","","","","","","learn","SL",""
"","html-keyboard-response","147","247795","0.0-147.0","""event"",""trial"",""time""
""focus"",""0"",""0""
""fullscreenenter"",""0"",""1686""
","
","""event"",""trial"",""time""
""focus"",""0"",""0""
","""event"",""trial"",""time""
""fullscreenenter"",""0"",""1686""
","
","null","<p></p>","null","","","","","","","",""
"","image","148","248495","0.0-148.0","""event"",""trial"",""time""
""focus"",""0"",""0""
""fullscreenenter"",""0"",""1686""
","
","""event"",""trial"",""time""
""focus"",""0"",""0""
","""event"",""trial"",""time""
""fullscreenenter"",""0"",""1686""
","
","699","run_exp/static/images/Set 6_rs/070a.jpg","86","","","","","","learn","SR",""
"","show_choice","149","249809","0.0-149.0","""event"",""trial"",""time""
""focus"",""0"",""0""
""fullscreenenter"",""0"",""1686""
","
","""event"",""trial"",""time""
""focus"",""0"",""0""
","""event"",""trial"",""time""
""fullscreenenter"",""0"",""1686""
","
","null","run_exp/static/images/Set 6_rs/070a.jpg","null","","","","","","learn","SR",""
"","html-keyboard-response","150","250317","0.0-150.0","""event"",""trial"",""time""
""focus"",""0"",""0""
""fullscreenenter"",""0"",""1686""
","
","""event"",""trial"",""time""
""focus"",""0"",""0""
","""event"",""trial"",""time""
""fullscreenenter"",""0"",""1686""
","
","null","<p></p>","null","","","","","","","",""
"","image","151","251297","0.0-151.0","""event"",""trial"",""time""
""focus"",""0"",""0""
""fullscreenenter"",""0"",""1686""
","
","""event"",""trial"",""time""
""focus"",""0"",""0""
","""event"",""trial"",""time""
""fullscreenenter"",""0"",""1686""
","
","980","run_exp/static/images/Set 6_rs/076a.jpg","86","","","","","","learn","SR",""
"","show_choice","152","252330","0.0-152.0","""event"",""trial"",""time""
""focus"",""0"",""0""
""fullscreenenter"",""0"",""1686""
","
","""event"",""trial"",""time""
""focus"",""0"",""0""
","""event"",""trial"",""time""
""fullscreenenter"",""0"",""1686""
","
","null","run_exp/static/images/Set 6_rs/076a.jpg","null","","","","","","learn","SR",""
"","html-keyboard-response","153","252839","0.0-153.0","""event"",""trial"",""time""
""focus"",""0"",""0""
""fullscreenenter"",""0"",""1686""
","
","""event"",""trial"",""time""
""focus"",""0"",""0""
","""event"",""trial"",""time""
""fullscreenenter"",""0"",""1686""
","
","null","<p></p>","null","","","","","","","",""
"","image","154","253873","0.0-154.0","""event"",""trial"",""time""
""focus"",""0"",""0""
""fullscreenenter"",""0"",""1686""
","
","""event"",""trial"",""time""
""focus"",""0"",""0""
","""event"",""trial"",""time""
""fullscreenenter"",""0"",""1686""
","
","1032","run_exp/static/images/Set 6_rs/006a.jpg","86","","","","","","learn","SL",""
"","show_choice","155","254843","0.0-155.0","""event"",""trial"",""time""
""focus"",""0"",""0""
""fullscreenenter"",""0"",""1686""
","
","""event"",""trial"",""time""
""focus"",""0"",""0""
","""event"",""trial"",""time""
""fullscreenenter"",""0"",""1686""
","
","null","run_exp/static/images/Set 6_rs/006a.jpg","null","","","","","","learn","SL",""
"","html-keyboard-response","156","255354","0.0-156.0","""event"",""trial"",""time""
""focus"",""0"",""0""
""fullscreenenter"",""0"",""1686""
","
","""event"",""trial"",""time""
""focus"",""0"",""0""
","""event"",""trial"",""time""
""fullscreenenter"",""0"",""1686""
","
","null","<p></p>","null","","","","","","","",""
"","image","157","256318","0.0-157.0","""event"",""trial"",""time""
""focus"",""0"",""0""
""fullscreenenter"",""0"",""1686""
","
","""event"",""trial"",""time""
""focus"",""0"",""0""
","""event"",""trial"",""time""
""fullscreenenter"",""0"",""1686""
","
","964","run_exp/static/images/Set 6_rs/036a.jpg","86","","","","","","learn","SL",""
"","show_choice","158","257362","0.0-158.0","""event"",""trial"",""time""
""focus"",""0"",""0""
""fullscreenenter"",""0"",""1686""
","
","""event"",""trial"",""time""
""focus"",""0"",""0""
","""event"",""trial"",""time""
""fullscreenenter"",""0"",""1686""
","
","null","run_exp/static/images/Set 6_rs/036a.jpg","null","","","","","","learn","SL",""
"","html-keyboard-response","159","257875","0.0-159.0","""event"",""trial"",""time""
""focus"",""0"",""0""
""fullscreenenter"",""0"",""1686""
","
","""event"",""trial"",""time""
""focus"",""0"",""0""
","""event"",""trial"",""time""
""fullscreenenter"",""0"",""1686""
","
","null","<p></p>","null","","","","","","","",""
"","image","160","259135","0.0-160.0","""event"",""trial"",""time""
""focus"",""0"",""0""
""fullscreenenter"",""0"",""1686""
","
","""event"",""trial"",""time""
""focus"",""0"",""0""
","""event"",""trial"",""time""
""fullscreenenter"",""0"",""1686""
","
","1260","run_exp/static/images/Set 6_rs/126a.jpg","78","","","","","","learn","SR",""
"","show_choice","161","259886","0.0-161.0","""event"",""trial"",""time""
""focus"",""0"",""0""
""fullscreenenter"",""0"",""1686""
","
","""event"",""trial"",""time""
""focus"",""0"",""0""
","""event"",""trial"",""time""
""fullscreenenter"",""0"",""1686""
","
","null","run_exp/static/images/Set 6_rs/126a.jpg","null","","","","","","learn","SR",""
"","html-keyboard-response","162","260397","0.0-162.0","""event"",""trial"",""time""
""focus"",""0"",""0""
""fullscreenenter"",""0"",""1686""
","
","""event"",""trial"",""time""
""focus"",""0"",""0""
","""event"",""trial"",""time""
""fullscreenenter"",""0"",""1686""
","
","null","<p></p>","null","","","","","","","",""
"","image","163","261207","0.0-163.0","""event"",""trial"",""time""
""focus"",""0"",""0""
""fullscreenenter"",""0"",""1686""
","
","""event"",""trial"",""time""
""focus"",""0"",""0""
","""event"",""trial"",""time""
""fullscreenenter"",""0"",""1686""
","
","809","run_exp/static/images/Set 6_rs/073a.jpg","86","","","","","","learn","SL",""
"","show_choice","164","262410","0.0-164.0","""event"",""trial"",""time""
""focus"",""0"",""0""
""fullscreenenter"",""0"",""1686""
","
","""event"",""trial"",""time""
""focus"",""0"",""0""
","""event"",""trial"",""time""
""fullscreenenter"",""0"",""1686""
","
","null","run_exp/static/images/Set 6_rs/073a.jpg","null","","","","","","learn","SL",""
"","html-keyboard-response","165","262921","0.0-165.0","""event"",""trial"",""time""
""focus"",""0"",""0""
""fullscreenenter"",""0"",""1686""
","
","""event"",""trial"",""time""
""focus"",""0"",""0""
","""event"",""trial"",""time""
""fullscreenenter"",""0"",""1686""
","
","null","<p></p>","null","","","","","","","",""
"","image","166","263676","0.0-166.0","""event"",""trial"",""time""
""focus"",""0"",""0""
""fullscreenenter"",""0"",""1686""
","
","""event"",""trial"",""time""
""focus"",""0"",""0""
","""event"",""trial"",""time""
""fullscreenenter"",""0"",""1686""
","
","754","run_exp/static/images/Set 6_rs/063a.jpg","86","","","","","","learn","SR",""
"","show_choice","167","264923","0.0-167.0","""event"",""trial"",""time""
""focus"",""0"",""0""
""fullscreenenter"",""0"",""1686""
","
","""event"",""trial"",""time""
""focus"",""0"",""0""
","""event"",""trial"",""time""
""fullscreenenter"",""0"",""1686""
","
","null","run_exp/static/images/Set 6_rs/063a.jpg","null","","","","","","learn","SR",""
"","html-keyboard-response","168","265434","0.0-168.0","""event"",""trial"",""time""
""focus"",""0"",""0""
""fullscreenenter"",""0"",""1686""
","
","""event"",""trial"",""time""
""focus"",""0"",""0""
","""event"",""trial"",""time""
""fullscreenenter"",""0"",""1686""
","
","null","<p></p>","null","","","","","","","",""
"","image","169","266462","0.0-169.0","""event"",""trial"",""time""
""focus"",""0"",""0""
""fullscreenenter"",""0"",""1686""
","
","""event"",""trial"",""time""
""focus"",""0"",""0""
","""event"",""trial"",""time""
""fullscreenenter"",""0"",""1686""
","
","1027","run_exp/static/images/Set 6_rs/181a.jpg","78","","","","","","learn","SL",""
"","show_choice","170","267443","0.0-170.0","""event"",""trial"",""time""
""focus"",""0"",""0""
""fullscreenenter"",""0"",""1686""
","
","""event"",""trial"",""time""
""focus"",""0"",""0""
","""event"",""trial"",""time""
""fullscreenenter"",""0"",""1686""
","
","null","run_exp/static/images/Set 6_rs/181a.jpg","null","","","","","","learn","SL",""
"","html-keyboard-response","171","267953","0.0-171.0","""event"",""trial"",""time""
""focus"",""0"",""0""
""fullscreenenter"",""0"",""1686""
","
","""event"",""trial"",""time""
""focus"",""0"",""0""
","""event"",""trial"",""time""
""fullscreenenter"",""0"",""1686""
","
","null","<p></p>","null","","","","","","","",""
"","image","172","268923","0.0-172.0","""event"",""trial"",""time""
""focus"",""0"",""0""
""fullscreenenter"",""0"",""1686""
","
","""event"",""trial"",""time""
""focus"",""0"",""0""
","""event"",""trial"",""time""
""fullscreenenter"",""0"",""1686""
","
","970","run_exp/static/images/Set 6_rs/123a.jpg","78","","","","","","learn","SL",""
"","show_choice","173","269963","0.0-173.0","""event"",""trial"",""time""
""focus"",""0"",""0""
""fullscreenenter"",""0"",""1686""
","
","""event"",""trial"",""time""
""focus"",""0"",""0""
","""event"",""trial"",""time""
""fullscreenenter"",""0"",""1686""
","
","null","run_exp/static/images/Set 6_rs/123a.jpg","null","","","","","","learn","SL",""
"","html-keyboard-response","174","270477","0.0-174.0","""event"",""trial"",""time""
""focus"",""0"",""0""
""fullscreenenter"",""0"",""1686""
","
","""event"",""trial"",""time""
""focus"",""0"",""0""
","""event"",""trial"",""time""
""fullscreenenter"",""0"",""1686""
","
","null","<p></p>","null","","","","","","","",""
"","image","175","271382","0.0-175.0","""event"",""trial"",""time""
""focus"",""0"",""0""
""fullscreenenter"",""0"",""1686""
","
","""event"",""trial"",""time""
""focus"",""0"",""0""
","""event"",""trial"",""time""
""fullscreenenter"",""0"",""1686""
","
","905","run_exp/static/images/Set 6_rs/144a.jpg","86","","","","","","learn","SL",""
"","show_choice","176","272487","0.0-176.0","""event"",""trial"",""time""
""focus"",""0"",""0""
""fullscreenenter"",""0"",""1686""
","
","""event"",""trial"",""time""
""focus"",""0"",""0""
","""event"",""trial"",""time""
""fullscreenenter"",""0"",""1686""
","
","null","run_exp/static/images/Set 6_rs/144a.jpg","null","","","","","","learn","SL",""
"","html-keyboard-response","177","272998","0.0-177.0","""event"",""trial"",""time""
""focus"",""0"",""0""
""fullscreenenter"",""0"",""1686""
","
","""event"",""trial"",""time""
""focus"",""0"",""0""
","""event"",""trial"",""time""
""fullscreenenter"",""0"",""1686""
","
","null","<p></p>","null","","","","","","","",""
"","image","178","273711","0.0-178.0","""event"",""trial"",""time""
""focus"",""0"",""0""
""fullscreenenter"",""0"",""1686""
","
","""event"",""trial"",""time""
""focus"",""0"",""0""
","""event"",""trial"",""time""
""fullscreenenter"",""0"",""1686""
","
","711","run_exp/static/images/Set 6_rs/150a.jpg","86","","","","","","learn","SR",""
"","show_choice","179","275015","0.0-179.0","""event"",""trial"",""time""
""focus"",""0"",""0""
""fullscreenenter"",""0"",""1686""
","
","""event"",""trial"",""time""
""focus"",""0"",""0""
","""event"",""trial"",""time""
""fullscreenenter"",""0"",""1686""
","
","null","run_exp/static/images/Set 6_rs/150a.jpg","null","","","","","","learn","SR",""
"","html-keyboard-response","180","275526","0.0-180.0","""event"",""trial"",""time""
""focus"",""0"",""0""
""fullscreenenter"",""0"",""1686""
","
","""event"",""trial"",""time""
""focus"",""0"",""0""
","""event"",""trial"",""time""
""fullscreenenter"",""0"",""1686""
","
","null","<p></p>","null","","","","","","","",""
"","image","181","276195","0.0-181.0","""event"",""trial"",""time""
""focus"",""0"",""0""
""fullscreenenter"",""0"",""1686""
","
","""event"",""trial"",""time""
""focus"",""0"",""0""
","""event"",""trial"",""time""
""fullscreenenter"",""0"",""1686""
","
","670","run_exp/static/images/Set 6_rs/075a.jpg","86","","","","","","learn","SR",""
"","show_choice","182","277538","0.0-182.0","""event"",""trial"",""time""
""focus"",""0"",""0""
""fullscreenenter"",""0"",""1686""
","
","""event"",""trial"",""time""
""focus"",""0"",""0""
","""event"",""trial"",""time""
""fullscreenenter"",""0"",""1686""
","
","null","run_exp/static/images/Set 6_rs/075a.jpg","null","","","","","","learn","SR",""
"","html-keyboard-response","183","278050","0.0-183.0","""event"",""trial"",""time""
""focus"",""0"",""0""
""fullscreenenter"",""0"",""1686""
","
","""event"",""trial"",""time""
""focus"",""0"",""0""
","""event"",""trial"",""time""
""fullscreenenter"",""0"",""1686""
","
","null","<p></p>","null","","","","","","","",""
"","image","184","279039","0.0-184.0","""event"",""trial"",""time""
""focus"",""0"",""0""
""fullscreenenter"",""0"",""1686""
","
","""event"",""trial"",""time""
""focus"",""0"",""0""
","""event"",""trial"",""time""
""fullscreenenter"",""0"",""1686""
","
","988","run_exp/static/images/Set 6_rs/166a.jpg","86","","","","","","learn","SR",""
"","show_choice","185","280062","0.0-185.0","""event"",""trial"",""time""
""focus"",""0"",""0""
""fullscreenenter"",""0"",""1686""
","
","""event"",""trial"",""time""
""focus"",""0"",""0""
","""event"",""trial"",""time""
""fullscreenenter"",""0"",""1686""
","
","null","run_exp/static/images/Set 6_rs/166a.jpg","null","","","","","","learn","SR",""
"","html-keyboard-response","186","280573","0.0-186.0","""event"",""trial"",""time""
""focus"",""0"",""0""
""fullscreenenter"",""0"",""1686""
","
","""event"",""trial"",""time""
""focus"",""0"",""0""
","""event"",""trial"",""time""
""fullscreenenter"",""0"",""1686""
","
","null","<p></p>","null","","","","","","","",""
"","image","187","281629","0.0-187.0","""event"",""trial"",""time""
""focus"",""0"",""0""
""fullscreenenter"",""0"",""1686""
","
","""event"",""trial"",""time""
""focus"",""0"",""0""
","""event"",""trial"",""time""
""fullscreenenter"",""0"",""1686""
","
","1055","run_exp/static/images/Set 6_rs/172a.jpg","78","","","","","","learn","SR",""
"","show_choice","188","282579","0.0-188.0","""event"",""trial"",""time""
""focus"",""0"",""0""
""fullscreenenter"",""0"",""1686""
","
","""event"",""trial"",""time""
""focus"",""0"",""0""
","""event"",""trial"",""time""
""fullscreenenter"",""0"",""1686""
","
","null","run_exp/static/images/Set 6_rs/172a.jpg","null","","","","","","learn","SR",""
"","html-keyboard-response","189","283088","0.0-189.0","""event"",""trial"",""time""
""focus"",""0"",""0""
""fullscreenenter"",""0"",""1686""
","
","""event"",""trial"",""time""
""focus"",""0"",""0""
","""event"",""trial"",""time""
""fullscreenenter"",""0"",""1686""
","
","null","<p></p>","null","","","","","","","",""
"","image","190","284246","0.0-190.0","""event"",""trial"",""time""
""focus"",""0"",""0""
""fullscreenenter"",""0"",""1686""
","
","""event"",""trial"",""time""
""focus"",""0"",""0""
","""event"",""trial"",""time""
""fullscreenenter"",""0"",""1686""
","
","1156","run_exp/static/images/Set 6_rs/122a.jpg","86","","","","","","learn","SR",""
"","show_choice","191","285101","0.0-191.0","""event"",""trial"",""time""
""focus"",""0"",""0""
""fullscreenenter"",""0"",""1686""
","
","""event"",""trial"",""time""
""focus"",""0"",""0""
","""event"",""trial"",""time""
""fullscreenenter"",""0"",""1686""
","
","null","run_exp/static/images/Set 6_rs/122a.jpg","null","","","","","","learn","SR",""
"","html-keyboard-response","192","285612","0.0-192.0","""event"",""trial"",""time""
""focus"",""0"",""0""
""fullscreenenter"",""0"",""1686""
","
","""event"",""trial"",""time""
""focus"",""0"",""0""
","""event"",""trial"",""time""
""fullscreenenter"",""0"",""1686""
","
","null","<p></p>","null","","","","","","","",""
"","image","193","286639","0.0-193.0","""event"",""trial"",""time""
""focus"",""0"",""0""
""fullscreenenter"",""0"",""1686""
","
","""event"",""trial"",""time""
""focus"",""0"",""0""
","""event"",""trial"",""time""
""fullscreenenter"",""0"",""1686""
","
","1026","run_exp/static/images/Set 6_rs/008a.jpg","86","","","","","","learn","SL",""
"","show_choice","194","287624","0.0-194.0","""event"",""trial"",""time""
""focus"",""0"",""0""
""fullscreenenter"",""0"",""1686""
","
","""event"",""trial"",""time""
""focus"",""0"",""0""
","""event"",""trial"",""time""
""fullscreenenter"",""0"",""1686""
","
","null","run_exp/static/images/Set 6_rs/008a.jpg","null","","","","","","learn","SL",""
"","html-keyboard-response","195","288131","0.0-195.0","""event"",""trial"",""time""
""focus"",""0"",""0""
""fullscreenenter"",""0"",""1686""
","
","""event"",""trial"",""time""
""focus"",""0"",""0""
","""event"",""trial"",""time""
""fullscreenenter"",""0"",""1686""
","
","null","<p></p>","null","","","","","","","",""
"","test_intro","196","324899","0.0-196.0","""event"",""trial"",""time""
""focus"",""0"",""0""
""fullscreenenter"",""0"",""1686""
","
","""event"",""trial"",""time""
""focus"",""0"",""0""
","""event"",""trial"",""time""
""fullscreenenter"",""0"",""1686""
","
","null","run_exp/static/audio/clip_2_memory.m4a","null","","","","","<div class='center'><p>Now, lets see how much you remember about the items you just saw.  For each item, you need to indicate if it was <b>old</b> by pressing the <b>v</b> key, <b>similar</b> by pressing the <b>b</b> key, or <b>new</b> by pressing the <b>n</b> key.</p><p>Old refers to an item that you saw before in the indoor/outdoor game that you just played, new refers to an item you have <b>not</b> seen before within the indoor/outdoor game, and similar refers to an item that is similar to an item youve seen before but is not exactly the same. </p><p>Before we begin, lets go over some brief demonstrations to make sure you understand.</p></div>","","",""
"","html-keyboard-response","197","347701","0.0-197.0","""event"",""trial"",""time""
""focus"",""0"",""0""
""fullscreenenter"",""0"",""1686""
","
","""event"",""trial"",""time""
""focus"",""0"",""0""
","""event"",""trial"",""time""
""fullscreenenter"",""0"",""1686""
","
","22800","<div class='center'><p>Now, lets see how much you remember about the items you just saw.  For each item, you need to indicate if it was <b>old</b> by pressing the <b>v</b> key, <b>similar</b> by pressing the <b>b</b> key, or <b>new</b> by pressing the <b>n</b> key.</p><p>Old refers to an item that you saw before in the indoor/outdoor game that you just played, new refers to an item you have <b>not</b> seen before within the indoor/outdoor game, and similar refers to an item that is similar to an item youve seen before but is not exactly the same. </p><p>Before we begin, lets go over some brief demonstrations to make sure you understand.</p><div><p><b>[Press the space bar to continue]</b></p></div>","32","","","","","","","",""
"","items","198","355207","0.0-198.0","""event"",""trial"",""time""
""focus"",""0"",""0""
""fullscreenenter"",""0"",""1686""
","
","""event"",""trial"",""time""
""focus"",""0"",""0""
","""event"",""trial"",""time""
""fullscreenenter"",""0"",""1686""
","
","null","run_exp/static/audio/clip_3_items.m4a","null","","","","","","","",""
"","mop","199","359712","0.0-199.0","""event"",""trial"",""time""
""focus"",""0"",""0""
""fullscreenenter"",""0"",""1686""
","
","""event"",""trial"",""time""
""focus"",""0"",""0""
","""event"",""trial"",""time""
""fullscreenenter"",""0"",""1686""
","
","null","run_exp/static/audio/clip_4_mop.m4a","null","","","","","","","",""
"","baseball","200","363216","0.0-200.0","""event"",""trial"",""time""
""focus"",""0"",""0""
""fullscreenenter"",""0"",""1686""
","
","""event"",""trial"",""time""
""focus"",""0"",""0""
","""event"",""trial"",""time""
""fullscreenenter"",""0"",""1686""
","
","null","run_exp/static/audio/clip_5_baseball.m4a","null","","","","","","","",""
"","trumpet","201","366722","0.0-201.0","""event"",""trial"",""time""
""focus"",""0"",""0""
""fullscreenenter"",""0"",""1686""
","
","""event"",""trial"",""time""
""focus"",""0"",""0""
","""event"",""trial"",""time""
""fullscreenenter"",""0"",""1686""
","
","null","run_exp/static/audio/clip_6_trumpet.m4a","null","","","","","","","",""
"","gummies","202","370227","0.0-202.0","""event"",""trial"",""time""
""focus"",""0"",""0""
""fullscreenenter"",""0"",""1686""
","
","""event"",""trial"",""time""
""focus"",""0"",""0""
","""event"",""trial"",""time""
""fullscreenenter"",""0"",""1686""
","
","null","run_exp/static/audio/clip_7_gummies.m4a","null","","","","","","","",""
"","osn","203","374732","0.0-203.0","""event"",""trial"",""time""
""focus"",""0"",""0""
""fullscreenenter"",""0"",""1686""
","
","""event"",""trial"",""time""
""focus"",""0"",""0""
","""event"",""trial"",""time""
""fullscreenenter"",""0"",""1686""
","
","null","run_exp/static/audio/clip_8_osn.m4a","null","","","","","","","",""
"","old_1","204","381239","0.0-204.0","""event"",""trial"",""time""
""focus"",""0"",""0""
""fullscreenenter"",""0"",""1686""
","
","""event"",""trial"",""time""
""focus"",""0"",""0""
","""event"",""trial"",""time""
""fullscreenenter"",""0"",""1686""
","
","null","run_exp/static/audio/clip_9_old_trumpet.m4a","null","","","","","","","",""
"","new_1","205","388753","0.0-205.0","""event"",""trial"",""time""
""focus"",""0"",""0""
""fullscreenenter"",""0"",""1686""
","
","""event"",""trial"",""time""
""focus"",""0"",""0""
","""event"",""trial"",""time""
""fullscreenenter"",""0"",""1686""
","
","null","run_exp/static/audio/clip_10_new_balloon.m4a","null","","","","","","","",""
"","similar_1a","206","393256","0.0-206.0","""event"",""trial"",""time""
""focus"",""0"",""0""
""fullscreenenter"",""0"",""1686""
","
","""event"",""trial"",""time""
""focus"",""0"",""0""
","""event"",""trial"",""time""
""fullscreenenter"",""0"",""1686""
","
","null","run_exp/static/audio/clip_11a_similar_mop.m4a","null","","","","","","","",""
"","similar_1b","207","399760","0.0-207.0","""event"",""trial"",""time""
""focus"",""0"",""0""
""fullscreenenter"",""0"",""1686""
","
","""event"",""trial"",""time""
""focus"",""0"",""0""
","""event"",""trial"",""time""
""fullscreenenter"",""0"",""1686""
","
","null","run_exp/static/audio/clip_11b_similar_mop.m4a","null","","","","","","","",""
"","new_2","208","403263","0.0-208.0","""event"",""trial"",""time""
""focus"",""0"",""0""
""fullscreenenter"",""0"",""1686""
","
","""event"",""trial"",""time""
""focus"",""0"",""0""
","""event"",""trial"",""time""
""fullscreenenter"",""0"",""1686""
","
","null","run_exp/static/audio/clip_12_new_stoplight.m4a","null","","","","","","","",""
"","old_2","209","406779","0.0-209.0","""event"",""trial"",""time""
""focus"",""0"",""0""
""fullscreenenter"",""0"",""1686""
","
","""event"",""trial"",""time""
""focus"",""0"",""0""
","""event"",""trial"",""time""
""fullscreenenter"",""0"",""1686""
","
","null","run_exp/static/audio/clip_13_old_baseball.m4a","null","","","","","","","",""
"","similar_2a","210","410292","0.0-210.0","""event"",""trial"",""time""
""focus"",""0"",""0""
""fullscreenenter"",""0"",""1686""
","
","""event"",""trial"",""time""
""focus"",""0"",""0""
","""event"",""trial"",""time""
""fullscreenenter"",""0"",""1686""
","
","null","run_exp/static/audio/clip_14a_similar_gummies.m4a","null","","","","","","","",""
"","similar_2b","211","417805","0.0-211.0","""event"",""trial"",""time""
""focus"",""0"",""0""
""fullscreenenter"",""0"",""1686""
","
","""event"",""trial"",""time""
""focus"",""0"",""0""
","""event"",""trial"",""time""
""fullscreenenter"",""0"",""1686""
","
","null","run_exp/static/audio/clip_14b_similar_gummies.m4a","null","","","","","","","",""
"","practice","212","459859","0.0-212.0","""event"",""trial"",""time""
""focus"",""0"",""0""
""fullscreenenter"",""0"",""1686""
","
","""event"",""trial"",""time""
""focus"",""0"",""0""
","""event"",""trial"",""time""
""fullscreenenter"",""0"",""1686""
","
","null","run_exp/static/audio/clip_15_practice.m4a","null","","","","","<div class='center'><p>Lets practice a little to make sure you understand the difference between new, similar, and old. Lets say you saw these three items in the indoor/outdoor game.</p><p> Try your best to remember these images because youll soon be tested on them in a practice game. In the practice game, youll be shown images and youll have to say if they are old (one of the three images belows), similar (similar to one of the images below but not exactly the same), or new (are not one of the images below nor similar to them).</p><p>Once you press the space bar youll be shown these images again but one at time. Then youll begin the practice game.</p><p><img src='run_exp/static/images/tutorial/test/three_indoor_outdoor.png' height='300'></p></div>","","",""
"","html-keyboard-response","213","470836","0.0-213.0","""event"",""trial"",""time""
""focus"",""0"",""0""
""fullscreenenter"",""0"",""1686""
","
","""event"",""trial"",""time""
""focus"",""0"",""0""
","""event"",""trial"",""time""
""fullscreenenter"",""0"",""1686""
","
","10976","<div class='center'><p>Lets practice a little to make sure you understand the difference between new, similar, and old. Lets say you saw these three items in the indoor/outdoor game.</p><p> Try your best to remember these images because youll soon be tested on them in a practice game. In the practice game, youll be shown images and youll have to say if they are old (one of the three images belows), similar (similar to one of the images below but not exactly the same), or new (are not one of the images below nor similar to them).</p><p>Once you press the space bar youll be shown these images again but one at time. Then youll begin the practice game.</p><p><img src='run_exp/static/images/tutorial/test/three_indoor_outdoor.png' height='300'></p><div><p><b>[Press the space bar to continue]</b></p></div>","32","","","","","","","",""
"","planet","214","472848","0.0-214.0","""event"",""trial"",""time""
""focus"",""0"",""0""
""fullscreenenter"",""0"",""1686""
","
","""event"",""trial"",""time""
""focus"",""0"",""0""
","""event"",""trial"",""time""
""fullscreenenter"",""0"",""1686""
","
","null","run_exp/static/images/tutorial/test/008a.jpg","null","","","","","","","",""
"","boot","215","474854","0.0-215.0","""event"",""trial"",""time""
""focus"",""0"",""0""
""fullscreenenter"",""0"",""1686""
","
","""event"",""trial"",""time""
""focus"",""0"",""0""
","""event"",""trial"",""time""
""fullscreenenter"",""0"",""1686""
","
","null","run_exp/static/images/tutorial/test/011a.jpg","null","","","","","","","",""
"","lemon","216","476858","0.0-216.0","""event"",""trial"",""time""
""focus"",""0"",""0""
""fullscreenenter"",""0"",""1686""
","
","""event"",""trial"",""time""
""focus"",""0"",""0""
","""event"",""trial"",""time""
""fullscreenenter"",""0"",""1686""
","
","null","run_exp/static/images/tutorial/test/018a.jpg","null","","","","","","","",""
"","practice_q1","217","482796","0.0-217.0","""event"",""trial"",""time""
""focus"",""0"",""0""
""fullscreenenter"",""0"",""1686""
","
","""event"",""trial"",""time""
""focus"",""0"",""0""
","""event"",""trial"",""time""
""fullscreenenter"",""0"",""1686""
","
","5937","run_exp/static/audio/clip_16_practice_question.m4a","78","","","","","","","",""
"","correct","218","484639","0.0-218.0-0.0","""event"",""trial"",""time""
""focus"",""0"",""0""
""fullscreenenter"",""0"",""1686""
","
","""event"",""trial"",""time""
""focus"",""0"",""0""
","""event"",""trial"",""time""
""fullscreenenter"",""0"",""1686""
","
","null","run_exp/static/audio/clip_17_correct.m4a","null","","","","","<div class='center'><p>That's correct!</p></div>","","",""
"","html-keyboard-response","219","485546","0.0-218.0-1.0","""event"",""trial"",""time""
""focus"",""0"",""0""
""fullscreenenter"",""0"",""1686""
","
","""event"",""trial"",""time""
""focus"",""0"",""0""
","""event"",""trial"",""time""
""fullscreenenter"",""0"",""1686""
","
","908","<div class='center'><p>That's correct!</p><div><p><b>[Press the space bar to continue]</b></p></div>","32","","","","","","","",""
"","practice_q2","220","491317","0.0-218.0-2.0","""event"",""trial"",""time""
""focus"",""0"",""0""
""fullscreenenter"",""0"",""1686""
","
","""event"",""trial"",""time""
""focus"",""0"",""0""
","""event"",""trial"",""time""
""fullscreenenter"",""0"",""1686""
","
","5769","run_exp/static/audio/clip_16_practice_question.m4a","86","","","","","","","",""
"","correct","221","493159","0.0-219.0-0.0","""event"",""trial"",""time""
""focus"",""0"",""0""
""fullscreenenter"",""0"",""1686""
","
","""event"",""trial"",""time""
""focus"",""0"",""0""
","""event"",""trial"",""time""
""fullscreenenter"",""0"",""1686""
","
","null","run_exp/static/audio/clip_17_correct.m4a","null","","","","","<div class='center'><p>That's correct!</p></div>","","",""
"","html-keyboard-response","222","494023","0.0-219.0-1.0","""event"",""trial"",""time""
""focus"",""0"",""0""
""fullscreenenter"",""0"",""1686""
","
","""event"",""trial"",""time""
""focus"",""0"",""0""
","""event"",""trial"",""time""
""fullscreenenter"",""0"",""1686""
","
","863","<div class='center'><p>That's correct!</p><div><p><b>[Press the space bar to continue]</b></p></div>","32","","","","","","","",""
"","practice_q3","223","498564","0.0-219.0-2.0","""event"",""trial"",""time""
""focus"",""0"",""0""
""fullscreenenter"",""0"",""1686""
","
","""event"",""trial"",""time""
""focus"",""0"",""0""
","""event"",""trial"",""time""
""fullscreenenter"",""0"",""1686""
","
","4540","run_exp/static/audio/clip_16_practice_question.m4a","66","","","","","","","",""
"","correct","224","500478","0.0-220.0-0.0","""event"",""trial"",""time""
""focus"",""0"",""0""
""fullscreenenter"",""0"",""1686""
","
","""event"",""trial"",""time""
""focus"",""0"",""0""
","""event"",""trial"",""time""
""fullscreenenter"",""0"",""1686""
","
","null","run_exp/static/audio/clip_17_correct.m4a","null","","","","","<div class='center'><p>That's correct!</p></div>","","",""
"","html-keyboard-response","225","501266","0.0-220.0-1.0","""event"",""trial"",""time""
""focus"",""0"",""0""
""fullscreenenter"",""0"",""1686""
","
","""event"",""trial"",""time""
""focus"",""0"",""0""
","""event"",""trial"",""time""
""fullscreenenter"",""0"",""1686""
","
","787","<div class='center'><p>That's correct!</p><div><p><b>[Press the space bar to continue]</b></p></div>","32","","","","","","","",""
"","begin_text","226","519678","0.0-221.0-0.0","""event"",""trial"",""time""
""focus"",""0"",""0""
""fullscreenenter"",""0"",""1686""
","
","""event"",""trial"",""time""
""focus"",""0"",""0""
","""event"",""trial"",""time""
""fullscreenenter"",""0"",""1686""
","
","null","run_exp/static/audio/clip_22_begin_test.m4a","null","","","","","<div class='center'><p>On to the real game where well test your memory of items from the indoor/outdoor game. For each item, you need to indicate if the item is <b>old</b> by pressing the <b>v</b> key, <b>similar</b> by pressing the <b>b</b> key, or <b>new</b> by pressing the <b>n</b> key. </p></div>","","",""
"","html-keyboard-response","227","520219","0.0-221.0-1.0","""event"",""trial"",""time""
""focus"",""0"",""0""
""fullscreenenter"",""0"",""1686""
","
","""event"",""trial"",""time""
""focus"",""0"",""0""
","""event"",""trial"",""time""
""fullscreenenter"",""0"",""1686""
","
","539","<div class='center'><p>On to the real game where well test your memory of items from the indoor/outdoor game. For each item, you need to indicate if the item is <b>old</b> by pressing the <b>v</b> key, <b>similar</b> by pressing the <b>b</b> key, or <b>new</b> by pressing the <b>n</b> key. </p><div><p><b>[Press the space bar to continue]</b></p></div>","32","","","","","","","",""
"","image","228","522184","0.0-222.0-0.0","""event"",""trial"",""time""
""focus"",""0"",""0""
""fullscreenenter"",""0"",""1686""
","
","""event"",""trial"",""time""
""focus"",""0"",""0""
","""event"",""trial"",""time""
""fullscreenenter"",""0"",""1686""
","
","1964","run_exp/static/images/Set 6_rs/025b.jpg","66","","","","","","test","TL","5"
"","show_choice","229","522695","0.0-222.0-1.0","""event"",""trial"",""time""
""focus"",""0"",""0""
""fullscreenenter"",""0"",""1686""
","
","""event"",""trial"",""time""
""focus"",""0"",""0""
","""event"",""trial"",""time""
""fullscreenenter"",""0"",""1686""
","
","null","run_exp/static/images/Set 6_rs/025b.jpg","null","","","","","","test","TL",""
"","html-keyboard-response","230","523209","0.0-222.0-2.0","""event"",""trial"",""time""
""focus"",""0"",""0""
""fullscreenenter"",""0"",""1686""
","
","""event"",""trial"",""time""
""focus"",""0"",""0""
","""event"",""trial"",""time""
""fullscreenenter"",""0"",""1686""
","
","null","<p></p>","null","","","","","","","",""
"","image","231","524110","0.0-223.0-0.0","""event"",""trial"",""time""
""focus"",""0"",""0""
""fullscreenenter"",""0"",""1686""
","
","""event"",""trial"",""time""
""focus"",""0"",""0""
","""event"",""trial"",""time""
""fullscreenenter"",""0"",""1686""
","
","901","run_exp/static/images/Set 6_rs/064a.jpg","86","","","","","","test","TR","5"
"","show_choice","232","524624","0.0-223.0-1.0","""event"",""trial"",""time""
""focus"",""0"",""0""
""fullscreenenter"",""0"",""1686""
","
","""event"",""trial"",""time""
""focus"",""0"",""0""
","""event"",""trial"",""time""
""fullscreenenter"",""0"",""1686""
","
","null","run_exp/static/images/Set 6_rs/064a.jpg","null","","","","","","test","TR",""
"","html-keyboard-response","233","525139","0.0-223.0-2.0","""event"",""trial"",""time""
""focus"",""0"",""0""
""fullscreenenter"",""0"",""1686""
","
","""event"",""trial"",""time""
""focus"",""0"",""0""
","""event"",""trial"",""time""
""fullscreenenter"",""0"",""1686""
","
","null","<p></p>","null","","","","","","","",""
"","image","234","526825","0.0-224.0-0.0","""event"",""trial"",""time""
""focus"",""0"",""0""
""fullscreenenter"",""0"",""1686""
","
","""event"",""trial"",""time""
""focus"",""0"",""0""
","""event"",""trial"",""time""
""fullscreenenter"",""0"",""1686""
","
","1685","run_exp/static/images/Set 6_rs/057b.jpg","66","","","","","","test","TL","1"
"","show_choice","235","527326","0.0-224.0-1.0","""event"",""trial"",""time""
""focus"",""0"",""0""
""fullscreenenter"",""0"",""1686""
","
","""event"",""trial"",""time""
""focus"",""0"",""0""
","""event"",""trial"",""time""
""fullscreenenter"",""0"",""1686""
","
","null","run_exp/static/images/Set 6_rs/057b.jpg","null","","","","","","test","TL",""
"","html-keyboard-response","236","527838","0.0-224.0-2.0","""event"",""trial"",""time""
""focus"",""0"",""0""
""fullscreenenter"",""0"",""1686""
","
","""event"",""trial"",""time""
""focus"",""0"",""0""
","""event"",""trial"",""time""
""fullscreenenter"",""0"",""1686""
","
","null","<p></p>","null","","","","","","","",""
"","image","237","529613","0.0-225.0-0.0","""event"",""trial"",""time""
""focus"",""0"",""0""
""fullscreenenter"",""0"",""1686""
","
","""event"",""trial"",""time""
""focus"",""0"",""0""
","""event"",""trial"",""time""
""fullscreenenter"",""0"",""1686""
","
","1775","run_exp/static/images/Set 6_rs/066b.jpg","66","","","","","","test","TL","5"
"","show_choice","238","530122","0.0-225.0-1.0","""event"",""trial"",""time""
""focus"",""0"",""0""
""fullscreenenter"",""0"",""1686""
","
","""event"",""trial"",""time""
""focus"",""0"",""0""
","""event"",""trial"",""time""
""fullscreenenter"",""0"",""1686""
","
","null","run_exp/static/images/Set 6_rs/066b.jpg","null","","","","","","test","TL",""
"","html-keyboard-response","239","530635","0.0-225.0-2.0","""event"",""trial"",""time""
""focus"",""0"",""0""
""fullscreenenter"",""0"",""1686""
","
","""event"",""trial"",""time""
""focus"",""0"",""0""
","""event"",""trial"",""time""
""fullscreenenter"",""0"",""1686""
","
","null","<p></p>","null","","","","","","","",""
"","image","240","532268","0.0-226.0-0.0","""event"",""trial"",""time""
""focus"",""0"",""0""
""fullscreenenter"",""0"",""1686""
","
","""event"",""trial"",""time""
""focus"",""0"",""0""
","""event"",""trial"",""time""
""fullscreenenter"",""0"",""1686""
","
","1633","run_exp/static/images/Set 6_rs/074b.jpg","66","","","","","","test","TL","4"
"","show_choice","241","532781","0.0-226.0-1.0","""event"",""trial"",""time""
""focus"",""0"",""0""
""fullscreenenter"",""0"",""1686""
","
","""event"",""trial"",""time""
""focus"",""0"",""0""
","""event"",""trial"",""time""
""fullscreenenter"",""0"",""1686""
","
","null","run_exp/static/images/Set 6_rs/074b.jpg","null","","","","","","test","TL",""
"","html-keyboard-response","242","533294","0.0-226.0-2.0","""event"",""trial"",""time""
""focus"",""0"",""0""
""fullscreenenter"",""0"",""1686""
","
","""event"",""trial"",""time""
""focus"",""0"",""0""
","""event"",""trial"",""time""
""fullscreenenter"",""0"",""1686""
","
","null","<p></p>","null","","","","","","","",""
"","image","243","534975","0.0-227.0-0.0","""event"",""trial"",""time""
""focus"",""0"",""0""
""fullscreenenter"",""0"",""1686""
","
","""event"",""trial"",""time""
""focus"",""0"",""0""
","""event"",""trial"",""time""
""fullscreenenter"",""0"",""1686""
","
","1681","run_exp/static/images/Set 6_rs/181b.jpg","86","","","","","","test","TL","1"
"","show_choice","244","535484","0.0-227.0-1.0","""event"",""trial"",""time""
""focus"",""0"",""0""
""fullscreenenter"",""0"",""1686""
","
","""event"",""trial"",""time""
""focus"",""0"",""0""
","""event"",""trial"",""time""
""fullscreenenter"",""0"",""1686""
","
","null","run_exp/static/images/Set 6_rs/181b.jpg","null","","","","","","test","TL",""
"","html-keyboard-response","245","535995","0.0-227.0-2.0","""event"",""trial"",""time""
""focus"",""0"",""0""
""fullscreenenter"",""0"",""1686""
","
","""event"",""trial"",""time""
""focus"",""0"",""0""
","""event"",""trial"",""time""
""fullscreenenter"",""0"",""1686""
","
","null","<p></p>","null","","","","","","","",""
"","image","246","537187","0.0-228.0-0.0","""event"",""trial"",""time""
""focus"",""0"",""0""
""fullscreenenter"",""0"",""1686""
","
","""event"",""trial"",""time""
""focus"",""0"",""0""
","""event"",""trial"",""time""
""fullscreenenter"",""0"",""1686""
","
","1192","run_exp/static/images/Set 6_rs/076a.jpg","86","","","","","","test","TR","4"
"","show_choice","247","537689","0.0-228.0-1.0","""event"",""trial"",""time""
""focus"",""0"",""0""
""fullscreenenter"",""0"",""1686""
","
","""event"",""trial"",""time""
""focus"",""0"",""0""
","""event"",""trial"",""time""
""fullscreenenter"",""0"",""1686""
","
","null","run_exp/static/images/Set 6_rs/076a.jpg","null","","","","","","test","TR",""
"","html-keyboard-response","248","538200","0.0-228.0-2.0","""event"",""trial"",""time""
""focus"",""0"",""0""
""fullscreenenter"",""0"",""1686""
","
","""event"",""trial"",""time""
""focus"",""0"",""0""
","""event"",""trial"",""time""
""fullscreenenter"",""0"",""1686""
","
","null","<p></p>","null","","","","","","","",""
"","image","249","540357","0.0-229.0-0.0","""event"",""trial"",""time""
""focus"",""0"",""0""
""fullscreenenter"",""0"",""1686""
","
","""event"",""trial"",""time""
""focus"",""0"",""0""
","""event"",""trial"",""time""
""fullscreenenter"",""0"",""1686""
","
","2156","run_exp/static/images/Set 6_rs/019b.jpg","86","","","","","","test","TL","2"
"","show_choice","250","540871","0.0-229.0-1.0","""event"",""trial"",""time""
""focus"",""0"",""0""
""fullscreenenter"",""0"",""1686""
","
","""event"",""trial"",""time""
""focus"",""0"",""0""
","""event"",""trial"",""time""
""fullscreenenter"",""0"",""1686""
","
","null","run_exp/static/images/Set 6_rs/019b.jpg","null","","","","","","test","TL",""
"","html-keyboard-response","251","541384","0.0-229.0-2.0","""event"",""trial"",""time""
""focus"",""0"",""0""
""fullscreenenter"",""0"",""1686""
","
","""event"",""trial"",""time""
""focus"",""0"",""0""
","""event"",""trial"",""time""
""fullscreenenter"",""0"",""1686""
","
","null","<p></p>","null","","","","","","","",""
"","image","252","542513","0.0-230.0-0.0","""event"",""trial"",""time""
""focus"",""0"",""0""
""fullscreenenter"",""0"",""1686""
","
","""event"",""trial"",""time""
""focus"",""0"",""0""
","""event"",""trial"",""time""
""fullscreenenter"",""0"",""1686""
","
","1128","run_exp/static/images/Set 6_rs/121a.jpg","86","","","","","","test","TR","4"
"","show_choice","253","543029","0.0-230.0-1.0","""event"",""trial"",""time""
""focus"",""0"",""0""
""fullscreenenter"",""0"",""1686""
","
","""event"",""trial"",""time""
""focus"",""0"",""0""
","""event"",""trial"",""time""
""fullscreenenter"",""0"",""1686""
","
","null","run_exp/static/images/Set 6_rs/121a.jpg","null","","","","","","test","TR",""
"","html-keyboard-response","254","543540","0.0-230.0-2.0","""event"",""trial"",""time""
""focus"",""0"",""0""
""fullscreenenter"",""0"",""1686""
","
","""event"",""trial"",""time""
""focus"",""0"",""0""
","""event"",""trial"",""time""
""fullscreenenter"",""0"",""1686""
","
","null","<p></p>","null","","","","","","","",""
"","image","255","545260","0.0-231.0-0.0","""event"",""trial"",""time""
""focus"",""0"",""0""
""fullscreenenter"",""0"",""1686""
","
","""event"",""trial"",""time""
""focus"",""0"",""0""
","""event"",""trial"",""time""
""fullscreenenter"",""0"",""1686""
","
","1718","run_exp/static/images/Set 6_rs/118a.jpg","78","","","","","","test","TF","5"
"","show_choice","256","545761","0.0-231.0-1.0","""event"",""trial"",""time""
""focus"",""0"",""0""
""fullscreenenter"",""0"",""1686""
","
","""event"",""trial"",""time""
""focus"",""0"",""0""
","""event"",""trial"",""time""
""fullscreenenter"",""0"",""1686""
","
","null","run_exp/static/images/Set 6_rs/118a.jpg","null","","","","","","test","TF",""
"","html-keyboard-response","257","546274","0.0-231.0-2.0","""event"",""trial"",""time""
""focus"",""0"",""0""
""fullscreenenter"",""0"",""1686""
","
","""event"",""trial"",""time""
""focus"",""0"",""0""
","""event"",""trial"",""time""
""fullscreenenter"",""0"",""1686""
","
","null","<p></p>","null","","","","","","","",""
"","image","258","547362","0.0-232.0-0.0","""event"",""trial"",""time""
""focus"",""0"",""0""
""fullscreenenter"",""0"",""1686""
","
","""event"",""trial"",""time""
""focus"",""0"",""0""
","""event"",""trial"",""time""
""fullscreenenter"",""0"",""1686""
","
","1088","run_exp/static/images/Set 6_rs/136a.jpg","78","","","","","","test","TF","4"
"","show_choice","259","547874","0.0-232.0-1.0","""event"",""trial"",""time""
""focus"",""0"",""0""
""fullscreenenter"",""0"",""1686""
","
","""event"",""trial"",""time""
""focus"",""0"",""0""
","""event"",""trial"",""time""
""fullscreenenter"",""0"",""1686""
","
","null","run_exp/static/images/Set 6_rs/136a.jpg","null","","","","","","test","TF",""
"","html-keyboard-response","260","548385","0.0-232.0-2.0","""event"",""trial"",""time""
""focus"",""0"",""0""
""fullscreenenter"",""0"",""1686""
","
","""event"",""trial"",""time""
""focus"",""0"",""0""
","""event"",""trial"",""time""
""fullscreenenter"",""0"",""1686""
","
","null","<p></p>","null","","","","","","","",""
"","image","261","549785","0.0-233.0-0.0","""event"",""trial"",""time""
""focus"",""0"",""0""
""fullscreenenter"",""0"",""1686""
","
","""event"",""trial"",""time""
""focus"",""0"",""0""
","""event"",""trial"",""time""
""fullscreenenter"",""0"",""1686""
","
","1400","run_exp/static/images/Set 6_rs/089b.jpg","66","","","","","","test","TL","4"
"","show_choice","262","550291","0.0-233.0-1.0","""event"",""trial"",""time""
""focus"",""0"",""0""
""fullscreenenter"",""0"",""1686""
","
","""event"",""trial"",""time""
""focus"",""0"",""0""
","""event"",""trial"",""time""
""fullscreenenter"",""0"",""1686""
","
","null","run_exp/static/images/Set 6_rs/089b.jpg","null","","","","","","test","TL",""
"","html-keyboard-response","263","550802","0.0-233.0-2.0","""event"",""trial"",""time""
""focus"",""0"",""0""
""fullscreenenter"",""0"",""1686""
","
","""event"",""trial"",""time""
""focus"",""0"",""0""
","""event"",""trial"",""time""
""fullscreenenter"",""0"",""1686""
","
","null","<p></p>","null","","","","","","","",""
"","image","264","552390","0.0-234.0-0.0","""event"",""trial"",""time""
""focus"",""0"",""0""
""fullscreenenter"",""0"",""1686""
","
","""event"",""trial"",""time""
""focus"",""0"",""0""
","""event"",""trial"",""time""
""fullscreenenter"",""0"",""1686""
","
","1587","run_exp/static/images/Set 6_rs/131a.jpg","86","","","","","","test","TR","5"
"","show_choice","265","552898","0.0-234.0-1.0","""event"",""trial"",""time""
""focus"",""0"",""0""
""fullscreenenter"",""0"",""1686""
","
","""event"",""trial"",""time""
""focus"",""0"",""0""
","""event"",""trial"",""time""
""fullscreenenter"",""0"",""1686""
","
","null","run_exp/static/images/Set 6_rs/131a.jpg","null","","","","","","test","TR",""
"","html-keyboard-response","266","553411","0.0-234.0-2.0","""event"",""trial"",""time""
""focus"",""0"",""0""
""fullscreenenter"",""0"",""1686""
","
","""event"",""trial"",""time""
""focus"",""0"",""0""
","""event"",""trial"",""time""
""fullscreenenter"",""0"",""1686""
","
","null","<p></p>","null","","","","","","","",""
"","image","267","554300","0.0-235.0-0.0","""event"",""trial"",""time""
""focus"",""0"",""0""
""fullscreenenter"",""0"",""1686""
","
","""event"",""trial"",""time""
""focus"",""0"",""0""
","""event"",""trial"",""time""
""fullscreenenter"",""0"",""1686""
","
","889","run_exp/static/images/Set 6_rs/138b.jpg","86","","","","","","test","TL","1"
"","show_choice","268","554805","0.0-235.0-1.0","""event"",""trial"",""time""
""focus"",""0"",""0""
""fullscreenenter"",""0"",""1686""
","
","""event"",""trial"",""time""
""focus"",""0"",""0""
","""event"",""trial"",""time""
""fullscreenenter"",""0"",""1686""
","
","null","run_exp/static/images/Set 6_rs/138b.jpg","null","","","","","","test","TL",""
"","html-keyboard-response","269","555305","0.0-235.0-2.0","""event"",""trial"",""time""
""focus"",""0"",""0""
""fullscreenenter"",""0"",""1686""
","
","""event"",""trial"",""time""
""focus"",""0"",""0""
","""event"",""trial"",""time""
""fullscreenenter"",""0"",""1686""
","
","null","<p></p>","null","","","","","","","",""
"","image","270","557017","0.0-236.0-0.0","""event"",""trial"",""time""
""focus"",""0"",""0""
""fullscreenenter"",""0"",""1686""
","
","""event"",""trial"",""time""
""focus"",""0"",""0""
","""event"",""trial"",""time""
""fullscreenenter"",""0"",""1686""
","
","1710","run_exp/static/images/Set 6_rs/100a.jpg","86","","","","","","test","TF","2"
"","show_choice","271","557523","0.0-236.0-1.0","""event"",""trial"",""time""
""focus"",""0"",""0""
""fullscreenenter"",""0"",""1686""
","
","""event"",""trial"",""time""
""focus"",""0"",""0""
","""event"",""trial"",""time""
""fullscreenenter"",""0"",""1686""
","
","null","run_exp/static/images/Set 6_rs/100a.jpg","null","","","","","","test","TF",""
"","html-keyboard-response","272","558037","0.0-236.0-2.0","""event"",""trial"",""time""
""focus"",""0"",""0""
""fullscreenenter"",""0"",""1686""
","
","""event"",""trial"",""time""
""focus"",""0"",""0""
