"success","trial_type","trial_index","time_elapsed","internal_node_id","interactions","blur_events","focus_events","fullscreenenter_events","fullscreenexit_events","rt","stimulus","key_press","subject_id","participant_id","age","gender","prompt","phase","condition","lure_bin"
"true","fullscreen","0","3690","0.0-0.0","""event"",""trial"",""time""
""fullscreenenter"",""0"",""2712""
","
","
","""event"",""trial"",""time""
""fullscreenenter"",""0"",""2712""
","
","","","","","","","","","","",""
"","pavlovia","1","3697","0.0-1.0","""event"",""trial"",""time""
""fullscreenenter"",""0"",""2712""
","
","
","""event"",""trial"",""time""
""fullscreenenter"",""0"",""2712""
","
","","","","","","","","","","",""
"","welcome","2","38480","0.0-2.0","""event"",""trial"",""time""
""fullscreenenter"",""0"",""2712""
","
","
","""event"",""trial"",""time""
""fullscreenenter"",""0"",""2712""
","
","null","run_exp/static/audio/clip_1_welcome.m4a","null","1569","1756","25","Female","<div class='center'><p>Welcome to the third part of the study! First, you'll be shown pictures of items one at a time. For each picture, you have to decide if the item is typically found indoors or outdoors.</p><p>If you think it's usually found indoors, then press <b>v</b> key on your keyboard. If you think it's usually found outdoors, then press the <b>n</b> key.There will be reminders on the screen to help you remember which keys to press. </p><p>If you're not sure whether the item is an indoor item or an outdoor item, go ahead and take a guess but try your best not to skip that choice. </p></div>","","",""
"","html-keyboard-response","3","38592","0.0-3.0","""event"",""trial"",""time""
""fullscreenenter"",""0"",""2712""
","
","
","""event"",""trial"",""time""
""fullscreenenter"",""0"",""2712""
","
","108.59999990463257","<div class='center'><p>Welcome to the third part of the study! First, you'll be shown pictures of items one at a time. For each picture, you have to decide if the item is typically found indoors or outdoors.</p><p>If you think it's usually found indoors, then press <b>v</b> key on your keyboard. If you think it's usually found outdoors, then press the <b>n</b> key.There will be reminders on the screen to help you remember which keys to press. </p><p>If you're not sure whether the item is an indoor item or an outdoor item, go ahead and take a guess but try your best not to skip that choice. </p><div><p><b>[Press the space bar to continue]</b></p></div>","32","","","","","","","",""
"","image","4","40598","0.0-4.0","""event"",""trial"",""time""
""fullscreenenter"",""0"",""2712""
","
","
","""event"",""trial"",""time""
""fullscreenenter"",""0"",""2712""
","
","null","run_exp/static/images/Set 6_rs/014a.jpg","null","","","","","","learn","SL",""
"","show_choice","5","42611","0.0-5.0","""event"",""trial"",""time""
""fullscreenenter"",""0"",""2712""
","
","
","""event"",""trial"",""time""
""fullscreenenter"",""0"",""2712""
","
","null","run_exp/static/images/blank.png","null","","","","","","learn","SL",""
"","html-keyboard-response","6","43114","0.0-6.0","""event"",""trial"",""time""
""fullscreenenter"",""0"",""2712""
","
","
","""event"",""trial"",""time""
""fullscreenenter"",""0"",""2712""
","
","null","<p></p>","null","","","","","","","",""
"","image","7","43875","0.0-7.0","""event"",""trial"",""time""
""fullscreenenter"",""0"",""2712""
","
","
","""event"",""trial"",""time""
""fullscreenenter"",""0"",""2712""
","
","758.4000000953674","run_exp/static/images/Set 6_rs/024a.jpg","78","","","","","","learn","SR",""
"","show_choice","8","45130","0.0-8.0","""event"",""trial"",""time""
""fullscreenenter"",""0"",""2712""
","
","
","""event"",""trial"",""time""
""fullscreenenter"",""0"",""2712""
","
","null","run_exp/static/images/Set 6_rs/024a.jpg","null","","","","","","learn","SR",""
"","html-keyboard-response","9","45633","0.0-9.0","""event"",""trial"",""time""
""fullscreenenter"",""0"",""2712""
","
","
","""event"",""trial"",""time""
""fullscreenenter"",""0"",""2712""
","
","null","<p></p>","null","","","","","","","",""
"","image","10","46216","0.0-10.0","""event"",""trial"",""time""
""fullscreenenter"",""0"",""2712""
","
","
","""event"",""trial"",""time""
""fullscreenenter"",""0"",""2712""
","
","580.3000001907349","run_exp/static/images/Set 6_rs/178a.jpg","78","","","","","","learn","SR",""
"","show_choice","11","47646","0.0-11.0","""event"",""trial"",""time""
""fullscreenenter"",""0"",""2712""
","
","
","""event"",""trial"",""time""
""fullscreenenter"",""0"",""2712""
","
","null","run_exp/static/images/Set 6_rs/178a.jpg","null","","","","","","learn","SR",""
"","html-keyboard-response","12","48167","0.0-12.0","""event"",""trial"",""time""
""fullscreenenter"",""0"",""2712""
","
","
","""event"",""trial"",""time""
""fullscreenenter"",""0"",""2712""
","
","null","<p></p>","null","","","","","","","",""
"","image","13","48900","0.0-13.0","""event"",""trial"",""time""
""fullscreenenter"",""0"",""2712""
","
","
","""event"",""trial"",""time""
""fullscreenenter"",""0"",""2712""
","
","730.1000003814697","run_exp/static/images/Set 6_rs/057a.jpg","86","","","","","","learn","SL",""
"","show_choice","14","50174","0.0-14.0","""event"",""trial"",""time""
""fullscreenenter"",""0"",""2712""
","
","
","""event"",""trial"",""time""
""fullscreenenter"",""0"",""2712""
","
","null","run_exp/static/images/Set 6_rs/057a.jpg","null","","","","","","learn","SL",""
"","html-keyboard-response","15","50678","0.0-15.0","""event"",""trial"",""time""
""fullscreenenter"",""0"",""2712""
","
","
","""event"",""trial"",""time""
""fullscreenenter"",""0"",""2712""
","
","null","<p></p>","null","","","","","","","",""
"","image","16","51852","0.0-16.0","""event"",""trial"",""time""
""fullscreenenter"",""0"",""2712""
","
","
","""event"",""trial"",""time""
""fullscreenenter"",""0"",""2712""
","
","1172.0999999046326","run_exp/static/images/Set 6_rs/017a.jpg","78","","","","","","learn","SL",""
"","show_choice","17","52697","0.0-17.0","""event"",""trial"",""time""
""fullscreenenter"",""0"",""2712""
","
","
","""event"",""trial"",""time""
""fullscreenenter"",""0"",""2712""
","
","null","run_exp/static/images/Set 6_rs/017a.jpg","null","","","","","","learn","SL",""
"","html-keyboard-response","18","53210","0.0-18.0","""event"",""trial"",""time""
""fullscreenenter"",""0"",""2712""
","
","
","""event"",""trial"",""time""
""fullscreenenter"",""0"",""2712""
","
","null","<p></p>","null","","","","","","","",""
"","image","19","53809","0.0-19.0","""event"",""trial"",""time""
""fullscreenenter"",""0"",""2712""
","
","
","""event"",""trial"",""time""
""fullscreenenter"",""0"",""2712""
","
","596.6999998092651","run_exp/static/images/Set 6_rs/071a.jpg","78","","","","","","learn","SL",""
"","show_choice","20","55220","0.0-20.0","""event"",""trial"",""time""
""fullscreenenter"",""0"",""2712""
","
","
","""event"",""trial"",""time""
""fullscreenenter"",""0"",""2712""
","
","null","run_exp/static/images/Set 6_rs/071a.jpg","null","","","","","","learn","SL",""
"","html-keyboard-response","21","55723","0.0-21.0","""event"",""trial"",""time""
""fullscreenenter"",""0"",""2712""
","
","
","""event"",""trial"",""time""
""fullscreenenter"",""0"",""2712""
","
","null","<p></p>","null","","","","","","","",""
"","image","22","56883","0.0-22.0","""event"",""trial"",""time""
""fullscreenenter"",""0"",""2712""
","
","
","""event"",""trial"",""time""
""fullscreenenter"",""0"",""2712""
","
","1158.1999998092651","run_exp/static/images/Set 6_rs/116a.jpg","78","","","","","","learn","SL",""
"","show_choice","23","57727","0.0-23.0","""event"",""trial"",""time""
""fullscreenenter"",""0"",""2712""
","
","
","""event"",""trial"",""time""
""fullscreenenter"",""0"",""2712""
","
","null","run_exp/static/images/Set 6_rs/116a.jpg","null","","","","","","learn","SL",""
"","html-keyboard-response","24","58239","0.0-24.0","""event"",""trial"",""time""
""fullscreenenter"",""0"",""2712""
","
","
","""event"",""trial"",""time""
""fullscreenenter"",""0"",""2712""
","
","null","<p></p>","null","","","","","","","",""
"","image","25","59869","0.0-25.0","""event"",""trial"",""time""
""fullscreenenter"",""0"",""2712""
","
","
","""event"",""trial"",""time""
""fullscreenenter"",""0"",""2712""
","
","1627.7999997138977","run_exp/static/images/Set 6_rs/167a.jpg","78","","","","","","learn","SL",""
"","show_choice","26","60258","0.0-26.0","""event"",""trial"",""time""
""fullscreenenter"",""0"",""2712""
","
","
","""event"",""trial"",""time""
""fullscreenenter"",""0"",""2712""
","
","null","run_exp/static/images/Set 6_rs/167a.jpg","null","","","","","","learn","SL",""
"","html-keyboard-response","27","60765","0.0-27.0","""event"",""trial"",""time""
""fullscreenenter"",""0"",""2712""
","
","
","""event"",""trial"",""time""
""fullscreenenter"",""0"",""2712""
","
","null","<p></p>","null","","","","","","","",""
"","image","28","61449","0.0-28.0","""event"",""trial"",""time""
""fullscreenenter"",""0"",""2712""
","
","
","""event"",""trial"",""time""
""fullscreenenter"",""0"",""2712""
","
","682.1999998092651","run_exp/static/images/Set 6_rs/019a.jpg","86","","","","","","learn","SL",""
"","show_choice","29","62773","0.0-29.0","""event"",""trial"",""time""
""fullscreenenter"",""0"",""2712""
","
","
","""event"",""trial"",""time""
""fullscreenenter"",""0"",""2712""
","
","null","run_exp/static/images/Set 6_rs/019a.jpg","null","","","","","","learn","SL",""
"","html-keyboard-response","30","63285","0.0-30.0","""event"",""trial"",""time""
""fullscreenenter"",""0"",""2712""
","
","
","""event"",""trial"",""time""
""fullscreenenter"",""0"",""2712""
","
","null","<p></p>","null","","","","","","","",""
"","image","31","64395","0.0-31.0","""event"",""trial"",""time""
""fullscreenenter"",""0"",""2712""
","
","
","""event"",""trial"",""time""
""fullscreenenter"",""0"",""2712""
","
","1107.5","run_exp/static/images/Set 6_rs/168a.jpg","78","","","","","","learn","SL",""
"","show_choice","32","65301","0.0-32.0","""event"",""trial"",""time""
""fullscreenenter"",""0"",""2712""
","
","
","""event"",""trial"",""time""
""fullscreenenter"",""0"",""2712""
","
","null","run_exp/static/images/Set 6_rs/168a.jpg","null","","","","","","learn","SL",""
"","html-keyboard-response","33","65807","0.0-33.0","""event"",""trial"",""time""
""fullscreenenter"",""0"",""2712""
","
","
","""event"",""trial"",""time""
""fullscreenenter"",""0"",""2712""
","
","null","<p></p>","null","","","","","","","",""
"","image","34","66521","0.0-34.0","""event"",""trial"",""time""
""fullscreenenter"",""0"",""2712""
","
","
","""event"",""trial"",""time""
""fullscreenenter"",""0"",""2712""
","
","711.5999999046326","run_exp/static/images/Set 6_rs/074a.jpg","78","","","","","","learn","SL",""
"","show_choice","35","67816","0.0-35.0","""event"",""trial"",""time""
""fullscreenenter"",""0"",""2712""
","
","
","""event"",""trial"",""time""
""fullscreenenter"",""0"",""2712""
","
","null","run_exp/static/images/Set 6_rs/074a.jpg","null","","","","","","learn","SL",""
"","html-keyboard-response","36","68327","0.0-36.0","""event"",""trial"",""time""
""fullscreenenter"",""0"",""2712""
","
","
","""event"",""trial"",""time""
""fullscreenenter"",""0"",""2712""
","
","null","<p></p>","null","","","","","","","",""
"","image","37","69166","0.0-37.0","""event"",""trial"",""time""
""fullscreenenter"",""0"",""2712""
","
","
","""event"",""trial"",""time""
""fullscreenenter"",""0"",""2712""
","
","836.6999998092651","run_exp/static/images/Set 6_rs/062a.jpg","86","","","","","","learn","SL",""
"","show_choice","38","70340","0.0-38.0","""event"",""trial"",""time""
""fullscreenenter"",""0"",""2712""
","
","
","""event"",""trial"",""time""
""fullscreenenter"",""0"",""2712""
","
","null","run_exp/static/images/Set 6_rs/062a.jpg","null","","","","","","learn","SL",""
"","html-keyboard-response","39","70848","0.0-39.0","""event"",""trial"",""time""
""fullscreenenter"",""0"",""2712""
","
","
","""event"",""trial"",""time""
""fullscreenenter"",""0"",""2712""
","
","null","<p></p>","null","","","","","","","",""
"","image","40","71893","0.0-40.0","""event"",""trial"",""time""
""fullscreenenter"",""0"",""2712""
","
","
","""event"",""trial"",""time""
""fullscreenenter"",""0"",""2712""
","
","1042.4000000953674","run_exp/static/images/Set 6_rs/008a.jpg","78","","","","","","learn","SL",""
"","show_choice","41","72866","0.0-41.0","""event"",""trial"",""time""
""fullscreenenter"",""0"",""2712""
","
","
","""event"",""trial"",""time""
""fullscreenenter"",""0"",""2712""
","
","null","run_exp/static/images/Set 6_rs/008a.jpg","null","","","","","","learn","SL",""
"","html-keyboard-response","42","73370","0.0-42.0","""event"",""trial"",""time""
""fullscreenenter"",""0"",""2712""
","
","
","""event"",""trial"",""time""
""fullscreenenter"",""0"",""2712""
","
","null","<p></p>","null","","","","","","","",""
"","image","43","74323","0.0-43.0","""event"",""trial"",""time""
""fullscreenenter"",""0"",""2712""
","
","
","""event"",""trial"",""time""
""fullscreenenter"",""0"",""2712""
","
","951.1000003814697","run_exp/static/images/Set 6_rs/070a.jpg","86","","","","","","learn","SR",""
"","show_choice","44","75386","0.0-44.0","""event"",""trial"",""time""
""fullscreenenter"",""0"",""2712""
","
","
","""event"",""trial"",""time""
""fullscreenenter"",""0"",""2712""
","
","null","run_exp/static/images/Set 6_rs/070a.jpg","null","","","","","","learn","SR",""
"","html-keyboard-response","45","75900","0.0-45.0","""event"",""trial"",""time""
""fullscreenenter"",""0"",""2712""
","
","
","""event"",""trial"",""time""
""fullscreenenter"",""0"",""2712""
","
","null","<p></p>","null","","","","","","","",""
"","image","46","77076","0.0-46.0","""event"",""trial"",""time""
""fullscreenenter"",""0"",""2712""
","
","
","""event"",""trial"",""time""
""fullscreenenter"",""0"",""2712""
","
","1174.5","run_exp/static/images/Set 6_rs/129a.jpg","78","","","","","","learn","SL",""
"","show_choice","47","77906","0.0-47.0","""event"",""trial"",""time""
""fullscreenenter"",""0"",""2712""
","
","
","""event"",""trial"",""time""
""fullscreenenter"",""0"",""2712""
","
","null","run_exp/static/images/Set 6_rs/129a.jpg","null","","","","","","learn","SL",""
"","html-keyboard-response","48","78418","0.0-48.0","""event"",""trial"",""time""
""fullscreenenter"",""0"",""2712""
","
","
","""event"",""trial"",""time""
""fullscreenenter"",""0"",""2712""
","
","null","<p></p>","null","","","","","","","",""
"","image","49","79092","0.0-49.0","""event"",""trial"",""time""
""fullscreenenter"",""0"",""2712""
","
","
","""event"",""trial"",""time""
""fullscreenenter"",""0"",""2712""
","
","670.5","run_exp/static/images/Set 6_rs/079a.jpg","86","","","","","","learn","SL",""
"","show_choice","50","80435","0.0-50.0","""event"",""trial"",""time""
""fullscreenenter"",""0"",""2712""
","
","
","""event"",""trial"",""time""
""fullscreenenter"",""0"",""2712""
","
","null","run_exp/static/images/Set 6_rs/079a.jpg","null","","","","","","learn","SL",""
"","html-keyboard-response","51","80950","0.0-51.0","""event"",""trial"",""time""
""fullscreenenter"",""0"",""2712""
","
","
","""event"",""trial"",""time""
""fullscreenenter"",""0"",""2712""
","
","null","<p></p>","null","","","","","","","",""
"","image","52","81939","0.0-52.0","""event"",""trial"",""time""
""fullscreenenter"",""0"",""2712""
","
","
","""event"",""trial"",""time""
""fullscreenenter"",""0"",""2712""
","
","986.8999996185303","run_exp/static/images/Set 6_rs/126a.jpg","78","","","","","","learn","SR",""
"","show_choice","53","82966","0.0-53.0","""event"",""trial"",""time""
""fullscreenenter"",""0"",""2712""
","
","
","""event"",""trial"",""time""
""fullscreenenter"",""0"",""2712""
","
","null","run_exp/static/images/Set 6_rs/126a.jpg","null","","","","","","learn","SR",""
"","html-keyboard-response","54","83480","0.0-54.0","""event"",""trial"",""time""
""fullscreenenter"",""0"",""2712""
","
","
","""event"",""trial"",""time""
""fullscreenenter"",""0"",""2712""
","
","null","<p></p>","null","","","","","","","",""
"","image","55","84572","0.0-55.0","""event"",""trial"",""time""
""fullscreenenter"",""0"",""2712""
","
","
","""event"",""trial"",""time""
""fullscreenenter"",""0"",""2712""
","
","1089.8000001907349","run_exp/static/images/Set 6_rs/191a.jpg","78","","","","","","learn","SL",""
"","show_choice","56","85494","0.0-56.0","""event"",""trial"",""time""
""fullscreenenter"",""0"",""2712""
","
","
","""event"",""trial"",""time""
""fullscreenenter"",""0"",""2712""
","
","null","run_exp/static/images/Set 6_rs/191a.jpg","null","","","","","","learn","SL",""
"","html-keyboard-response","57","86005","0.0-57.0","""event"",""trial"",""time""
""fullscreenenter"",""0"",""2712""
","
","
","""event"",""trial"",""time""
""fullscreenenter"",""0"",""2712""
","
","null","<p></p>","null","","","","","","","",""
"","image","58","87079","0.0-58.0","""event"",""trial"",""time""
""fullscreenenter"",""0"",""2712""
","
","
","""event"",""trial"",""time""
""fullscreenenter"",""0"",""2712""
","
","1072.1999998092651","run_exp/static/images/Set 6_rs/088a.jpg","86","","","","","","learn","SR",""
"","show_choice","59","88018","0.0-59.0","""event"",""trial"",""time""
""fullscreenenter"",""0"",""2712""
","
","
","""event"",""trial"",""time""
""fullscreenenter"",""0"",""2712""
","
","null","run_exp/static/images/Set 6_rs/088a.jpg","null","","","","","","learn","SR",""
"","html-keyboard-response","60","88527","0.0-60.0","""event"",""trial"",""time""
""fullscreenenter"",""0"",""2712""
","
","
","""event"",""trial"",""time""
""fullscreenenter"",""0"",""2712""
","
","null","<p></p>","null","","","","","","","",""
"","image","61","89482","0.0-61.0","""event"",""trial"",""time""
""fullscreenenter"",""0"",""2712""
","
","
","""event"",""trial"",""time""
""fullscreenenter"",""0"",""2712""
","
","953.1999998092651","run_exp/static/images/Set 6_rs/076a.jpg","78","","","","","","learn","SR",""
"","show_choice","62","90531","0.0-62.0","""event"",""trial"",""time""
""fullscreenenter"",""0"",""2712""
","
","
","""event"",""trial"",""time""
""fullscreenenter"",""0"",""2712""
","
","null","run_exp/static/images/Set 6_rs/076a.jpg","null","","","","","","learn","SR",""
"","html-keyboard-response","63","91037","0.0-63.0","""event"",""trial"",""time""
""fullscreenenter"",""0"",""2712""
","
","
","""event"",""trial"",""time""
""fullscreenenter"",""0"",""2712""
","
","null","<p></p>","null","","","","","","","",""
"","image","64","91955","0.0-64.0","""event"",""trial"",""time""
""fullscreenenter"",""0"",""2712""
","
","
","""event"",""trial"",""time""
""fullscreenenter"",""0"",""2712""
","
","916.2000002861023","run_exp/static/images/Set 6_rs/045a.jpg","78","","","","","","learn","SR",""
"","show_choice","65","93052","0.0-65.0","""event"",""trial"",""time""
""fullscreenenter"",""0"",""2712""
","
","
","""event"",""trial"",""time""
""fullscreenenter"",""0"",""2712""
","
","null","run_exp/static/images/Set 6_rs/045a.jpg","null","","","","","","learn","SR",""
"","html-keyboard-response","66","93566","0.0-66.0","""event"",""trial"",""time""
""fullscreenenter"",""0"",""2712""
","
","
","""event"",""trial"",""time""
""fullscreenenter"",""0"",""2712""
","
","null","<p></p>","null","","","","","","","",""
"","image","67","94405","0.0-67.0","""event"",""trial"",""time""
""fullscreenenter"",""0"",""2712""
","
","
","""event"",""trial"",""time""
""fullscreenenter"",""0"",""2712""
","
","836.5999999046326","run_exp/static/images/Set 6_rs/010a.jpg","86","","","","","","learn","SR",""
"","show_choice","68","95576","0.0-68.0","""event"",""trial"",""time""
""fullscreenenter"",""0"",""2712""
","
","
","""event"",""trial"",""time""
""fullscreenenter"",""0"",""2712""
","
","null","run_exp/static/images/Set 6_rs/010a.jpg","null","","","","","","learn","SR",""
"","html-keyboard-response","69","96085","0.0-69.0","""event"",""trial"",""time""
""fullscreenenter"",""0"",""2712""
","
","
","""event"",""trial"",""time""
""fullscreenenter"",""0"",""2712""
","
","null","<p></p>","null","","","","","","","",""
"","image","70","96896","0.0-70.0","""event"",""trial"",""time""
""fullscreenenter"",""0"",""2712""
","
","
","""event"",""trial"",""time""
""fullscreenenter"",""0"",""2712""
","
","809.0999999046326","run_exp/static/images/Set 6_rs/172a.jpg","78","","","","","","learn","SR",""
"","show_choice","71","98100","0.0-71.0","""event"",""trial"",""time""
""fullscreenenter"",""0"",""2712""
","
","
","""event"",""trial"",""time""
""fullscreenenter"",""0"",""2712""
","
","null","run_exp/static/images/Set 6_rs/172a.jpg","null","","","","","","learn","SR",""
"","html-keyboard-response","72","98617","0.0-72.0","""event"",""trial"",""time""
""fullscreenenter"",""0"",""2712""
","
","
","""event"",""trial"",""time""
""fullscreenenter"",""0"",""2712""
","
","null","<p></p>","null","","","","","","","",""
"","image","73","99297","0.0-73.0","""event"",""trial"",""time""
""fullscreenenter"",""0"",""2712""
","
","
","""event"",""trial"",""time""
""fullscreenenter"",""0"",""2712""
","
","677.2999997138977","run_exp/static/images/Set 6_rs/166a.jpg","78","","","","","","learn","SR",""
"","show_choice","74","100630","0.0-74.0","""event"",""trial"",""time""
""fullscreenenter"",""0"",""2712""
","
","
","""event"",""trial"",""time""
""fullscreenenter"",""0"",""2712""
","
","null","run_exp/static/images/Set 6_rs/166a.jpg","null","","","","","","learn","SR",""
"","html-keyboard-response","75","101145","0.0-75.0","""event"",""trial"",""time""
""fullscreenenter"",""0"",""2712""
","
","
","""event"",""trial"",""time""
""fullscreenenter"",""0"",""2712""
","
","null","<p></p>","null","","","","","","","",""
"","image","76","101935","0.0-76.0","""event"",""trial"",""time""
""fullscreenenter"",""0"",""2712""
","
","
","""event"",""trial"",""time""
""fullscreenenter"",""0"",""2712""
","
","788.5999999046326","run_exp/static/images/Set 6_rs/023a.jpg","86","","","","","","learn","SR",""
"","show_choice","77","103149","0.0-77.0","""event"",""trial"",""time""
""fullscreenenter"",""0"",""2712""
","
","
","""event"",""trial"",""time""
""fullscreenenter"",""0"",""2712""
","
","null","run_exp/static/images/Set 6_rs/023a.jpg","null","","","","","","learn","SR",""
"","html-keyboard-response","78","103660","0.0-78.0","""event"",""trial"",""time""
""fullscreenenter"",""0"",""2712""
","
","
","""event"",""trial"",""time""
""fullscreenenter"",""0"",""2712""
","
","null","<p></p>","null","","","","","","","",""
"","image","79","104800","0.0-79.0","""event"",""trial"",""time""
""fullscreenenter"",""0"",""2712""
","
","
","""event"",""trial"",""time""
""fullscreenenter"",""0"",""2712""
","
","1138.2999997138977","run_exp/static/images/Set 6_rs/121a.jpg","86","","","","","","learn","SR",""
"","show_choice","80","105665","0.0-80.0","""event"",""trial"",""time""
""fullscreenenter"",""0"",""2712""
","
","
","""event"",""trial"",""time""
""fullscreenenter"",""0"",""2712""
","
","null","run_exp/static/images/Set 6_rs/121a.jpg","null","","","","","","learn","SR",""
"","html-keyboard-response","81","106169","0.0-81.0","""event"",""trial"",""time""
""fullscreenenter"",""0"",""2712""
","
","
","""event"",""trial"",""time""
""fullscreenenter"",""0"",""2712""
","
","null","<p></p>","null","","","","","","","",""
"","image","82","106933","0.0-82.0","""event"",""trial"",""time""
""fullscreenenter"",""0"",""2712""
","
","
","""event"",""trial"",""time""
""fullscreenenter"",""0"",""2712""
","
","762.6999998092651","run_exp/static/images/Set 6_rs/187a.jpg","78","","","","","","learn","SR",""
"","show_choice","83","108174","0.0-83.0","""event"",""trial"",""time""
""fullscreenenter"",""0"",""2712""
","
","
","""event"",""trial"",""time""
""fullscreenenter"",""0"",""2712""
","
","null","run_exp/static/images/Set 6_rs/187a.jpg","null","","","","","","learn","SR",""
"","html-keyboard-response","84","108688","0.0-84.0","""event"",""trial"",""time""
""fullscreenenter"",""0"",""2712""
","
","
","""event"",""trial"",""time""
""fullscreenenter"",""0"",""2712""
","
","null","<p></p>","null","","","","","","","",""
"","image","85","109433","0.0-85.0","""event"",""trial"",""time""
""fullscreenenter"",""0"",""2712""
","
","
","""event"",""trial"",""time""
""fullscreenenter"",""0"",""2712""
","
","742.6999998092651","run_exp/static/images/Set 6_rs/050a.jpg","86","","","","","","learn","SL",""
"","show_choice","86","110695","0.0-86.0","""event"",""trial"",""time""
""fullscreenenter"",""0"",""2712""
","
","
","""event"",""trial"",""time""
""fullscreenenter"",""0"",""2712""
","
","null","run_exp/static/images/Set 6_rs/050a.jpg","null","","","","","","learn","SL",""
"","html-keyboard-response","87","111201","0.0-87.0","""event"",""trial"",""time""
""fullscreenenter"",""0"",""2712""
","
","
","""event"",""trial"",""time""
""fullscreenenter"",""0"",""2712""
","
","null","<p></p>","null","","","","","","","",""
"","image","88","112041","0.0-88.0","""event"",""trial"",""time""
""fullscreenenter"",""0"",""2712""
","
","
","""event"",""trial"",""time""
""fullscreenenter"",""0"",""2712""
","
","838.5","run_exp/static/images/Set 6_rs/111a.jpg","86","","","","","","learn","SL",""
"","show_choice","89","113208","0.0-89.0","""event"",""trial"",""time""
""fullscreenenter"",""0"",""2712""
","
","
","""event"",""trial"",""time""
""fullscreenenter"",""0"",""2712""
","
","null","run_exp/static/images/Set 6_rs/111a.jpg","null","","","","","","learn","SL",""
"","html-keyboard-response","90","113713","0.0-90.0","""event"",""trial"",""time""
""fullscreenenter"",""0"",""2712""
","
","
","""event"",""trial"",""time""
""fullscreenenter"",""0"",""2712""
","
","null","<p></p>","null","","","","","","","",""
"","image","91","114682","0.0-91.0","""event"",""trial"",""time""
""fullscreenenter"",""0"",""2712""
","
","
","""event"",""trial"",""time""
""fullscreenenter"",""0"",""2712""
","
","967","run_exp/static/images/Set 6_rs/055a.jpg","86","","","","","","learn","SL",""
"","show_choice","92","115732","0.0-92.0","""event"",""trial"",""time""
""fullscreenenter"",""0"",""2712""
","
","
","""event"",""trial"",""time""
""fullscreenenter"",""0"",""2712""
","
","null","run_exp/static/images/Set 6_rs/055a.jpg","null","","","","","","learn","SL",""
"","html-keyboard-response","93","116246","0.0-93.0","""event"",""trial"",""time""
""fullscreenenter"",""0"",""2712""
","
","
","""event"",""trial"",""time""
""fullscreenenter"",""0"",""2712""
","
","null","<p></p>","null","","","","","","","",""
"","image","94","116981","0.0-94.0","""event"",""trial"",""time""
""fullscreenenter"",""0"",""2712""
","
","
","""event"",""trial"",""time""
""fullscreenenter"",""0"",""2712""
","
","733","run_exp/static/images/Set 6_rs/169a.jpg","78","","","","","","learn","SR",""
"","show_choice","95","118254","0.0-95.0","""event"",""trial"",""time""
""fullscreenenter"",""0"",""2712""
","
","
","""event"",""trial"",""time""
""fullscreenenter"",""0"",""2712""
","
","null","run_exp/static/images/Set 6_rs/169a.jpg","null","","","","","","learn","SR",""
"","html-keyboard-response","96","118771","0.0-96.0","""event"",""trial"",""time""
""fullscreenenter"",""0"",""2712""
","
","
","""event"",""trial"",""time""
""fullscreenenter"",""0"",""2712""
","
","null","<p></p>","null","","","","","","","",""
"","image","97","120051","0.0-97.0","""event"",""trial"",""time""
""fullscreenenter"",""0"",""2712""
","
","
","""event"",""trial"",""time""
""fullscreenenter"",""0"",""2712""
","
","1278.4000000953674","run_exp/static/images/Set 6_rs/085a.jpg","86","","","","","","learn","SL",""
"","show_choice","98","120788","0.0-98.0","""event"",""trial"",""time""
""fullscreenenter"",""0"",""2712""
","
","
","""event"",""trial"",""time""
""fullscreenenter"",""0"",""2712""
","
","null","run_exp/static/images/Set 6_rs/085a.jpg","null","","","","","","learn","SL",""
"","html-keyboard-response","99","121289","0.0-99.0","""event"",""trial"",""time""
""fullscreenenter"",""0"",""2712""
","
","
","""event"",""trial"",""time""
""fullscreenenter"",""0"",""2712""
","
","null","<p></p>","null","","","","","","","",""
"","image","100","122201","0.0-100.0","""event"",""trial"",""time""
""fullscreenenter"",""0"",""2712""
","
","
","""event"",""trial"",""time""
""fullscreenenter"",""0"",""2712""
","
","910.2999997138977","run_exp/static/images/Set 6_rs/112a.jpg","86","","","","","","learn","SR",""
"","show_choice","101","123295","0.0-101.0","""event"",""trial"",""time""
""fullscreenenter"",""0"",""2712""
","
","
","""event"",""trial"",""time""
""fullscreenenter"",""0"",""2712""
","
","null","run_exp/static/images/Set 6_rs/112a.jpg","null","","","","","","learn","SR",""
"","html-keyboard-response","102","123800","0.0-102.0","""event"",""trial"",""time""
""fullscreenenter"",""0"",""2712""
","
","
","""event"",""trial"",""time""
""fullscreenenter"",""0"",""2712""
","
","null","<p></p>","null","","","","","","","",""
"","image","103","124621","0.0-103.0","""event"",""trial"",""time""
""fullscreenenter"",""0"",""2712""
","
","
","""event"",""trial"",""time""
""fullscreenenter"",""0"",""2712""
","
","818.4000000953674","run_exp/static/images/Set 6_rs/006a.jpg","78","","","","","","learn","SL",""
"","show_choice","104","125805","0.0-104.0","""event"",""trial"",""time""
""fullscreenenter"",""0"",""2712""
","
","
","""event"",""trial"",""time""
""fullscreenenter"",""0"",""2712""
","
","null","run_exp/static/images/Set 6_rs/006a.jpg","null","","","","","","learn","SL",""
"","html-keyboard-response","105","126311","0.0-105.0","""event"",""trial"",""time""
""fullscreenenter"",""0"",""2712""
","
","
","""event"",""trial"",""time""
""fullscreenenter"",""0"",""2712""
","
","null","<p></p>","null","","","","","","","",""
"","image","106","127615","0.0-106.0","""event"",""trial"",""time""
""fullscreenenter"",""0"",""2712""
","
","
","""event"",""trial"",""time""
""fullscreenenter"",""0"",""2712""
","
","1302.5","run_exp/static/images/Set 6_rs/123a.jpg","78","","","","","","learn","SL",""
"","show_choice","107","128316","0.0-107.0","""event"",""trial"",""time""
""fullscreenenter"",""0"",""2712""
","
","
","""event"",""trial"",""time""
""fullscreenenter"",""0"",""2712""
","
","null","run_exp/static/images/Set 6_rs/123a.jpg","null","","","","","","learn","SL",""
"","html-keyboard-response","108","128829","0.0-108.0","""event"",""trial"",""time""
""fullscreenenter"",""0"",""2712""
","
","
","""event"",""trial"",""time""
""fullscreenenter"",""0"",""2712""
","
","null","<p></p>","null","","","","","","","",""
"","image","109","129656","0.0-109.0","""event"",""trial"",""time""
""fullscreenenter"",""0"",""2712""
","
","
","""event"",""trial"",""time""
""fullscreenenter"",""0"",""2712""
","
","825.0999999046326","run_exp/static/images/Set 6_rs/025a.jpg","78","","","","","","learn","SL",""
"","show_choice","110","130848","0.0-110.0","""event"",""trial"",""time""
""fullscreenenter"",""0"",""2712""
","
","
","""event"",""trial"",""time""
""fullscreenenter"",""0"",""2712""
","
","null","run_exp/static/images/Set 6_rs/025a.jpg","null","","","","","","learn","SL",""
"","html-keyboard-response","111","131350","0.0-111.0","""event"",""trial"",""time""
""fullscreenenter"",""0"",""2712""
","
","
","""event"",""trial"",""time""
""fullscreenenter"",""0"",""2712""
","
","null","<p></p>","null","","","","","","","",""
"","image","112","132236","0.0-112.0","""event"",""trial"",""time""
""fullscreenenter"",""0"",""2712""
","
","
","""event"",""trial"",""time""
""fullscreenenter"",""0"",""2712""
","
","883.5999999046326","run_exp/static/images/Set 6_rs/108a.jpg","78","","","","","","learn","SR",""
"","show_choice","113","133369","0.0-113.0","""event"",""trial"",""time""
""fullscreenenter"",""0"",""2712""
","
","
","""event"",""trial"",""time""
""fullscreenenter"",""0"",""2712""
","
","null","run_exp/static/images/Set 6_rs/108a.jpg","null","","","","","","learn","SR",""
"","html-keyboard-response","114","133875","0.0-114.0","""event"",""trial"",""time""
""fullscreenenter"",""0"",""2712""
","
","
","""event"",""trial"",""time""
""fullscreenenter"",""0"",""2712""
","
","null","<p></p>","null","","","","","","","",""
"","image","115","134548","0.0-115.0","""event"",""trial"",""time""
""fullscreenenter"",""0"",""2712""
","
","
","""event"",""trial"",""time""
""fullscreenenter"",""0"",""2712""
","
","670.5999999046326","run_exp/static/images/Set 6_rs/186a.jpg","86","","","","","","learn","SR",""
"","show_choice","116","135891","0.0-116.0","""event"",""trial"",""time""
""fullscreenenter"",""0"",""2712""
","
","
","""event"",""trial"",""time""
""fullscreenenter"",""0"",""2712""
","
","null","run_exp/static/images/Set 6_rs/186a.jpg","null","","","","","","learn","SR",""
"","html-keyboard-response","117","136395","0.0-117.0","""event"",""trial"",""time""
""fullscreenenter"",""0"",""2712""
","
","
","""event"",""trial"",""time""
""fullscreenenter"",""0"",""2712""
","
","null","<p></p>","null","","","","","","","",""
"","image","118","137161","0.0-118.0","""event"",""trial"",""time""
""fullscreenenter"",""0"",""2712""
","
","
","""event"",""trial"",""time""
""fullscreenenter"",""0"",""2712""
","
","764.2999997138977","run_exp/static/images/Set 6_rs/177a.jpg","78","","","","","","learn","SR",""
"","show_choice","119","138403","0.0-119.0","""event"",""trial"",""time""
""fullscreenenter"",""0"",""2712""
","
","
","""event"",""trial"",""time""
""fullscreenenter"",""0"",""2712""
","
","null","run_exp/static/images/Set 6_rs/177a.jpg","null","","","","","","learn","SR",""
"","html-keyboard-response","120","138913","0.0-120.0","""event"",""trial"",""time""
""fullscreenenter"",""0"",""2712""
","
","
","""event"",""trial"",""time""
""fullscreenenter"",""0"",""2712""
","
","null","<p></p>","null","","","","","","","",""
"","image","121","139679","0.0-121.0","""event"",""trial"",""time""
""fullscreenenter"",""0"",""2712""
","
","
","""event"",""trial"",""time""
""fullscreenenter"",""0"",""2712""
","
","763.3000001907349","run_exp/static/images/Set 6_rs/138a.jpg","78","","","","","","learn","SL",""
"","show_choice","122","140923","0.0-122.0","""event"",""trial"",""time""
""fullscreenenter"",""0"",""2712""
","
","
","""event"",""trial"",""time""
""fullscreenenter"",""0"",""2712""
","
","null","run_exp/static/images/Set 6_rs/138a.jpg","null","","","","","","learn","SL",""
"","html-keyboard-response","123","141430","0.0-123.0","""event"",""trial"",""time""
""fullscreenenter"",""0"",""2712""
","
","
","""event"",""trial"",""time""
""fullscreenenter"",""0"",""2712""
","
","null","<p></p>","null","","","","","","","",""
"","image","124","142263","0.0-124.0","""event"",""trial"",""time""
""fullscreenenter"",""0"",""2712""
","
","
","""event"",""trial"",""time""
""fullscreenenter"",""0"",""2712""
","
","831.3999996185303","run_exp/static/images/Set 6_rs/075a.jpg","86","","","","","","learn","SR",""
"","show_choice","125","143436","0.0-125.0","""event"",""trial"",""time""
""fullscreenenter"",""0"",""2712""
","
","
","""event"",""trial"",""time""
""fullscreenenter"",""0"",""2712""
","
","null","run_exp/static/images/Set 6_rs/075a.jpg","null","","","","","","learn","SR",""
"","html-keyboard-response","126","143941","0.0-126.0","""event"",""trial"",""time""
""fullscreenenter"",""0"",""2712""
","
","
","""event"",""trial"",""time""
""fullscreenenter"",""0"",""2712""
","
","null","<p></p>","null","","","","","","","",""
"","image","127","145396","0.0-127.0","""event"",""trial"",""time""
""fullscreenenter"",""0"",""2712""
","
","
","""event"",""trial"",""time""
""fullscreenenter"",""0"",""2712""
","
","1453.2000002861023","run_exp/static/images/Set 6_rs/131a.jpg","86","","","","","","learn","SR",""
"","show_choice","128","145959","0.0-128.0","""event"",""trial"",""time""
""fullscreenenter"",""0"",""2712""
","
","
","""event"",""trial"",""time""
""fullscreenenter"",""0"",""2712""
","
","null","run_exp/static/images/Set 6_rs/131a.jpg","null","","","","","","learn","SR",""
"","html-keyboard-response","129","146473","0.0-129.0","""event"",""trial"",""time""
""fullscreenenter"",""0"",""2712""
","
","
","""event"",""trial"",""time""
""fullscreenenter"",""0"",""2712""
","
","null","<p></p>","null","","","","","","","",""
"","image","130","147277","0.0-130.0","""event"",""trial"",""time""
""fullscreenenter"",""0"",""2712""
","
","
","""event"",""trial"",""time""
""fullscreenenter"",""0"",""2712""
","
","801.4000000953674","run_exp/static/images/Set 6_rs/007a.jpg","86","","","","","","learn","SR",""
"","show_choice","131","148490","0.0-131.0","""event"",""trial"",""time""
""fullscreenenter"",""0"",""2712""
","
","
","""event"",""trial"",""time""
""fullscreenenter"",""0"",""2712""
","
","null","run_exp/static/images/Set 6_rs/007a.jpg","null","","","","","","learn","SR",""
"","html-keyboard-response","132","149004","0.0-132.0","""event"",""trial"",""time""
""fullscreenenter"",""0"",""2712""
","
","
","""event"",""trial"",""time""
""fullscreenenter"",""0"",""2712""
","
","null","<p></p>","null","","","","","","","",""
"","image","133","150482","0.0-133.0","""event"",""trial"",""time""
""fullscreenenter"",""0"",""2712""
","
","
","""event"",""trial"",""time""
""fullscreenenter"",""0"",""2712""
","
","1476.5","run_exp/static/images/Set 6_rs/012a.jpg","86","","","","","","learn","SR",""
"","show_choice","134","151015","0.0-134.0","""event"",""trial"",""time""
""fullscreenenter"",""0"",""2712""
","
","
","""event"",""trial"",""time""
""fullscreenenter"",""0"",""2712""
","
","null","run_exp/static/images/Set 6_rs/012a.jpg","null","","","","","","learn","SR",""
"","html-keyboard-response","135","151521","0.0-135.0","""event"",""trial"",""time""
""fullscreenenter"",""0"",""2712""
","
","
","""event"",""trial"",""time""
""fullscreenenter"",""0"",""2712""
","
","null","<p></p>","null","","","","","","","",""
"","image","136","152293","0.0-136.0","""event"",""trial"",""time""
""fullscreenenter"",""0"",""2712""
","
","
","""event"",""trial"",""time""
""fullscreenenter"",""0"",""2712""
","
","769.4000000953674","run_exp/static/images/Set 6_rs/066a.jpg","86","","","","","","learn","SL",""
"","show_choice","137","153539","0.0-137.0","""event"",""trial"",""time""
""fullscreenenter"",""0"",""2712""
","
","
","""event"",""trial"",""time""
""fullscreenenter"",""0"",""2712""
","
","null","run_exp/static/images/Set 6_rs/066a.jpg","null","","","","","","learn","SL",""
"","html-keyboard-response","138","154042","0.0-138.0","""event"",""trial"",""time""
""fullscreenenter"",""0"",""2712""
","
","
","""event"",""trial"",""time""
""fullscreenenter"",""0"",""2712""
","
","null","<p></p>","null","","","","","","","",""
"","image","139","154911","0.0-139.0","""event"",""trial"",""time""
""fullscreenenter"",""0"",""2712""
","
","
","""event"",""trial"",""time""
""fullscreenenter"",""0"",""2712""
","
","867","run_exp/static/images/Set 6_rs/134a.jpg","78","","","","","","learn","SR",""
"","show_choice","140","156062","0.0-140.0","""event"",""trial"",""time""
""fullscreenenter"",""0"",""2712""
","
","
","""event"",""trial"",""time""
""fullscreenenter"",""0"",""2712""
","
","null","run_exp/static/images/Set 6_rs/134a.jpg","null","","","","","","learn","SR",""
"","html-keyboard-response","141","156570","0.0-141.0","""event"",""trial"",""time""
""fullscreenenter"",""0"",""2712""
","
","
","""event"",""trial"",""time""
""fullscreenenter"",""0"",""2712""
","
","null","<p></p>","null","","","","","","","",""
"","image","142","157623","0.0-142.0","""event"",""trial"",""time""
""fullscreenenter"",""0"",""2712""
","
","
","""event"",""trial"",""time""
""fullscreenenter"",""0"",""2712""
","
","1051.7999997138977","run_exp/static/images/Set 6_rs/150a.jpg","86","","","","","","learn","SR",""
"","show_choice","143","158587","0.0-143.0","""event"",""trial"",""time""
""fullscreenenter"",""0"",""2712""
","
","
","""event"",""trial"",""time""
""fullscreenenter"",""0"",""2712""
","
","null","run_exp/static/images/Set 6_rs/150a.jpg","null","","","","","","learn","SR",""
"","html-keyboard-response","144","159100","0.0-144.0","""event"",""trial"",""time""
""fullscreenenter"",""0"",""2712""
","
","
","""event"",""trial"",""time""
""fullscreenenter"",""0"",""2712""
","
","null","<p></p>","null","","","","","","","",""
"","image","145","159987","0.0-145.0","""event"",""trial"",""time""
""fullscreenenter"",""0"",""2712""
","
","
","""event"",""trial"",""time""
""fullscreenenter"",""0"",""2712""
","
","884.7000002861023","run_exp/static/images/Set 6_rs/154a.jpg","86","","","","","","learn","SR",""
"","show_choice","146","161116","0.0-146.0","""event"",""trial"",""time""
""fullscreenenter"",""0"",""2712""
","
","
","""event"",""trial"",""time""
""fullscreenenter"",""0"",""2712""
","
","null","run_exp/static/images/Set 6_rs/154a.jpg","null","","","","","","learn","SR",""
"","html-keyboard-response","147","161632","0.0-147.0","""event"",""trial"",""time""
""fullscreenenter"",""0"",""2712""
","
","
","""event"",""trial"",""time""
""fullscreenenter"",""0"",""2712""
","
","null","<p></p>","null","","","","","","","",""
"","image","148","162450","0.0-148.0","""event"",""trial"",""time""
""fullscreenenter"",""0"",""2712""
","
","
","""event"",""trial"",""time""
""fullscreenenter"",""0"",""2712""
","
","816","run_exp/static/images/Set 6_rs/095a.jpg","86","","","","","","learn","SL",""
"","show_choice","149","163642","0.0-149.0","""event"",""trial"",""time""
""fullscreenenter"",""0"",""2712""
","
","
","""event"",""trial"",""time""
""fullscreenenter"",""0"",""2712""
","
","null","run_exp/static/images/Set 6_rs/095a.jpg","null","","","","","","learn","SL",""
"","html-keyboard-response","150","164157","0.0-150.0","""event"",""trial"",""time""
""fullscreenenter"",""0"",""2712""
","
","
","""event"",""trial"",""time""
""fullscreenenter"",""0"",""2712""
","
","null","<p></p>","null","","","","","","","",""
"","image","151","164844","0.0-151.0","""event"",""trial"",""time""
""fullscreenenter"",""0"",""2712""
","
","
","""event"",""trial"",""time""
""fullscreenenter"",""0"",""2712""
","
","684.9000000953674","run_exp/static/images/Set 6_rs/181a.jpg","78","","","","","","learn","SL",""
"","show_choice","152","166176","0.0-152.0","""event"",""trial"",""time""
""fullscreenenter"",""0"",""2712""
","
","
","""event"",""trial"",""time""
""fullscreenenter"",""0"",""2712""
","
","null","run_exp/static/images/Set 6_rs/181a.jpg","null","","","","","","learn","SL",""
"","html-keyboard-response","153","166686","0.0-153.0","""event"",""trial"",""time""
""fullscreenenter"",""0"",""2712""
","
","
","""event"",""trial"",""time""
""fullscreenenter"",""0"",""2712""
","
","null","<p></p>","null","","","","","","","",""
"","image","154","167667","0.0-154.0","""event"",""trial"",""time""
""fullscreenenter"",""0"",""2712""
","
","
","""event"",""trial"",""time""
""fullscreenenter"",""0"",""2712""
","
","980.0999999046326","run_exp/static/images/Set 6_rs/061a.jpg","78","","","","","","learn","SR",""
"","show_choice","155","168702","0.0-155.0","""event"",""trial"",""time""
""fullscreenenter"",""0"",""2712""
","
","
","""event"",""trial"",""time""
""fullscreenenter"",""0"",""2712""
","
","null","run_exp/static/images/Set 6_rs/061a.jpg","null","","","","","","learn","SR",""
"","html-keyboard-response","156","169215","0.0-156.0","""event"",""trial"",""time""
""fullscreenenter"",""0"",""2712""
","
","
","""event"",""trial"",""time""
""fullscreenenter"",""0"",""2712""
","
","null","<p></p>","null","","","","","","","",""
"","image","157","170442","0.0-157.0","""event"",""trial"",""time""
""fullscreenenter"",""0"",""2712""
","
","
","""event"",""trial"",""time""
""fullscreenenter"",""0"",""2712""
","
","1225.5","run_exp/static/images/Set 6_rs/117a.jpg","78","","","","","","learn","SL",""
"","show_choice","158","171234","0.0-158.0","""event"",""trial"",""time""
""fullscreenenter"",""0"",""2712""
","
","
","""event"",""trial"",""time""
""fullscreenenter"",""0"",""2712""
","
","null","run_exp/static/images/Set 6_rs/117a.jpg","null","","","","","","learn","SL",""
"","html-keyboard-response","159","171741","0.0-159.0","""event"",""trial"",""time""
""fullscreenenter"",""0"",""2712""
","
","
","""event"",""trial"",""time""
""fullscreenenter"",""0"",""2712""
","
","null","<p></p>","null","","","","","","","",""
"","image","160","172668","0.0-160.0","""event"",""trial"",""time""
""fullscreenenter"",""0"",""2712""
","
","
","""event"",""trial"",""time""
""fullscreenenter"",""0"",""2712""
","
","925.2999997138977","run_exp/static/images/Set 6_rs/132a.jpg","78","","","","","","learn","SR",""
"","show_choice","161","173755","0.0-161.0","""event"",""trial"",""time""
""fullscreenenter"",""0"",""2712""
","
","
","""event"",""trial"",""time""
""fullscreenenter"",""0"",""2712""
","
","null","run_exp/static/images/Set 6_rs/132a.jpg","null","","","","","","learn","SR",""
"","html-keyboard-response","162","174270","0.0-162.0","""event"",""trial"",""time""
""fullscreenenter"",""0"",""2712""
","
","
","""event"",""trial"",""time""
""fullscreenenter"",""0"",""2712""
","
","null","<p></p>","null","","","","","","","",""
"","image","163","174979","0.0-163.0","""event"",""trial"",""time""
""fullscreenenter"",""0"",""2712""
","
","
","""event"",""trial"",""time""
""fullscreenenter"",""0"",""2712""
","
","706.7999997138977","run_exp/static/images/Set 6_rs/122a.jpg","78","","","","","","learn","SR",""
"","show_choice","164","176275","0.0-164.0","""event"",""trial"",""time""
""fullscreenenter"",""0"",""2712""
","
","
","""event"",""trial"",""time""
""fullscreenenter"",""0"",""2712""
","
","null","run_exp/static/images/Set 6_rs/122a.jpg","null","","","","","","learn","SR",""
"","html-keyboard-response","165","176788","0.0-165.0","""event"",""trial"",""time""
""fullscreenenter"",""0"",""2712""
","
","
","""event"",""trial"",""time""
""fullscreenenter"",""0"",""2712""
","
","null","<p></p>","null","","","","","","","",""
"","image","166","177618","0.0-166.0","""event"",""trial"",""time""
""fullscreenenter"",""0"",""2712""
","
","
","""event"",""trial"",""time""
""fullscreenenter"",""0"",""2712""
","
","828.0999999046326","run_exp/static/images/Set 6_rs/063a.jpg","86","","","","","","learn","SR",""
"","show_choice","167","178803","0.0-167.0","""event"",""trial"",""time""
""fullscreenenter"",""0"",""2712""
","
","
","""event"",""trial"",""time""
""fullscreenenter"",""0"",""2712""
","
","null","run_exp/static/images/Set 6_rs/063a.jpg","null","","","","","","learn","SR",""
"","html-keyboard-response","168","179317","0.0-168.0","""event"",""trial"",""time""
""fullscreenenter"",""0"",""2712""
","
","
","""event"",""trial"",""time""
""fullscreenenter"",""0"",""2712""
","
","null","<p></p>","null","","","","","","","",""
"","image","169","180066","0.0-169.0","""event"",""trial"",""time""
""fullscreenenter"",""0"",""2712""
","
","
","""event"",""trial"",""time""
""fullscreenenter"",""0"",""2712""
","
","746.5","run_exp/static/images/Set 6_rs/073a.jpg","86","","","","","","learn","SL",""
"","show_choice","170","181332","0.0-170.0","""event"",""trial"",""time""
""fullscreenenter"",""0"",""2712""
","
","
","""event"",""trial"",""time""
""fullscreenenter"",""0"",""2712""
","
","null","run_exp/static/images/Set 6_rs/073a.jpg","null","","","","","","learn","SL",""
"","html-keyboard-response","171","181839","0.0-171.0","""event"",""trial"",""time""
""fullscreenenter"",""0"",""2712""
","
","
","""event"",""trial"",""time""
""fullscreenenter"",""0"",""2712""
","
","null","<p></p>","null","","","","","","","",""
"","image","172","182709","0.0-172.0","""event"",""trial"",""time""
""fullscreenenter"",""0"",""2712""
","
","
","""event"",""trial"",""time""
""fullscreenenter"",""0"",""2712""
","
","868","run_exp/static/images/Set 6_rs/152a.jpg","78","","","","","","learn","SR",""
"","show_choice","173","183853","0.0-173.0","""event"",""trial"",""time""
""fullscreenenter"",""0"",""2712""
","
","
","""event"",""trial"",""time""
""fullscreenenter"",""0"",""2712""
","
","null","run_exp/static/images/Set 6_rs/152a.jpg","null","","","","","","learn","SR",""
"","html-keyboard-response","174","184367","0.0-174.0","""event"",""trial"",""time""
""fullscreenenter"",""0"",""2712""
","
","
","""event"",""trial"",""time""
""fullscreenenter"",""0"",""2712""
","
","null","<p></p>","null","","","","","","","",""
"","image","175","185165","0.0-175.0","""event"",""trial"",""time""
""fullscreenenter"",""0"",""2712""
","
","
","""event"",""trial"",""time""
""fullscreenenter"",""0"",""2712""
","
","795.6999998092651","run_exp/static/images/Set 6_rs/016a.jpg","86","","","","","","learn","SL",""
"","show_choice","176","186384","0.0-176.0","""event"",""trial"",""time""
""fullscreenenter"",""0"",""2712""
","
","
","""event"",""trial"",""time""
""fullscreenenter"",""0"",""2712""
","
","null","run_exp/static/images/Set 6_rs/016a.jpg","null","","","","","","learn","SL",""
"","html-keyboard-response","177","186888","0.0-177.0","""event"",""trial"",""time""
""fullscreenenter"",""0"",""2712""
","
","
","""event"",""trial"",""time""
""fullscreenenter"",""0"",""2712""
","
","null","<p></p>","null","","","","","","","",""
"","image","178","187822","0.0-178.0","""event"",""trial"",""time""
""fullscreenenter"",""0"",""2712""
","
","
","""event"",""trial"",""time""
""fullscreenenter"",""0"",""2712""
","
","932.7000002861023","run_exp/static/images/Set 6_rs/064a.jpg","78","","","","","","learn","SR",""
"","show_choice","179","188906","0.0-179.0","""event"",""trial"",""time""
""fullscreenenter"",""0"",""2712""
","
","
","""event"",""trial"",""time""
""fullscreenenter"",""0"",""2712""
","
","null","run_exp/static/images/Set 6_rs/064a.jpg","null","","","","","","learn","SR",""
"","html-keyboard-response","180","189416","0.0-180.0","""event"",""trial"",""time""
""fullscreenenter"",""0"",""2712""
","
","
","""event"",""trial"",""time""
""fullscreenenter"",""0"",""2712""
","
","null","<p></p>","null","","","","","","","",""
"","image","181","189967","0.0-181.0","""event"",""trial"",""time""
""fullscreenenter"",""0"",""2712""
","
","
","""event"",""trial"",""time""
""fullscreenenter"",""0"",""2712""
","
","549.5","run_exp/static/images/Set 6_rs/141a.jpg","78","","","","","","learn","SR",""
"","show_choice","182","191427","0.0-182.0","""event"",""trial"",""time""
""fullscreenenter"",""0"",""2712""
","
","
","""event"",""trial"",""time""
""fullscreenenter"",""0"",""2712""
","
","null","run_exp/static/images/Set 6_rs/141a.jpg","null","","","","","","learn","SR",""
"","html-keyboard-response","183","191937","0.0-183.0","""event"",""trial"",""time""
""fullscreenenter"",""0"",""2712""
","
","
","""event"",""trial"",""time""
""fullscreenenter"",""0"",""2712""
","
","null","<p></p>","null","","","","","","","",""
"","image","184","192690","0.0-184.0","""event"",""trial"",""time""
""fullscreenenter"",""0"",""2712""
","
","
","""event"",""trial"",""time""
""fullscreenenter"",""0"",""2712""
","
","751.6999998092651","run_exp/static/images/Set 6_rs/036a.jpg","86","","","","","","learn","SL",""
"","show_choice","185","193945","0.0-185.0","""event"",""trial"",""time""
""fullscreenenter"",""0"",""2712""
","
","
","""event"",""trial"",""time""
""fullscreenenter"",""0"",""2712""
","
","null","run_exp/static/images/Set 6_rs/036a.jpg","null","","","","","","learn","SL",""
"","html-keyboard-response","186","194451","0.0-186.0","""event"",""trial"",""time""
""fullscreenenter"",""0"",""2712""
","
","
","""event"",""trial"",""time""
""fullscreenenter"",""0"",""2712""
","
","null","<p></p>","null","","","","","","","",""
"","image","187","195253","0.0-187.0","""event"",""trial"",""time""
""fullscreenenter"",""0"",""2712""
","
","
","""event"",""trial"",""time""
""fullscreenenter"",""0"",""2712""
","
","799.8000001907349","run_exp/static/images/Set 6_rs/089a.jpg","86","","","","","","learn","SL",""
"","show_choice","188","196468","0.0-188.0","""event"",""trial"",""time""
""fullscreenenter"",""0"",""2712""
","
","
","""event"",""trial"",""time""
""fullscreenenter"",""0"",""2712""
","
","null","run_exp/static/images/Set 6_rs/089a.jpg","null","","","","","","learn","SL",""
"","html-keyboard-response","189","196985","0.0-189.0","""event"",""trial"",""time""
""fullscreenenter"",""0"",""2712""
","
","
","""event"",""trial"",""time""
""fullscreenenter"",""0"",""2712""
","
","null","<p></p>","null","","","","","","","",""
"","image","190","198095","0.0-190.0","""event"",""trial"",""time""
""fullscreenenter"",""0"",""2712""
","
","
","""event"",""trial"",""time""
""fullscreenenter"",""0"",""2712""
","
","1107.8000001907349","run_exp/static/images/Set 6_rs/091a.jpg","78","","","","","","learn","SL",""
"","show_choice","191","198991","0.0-191.0","""event"",""trial"",""time""
""fullscreenenter"",""0"",""2712""
","
","
","""event"",""trial"",""time""
""fullscreenenter"",""0"",""2712""
","
","null","run_exp/static/images/Set 6_rs/091a.jpg","null","","","","","","learn","SL",""
"","html-keyboard-response","192","199497","0.0-192.0","""event"",""trial"",""time""
""fullscreenenter"",""0"",""2712""
","
","
","""event"",""trial"",""time""
""fullscreenenter"",""0"",""2712""
","
","null","<p></p>","null","","","","","","","",""
"","image","193","200146","0.0-193.0","""event"",""trial"",""time""
""fullscreenenter"",""0"",""2712""
","
","
","""event"",""trial"",""time""
""fullscreenenter"",""0"",""2712""
","
","647.3999996185303","run_exp/static/images/Set 6_rs/144a.jpg","86","","","","","","learn","SL",""
"","show_choice","194","201511","0.0-194.0","""event"",""trial"",""time""
""fullscreenenter"",""0"",""2712""
","
","
","""event"",""trial"",""time""
""fullscreenenter"",""0"",""2712""
","
","null","run_exp/static/images/Set 6_rs/144a.jpg","null","","","","","","learn","SL",""
"","html-keyboard-response","195","202027","0.0-195.0","""event"",""trial"",""time""
""fullscreenenter"",""0"",""2712""
","
","
","""event"",""trial"",""time""
""fullscreenenter"",""0"",""2712""
","
","null","<p></p>","null","","","","","","","",""
"","test_intro","196","239237","0.0-196.0","""event"",""trial"",""time""
""fullscreenenter"",""0"",""2712""
","
","
","""event"",""trial"",""time""
""fullscreenenter"",""0"",""2712""
","
","null","run_exp/static/audio/clip_2_memory.m4a","null","","","","","<div class='center'><p>Now, lets see how much you remember about the items you just saw.  For each item, you need to indicate if it was <b>old</b> by pressing the <b>v</b> key, <b>similar</b> by pressing the <b>b</b> key, or <b>new</b> by pressing the <b>n</b> key.</p><p>Old refers to an item that you saw before in the indoor/outdoor game that you just played, new refers to an item you have <b>not</b> seen before within the indoor/outdoor game, and similar refers to an item that is similar to an item youve seen before but is not exactly the same. </p><p>Before we begin, lets go over some brief demonstrations to make sure you understand.</p></div>","","",""
"","html-keyboard-response","197","241188","0.0-197.0","""event"",""trial"",""time""
""fullscreenenter"",""0"",""2712""
","
","
","""event"",""trial"",""time""
""fullscreenenter"",""0"",""2712""
","
","1949.1000003814697","<div class='center'><p>Now, lets see how much you remember about the items you just saw.  For each item, you need to indicate if it was <b>old</b> by pressing the <b>v</b> key, <b>similar</b> by pressing the <b>b</b> key, or <b>new</b> by pressing the <b>n</b> key.</p><p>Old refers to an item that you saw before in the indoor/outdoor game that you just played, new refers to an item you have <b>not</b> seen before within the indoor/outdoor game, and similar refers to an item that is similar to an item youve seen before but is not exactly the same. </p><p>Before we begin, lets go over some brief demonstrations to make sure you understand.</p><div><p><b>[Press the space bar to continue]</b></p></div>","32","","","","","","","",""
"","items","198","248705","0.0-198.0","""event"",""trial"",""time""
""fullscreenenter"",""0"",""2712""
","
","
","""event"",""trial"",""time""
""fullscreenenter"",""0"",""2712""
","
","null","run_exp/static/audio/clip_3_items.m4a","null","","","","","","","",""
"","mop","199","253225","0.0-199.0","""event"",""trial"",""time""
""fullscreenenter"",""0"",""2712""
","
","
","""event"",""trial"",""time""
""fullscreenenter"",""0"",""2712""
","
","null","run_exp/static/audio/clip_4_mop.m4a","null","","","","","","","",""
"","baseball","200","256745","0.0-200.0","""event"",""trial"",""time""
""fullscreenenter"",""0"",""2712""
","
","
","""event"",""trial"",""time""
""fullscreenenter"",""0"",""2712""
","
","null","run_exp/static/audio/clip_5_baseball.m4a","null","","","","","","","",""
"","trumpet","201","260252","0.0-201.0","""event"",""trial"",""time""
""fullscreenenter"",""0"",""2712""
","
","
","""event"",""trial"",""time""
""fullscreenenter"",""0"",""2712""
","
","null","run_exp/static/audio/clip_6_trumpet.m4a","null","","","","","","","",""
"","gummies","202","263767","0.0-202.0","""event"",""trial"",""time""
""fullscreenenter"",""0"",""2712""
","
","
","""event"",""trial"",""time""
""fullscreenenter"",""0"",""2712""
","
","null","run_exp/static/audio/clip_7_gummies.m4a","null","","","","","","","",""
"","osn","203","268285","0.0-203.0","""event"",""trial"",""time""
""fullscreenenter"",""0"",""2712""
","
","
","""event"",""trial"",""time""
""fullscreenenter"",""0"",""2712""
","
","null","run_exp/static/audio/clip_8_osn.m4a","null","","","","","","","",""
"","old_1","204","274804","0.0-204.0","""event"",""trial"",""time""
""fullscreenenter"",""0"",""2712""
","
","
","""event"",""trial"",""time""
""fullscreenenter"",""0"",""2712""
","
","null","run_exp/static/audio/clip_9_old_trumpet.m4a","null","","","","","","","",""
"","new_1","205","282326","0.0-205.0","""event"",""trial"",""time""
""fullscreenenter"",""0"",""2712""
","
","
","""event"",""trial"",""time""
""fullscreenenter"",""0"",""2712""
","
","null","run_exp/static/audio/clip_10_new_balloon.m4a","null","","","","","","","",""
"","similar_1a","206","286838","0.0-206.0","""event"",""trial"",""time""
""fullscreenenter"",""0"",""2712""
","
","
","""event"",""trial"",""time""
""fullscreenenter"",""0"",""2712""
","
","null","run_exp/static/audio/clip_11a_similar_mop.m4a","null","","","","","","","",""
"","similar_1b","207","293346","0.0-207.0","""event"",""trial"",""time""
""fullscreenenter"",""0"",""2712""
","
","
","""event"",""trial"",""time""
""fullscreenenter"",""0"",""2712""
","
","null","run_exp/static/audio/clip_11b_similar_mop.m4a","null","","","","","","","",""
"","new_2","208","296858","0.0-208.0","""event"",""trial"",""time""
""fullscreenenter"",""0"",""2712""
","
","
","""event"",""trial"",""time""
""fullscreenenter"",""0"",""2712""
","
","null","run_exp/static/audio/clip_12_new_stoplight.m4a","null","","","","","","","",""
"","old_2","209","300367","0.0-209.0","""event"",""trial"",""time""
""fullscreenenter"",""0"",""2712""
","
","
","""event"",""trial"",""time""
""fullscreenenter"",""0"",""2712""
","
","null","run_exp/static/audio/clip_13_old_baseball.m4a","null","","","","","","","",""
"","similar_2a","210","303887","0.0-210.0","""event"",""trial"",""time""
""fullscreenenter"",""0"",""2712""
","
","
","""event"",""trial"",""time""
""fullscreenenter"",""0"",""2712""
","
","null","run_exp/static/audio/clip_14a_similar_gummies.m4a","null","","","","","","","",""
"","similar_2b","211","311397","0.0-211.0","""event"",""trial"",""time""
""fullscreenenter"",""0"",""2712""
","
","
","""event"",""trial"",""time""
""fullscreenenter"",""0"",""2712""
","
","null","run_exp/static/audio/clip_14b_similar_gummies.m4a","null","","","","","","","",""
"","practice","212","353519","0.0-212.0","""event"",""trial"",""time""
""fullscreenenter"",""0"",""2712""
","
","
","""event"",""trial"",""time""
""fullscreenenter"",""0"",""2712""
","
","null","run_exp/static/audio/clip_15_practice.m4a","null","","","","","<div class='center'><p>Lets practice a little to make sure you understand the difference between new, similar, and old. Lets say you saw these three items in the indoor/outdoor game.</p><p> Try your best to remember these images because youll soon be tested on them in a practice game. In the practice game, youll be shown images and youll have to say if they are old (one of the three images belows), similar (similar to one of the images below but not exactly the same), or new (are not one of the images below nor similar to them).</p><p>Once you press the space bar youll be shown these images again but one at time. Then youll begin the practice game.</p><p><img src='run_exp/static/images/tutorial/test/three_indoor_outdoor.png' height='300'></p></div>","","",""
"","html-keyboard-response","213","354351","0.0-213.0","""event"",""trial"",""time""
""fullscreenenter"",""0"",""2712""
","
","
","""event"",""trial"",""time""
""fullscreenenter"",""0"",""2712""
","
","828.9000000953674","<div class='center'><p>Lets practice a little to make sure you understand the difference between new, similar, and old. Lets say you saw these three items in the indoor/outdoor game.</p><p> Try your best to remember these images because youll soon be tested on them in a practice game. In the practice game, youll be shown images and youll have to say if they are old (one of the three images belows), similar (similar to one of the images below but not exactly the same), or new (are not one of the images below nor similar to them).</p><p>Once you press the space bar youll be shown these images again but one at time. Then youll begin the practice game.</p><p><img src='run_exp/static/images/tutorial/test/three_indoor_outdoor.png' height='300'></p><div><p><b>[Press the space bar to continue]</b></p></div>","32","","","","","","","",""
"","planet","214","356357","0.0-214.0","""event"",""trial"",""time""
""fullscreenenter"",""0"",""2712""
","
","
","""event"",""trial"",""time""
""fullscreenenter"",""0"",""2712""
","
","null","run_exp/static/images/tutorial/test/008a.jpg","null","","","","","","","",""
"","boot","215","358377","0.0-215.0","""event"",""trial"",""time""
""fullscreenenter"",""0"",""2712""
","
","
","""event"",""trial"",""time""
""fullscreenenter"",""0"",""2712""
","
","null","run_exp/static/images/tutorial/test/011a.jpg","null","","","","","","","",""
"","lemon","216","360389","0.0-216.0","""event"",""trial"",""time""
""fullscreenenter"",""0"",""2712""
","
","
","""event"",""trial"",""time""
""fullscreenenter"",""0"",""2712""
","
","null","run_exp/static/images/tutorial/test/018a.jpg","null","","","","","","","",""
"","practice_q1","217","365557","0.0-217.0","""event"",""trial"",""time""
""fullscreenenter"",""0"",""2712""
","
","
","""event"",""trial"",""time""
""fullscreenenter"",""0"",""2712""
","
","5165.10000038147","run_exp/static/audio/clip_16_practice_question.m4a","78","","","","","","","",""
"","correct","218","367460","0.0-218.0-0.0","""event"",""trial"",""time""
""fullscreenenter"",""0"",""2712""
","
","
","""event"",""trial"",""time""
""fullscreenenter"",""0"",""2712""
","
","null","run_exp/static/audio/clip_17_correct.m4a","null","","","","","<div class='center'><p>That's correct!</p></div>","","",""
"","html-keyboard-response","219","368683","0.0-218.0-1.0","""event"",""trial"",""time""
""fullscreenenter"",""0"",""2712""
","
","
","""event"",""trial"",""time""
""fullscreenenter"",""0"",""2712""
","
","1221.2000002861023","<div class='center'><p>That's correct!</p><div><p><b>[Press the space bar to continue]</b></p></div>","32","","","","","","","",""
"","practice_q2","220","373713","0.0-218.0-2.0","""event"",""trial"",""time""
""fullscreenenter"",""0"",""2712""
","
","
","""event"",""trial"",""time""
""fullscreenenter"",""0"",""2712""
","
","5025.5","run_exp/static/audio/clip_16_practice_question.m4a","86","","","","","","","",""
"","correct","221","375599","0.0-219.0-0.0","""event"",""trial"",""time""
""fullscreenenter"",""0"",""2712""
","
","
","""event"",""trial"",""time""
""fullscreenenter"",""0"",""2712""
","
","null","run_exp/static/audio/clip_17_correct.m4a","null","","","","","<div class='center'><p>That's correct!</p></div>","","",""
"","html-keyboard-response","222","375904","0.0-219.0-1.0","""event"",""trial"",""time""
""fullscreenenter"",""0"",""2712""
","
","
","""event"",""trial"",""time""
""fullscreenenter"",""0"",""2712""
","
","303.2999997138977","<div class='center'><p>That's correct!</p><div><p><b>[Press the space bar to continue]</b></p></div>","32","","","","","","","",""
"","practice_q3","223","380797","0.0-219.0-2.0","""event"",""trial"",""time""
""fullscreenenter"",""0"",""2712""
","
","
","""event"",""trial"",""time""
""fullscreenenter"",""0"",""2712""
","
","4890.199999809265","run_exp/static/audio/clip_16_practice_question.m4a","66","","","","","","","",""
"","correct","224","382879","0.0-220.0-0.0","""event"",""trial"",""time""
""fullscreenenter"",""0"",""2712""
","
","
","""event"",""trial"",""time""
""fullscreenenter"",""0"",""2712""
","
","null","run_exp/static/audio/clip_17_correct.m4a","null","","","","","<div class='center'><p>That's correct!</p></div>","","",""
"","html-keyboard-response","225","383221","0.0-220.0-1.0","""event"",""trial"",""time""
""fullscreenenter"",""0"",""2712""
","
","
","""event"",""trial"",""time""
""fullscreenenter"",""0"",""2712""
","
","340.7999997138977","<div class='center'><p>That's correct!</p><div><p><b>[Press the space bar to continue]</b></p></div>","32","","","","","","","",""
"","begin_text","226","401719","0.0-221.0-0.0","""event"",""trial"",""time""
""fullscreenenter"",""0"",""2712""
","
","
","""event"",""trial"",""time""
""fullscreenenter"",""0"",""2712""
","
","null","run_exp/static/audio/clip_22_begin_test.m4a","null","","","","","<div class='center'><p>On to the real game where well test your memory of items from the indoor/outdoor game. For each item, you need to indicate if the item is <b>old</b> by pressing the <b>v</b> key, <b>similar</b> by pressing the <b>b</b> key, or <b>new</b> by pressing the <b>n</b> key. </p></div>","","",""
"","html-keyboard-response","227","403074","0.0-221.0-1.0","""event"",""trial"",""time""
""fullscreenenter"",""0"",""2712""
","
","
","""event"",""trial"",""time""
""fullscreenenter"",""0"",""2712""
","
","1352.8000001907349","<div class='center'><p>On to the real game where well test your memory of items from the indoor/outdoor game. For each item, you need to indicate if the item is <b>old</b> by pressing the <b>v</b> key, <b>similar</b> by pressing the <b>b</b> key, or <b>new</b> by pressing the <b>n</b> key. </p><div><p><b>[Press the space bar to continue]</b></p></div>","32","","","","","","","",""
"","image","228","404200","0.0-222.0-0.0","""event"",""trial"",""time""
""fullscreenenter"",""0"",""2712""
","
","
","""event"",""trial"",""time""
""fullscreenenter"",""0"",""2712""
","
","1124","run_exp/static/images/Set 6_rs/133a.jpg","66","","","","","","test","TF","4"
"","show_choice","229","404708","0.0-222.0-1.0","""event"",""trial"",""time""
""fullscreenenter"",""0"",""2712""
","
","
","""event"",""trial"",""time""
""fullscreenenter"",""0"",""2712""
","
","null","run_exp/static/images/Set 6_rs/133a.jpg","null","","","","","","test","TF",""
"","html-keyboard-response","230","405229","0.0-222.0-2.0","""event"",""trial"",""time""
""fullscreenenter"",""0"",""2712""
","
","
","""event"",""trial"",""time""
""fullscreenenter"",""0"",""2712""
","
","null","<p></p>","null","","","","","","","",""
"","image","231","406443","0.0-223.0-0.0","""event"",""trial"",""time""
""fullscreenenter"",""0"",""2712""
","
","
","""event"",""trial"",""time""
""fullscreenenter"",""0"",""2712""
","
","1212.3999996185303","run_exp/static/images/Set 6_rs/190a.jpg","78","","","","","","test","TF","3"
"","show_choice","232","406948","0.0-223.0-1.0","""event"",""trial"",""time""
""fullscreenenter"",""0"",""2712""
","
","
","""event"",""trial"",""time""
""fullscreenenter"",""0"",""2712""
","
","null","run_exp/static/images/Set 6_rs/190a.jpg","null","","","","","","test","TF",""
"","html-keyboard-response","233","407468","0.0-223.0-2.0","""event"",""trial"",""time""
""fullscreenenter"",""0"",""2712""
","
","
","""event"",""trial"",""time""
""fullscreenenter"",""0"",""2712""
","
","null","<p></p>","null","","","","","","","",""
"","image","234","408534","0.0-224.0-0.0","""event"",""trial"",""time""
""fullscreenenter"",""0"",""2712""
","
","
","""event"",""trial"",""time""
""fullscreenenter"",""0"",""2712""
","
","1064.1999998092651","run_exp/static/images/Set 6_rs/035a.jpg","78","","","","","","test","TF","4"
"","show_choice","235","409048","0.0-224.0-1.0","""event"",""trial"",""time""
""fullscreenenter"",""0"",""2712""
","
","
","""event"",""trial"",""time""
""fullscreenenter"",""0"",""2712""
","
","null","run_exp/static/images/Set 6_rs/035a.jpg","null","","","","","","test","TF",""
"","html-keyboard-response","236","409568","0.0-224.0-2.0","""event"",""trial"",""time""
""fullscreenenter"",""0"",""2712""
","
","
","""event"",""trial"",""time""
""fullscreenenter"",""0"",""2712""
","
","null","<p></p>","null","","","","","","","",""
"","image","237","410680","0.0-225.0-0.0","""event"",""trial"",""time""
""fullscreenenter"",""0"",""2712""
","
","
","""event"",""trial"",""time""
""fullscreenenter"",""0"",""2712""
","
","1109.4000000953674","run_exp/static/images/Set 6_rs/170a.jpg","78","","","","","","test","TF","2"
"","show_choice","238","411188","0.0-225.0-1.0","""event"",""trial"",""time""
""fullscreenenter"",""0"",""2712""
","
","
","""event"",""trial"",""time""
""fullscreenenter"",""0"",""2712""
","
","null","run_exp/static/images/Set 6_rs/170a.jpg","null","","","","","","test","TF",""
"","html-keyboard-response","239","411698","0.0-225.0-2.0","""event"",""trial"",""time""
""fullscreenenter"",""0"",""2712""
","
","
","""event"",""trial"",""time""
""fullscreenenter"",""0"",""2712""
","
","null","<p></p>","null","","","","","","","",""
"","image","240","412825","0.0-226.0-0.0","""event"",""trial"",""time""
""fullscreenenter"",""0"",""2712""
","
","
","""event"",""trial"",""time""
""fullscreenenter"",""0"",""2712""
","
","1125.5","run_exp/static/images/Set 6_rs/079b.jpg","66","","","","","","test","TL","5"
"","show_choice","241","413331","0.0-226.0-1.0","""event"",""trial"",""time""
""fullscreenenter"",""0"",""2712""
","
","
","""event"",""trial"",""time""
""fullscreenenter"",""0"",""2712""
","
","null","run_exp/static/images/Set 6_rs/079b.jpg","null","","","","","","test","TL",""
"","html-keyboard-response","242","413843","0.0-226.0-2.0","""event"",""trial"",""time""
""fullscreenenter"",""0"",""2712""
","
","
","""event"",""trial"",""time""
""fullscreenenter"",""0"",""2712""
","
","null","<p></p>","null","","","","","","","",""
"","image","243","414832","0.0-227.0-0.0","""event"",""trial"",""time""
""fullscreenenter"",""0"",""2712""
","
","
","""event"",""trial"",""time""
""fullscreenenter"",""0"",""2712""
","
","986.7999997138977","run_exp/static/images/Set 6_rs/121a.jpg","86","","","","","","test","TR","4"
"","show_choice","244","415347","0.0-227.0-1.0","""event"",""trial"",""time""
""fullscreenenter"",""0"",""2712""
","
","
","""event"",""trial"",""time""
""fullscreenenter"",""0"",""2712""
","
","null","run_exp/static/images/Set 6_rs/121a.jpg","null","","","","","","test","TR",""
"","html-keyboard-response","245","415853","0.0-227.0-2.0","""event"",""trial"",""time""
""fullscreenenter"",""0"",""2712""
","
","
","""event"",""trial"",""time""
""fullscreenenter"",""0"",""2712""
","
","null","<p></p>","null","","","","","","","",""
"","image","246","416843","0.0-228.0-0.0","""event"",""trial"",""time""
""fullscreenenter"",""0"",""2712""
","
","
","""event"",""trial"",""time""
""fullscreenenter"",""0"",""2712""
","
","988.1999998092651","run_exp/static/images/Set 6_rs/140a.jpg","66","","","","","","test","TF","1"
"","show_choice","247","417352","0.0-228.0-1.0","""event"",""trial"",""time""
""fullscreenenter"",""0"",""2712""
","
","
","""event"",""trial"",""time""
""fullscreenenter"",""0"",""2712""
","
","null","run_exp/static/images/Set 6_rs/140a.jpg","null","","","","","","test","TF",""
"","html-keyboard-response","248","417865","0.0-228.0-2.0","""event"",""trial"",""time""
""fullscreenenter"",""0"",""2712""
","
","
","""event"",""trial"",""time""
""fullscreenenter"",""0"",""2712""
","
","null","<p></p>","null","","","","","","","",""
"","image","249","418996","0.0-229.0-0.0","""event"",""trial"",""time""
""fullscreenenter"",""0"",""2712""
","
","
","""event"",""trial"",""time""
""fullscreenenter"",""0"",""2712""
","
","1128.9000000953674","run_exp/static/images/Set 6_rs/090a.jpg","66","","","","","","test","TF","5"
"","show_choice","250","419510","0.0-229.0-1.0","""event"",""trial"",""time""
""fullscreenenter"",""0"",""2712""
","
","
","""event"",""trial"",""time""
""fullscreenenter"",""0"",""2712""
","
","null","run_exp/static/images/Set 6_rs/090a.jpg","null","","","","","","test","TF",""
"","html-keyboard-response","251","420026","0.0-229.0-2.0","""event"",""trial"",""time""
""fullscreenenter"",""0"",""2712""
","
","
","""event"",""trial"",""time""
""fullscreenenter"",""0"",""2712""
","
","null","<p></p>","null","","","","","","","",""
"","image","252","421230","0.0-230.0-0.0","""event"",""trial"",""time""
""fullscreenenter"",""0"",""2712""
","
","
","""event"",""trial"",""time""
""fullscreenenter"",""0"",""2712""
","
","1204.6999998092651","run_exp/static/images/Set 6_rs/167b.jpg","66","","","","","","test","TL","2"
"","show_choice","253","421745","0.0-230.0-1.0","""event"",""trial"",""time""
""fullscreenenter"",""0"",""2712""
","
","
","""event"",""trial"",""time""
""fullscreenenter"",""0"",""2712""
","
","null","run_exp/static/images/Set 6_rs/167b.jpg","null","","","","","","test","TL",""
"","html-keyboard-response","254","422256","0.0-230.0-2.0","""event"",""trial"",""time""
""fullscreenenter"",""0"",""2712""
","
","
","""event"",""trial"",""time""
""fullscreenenter"",""0"",""2712""
","
","null","<p></p>","null","","","","","","","",""
"","image","255","423436","0.0-231.0-0.0","""event"",""trial"",""time""
""fullscreenenter"",""0"",""2712""
","
","
","""event"",""trial"",""time""
""fullscreenenter"",""0"",""2712""
","
","1177.3999996185303","run_exp/static/images/Set 6_rs/149a.jpg","86","","","","","","test","TF","1"
"","show_choice","256","423950","0.0-231.0-1.0","""event"",""trial"",""time""
""fullscreenenter"",""0"",""2712""
","
","
","""event"",""trial"",""time""
""fullscreenenter"",""0"",""2712""
","
","null","run_exp/static/images/Set 6_rs/149a.jpg","null","","","","","","test","TF",""
"","html-keyboard-response","257","424463","0.0-231.0-2.0","""event"",""trial"",""time""
""fullscreenenter"",""0"",""2712""
","
","
","""event"",""trial"",""time""
""fullscreenenter"",""0"",""2712""
","
","null","<p></p>","null","","","","","","","",""
"","image","258","425460","0.0-232.0-0.0","""event"",""trial"",""time""
""fullscreenenter"",""0"",""2712""
","
","
","""event"",""trial"",""time""
""fullscreenenter"",""0"",""2712""
","
","995","run_exp/static/images/Set 6_rs/025b.jpg","66","","","","","","test","TL","5"
"","show_choice","259","425962","0.0-232.0-1.0","""event"",""trial"",""time""
""fullscreenenter"",""0"",""2712""
","
","
","""event"",""trial"",""time""
""fullscreenenter"",""0"",""2712""
","
","null","run_exp/static/images/Set 6_rs/025b.jpg","null","","","","","","test","TL",""
"","html-keyboard-response","260","426469","0.0-232.0-2.0","""event"",""trial"",""time""
""fullscreenenter"",""0"",""2712""
","
","
","""event"",""trial"",""time""
""fullscreenenter"",""0"",""2712""
","
","null","<p></p>","null","","","","","","","",""
"","image","261","427509","0.0-233.0-0.0","""event"",""trial"",""time""
""fullscreenenter"",""0"",""2712""
","
","
","""event"",""trial"",""time""
""fullscreenenter"",""0"",""2712""
","
","1038.5999999046326","run_exp/static/images/Set 6_rs/112a.jpg","86","","","","","","test","TR","5"
"","show_choice","262","428022","0.0-233.0-1.0","""event"",""trial"",""time""
""fullscreenenter"",""0"",""2712""
","
","
","""event"",""trial"",""time""
""fullscreenenter"",""0"",""2712""
","
","null","run_exp/static/images/Set 6_rs/112a.jpg","null","","","","","","test","TR",""
"","html-keyboard-response","263","428531","0.0-233.0-2.0","""event"",""trial"",""time""
""fullscreenenter"",""0"",""2712""
","
","
","""event"",""trial"",""time""
""fullscreenenter"",""0"",""2712""
","
","null","<p></p>","null","","","","","","","",""
"","image","264","430067","0.0-234.0-0.0","""event"",""trial"",""time""
""fullscreenenter"",""0"",""2712""
","
","
","""event"",""trial"",""time""
""fullscreenenter"",""0"",""2712""
","
","1534.6000003814697","run_exp/static/images/Set 6_rs/191b.jpg","86","","","","","","test","TL","2"
"","show_choice","265","430575","0.0-234.0-1.0","""event"",""trial"",""time""
""fullscreenenter"",""0"",""2712""
","
","
","""event"",""trial"",""time""
""fullscreenenter"",""0"",""2712""
","
","null","run_exp/static/images/Set 6_rs/191b.jpg","null","","","","","","test","TL",""
"","html-keyboard-response","266","431085","0.0-234.0-2.0","""event"",""trial"",""time""
""fullscreenenter"",""0"",""2712""
","
","
","""event"",""trial"",""time""
""fullscreenenter"",""0"",""2712""
","
","null","<p></p>","null","","","","","","","",""
"","image","267","432528","0.0-235.0-0.0","""event"",""trial"",""time""
""fullscreenenter"",""0"",""2712""
","
","
","""event"",""trial"",""time""
""fullscreenenter"",""0"",""2712""
","
","1440.5","run_exp/static/images/Set 6_rs/187a.jpg","86","","","","","","test","TR","3"
"","show_choice","268","433035","0.0-235.0-1.0","""event"",""trial"",""time""
""fullscreenenter"",""0"",""2712""
","
","
","""event"",""trial"",""time""
""fullscreenenter"",""0"",""2712""
","
","null","run_exp/static/images/Set 6_rs/187a.jpg","null","","","","","","test","TR",""
"","html-keyboard-response","269","433541","0.0-235.0-2.0","""event"",""trial"",""time""
""fullscreenenter"",""0"",""2712""
","
","
","""event"",""trial"",""time""
""fullscreenenter"",""0"",""2712""
","
","null","<p></p>","null","","","","","","","",""
"","image","270","434636","0.0-236.0-0.0","""event"",""trial"",""time""
""fullscreenenter"",""0"",""2712""
","
","
","""event"",""trial"",""time""
""fullscreenenter"",""0"",""2712""
","
","1093.5","run_exp/static/images/Set 6_rs/066b.jpg","66","","","","","","test","TL","5"
"","show_choice","271","435146","0.0-236.0-1.0","""event"",""trial"",""time""
""fullscreenenter"",""0"",""2712""
","
","
","""event"",""trial"",""time""
""fullscreenenter"",""0"",""2712""
","
","null","run_exp/static/images/Set 6_rs/066b.jpg","null","","","","","","test","TL",""
"","html-keyboard-response","272","435652","0.0-236.0-2.0","""event"",""trial"",""time""
""fullscreenenter"",""0"",""2712""
","
","
","""event"",""trial"",""time""
""fullscreenenter"",""0"",""2712""
","
","null","<p></p>","null","","","","","","","",""
"","image","273","436361","0.0-237.0-0.0","""event"",""trial"",""time""
""fullscreenenter"",""0"",""2712""
","
","
","""event"",""trial"",""time""
""fullscreenenter"",""0"",""2712""
","
","705.8999996185303","run_exp/static/images/Set 6_rs/176a.jpg","78","","","","","","test","TF","4"
"","show_choice","274","436862","0.0-237.0-1.0","""event"",""trial"",""time""
""fullscreenenter"",""0"",""2712""
","
","
","""event"",""trial"",""time""
""fullscreenenter"",""0"",""2712""
","
","null","run_exp/static/images/Set 6_rs/176a.jpg","null","","","","","","test","TF",""
"","html-keyboard-response","275","437368","0.0-237.0-2.0","""event"",""trial"",""time""
""fullscreenenter"",""0"",""2712""
","
","
","""event"",""trial"",""time""
""fullscreenenter"",""0"",""2712""
","
","null","<p></p>","null","","","","","","","",""
"","image","276","438430","0.0-238.0-0.0","""event"",""trial"",""time""
""fullscreenenter"",""0"",""2712""
","
","
","""event"",""trial"",""time""
""fullscreenenter"",""0"",""2712""
","
","1059.2999997138977","run_exp/static/images/Set 6_rs/095b.jpg","66","","","","","","test","TL","5"
"","show_choice","277","438946","0.0-238.0-1.0","""event"",""trial"",""time""
""fullscreenenter"",""0"",""2712""
","
","
","""event"",""trial"",""time""
""fullscreenenter"",""0"",""2712""
","
","null","run_exp/static/images/Set 6_rs/095b.jpg","null","","","","","","test","TL",""
"","html-keyboard-response","278","439461","0.0-238.0-2.0","""event"",""trial"",""time""
""fullscreenenter"",""0"",""2712""
","
","
","""event"",""trial"",""time""
""fullscreenenter"",""0"",""2712""
","
","null","<p></p>","null","","","","","","","",""
"","image","279","440598","0.0-239.0-0.0","""event"",""trial"",""time""
""fullscreenenter"",""0"",""2712""
","
","
","""event"",""trial"",""time""
""fullscreenenter"",""0"",""2712""
","
","1134.0999999046326","run_exp/static/images/Set 6_rs/076a.jpg","86","","","","","","test","TR","4"
"","show_choice","280","441106","0.0-239.0-1.0","""event"",""trial"",""time""
""fullscreenenter"",""0"",""2712""
","
","
","""event"",""trial"",""time""
""fullscreenenter"",""0"",""2712""
","
","null","run_exp/static/images/Set 6_rs/076a.jpg","null","","","","","","test","TR",""
"","html-keyboard-response","281","441609","0.0-239.0-2.0","""event"",""trial"",""time""
""fullscreenenter"",""0"",""2712""
","
","
","""event"",""trial"",""time""
""fullscreenenter"",""0"",""2712""
","
","null","<p></p>","null","","","","","","","",""
"","image","282","442667","0.0-240.0-0.0","""event"",""trial"",""time""
""fullscreenenter"",""0"",""2712""
","
","
","""event"",""trial"",""time""
""fullscreenenter"",""0"",""2712""
","
","1055.0999999046326","run_exp/static/images/Set 6_rs/166a.jpg","86","","","","","","test","TR","1"
"","show_choice","283","443182","0.0-240.0-1.0","""event"",""trial"",""time""
""fullscreenenter"",""0"",""2712""
","
","
","""event"",""trial"",""time""
""fullscreenenter"",""0"",""2712""
","
","null","run_exp/static/images/Set 6_rs/166a.jpg","null","","","","","","test","TR",""
"","html-keyboard-response","284","443693","0.0-240.0-2.0","""event"",""trial"",""time""
""fullscreenenter"",""0"",""2712""
","
","
","""event"",""trial"",""time""
""fullscreenenter"",""0"",""2712""
","
","null","<p></p>","null","","","","","","","",""
"","image","285","444721","0.0-241.0-0.0","""event"",""trial"",""time""
""fullscreenenter"",""0"",""2712""
","
","
","""event"",""trial"",""time""
""fullscreenenter"",""0"",""2712""
","
","1026","run_exp/static/images/Set 6_rs/075a.jpg","86","","","","","","test","TR","1"
"","show_choice","286","445231","0.0-241.0-1.0","""event"",""trial"",""time""
""fullscreenenter"",""0"",""2712""
","
","
","""event"",""trial"",""time""
""fullscreenenter"",""0"",""2712""
","
","null","run_exp/static/images/Set 6_rs/075a.jpg","null","","","","","","test","TR",""
"","html-keyboard-response","287","445744","0.0-241.0-2.0","""event"",""trial"",""time""
""fullscreenenter"",""0"",""2712""
","
","
","""event"",""trial"",""time""
""fullscreenenter"",""0"",""2712""
","
","null","<p></p>","null","","","","","","","",""
"","image","288","446784","0.0-242.0-0.0","""event"",""trial"",""time""
""fullscreenenter"",""0"",""2712""
","
","
","""event"",""trial"",""time""
""fullscreenenter"",""0"",""2712""
","
","1038.2000002861023","run_exp/static/images/Set 6_rs/181b.jpg","86","","","","","","test","TL","1"
"","show_choice","289","447298","0.0-242.0-1.0","""event"",""trial"",""time""
""fullscreenenter"",""0"",""2712""
","
","
","""event"",""trial"",""time""
""fullscreenenter"",""0"",""2712""
","
","null","run_exp/static/images/Set 6_rs/181b.jpg","null","","","","","","test","TL",""
"","html-keyboard-response","290","447815","0.0-242.0-2.0","""event"",""trial"",""time""
""fullscreenenter"",""0"",""2712""
","
","
","""event"",""trial"",""time""
""fullscreenenter"",""0"",""2712""
","
","null","<p></p>","null","","","","","","","",""
"","image","291","448964","0.0-243.0-0.0","""event"",""trial"",""time""
""fullscreenenter"",""0"",""2712""
","
","
","""event"",""trial"",""time""
""fullscreenenter"",""0"",""2712""
","
","1147","run_exp/static/images/Set 6_rs/123b.jpg","66","","","","","","test","TL","2"
"","show_choice","292","449480","0.0-243.0-1.0","""event"",""trial"",""time""
""fullscreenenter"",""0"",""2712""
","
","
","""event"",""trial"",""time""
""fullscreenenter"",""0"",""2712""
","
","null","run_exp/static/images/Set 6_rs/123b.jpg","null","","","","","","test","TL",""
"","html-keyboard-response","293","449983","0.0-243.0-2.0","""event"",""trial"",""time""
""fullscreenenter"",""0"",""2712""
","
","
","""event"",""trial"",""time""
""fullscreenenter"",""0"",""2712""
","
","null","<p></p>","null","","","","","","","",""
"","image","294","450957","0.0-244.0-0.0","""event"",""trial"",""time""
""fullscreenenter"",""0"",""2712""
","
","
","""event"",""trial"",""time""
""fullscreenenter"",""0"",""2712""
","
","972","run_exp/static/images/Set 6_rs/155a.jpg","66","","","","","","test","TF","4"
"","show_choice","295","451468","0.0-244.0-1.0","""event"",""trial"",""time""
""fullscreenenter"",""0"",""2712""
","
","
","""event"",""trial"",""time""
""fullscreenenter"",""0"",""2712""
","
","null","run_exp/static/images/Set 6_rs/155a.jpg","null","","","","","","test","TF",""
"","html-keyboard-response","296","451980","0.0-244.0-2.0","""event"",""trial"",""time""
""fullscreenenter"",""0"",""2712""
","
","
","""event"",""trial"",""time""
""fullscreenenter"",""0"",""2712""
","
","null","<p></p>","null","","","","","","","",""
"","image","297","453087","0.0-245.0-0.0","""event"",""trial"",""time""
""fullscreenenter"",""0"",""2712""
","
","
","""event"",""trial"",""time""
""fullscreenenter"",""0"",""2712""
","
","1105","run_exp/static/images/Set 6_rs/126a.jpg","86","","","","","","test","TR","2"
"","show_choice","298","453596","0.0-245.0-1.0","""event"",""trial"",""time""
""fullscreenenter"",""0"",""2712""
","
","
","""event"",""trial"",""time""
""fullscreenenter"",""0"",""2712""
","
","null","run_exp/static/images/Set 6_rs/126a.jpg","null","","","","","","test","TR",""
"","html-keyboard-response","299","454107","0.0-245.0-2.0","""event"",""trial"",""time""
""fullscreenenter"",""0"",""2712""
","
","
","""event"",""trial"",""time""
""fullscreenenter"",""0"",""2712""
","
","null","<p></p>","null","","","","","","","",""
"","image","300","455193","0.0-246.0-0.0","""event"",""trial"",""time""
""fullscreenenter"",""0"",""2712""
","
","
","""event"",""trial"",""time""
""fullscreenenter"",""0"",""2712""
","
","1082.5999999046326","run_exp/static/images/Set 6_rs/071b.jpg","66","","","","","","test","TL","4"
"","show_choice","301","455702","0.0-246.0-1.0","""event"",""trial"",""time""
""fullscreenenter"",""0"",""2712""
","
","
","""event"",""trial"",""time""
""fullscreenenter"",""0"",""2712""
","
","null","run_exp/static/images/Set 6_rs/071b.jpg","null","","","","","","test","TL",""
"","html-keyboard-response","302","456215","0.0-246.0-2.0","""event"",""trial"",""time""
""fullscreenenter"",""0"",""2712""
","
","
","""event"",""trial"",""time""
""fullscreenenter"",""0"",""2712""
","
","null","<p></p>","null","","","","","","","",""
"","image","303","457031","0.0-247.0-0.0","""event"",""trial"",""time""
""fullscreenenter"",""0"",""2712""
","
","
","""event"",""trial"",""time""
""fullscreenenter"",""0"",""2712""
","
","814.5","run_exp/static/images/Set 6_rs/007a.jpg","86","","","","","","test","TR","3"
"","show_choice","304","457540","0.0-247.0-1.0","""event"",""trial"",""time""
""fullscreenenter"",""0"",""2712""
","
","
","""event"",""trial"",""time""
""fullscreenenter"",""0"",""2712""
","
","null","run_exp/static/images/Set 6_rs/007a.jpg","null","","","","","","test","TR",""
"","html-keyboard-response","305","458050","0.0-247.0-2.0","""event"",""trial"",""time""
""fullscreenenter"",""0"",""2712""
","
","
","""event"",""trial"",""time""
""fullscreenenter"",""0"",""2712""
","
","null","<p></p>","null","","","","","","","",""
"","image","306","459031","0.0-248.0-0.0","""event"",""trial"",""time""
""fullscreenenter"",""0"",""2712""
","
","
","""event"",""trial"",""time""
""fullscreenenter"",""0"",""2712""
","
","979.1000003814697","run_exp/static/images/Set 6_rs/015a.jpg","78","","","","","","test","TF","4"
"","show_choice","307","459540","0.0-248.0-1.0","""event"",""trial"",""time""
""fullscreenenter"",""0"",""2712""
","
","
","""event"",""trial"",""time""
""fullscreenenter"",""0"",""2712""
","
","null","run_exp/static/images/Set 6_rs/015a.jpg","null","","","","","","test","TF",""
"","html-keyboard-response","308","460053","0.0-248.0-2.0","""event"",""trial"",""time""
""fullscreenenter"",""0"",""2712""
","
","
","""event"",""trial"",""time""
""fullscreenenter"",""0"",""2712""
","
","null","<p></p>","null","","","","","","","",""
"","image","309","461284","0.0-249.0-0.0","""event"",""trial"",""time""
""fullscreenenter"",""0"",""2712""
","
","
","""event"",""trial"",""time""
""fullscreenenter"",""0"",""2712""
","
","1229.0999999046326","run_exp/static/images/Set 6_rs/073b.jpg","66","","","","","","test","TL","3"
"","show_choice","310","461797","0.0-249.0-1.0","""event"",""trial"",""time""
""fullscreenenter"",""0"",""2712""
","
","
","""event"",""trial"",""time""
""fullscreenenter"",""0"",""2712""
","
","null","run_exp/static/images/Set 6_rs/073b.jpg","null","","","","","","test","TL",""
"","html-keyboard-response","311","462304","0.0-249.0-2.0","""event"",""trial"",""time""
""fullscreenenter"",""0"",""2712""
","
","
","""event"",""trial"",""time""
""fullscreenenter"",""0"",""2712""
","
","null","<p></p>","null","","","","","","","",""
"","image","312","463317","0.0-250.0-0.0","""event"",""trial"",""time""
""fullscreenenter"",""0"",""2712""
","
","
","""event"",""trial"",""time""
""fullscreenenter"",""0"",""2712""
","
","1011.5","run_exp/static/images/Set 6_rs/052a.jpg","66","","","","","","test","TF","1"
"","show_choice","313","463834","0.0-250.0-1.0","""event"",""trial"",""time""
""fullscreenenter"",""0"",""2712""
","
","
","""event"",""trial"",""time""
""fullscreenenter"",""0"",""2712""
","
","null","run_exp/static/images/Set 6_rs/052a.jpg","null","","","","","","test","TF",""
"","html-keyboard-response","314","464351","0.0-250.0-2.0","""event"",""trial"",""time""
""fullscreenenter"",""0"",""2712""
","
","
","""event"",""trial"",""time""
""fullscreenenter"",""0"",""2712""
","
","null","<p></p>","null","","","","","","","",""
"","image","315","465593","0.0-251.0-0.0","""event"",""trial"",""time""
""fullscreenenter"",""0"",""2712""
","
","
","""event"",""trial"",""time""
""fullscreenenter"",""0"",""2712""
","
","1239.8999996185303","run_exp/static/images/Set 6_rs/036b.jpg","66","","","","","","test","TL","4"
"","show_choice","316","466097","0.0-251.0-1.0","""event"",""trial"",""time""
""fullscreenenter"",""0"",""2712""
","
","
","""event"",""trial"",""time""
""fullscreenenter"",""0"",""2712""
","
","null","run_exp/static/images/Set 6_rs/036b.jpg","null","","","","","","test","TL",""
"","html-keyboard-response","317","466607","0.0-251.0-2.0","""event"",""trial"",""time""
""fullscreenenter"",""0"",""2712""
","
","
","""event"",""trial"",""time""
""fullscreenenter"",""0"",""2712""
","
","null","<p></p>","null","","","","","","","",""
"","image","318","467481","0.0-252.0-0.0","""event"",""trial"",""time""
""fullscreenenter"",""0"",""2712""
","
","
","""event"",""trial"",""time""
""fullscreenenter"",""0"",""2712""
","
","872.5","run_exp/static/images/Set 6_rs/109a.jpg","78","","","","","","test","TF","5"
"","show_choice","319","467984","0.0-252.0-1.0","""event"",""trial"",""time""
""fullscreenenter"",""0"",""2712""
","
","
","""event"",""trial"",""time""
""fullscreenenter"",""0"",""2712""
","
","null","run_exp/static/images/Set 6_rs/109a.jpg","null","","","","","","test","TF",""
"","html-keyboard-response","320","468493","0.0-252.0-2.0","""event"",""trial"",""time""
""fullscreenenter"",""0"",""2712""
","
","
","""event"",""trial"",""time""
""fullscreenenter"",""0"",""2712""
","
","null","<p></p>","null","","","","","","","",""
"","image","321","469701","0.0-253.0-0.0","""event"",""trial"",""time""
""fullscreenenter"",""0"",""2712""
","
","
","""event"",""trial"",""time""
""fullscreenenter"",""0"",""2712""
","
","1206.0999999046326","run_exp/static/images/Set 6_rs/086a.jpg","78","","","","","","test","TF","1"
"","show_choice","322","470204","0.0-253.0-1.0","""event"",""trial"",""time""
""fullscreenenter"",""0"",""2712""
","
","
","""event"",""trial"",""time""
""fullscreenenter"",""0"",""2712""
","
","null","run_exp/static/images/Set 6_rs/086a.jpg","null","","","","","","test","TF",""
"","html-keyboard-response","323","470709","0.0-253.0-2.0","""event"",""trial"",""time""
""fullscreenenter"",""0"",""2712""
","
","
","""event"",""trial"",""time""
""fullscreenenter"",""0"",""2712""
","
","null","<p></p>","null","","","","","","","",""
"","image","324","472026","0.0-254.0-0.0","""event"",""trial"",""time""
""fullscreenenter"",""0"",""2712""
","
","
","""event"",""trial"",""time""
""fullscreenenter"",""0"",""2712""
","
","1315.5999999046326","run_exp/static/images/Set 6_rs/062b.jpg","66","","","","","","test","TL","1"
"","show_choice","325","472531","0.0-254.0-1.0","""event"",""trial"",""time""
""fullscreenenter"",""0"",""2712""
","
","
","""event"",""trial"",""time""
""fullscreenenter"",""0"",""2712""
","
","null","run_exp/static/images/Set 6_rs/062b.jpg","null","","","","","","test","TL",""
"","html-keyboard-response","326","473035","0.0-254.0-2.0","""event"",""trial"",""time""
""fullscreenenter"",""0"",""2712""
","
","
","""event"",""trial"",""time""
""fullscreenenter"",""0"",""2712""
","
","null","<p></p>","null","","","","","","","",""
"","image","327","474460","0.0-255.0-0.0","""event"",""trial"",""time""
""fullscreenenter"",""0"",""2712""
","
","
","""event"",""trial"",""time""
""fullscreenenter"",""0"",""2712""
","
","1422.5","run_exp/static/images/Set 6_rs/057b.jpg","86","","","","","","test","TL","1"
"","show_choice","328","474971","0.0-255.0-1.0","""event"",""trial"",""time""
""fullscreenenter"",""0"",""2712""
","
","
","""event"",""trial"",""time""
""fullscreenenter"",""0"",""2712""
","
","null","run_exp/static/images/Set 6_rs/057b.jpg","null","","","","","","test","TL",""
"","html-keyboard-response","329","475474","0.0-255.0-2.0","""event"",""trial"",""time""
""fullscreenenter"",""0"",""2712""
","
","
","""event"",""trial"",""time""
""fullscreenenter"",""0"",""2712""
","
","null","<p></p>","null","","","","","","","",""
"","image","330","476645","0.0-256.0-0.0","""event"",""trial"",""time""
""fullscreenenter"",""0"",""2712""
","
","
","""event"",""trial"",""time""
""fullscreenenter"",""0"",""2712""
","
","1168.4000000953674","run_exp/static/images/Set 6_rs/008b.jpg","66","","","","","","test","TL","2"
"","show_choice","331","477161","0.0-256.0-1.0","""event"",""trial"",""time""
""fullscreenenter"",""0"",""2712""
","
","
","""event"",""trial"",""time""
""fullscreenenter"",""0"",""2712""
","
","null","run_exp/static/images/Set 6_rs/008b.jpg","null","","","","","","test","TL",""
"","html-keyboard-response","332","477670","0.0-256.0-2.0","""event"",""trial"",""time""
""fullscreenenter"",""0"",""2712""
","
","
","""event"",""trial"",""time""
""fullscreenenter"",""0"",""2712""
","
","null","<p></p>","null","","","","","","","",""
"","image","333","478630","0.0-257.0-0.0","""event"",""trial"",""time""
""fullscreenenter"",""0"",""2712""
","
","
","""event"",""trial"",""time""
""fullscreenenter"",""0"",""2712""
","
","958.1000003814697","run_exp/static/images/Set 6_rs/150a.jpg","86","","","","","","test","TR","1"
"","show_choice","334","479147","0.0-257.0-1.0","""event"",""trial"",""time""
""fullscreenenter"",""0"",""2712""
","
","
","""event"",""trial"",""time""
""fullscreenenter"",""0"",""2712""
","
","null","run_exp/static/images/Set 6_rs/150a.jpg","null","","","","","","test","TR",""
"","html-keyboard-response","335","479653","0.0-257.0-2.0","""event"",""trial"",""time""
""fullscreenenter"",""0"",""2712""
","
","
","""event"",""trial"",""time""
""fullscreenenter"",""0"",""2712""
","
","null","<p></p>","null","","","","","","","",""
"","image","336","480530","0.0-258.0-0.0","""event"",""trial"",""time""
""fullscreenenter"",""0"",""2712""
","
","
","""event"",""trial"",""time""
""fullscreenenter"",""0"",""2712""
","
","874.7000002861023","run_exp/static/images/Set 6_rs/188a.jpg","78","","","","","","test","TF","3"
"","show_choice","337","481043","0.0-258.0-1.0","""event"",""trial"",""time""
""fullscreenenter"",""0"",""2712""
","
","
","""event"",""trial"",""time""
""fullscreenenter"",""0"",""2712""
","
","null","run_exp/static/images/Set 6_rs/188a.jpg","null","","","","","","test","TF",""
"","html-keyboard-response","338","481557","0.0-258.0-2.0","""event"",""trial"",""time""
""fullscreenenter"",""0"",""2712""
","
","
","""event"",""trial"",""time""
""fullscreenenter"",""0"",""2712""
","
","null","<p></p>","null","","","","","","","",""
"","image","339","482724","0.0-259.0-0.0","""event"",""trial"",""time""
""fullscreenenter"",""0"",""2712""
","
","
","""event"",""trial"",""time""
""fullscreenenter"",""0"",""2712""
","
","1165.0999999046326","run_exp/static/images/Set 6_rs/136a.jpg","66","","","","","","test","TF","4"
"","show_choice","340","483239","0.0-259.0-1.0","""event"",""trial"",""time""
""fullscreenenter"",""0"",""2712""
","
","
","""event"",""trial"",""time""
""fullscreenenter"",""0"",""2712""
","
","null","run_exp/static/images/Set 6_rs/136a.jpg","null","","","","","","test","TF",""
"","html-keyboard-response","341","483747","0.0-259.0-2.0","""event"",""trial"",""time""
""fullscreenenter"",""0"",""2712""
","
","
