"success","trial_type","trial_index","time_elapsed","internal_node_id","interactions","blur_events","focus_events","fullscreenenter_events","fullscreenexit_events","rt","stimulus","key_press","subject_id","participant_id","age","gender","prompt","phase","condition","lure_bin"
"true","fullscreen","0","6270","0.0-0.0","""event"",""trial"",""time""
""blur"",""0"",""1434""
""focus"",""0"",""4073""
""fullscreenenter"",""0"",""5293""
","""event"",""trial"",""time""
""blur"",""0"",""1434""
","""event"",""trial"",""time""
""focus"",""0"",""4073""
","""event"",""trial"",""time""
""fullscreenenter"",""0"",""5293""
","
","","","","","","","","","","",""
"","pavlovia","1","6273","0.0-1.0","""event"",""trial"",""time""
""blur"",""0"",""1434""
""focus"",""0"",""4073""
""fullscreenenter"",""0"",""5293""
","""event"",""trial"",""time""
""blur"",""0"",""1434""
","""event"",""trial"",""time""
""focus"",""0"",""4073""
","""event"",""trial"",""time""
""fullscreenenter"",""0"",""5293""
","
","","","","","","","","","","",""
"","welcome","2","41255","0.0-2.0","""event"",""trial"",""time""
""blur"",""0"",""1434""
""focus"",""0"",""4073""
""fullscreenenter"",""0"",""5293""
","""event"",""trial"",""time""
""blur"",""0"",""1434""
","""event"",""trial"",""time""
""focus"",""0"",""4073""
","""event"",""trial"",""time""
""fullscreenenter"",""0"",""5293""
","
","null","run_exp/static/audio/clip_1_welcome.m4a","null","1123","1225","19","Female","<div class='center'><p>Welcome to the third part of the study! First, you'll be shown pictures of items one at a time. For each picture, you have to decide if the item is typically found indoors or outdoors.</p><p>If you think it's usually found indoors, then press <b>v</b> key on your keyboard. If you think it's usually found outdoors, then press the <b>n</b> key.There will be reminders on the screen to help you remember which keys to press. </p><p>If you're not sure whether the item is an indoor item or an outdoor item, go ahead and take a guess but try your best not to skip that choice. </p></div>","","",""
"","html-keyboard-response","3","42848","0.0-3.0","""event"",""trial"",""time""
""blur"",""0"",""1434""
""focus"",""0"",""4073""
""fullscreenenter"",""0"",""5293""
","""event"",""trial"",""time""
""blur"",""0"",""1434""
","""event"",""trial"",""time""
""focus"",""0"",""4073""
","""event"",""trial"",""time""
""fullscreenenter"",""0"",""5293""
","
","1591.5","<div class='center'><p>Welcome to the third part of the study! First, you'll be shown pictures of items one at a time. For each picture, you have to decide if the item is typically found indoors or outdoors.</p><p>If you think it's usually found indoors, then press <b>v</b> key on your keyboard. If you think it's usually found outdoors, then press the <b>n</b> key.There will be reminders on the screen to help you remember which keys to press. </p><p>If you're not sure whether the item is an indoor item or an outdoor item, go ahead and take a guess but try your best not to skip that choice. </p><div><p><b>[Press the space bar to continue]</b></p></div>","32","","","","","","","",""
"","image","4","44687","0.0-4.0","""event"",""trial"",""time""
""blur"",""0"",""1434""
""focus"",""0"",""4073""
""fullscreenenter"",""0"",""5293""
","""event"",""trial"",""time""
""blur"",""0"",""1434""
","""event"",""trial"",""time""
""focus"",""0"",""4073""
","""event"",""trial"",""time""
""fullscreenenter"",""0"",""5293""
","
","1836.8999999761581","run_exp/static/images/Set 6_rs/108a.jpg","86","","","","","","learn","SR",""
"","show_choice","5","44859","0.0-5.0","""event"",""trial"",""time""
""blur"",""0"",""1434""
""focus"",""0"",""4073""
""fullscreenenter"",""0"",""5293""
","""event"",""trial"",""time""
""blur"",""0"",""1434""
","""event"",""trial"",""time""
""focus"",""0"",""4073""
","""event"",""trial"",""time""
""fullscreenenter"",""0"",""5293""
","
","null","run_exp/static/images/Set 6_rs/108a.jpg","null","","","","","","learn","SR",""
"","html-keyboard-response","6","45371","0.0-6.0","""event"",""trial"",""time""
""blur"",""0"",""1434""
""focus"",""0"",""4073""
""fullscreenenter"",""0"",""5293""
","""event"",""trial"",""time""
""blur"",""0"",""1434""
","""event"",""trial"",""time""
""focus"",""0"",""4073""
","""event"",""trial"",""time""
""fullscreenenter"",""0"",""5293""
","
","null","<p></p>","null","","","","","","","",""
"","image","7","46187","0.0-7.0","""event"",""trial"",""time""
""blur"",""0"",""1434""
""focus"",""0"",""4073""
""fullscreenenter"",""0"",""5293""
","""event"",""trial"",""time""
""blur"",""0"",""1434""
","""event"",""trial"",""time""
""focus"",""0"",""4073""
","""event"",""trial"",""time""
""fullscreenenter"",""0"",""5293""
","
","814.5","run_exp/static/images/Set 6_rs/141a.jpg","78","","","","","","learn","SR",""
"","show_choice","8","47388","0.0-8.0","""event"",""trial"",""time""
""blur"",""0"",""1434""
""focus"",""0"",""4073""
""fullscreenenter"",""0"",""5293""
","""event"",""trial"",""time""
""blur"",""0"",""1434""
","""event"",""trial"",""time""
""focus"",""0"",""4073""
","""event"",""trial"",""time""
""fullscreenenter"",""0"",""5293""
","
","null","run_exp/static/images/Set 6_rs/141a.jpg","null","","","","","","learn","SR",""
"","html-keyboard-response","9","47903","0.0-9.0","""event"",""trial"",""time""
""blur"",""0"",""1434""
""focus"",""0"",""4073""
""fullscreenenter"",""0"",""5293""
","""event"",""trial"",""time""
""blur"",""0"",""1434""
","""event"",""trial"",""time""
""focus"",""0"",""4073""
","""event"",""trial"",""time""
""fullscreenenter"",""0"",""5293""
","
","null","<p></p>","null","","","","","","","",""
"","image","10","48557","0.0-10.0","""event"",""trial"",""time""
""blur"",""0"",""1434""
""focus"",""0"",""4073""
""fullscreenenter"",""0"",""5293""
","""event"",""trial"",""time""
""blur"",""0"",""1434""
","""event"",""trial"",""time""
""focus"",""0"",""4073""
","""event"",""trial"",""time""
""fullscreenenter"",""0"",""5293""
","
","652.5999999046326","run_exp/static/images/Set 6_rs/122a.jpg","86","","","","","","learn","SR",""
"","show_choice","11","49910","0.0-11.0","""event"",""trial"",""time""
""blur"",""0"",""1434""
""focus"",""0"",""4073""
""fullscreenenter"",""0"",""5293""
","""event"",""trial"",""time""
""blur"",""0"",""1434""
","""event"",""trial"",""time""
""focus"",""0"",""4073""
","""event"",""trial"",""time""
""fullscreenenter"",""0"",""5293""
","
","null","run_exp/static/images/Set 6_rs/122a.jpg","null","","","","","","learn","SR",""
"","html-keyboard-response","12","50423","0.0-12.0","""event"",""trial"",""time""
""blur"",""0"",""1434""
""focus"",""0"",""4073""
""fullscreenenter"",""0"",""5293""
","""event"",""trial"",""time""
""blur"",""0"",""1434""
","""event"",""trial"",""time""
""focus"",""0"",""4073""
","""event"",""trial"",""time""
""fullscreenenter"",""0"",""5293""
","
","null","<p></p>","null","","","","","","","",""
"","image","13","51347","0.0-13.0","""event"",""trial"",""time""
""blur"",""0"",""1434""
""focus"",""0"",""4073""
""fullscreenenter"",""0"",""5293""
","""event"",""trial"",""time""
""blur"",""0"",""1434""
","""event"",""trial"",""time""
""focus"",""0"",""4073""
","""event"",""trial"",""time""
""fullscreenenter"",""0"",""5293""
","
","922.5","run_exp/static/images/Set 6_rs/091a.jpg","78","","","","","","learn","SL",""
"","show_choice","14","52432","0.0-14.0","""event"",""trial"",""time""
""blur"",""0"",""1434""
""focus"",""0"",""4073""
""fullscreenenter"",""0"",""5293""
","""event"",""trial"",""time""
""blur"",""0"",""1434""
","""event"",""trial"",""time""
""focus"",""0"",""4073""
","""event"",""trial"",""time""
""fullscreenenter"",""0"",""5293""
","
","null","run_exp/static/images/Set 6_rs/091a.jpg","null","","","","","","learn","SL",""
"","html-keyboard-response","15","52945","0.0-15.0","""event"",""trial"",""time""
""blur"",""0"",""1434""
""focus"",""0"",""4073""
""fullscreenenter"",""0"",""5293""
","""event"",""trial"",""time""
""blur"",""0"",""1434""
","""event"",""trial"",""time""
""focus"",""0"",""4073""
","""event"",""trial"",""time""
""fullscreenenter"",""0"",""5293""
","
","null","<p></p>","null","","","","","","","",""
"","image","16","53349","0.0-16.0","""event"",""trial"",""time""
""blur"",""0"",""1434""
""focus"",""0"",""4073""
""fullscreenenter"",""0"",""5293""
","""event"",""trial"",""time""
""blur"",""0"",""1434""
","""event"",""trial"",""time""
""focus"",""0"",""4073""
","""event"",""trial"",""time""
""fullscreenenter"",""0"",""5293""
","
","403.10000002384186","run_exp/static/images/Set 6_rs/152a.jpg","78","","","","","","learn","SR",""
"","show_choice","17","54956","0.0-17.0","""event"",""trial"",""time""
""blur"",""0"",""1434""
""focus"",""0"",""4073""
""fullscreenenter"",""0"",""5293""
","""event"",""trial"",""time""
""blur"",""0"",""1434""
","""event"",""trial"",""time""
""focus"",""0"",""4073""
","""event"",""trial"",""time""
""fullscreenenter"",""0"",""5293""
","
","null","run_exp/static/images/Set 6_rs/152a.jpg","null","","","","","","learn","SR",""
"","html-keyboard-response","18","55469","0.0-18.0","""event"",""trial"",""time""
""blur"",""0"",""1434""
""focus"",""0"",""4073""
""fullscreenenter"",""0"",""5293""
","""event"",""trial"",""time""
""blur"",""0"",""1434""
","""event"",""trial"",""time""
""focus"",""0"",""4073""
","""event"",""trial"",""time""
""fullscreenenter"",""0"",""5293""
","
","null","<p></p>","null","","","","","","","",""
"","image","19","56367","0.0-19.0","""event"",""trial"",""time""
""blur"",""0"",""1434""
""focus"",""0"",""4073""
""fullscreenenter"",""0"",""5293""
","""event"",""trial"",""time""
""blur"",""0"",""1434""
","""event"",""trial"",""time""
""focus"",""0"",""4073""
","""event"",""trial"",""time""
""fullscreenenter"",""0"",""5293""
","
","896.8999999761581","run_exp/static/images/Set 6_rs/167a.jpg","78","","","","","","learn","SL",""
"","show_choice","20","57476","0.0-20.0","""event"",""trial"",""time""
""blur"",""0"",""1434""
""focus"",""0"",""4073""
""fullscreenenter"",""0"",""5293""
","""event"",""trial"",""time""
""blur"",""0"",""1434""
","""event"",""trial"",""time""
""focus"",""0"",""4073""
","""event"",""trial"",""time""
""fullscreenenter"",""0"",""5293""
","
","null","run_exp/static/images/Set 6_rs/167a.jpg","null","","","","","","learn","SL",""
"","html-keyboard-response","21","57991","0.0-21.0","""event"",""trial"",""time""
""blur"",""0"",""1434""
""focus"",""0"",""4073""
""fullscreenenter"",""0"",""5293""
","""event"",""trial"",""time""
""blur"",""0"",""1434""
","""event"",""trial"",""time""
""focus"",""0"",""4073""
","""event"",""trial"",""time""
""fullscreenenter"",""0"",""5293""
","
","null","<p></p>","null","","","","","","","",""
"","image","22","58977","0.0-22.0","""event"",""trial"",""time""
""blur"",""0"",""1434""
""focus"",""0"",""4073""
""fullscreenenter"",""0"",""5293""
","""event"",""trial"",""time""
""blur"",""0"",""1434""
","""event"",""trial"",""time""
""focus"",""0"",""4073""
","""event"",""trial"",""time""
""fullscreenenter"",""0"",""5293""
","
","983.8999999761581","run_exp/static/images/Set 6_rs/112a.jpg","86","","","","","","learn","SR",""
"","show_choice","23","60008","0.0-23.0","""event"",""trial"",""time""
""blur"",""0"",""1434""
""focus"",""0"",""4073""
""fullscreenenter"",""0"",""5293""
","""event"",""trial"",""time""
""blur"",""0"",""1434""
","""event"",""trial"",""time""
""focus"",""0"",""4073""
","""event"",""trial"",""time""
""fullscreenenter"",""0"",""5293""
","
","null","run_exp/static/images/Set 6_rs/112a.jpg","null","","","","","","learn","SR",""
"","html-keyboard-response","24","60524","0.0-24.0","""event"",""trial"",""time""
""blur"",""0"",""1434""
""focus"",""0"",""4073""
""fullscreenenter"",""0"",""5293""
","""event"",""trial"",""time""
""blur"",""0"",""1434""
","""event"",""trial"",""time""
""focus"",""0"",""4073""
","""event"",""trial"",""time""
""fullscreenenter"",""0"",""5293""
","
","null","<p></p>","null","","","","","","","",""
"","image","25","61097","0.0-25.0","""event"",""trial"",""time""
""blur"",""0"",""1434""
""focus"",""0"",""4073""
""fullscreenenter"",""0"",""5293""
","""event"",""trial"",""time""
""blur"",""0"",""1434""
","""event"",""trial"",""time""
""focus"",""0"",""4073""
","""event"",""trial"",""time""
""fullscreenenter"",""0"",""5293""
","
","571.8999999761581","run_exp/static/images/Set 6_rs/186a.jpg","86","","","","","","learn","SR",""
"","show_choice","26","62534","0.0-26.0","""event"",""trial"",""time""
""blur"",""0"",""1434""
""focus"",""0"",""4073""
""fullscreenenter"",""0"",""5293""
","""event"",""trial"",""time""
""blur"",""0"",""1434""
","""event"",""trial"",""time""
""focus"",""0"",""4073""
","""event"",""trial"",""time""
""fullscreenenter"",""0"",""5293""
","
","null","run_exp/static/images/Set 6_rs/186a.jpg","null","","","","","","learn","SR",""
"","html-keyboard-response","27","63048","0.0-27.0","""event"",""trial"",""time""
""blur"",""0"",""1434""
""focus"",""0"",""4073""
""fullscreenenter"",""0"",""5293""
","""event"",""trial"",""time""
""blur"",""0"",""1434""
","""event"",""trial"",""time""
""focus"",""0"",""4073""
","""event"",""trial"",""time""
""fullscreenenter"",""0"",""5293""
","
","null","<p></p>","null","","","","","","","",""
"","image","28","64039","0.0-28.0","""event"",""trial"",""time""
""blur"",""0"",""1434""
""focus"",""0"",""4073""
""fullscreenenter"",""0"",""5293""
","""event"",""trial"",""time""
""blur"",""0"",""1434""
","""event"",""trial"",""time""
""focus"",""0"",""4073""
","""event"",""trial"",""time""
""fullscreenenter"",""0"",""5293""
","
","989.8999999761581","run_exp/static/images/Set 6_rs/166a.jpg","86","","","","","","learn","SR",""
"","show_choice","29","65057","0.0-29.0","""event"",""trial"",""time""
""blur"",""0"",""1434""
""focus"",""0"",""4073""
""fullscreenenter"",""0"",""5293""
","""event"",""trial"",""time""
""blur"",""0"",""1434""
","""event"",""trial"",""time""
""focus"",""0"",""4073""
","""event"",""trial"",""time""
""fullscreenenter"",""0"",""5293""
","
","null","run_exp/static/images/Set 6_rs/166a.jpg","null","","","","","","learn","SR",""
"","html-keyboard-response","30","65572","0.0-30.0","""event"",""trial"",""time""
""blur"",""0"",""1434""
""focus"",""0"",""4073""
""fullscreenenter"",""0"",""5293""
","""event"",""trial"",""time""
""blur"",""0"",""1434""
","""event"",""trial"",""time""
""focus"",""0"",""4073""
","""event"",""trial"",""time""
""fullscreenenter"",""0"",""5293""
","
","null","<p></p>","null","","","","","","","",""
"","image","31","66238","0.0-31.0","""event"",""trial"",""time""
""blur"",""0"",""1434""
""focus"",""0"",""4073""
""fullscreenenter"",""0"",""5293""
","""event"",""trial"",""time""
""blur"",""0"",""1434""
","""event"",""trial"",""time""
""focus"",""0"",""4073""
","""event"",""trial"",""time""
""fullscreenenter"",""0"",""5293""
","
","664.6999999284744","run_exp/static/images/Set 6_rs/012a.jpg","86","","","","","","learn","SR",""
"","show_choice","32","67586","0.0-32.0","""event"",""trial"",""time""
""blur"",""0"",""1434""
""focus"",""0"",""4073""
""fullscreenenter"",""0"",""5293""
","""event"",""trial"",""time""
""blur"",""0"",""1434""
","""event"",""trial"",""time""
""focus"",""0"",""4073""
","""event"",""trial"",""time""
""fullscreenenter"",""0"",""5293""
","
","null","run_exp/static/images/Set 6_rs/012a.jpg","null","","","","","","learn","SR",""
"","html-keyboard-response","33","68088","0.0-33.0","""event"",""trial"",""time""
""blur"",""0"",""1434""
""focus"",""0"",""4073""
""fullscreenenter"",""0"",""5293""
","""event"",""trial"",""time""
""blur"",""0"",""1434""
","""event"",""trial"",""time""
""focus"",""0"",""4073""
","""event"",""trial"",""time""
""fullscreenenter"",""0"",""5293""
","
","null","<p></p>","null","","","","","","","",""
"","image","34","68557","0.0-34.0","""event"",""trial"",""time""
""blur"",""0"",""1434""
""focus"",""0"",""4073""
""fullscreenenter"",""0"",""5293""
","""event"",""trial"",""time""
""blur"",""0"",""1434""
","""event"",""trial"",""time""
""focus"",""0"",""4073""
","""event"",""trial"",""time""
""fullscreenenter"",""0"",""5293""
","
","468","run_exp/static/images/Set 6_rs/172a.jpg","78","","","","","","learn","SR",""
"","show_choice","35","70097","0.0-35.0","""event"",""trial"",""time""
""blur"",""0"",""1434""
""focus"",""0"",""4073""
""fullscreenenter"",""0"",""5293""
","""event"",""trial"",""time""
""blur"",""0"",""1434""
","""event"",""trial"",""time""
""focus"",""0"",""4073""
","""event"",""trial"",""time""
""fullscreenenter"",""0"",""5293""
","
","null","run_exp/static/images/Set 6_rs/172a.jpg","null","","","","","","learn","SR",""
"","html-keyboard-response","36","70612","0.0-36.0","""event"",""trial"",""time""
""blur"",""0"",""1434""
""focus"",""0"",""4073""
""fullscreenenter"",""0"",""5293""
","""event"",""trial"",""time""
""blur"",""0"",""1434""
","""event"",""trial"",""time""
""focus"",""0"",""4073""
","""event"",""trial"",""time""
""fullscreenenter"",""0"",""5293""
","
","null","<p></p>","null","","","","","","","",""
"","image","37","71757","0.0-37.0","""event"",""trial"",""time""
""blur"",""0"",""1434""
""focus"",""0"",""4073""
""fullscreenenter"",""0"",""5293""
","""event"",""trial"",""time""
""blur"",""0"",""1434""
","""event"",""trial"",""time""
""focus"",""0"",""4073""
","""event"",""trial"",""time""
""fullscreenenter"",""0"",""5293""
","
","1143.5","run_exp/static/images/Set 6_rs/016a.jpg","86","","","","","","learn","SL",""
"","show_choice","38","72624","0.0-38.0","""event"",""trial"",""time""
""blur"",""0"",""1434""
""focus"",""0"",""4073""
""fullscreenenter"",""0"",""5293""
","""event"",""trial"",""time""
""blur"",""0"",""1434""
","""event"",""trial"",""time""
""focus"",""0"",""4073""
","""event"",""trial"",""time""
""fullscreenenter"",""0"",""5293""
","
","null","run_exp/static/images/Set 6_rs/016a.jpg","null","","","","","","learn","SL",""
"","html-keyboard-response","39","73137","0.0-39.0","""event"",""trial"",""time""
""blur"",""0"",""1434""
""focus"",""0"",""4073""
""fullscreenenter"",""0"",""5293""
","""event"",""trial"",""time""
""blur"",""0"",""1434""
","""event"",""trial"",""time""
""focus"",""0"",""4073""
","""event"",""trial"",""time""
""fullscreenenter"",""0"",""5293""
","
","null","<p></p>","null","","","","","","","",""
"","image","40","74499","0.0-40.0","""event"",""trial"",""time""
""blur"",""0"",""1434""
""focus"",""0"",""4073""
""fullscreenenter"",""0"",""5293""
","""event"",""trial"",""time""
""blur"",""0"",""1434""
","""event"",""trial"",""time""
""focus"",""0"",""4073""
","""event"",""trial"",""time""
""fullscreenenter"",""0"",""5293""
","
","1360.6000000238419","run_exp/static/images/Set 6_rs/071a.jpg","78","","","","","","learn","SL",""
"","show_choice","41","75146","0.0-41.0","""event"",""trial"",""time""
""blur"",""0"",""1434""
""focus"",""0"",""4073""
""fullscreenenter"",""0"",""5293""
","""event"",""trial"",""time""
""blur"",""0"",""1434""
","""event"",""trial"",""time""
""focus"",""0"",""4073""
","""event"",""trial"",""time""
""fullscreenenter"",""0"",""5293""
","
","null","run_exp/static/images/Set 6_rs/071a.jpg","null","","","","","","learn","SL",""
"","html-keyboard-response","42","75658","0.0-42.0","""event"",""trial"",""time""
""blur"",""0"",""1434""
""focus"",""0"",""4073""
""fullscreenenter"",""0"",""5293""
","""event"",""trial"",""time""
""blur"",""0"",""1434""
","""event"",""trial"",""time""
""focus"",""0"",""4073""
","""event"",""trial"",""time""
""fullscreenenter"",""0"",""5293""
","
","null","<p></p>","null","","","","","","","",""
"","image","43","77227","0.0-43.0","""event"",""trial"",""time""
""blur"",""0"",""1434""
""focus"",""0"",""4073""
""fullscreenenter"",""0"",""5293""
","""event"",""trial"",""time""
""blur"",""0"",""1434""
","""event"",""trial"",""time""
""focus"",""0"",""4073""
","""event"",""trial"",""time""
""fullscreenenter"",""0"",""5293""
","
","1568","run_exp/static/images/Set 6_rs/045a.jpg","86","","","","","","learn","SR",""
"","show_choice","44","77667","0.0-44.0","""event"",""trial"",""time""
""blur"",""0"",""1434""
""focus"",""0"",""4073""
""fullscreenenter"",""0"",""5293""
","""event"",""trial"",""time""
""blur"",""0"",""1434""
","""event"",""trial"",""time""
""focus"",""0"",""4073""
","""event"",""trial"",""time""
""fullscreenenter"",""0"",""5293""
","
","null","run_exp/static/images/Set 6_rs/045a.jpg","null","","","","","","learn","SR",""
"","html-keyboard-response","45","78182","0.0-45.0","""event"",""trial"",""time""
""blur"",""0"",""1434""
""focus"",""0"",""4073""
""fullscreenenter"",""0"",""5293""
","""event"",""trial"",""time""
""blur"",""0"",""1434""
","""event"",""trial"",""time""
""focus"",""0"",""4073""
","""event"",""trial"",""time""
""fullscreenenter"",""0"",""5293""
","
","null","<p></p>","null","","","","","","","",""
"","image","46","78938","0.0-46.0","""event"",""trial"",""time""
""blur"",""0"",""1434""
""focus"",""0"",""4073""
""fullscreenenter"",""0"",""5293""
","""event"",""trial"",""time""
""blur"",""0"",""1434""
","""event"",""trial"",""time""
""focus"",""0"",""4073""
","""event"",""trial"",""time""
""fullscreenenter"",""0"",""5293""
","
","754.1000000238419","run_exp/static/images/Set 6_rs/123a.jpg","78","","","","","","learn","SL",""
"","show_choice","47","80196","0.0-47.0","""event"",""trial"",""time""
""blur"",""0"",""1434""
""focus"",""0"",""4073""
""fullscreenenter"",""0"",""5293""
","""event"",""trial"",""time""
""blur"",""0"",""1434""
","""event"",""trial"",""time""
""focus"",""0"",""4073""
","""event"",""trial"",""time""
""fullscreenenter"",""0"",""5293""
","
","null","run_exp/static/images/Set 6_rs/123a.jpg","null","","","","","","learn","SL",""
"","html-keyboard-response","48","80712","0.0-48.0","""event"",""trial"",""time""
""blur"",""0"",""1434""
""focus"",""0"",""4073""
""fullscreenenter"",""0"",""5293""
","""event"",""trial"",""time""
""blur"",""0"",""1434""
","""event"",""trial"",""time""
""focus"",""0"",""4073""
","""event"",""trial"",""time""
""fullscreenenter"",""0"",""5293""
","
","null","<p></p>","null","","","","","","","",""
"","image","49","82047","0.0-49.0","""event"",""trial"",""time""
""blur"",""0"",""1434""
""focus"",""0"",""4073""
""fullscreenenter"",""0"",""5293""
","""event"",""trial"",""time""
""blur"",""0"",""1434""
","""event"",""trial"",""time""
""focus"",""0"",""4073""
","""event"",""trial"",""time""
""fullscreenenter"",""0"",""5293""
","
","1334.2000000476837","run_exp/static/images/Set 6_rs/073a.jpg","86","","","","","","learn","SL",""
"","show_choice","50","82718","0.0-50.0","""event"",""trial"",""time""
""blur"",""0"",""1434""
""focus"",""0"",""4073""
""fullscreenenter"",""0"",""5293""
","""event"",""trial"",""time""
""blur"",""0"",""1434""
","""event"",""trial"",""time""
""focus"",""0"",""4073""
","""event"",""trial"",""time""
""fullscreenenter"",""0"",""5293""
","
","null","run_exp/static/images/Set 6_rs/073a.jpg","null","","","","","","learn","SL",""
"","html-keyboard-response","51","83231","0.0-51.0","""event"",""trial"",""time""
""blur"",""0"",""1434""
""focus"",""0"",""4073""
""fullscreenenter"",""0"",""5293""
","""event"",""trial"",""time""
""blur"",""0"",""1434""
","""event"",""trial"",""time""
""focus"",""0"",""4073""
","""event"",""trial"",""time""
""fullscreenenter"",""0"",""5293""
","
","null","<p></p>","null","","","","","","","",""
"","image","52","84418","0.0-52.0","""event"",""trial"",""time""
""blur"",""0"",""1434""
""focus"",""0"",""4073""
""fullscreenenter"",""0"",""5293""
","""event"",""trial"",""time""
""blur"",""0"",""1434""
","""event"",""trial"",""time""
""focus"",""0"",""4073""
","""event"",""trial"",""time""
""fullscreenenter"",""0"",""5293""
","
","1185.3000000715256","run_exp/static/images/Set 6_rs/023a.jpg","86","","","","","","learn","SR",""
"","show_choice","53","85242","0.0-53.0","""event"",""trial"",""time""
""blur"",""0"",""1434""
""focus"",""0"",""4073""
""fullscreenenter"",""0"",""5293""
","""event"",""trial"",""time""
""blur"",""0"",""1434""
","""event"",""trial"",""time""
""focus"",""0"",""4073""
","""event"",""trial"",""time""
""fullscreenenter"",""0"",""5293""
","
","null","run_exp/static/images/Set 6_rs/023a.jpg","null","","","","","","learn","SR",""
"","html-keyboard-response","54","85750","0.0-54.0","""event"",""trial"",""time""
""blur"",""0"",""1434""
""focus"",""0"",""4073""
""fullscreenenter"",""0"",""5293""
","""event"",""trial"",""time""
""blur"",""0"",""1434""
","""event"",""trial"",""time""
""focus"",""0"",""4073""
","""event"",""trial"",""time""
""fullscreenenter"",""0"",""5293""
","
","null","<p></p>","null","","","","","","","",""
"","image","55","86979","0.0-55.0","""event"",""trial"",""time""
""blur"",""0"",""1434""
""focus"",""0"",""4073""
""fullscreenenter"",""0"",""5293""
","""event"",""trial"",""time""
""blur"",""0"",""1434""
","""event"",""trial"",""time""
""focus"",""0"",""4073""
","""event"",""trial"",""time""
""fullscreenenter"",""0"",""5293""
","
","1227.7000000476837","run_exp/static/images/Set 6_rs/095a.jpg","86","","","","","","learn","SL",""
"","show_choice","56","87760","0.0-56.0","""event"",""trial"",""time""
""blur"",""0"",""1434""
""focus"",""0"",""4073""
""fullscreenenter"",""0"",""5293""
","""event"",""trial"",""time""
""blur"",""0"",""1434""
","""event"",""trial"",""time""
""focus"",""0"",""4073""
","""event"",""trial"",""time""
""fullscreenenter"",""0"",""5293""
","
","null","run_exp/static/images/Set 6_rs/095a.jpg","null","","","","","","learn","SL",""
"","html-keyboard-response","57","88274","0.0-57.0","""event"",""trial"",""time""
""blur"",""0"",""1434""
""focus"",""0"",""4073""
""fullscreenenter"",""0"",""5293""
","""event"",""trial"",""time""
""blur"",""0"",""1434""
","""event"",""trial"",""time""
""focus"",""0"",""4073""
","""event"",""trial"",""time""
""fullscreenenter"",""0"",""5293""
","
","null","<p></p>","null","","","","","","","",""
"","image","58","89317","0.0-58.0","""event"",""trial"",""time""
""blur"",""0"",""1434""
""focus"",""0"",""4073""
""fullscreenenter"",""0"",""5293""
","""event"",""trial"",""time""
""blur"",""0"",""1434""
","""event"",""trial"",""time""
""focus"",""0"",""4073""
","""event"",""trial"",""time""
""fullscreenenter"",""0"",""5293""
","
","1041.6000000238419","run_exp/static/images/Set 6_rs/075a.jpg","78","","","","","","learn","SR",""
"","show_choice","59","90286","0.0-59.0","""event"",""trial"",""time""
""blur"",""0"",""1434""
""focus"",""0"",""4073""
""fullscreenenter"",""0"",""5293""
","""event"",""trial"",""time""
""blur"",""0"",""1434""
","""event"",""trial"",""time""
""focus"",""0"",""4073""
","""event"",""trial"",""time""
""fullscreenenter"",""0"",""5293""
","
","null","run_exp/static/images/Set 6_rs/075a.jpg","null","","","","","","learn","SR",""
"","html-keyboard-response","60","90800","0.0-60.0","""event"",""trial"",""time""
""blur"",""0"",""1434""
""focus"",""0"",""4073""
""fullscreenenter"",""0"",""5293""
","""event"",""trial"",""time""
""blur"",""0"",""1434""
","""event"",""trial"",""time""
""focus"",""0"",""4073""
","""event"",""trial"",""time""
""fullscreenenter"",""0"",""5293""
","
","null","<p></p>","null","","","","","","","",""
"","image","61","92167","0.0-61.0","""event"",""trial"",""time""
""blur"",""0"",""1434""
""focus"",""0"",""4073""
""fullscreenenter"",""0"",""5293""
","""event"",""trial"",""time""
""blur"",""0"",""1434""
","""event"",""trial"",""time""
""focus"",""0"",""4073""
","""event"",""trial"",""time""
""fullscreenenter"",""0"",""5293""
","
","1365.7999999523163","run_exp/static/images/Set 6_rs/138a.jpg","78","","","","","","learn","SL",""
"","show_choice","62","92809","0.0-62.0","""event"",""trial"",""time""
""blur"",""0"",""1434""
""focus"",""0"",""4073""
""fullscreenenter"",""0"",""5293""
","""event"",""trial"",""time""
""blur"",""0"",""1434""
","""event"",""trial"",""time""
""focus"",""0"",""4073""
","""event"",""trial"",""time""
""fullscreenenter"",""0"",""5293""
","
","null","run_exp/static/images/Set 6_rs/138a.jpg","null","","","","","","learn","SL",""
"","html-keyboard-response","63","93325","0.0-63.0","""event"",""trial"",""time""
""blur"",""0"",""1434""
""focus"",""0"",""4073""
""fullscreenenter"",""0"",""5293""
","""event"",""trial"",""time""
""blur"",""0"",""1434""
","""event"",""trial"",""time""
""focus"",""0"",""4073""
","""event"",""trial"",""time""
""fullscreenenter"",""0"",""5293""
","
","null","<p></p>","null","","","","","","","",""
"","image","64","94677","0.0-64.0","""event"",""trial"",""time""
""blur"",""0"",""1434""
""focus"",""0"",""4073""
""fullscreenenter"",""0"",""5293""
","""event"",""trial"",""time""
""blur"",""0"",""1434""
","""event"",""trial"",""time""
""focus"",""0"",""4073""
","""event"",""trial"",""time""
""fullscreenenter"",""0"",""5293""
","
","1351.1999999284744","run_exp/static/images/Set 6_rs/088a.jpg","86","","","","","","learn","SR",""
"","show_choice","65","95334","0.0-65.0","""event"",""trial"",""time""
""blur"",""0"",""1434""
""focus"",""0"",""4073""
""fullscreenenter"",""0"",""5293""
","""event"",""trial"",""time""
""blur"",""0"",""1434""
","""event"",""trial"",""time""
""focus"",""0"",""4073""
","""event"",""trial"",""time""
""fullscreenenter"",""0"",""5293""
","
","null","run_exp/static/images/Set 6_rs/088a.jpg","null","","","","","","learn","SR",""
"","html-keyboard-response","66","95847","0.0-66.0","""event"",""trial"",""time""
""blur"",""0"",""1434""
""focus"",""0"",""4073""
""fullscreenenter"",""0"",""5293""
","""event"",""trial"",""time""
""blur"",""0"",""1434""
","""event"",""trial"",""time""
""focus"",""0"",""4073""
","""event"",""trial"",""time""
""fullscreenenter"",""0"",""5293""
","
","null","<p></p>","null","","","","","","","",""
"","image","67","97159","0.0-67.0","""event"",""trial"",""time""
""blur"",""0"",""1434""
""focus"",""0"",""4073""
""fullscreenenter"",""0"",""5293""
","""event"",""trial"",""time""
""blur"",""0"",""1434""
","""event"",""trial"",""time""
""focus"",""0"",""4073""
","""event"",""trial"",""time""
""fullscreenenter"",""0"",""5293""
","
","1310.5","run_exp/static/images/Set 6_rs/187a.jpg","86","","","","","","learn","SR",""
"","show_choice","68","97856","0.0-68.0","""event"",""trial"",""time""
""blur"",""0"",""1434""
""focus"",""0"",""4073""
""fullscreenenter"",""0"",""5293""
","""event"",""trial"",""time""
""blur"",""0"",""1434""
","""event"",""trial"",""time""
""focus"",""0"",""4073""
","""event"",""trial"",""time""
""fullscreenenter"",""0"",""5293""
","
","null","run_exp/static/images/Set 6_rs/187a.jpg","null","","","","","","learn","SR",""
"","html-keyboard-response","69","98370","0.0-69.0","""event"",""trial"",""time""
""blur"",""0"",""1434""
""focus"",""0"",""4073""
""fullscreenenter"",""0"",""5293""
","""event"",""trial"",""time""
""blur"",""0"",""1434""
","""event"",""trial"",""time""
""focus"",""0"",""4073""
","""event"",""trial"",""time""
""fullscreenenter"",""0"",""5293""
","
","null","<p></p>","null","","","","","","","",""
"","image","70","99137","0.0-70.0","""event"",""trial"",""time""
""blur"",""0"",""1434""
""focus"",""0"",""4073""
""fullscreenenter"",""0"",""5293""
","""event"",""trial"",""time""
""blur"",""0"",""1434""
","""event"",""trial"",""time""
""focus"",""0"",""4073""
","""event"",""trial"",""time""
""fullscreenenter"",""0"",""5293""
","
","766","run_exp/static/images/Set 6_rs/014a.jpg","86","","","","","","learn","SL",""
"","show_choice","71","100379","0.0-71.0","""event"",""trial"",""time""
""blur"",""0"",""1434""
""focus"",""0"",""4073""
""fullscreenenter"",""0"",""5293""
","""event"",""trial"",""time""
""blur"",""0"",""1434""
","""event"",""trial"",""time""
""focus"",""0"",""4073""
","""event"",""trial"",""time""
""fullscreenenter"",""0"",""5293""
","
","null","run_exp/static/images/Set 6_rs/014a.jpg","null","","","","","","learn","SL",""
"","html-keyboard-response","72","100894","0.0-72.0","""event"",""trial"",""time""
""blur"",""0"",""1434""
""focus"",""0"",""4073""
""fullscreenenter"",""0"",""5293""
","""event"",""trial"",""time""
""blur"",""0"",""1434""
","""event"",""trial"",""time""
""focus"",""0"",""4073""
","""event"",""trial"",""time""
""fullscreenenter"",""0"",""5293""
","
","null","<p></p>","null","","","","","","","",""
"","image","73","101607","0.0-73.0","""event"",""trial"",""time""
""blur"",""0"",""1434""
""focus"",""0"",""4073""
""fullscreenenter"",""0"",""5293""
","""event"",""trial"",""time""
""blur"",""0"",""1434""
","""event"",""trial"",""time""
""focus"",""0"",""4073""
","""event"",""trial"",""time""
""fullscreenenter"",""0"",""5293""
","
","711.3999999761581","run_exp/static/images/Set 6_rs/076a.jpg","78","","","","","","learn","SR",""
"","show_choice","74","102905","0.0-74.0","""event"",""trial"",""time""
""blur"",""0"",""1434""
""focus"",""0"",""4073""
""fullscreenenter"",""0"",""5293""
","""event"",""trial"",""time""
""blur"",""0"",""1434""
","""event"",""trial"",""time""
""focus"",""0"",""4073""
","""event"",""trial"",""time""
""fullscreenenter"",""0"",""5293""
","
","null","run_exp/static/images/Set 6_rs/076a.jpg","null","","","","","","learn","SR",""
"","html-keyboard-response","75","103418","0.0-75.0","""event"",""trial"",""time""
""blur"",""0"",""1434""
""focus"",""0"",""4073""
""fullscreenenter"",""0"",""5293""
","""event"",""trial"",""time""
""blur"",""0"",""1434""
","""event"",""trial"",""time""
""focus"",""0"",""4073""
","""event"",""trial"",""time""
""fullscreenenter"",""0"",""5293""
","
","null","<p></p>","null","","","","","","","",""
"","image","76","104297","0.0-76.0","""event"",""trial"",""time""
""blur"",""0"",""1434""
""focus"",""0"",""4073""
""fullscreenenter"",""0"",""5293""
","""event"",""trial"",""time""
""blur"",""0"",""1434""
","""event"",""trial"",""time""
""focus"",""0"",""4073""
","""event"",""trial"",""time""
""fullscreenenter"",""0"",""5293""
","
","878","run_exp/static/images/Set 6_rs/050a.jpg","86","","","","","","learn","SL",""
"","show_choice","77","105431","0.0-77.0","""event"",""trial"",""time""
""blur"",""0"",""1434""
""focus"",""0"",""4073""
""fullscreenenter"",""0"",""5293""
","""event"",""trial"",""time""
""blur"",""0"",""1434""
","""event"",""trial"",""time""
""focus"",""0"",""4073""
","""event"",""trial"",""time""
""fullscreenenter"",""0"",""5293""
","
","null","run_exp/static/images/Set 6_rs/050a.jpg","null","","","","","","learn","SL",""
"","html-keyboard-response","78","105944","0.0-78.0","""event"",""trial"",""time""
""blur"",""0"",""1434""
""focus"",""0"",""4073""
""fullscreenenter"",""0"",""5293""
","""event"",""trial"",""time""
""blur"",""0"",""1434""
","""event"",""trial"",""time""
""focus"",""0"",""4073""
","""event"",""trial"",""time""
""fullscreenenter"",""0"",""5293""
","
","null","<p></p>","null","","","","","","","",""
"","image","79","107017","0.0-79.0","""event"",""trial"",""time""
""blur"",""0"",""1434""
""focus"",""0"",""4073""
""fullscreenenter"",""0"",""5293""
","""event"",""trial"",""time""
""blur"",""0"",""1434""
","""event"",""trial"",""time""
""focus"",""0"",""4073""
","""event"",""trial"",""time""
""fullscreenenter"",""0"",""5293""
","
","1071.3000000715256","run_exp/static/images/Set 6_rs/178a.jpg","78","","","","","","learn","SR",""
"","show_choice","80","107955","0.0-80.0","""event"",""trial"",""time""
""blur"",""0"",""1434""
""focus"",""0"",""4073""
""fullscreenenter"",""0"",""5293""
","""event"",""trial"",""time""
""blur"",""0"",""1434""
","""event"",""trial"",""time""
""focus"",""0"",""4073""
","""event"",""trial"",""time""
""fullscreenenter"",""0"",""5293""
","
","null","run_exp/static/images/Set 6_rs/178a.jpg","null","","","","","","learn","SR",""
"","html-keyboard-response","81","108470","0.0-81.0","""event"",""trial"",""time""
""blur"",""0"",""1434""
""focus"",""0"",""4073""
""fullscreenenter"",""0"",""5293""
","""event"",""trial"",""time""
""blur"",""0"",""1434""
","""event"",""trial"",""time""
""focus"",""0"",""4073""
","""event"",""trial"",""time""
""fullscreenenter"",""0"",""5293""
","
","null","<p></p>","null","","","","","","","",""
"","image","82","109688","0.0-82.0","""event"",""trial"",""time""
""blur"",""0"",""1434""
""focus"",""0"",""4073""
""fullscreenenter"",""0"",""5293""
","""event"",""trial"",""time""
""blur"",""0"",""1434""
","""event"",""trial"",""time""
""focus"",""0"",""4073""
","""event"",""trial"",""time""
""fullscreenenter"",""0"",""5293""
","
","1217.1999999284744","run_exp/static/images/Set 6_rs/007a.jpg","86","","","","","","learn","SR",""
"","show_choice","83","110480","0.0-83.0","""event"",""trial"",""time""
""blur"",""0"",""1434""
""focus"",""0"",""4073""
""fullscreenenter"",""0"",""5293""
","""event"",""trial"",""time""
""blur"",""0"",""1434""
","""event"",""trial"",""time""
""focus"",""0"",""4073""
","""event"",""trial"",""time""
""fullscreenenter"",""0"",""5293""
","
","null","run_exp/static/images/Set 6_rs/007a.jpg","null","","","","","","learn","SR",""
"","html-keyboard-response","84","110995","0.0-84.0","""event"",""trial"",""time""
""blur"",""0"",""1434""
""focus"",""0"",""4073""
""fullscreenenter"",""0"",""5293""
","""event"",""trial"",""time""
""blur"",""0"",""1434""
","""event"",""trial"",""time""
""focus"",""0"",""4073""
","""event"",""trial"",""time""
""fullscreenenter"",""0"",""5293""
","
","null","<p></p>","null","","","","","","","",""
"","image","85","112247","0.0-85.0","""event"",""trial"",""time""
""blur"",""0"",""1434""
""focus"",""0"",""4073""
""fullscreenenter"",""0"",""5293""
","""event"",""trial"",""time""
""blur"",""0"",""1434""
","""event"",""trial"",""time""
""focus"",""0"",""4073""
","""event"",""trial"",""time""
""fullscreenenter"",""0"",""5293""
","
","1251.2000000476837","run_exp/static/images/Set 6_rs/055a.jpg","86","","","","","","learn","SL",""
"","show_choice","86","113009","0.0-86.0","""event"",""trial"",""time""
""blur"",""0"",""1434""
""focus"",""0"",""4073""
""fullscreenenter"",""0"",""5293""
","""event"",""trial"",""time""
""blur"",""0"",""1434""
","""event"",""trial"",""time""
""focus"",""0"",""4073""
","""event"",""trial"",""time""
""fullscreenenter"",""0"",""5293""
","
","null","run_exp/static/images/Set 6_rs/055a.jpg","null","","","","","","learn","SL",""
"","html-keyboard-response","87","113524","0.0-87.0","""event"",""trial"",""time""
""blur"",""0"",""1434""
""focus"",""0"",""4073""
""fullscreenenter"",""0"",""5293""
","""event"",""trial"",""time""
""blur"",""0"",""1434""
","""event"",""trial"",""time""
""focus"",""0"",""4073""
","""event"",""trial"",""time""
""fullscreenenter"",""0"",""5293""
","
","null","<p></p>","null","","","","","","","",""
"","image","88","114677","0.0-88.0","""event"",""trial"",""time""
""blur"",""0"",""1434""
""focus"",""0"",""4073""
""fullscreenenter"",""0"",""5293""
","""event"",""trial"",""time""
""blur"",""0"",""1434""
","""event"",""trial"",""time""
""focus"",""0"",""4073""
","""event"",""trial"",""time""
""fullscreenenter"",""0"",""5293""
","
","1152","run_exp/static/images/Set 6_rs/169a.jpg","78","","","","","","learn","SR",""
"","show_choice","89","115534","0.0-89.0","""event"",""trial"",""time""
""blur"",""0"",""1434""
""focus"",""0"",""4073""
""fullscreenenter"",""0"",""5293""
","""event"",""trial"",""time""
""blur"",""0"",""1434""
","""event"",""trial"",""time""
""focus"",""0"",""4073""
","""event"",""trial"",""time""
""fullscreenenter"",""0"",""5293""
","
","null","run_exp/static/images/Set 6_rs/169a.jpg","null","","","","","","learn","SR",""
"","html-keyboard-response","90","116049","0.0-90.0","""event"",""trial"",""time""
""blur"",""0"",""1434""
""focus"",""0"",""4073""
""fullscreenenter"",""0"",""5293""
","""event"",""trial"",""time""
""blur"",""0"",""1434""
","""event"",""trial"",""time""
""focus"",""0"",""4073""
","""event"",""trial"",""time""
""fullscreenenter"",""0"",""5293""
","
","null","<p></p>","null","","","","","","","",""
"","image","91","116827","0.0-91.0","""event"",""trial"",""time""
""blur"",""0"",""1434""
""focus"",""0"",""4073""
""fullscreenenter"",""0"",""5293""
","""event"",""trial"",""time""
""blur"",""0"",""1434""
","""event"",""trial"",""time""
""focus"",""0"",""4073""
","""event"",""trial"",""time""
""fullscreenenter"",""0"",""5293""
","
","776.1999999284744","run_exp/static/images/Set 6_rs/144a.jpg","86","","","","","","learn","SL",""
"","show_choice","92","118052","0.0-92.0","""event"",""trial"",""time""
""blur"",""0"",""1434""
""focus"",""0"",""4073""
""fullscreenenter"",""0"",""5293""
","""event"",""trial"",""time""
""blur"",""0"",""1434""
","""event"",""trial"",""time""
""focus"",""0"",""4073""
","""event"",""trial"",""time""
""fullscreenenter"",""0"",""5293""
","
","null","run_exp/static/images/Set 6_rs/144a.jpg","null","","","","","","learn","SL",""
"","html-keyboard-response","93","118567","0.0-93.0","""event"",""trial"",""time""
""blur"",""0"",""1434""
""focus"",""0"",""4073""
""fullscreenenter"",""0"",""5293""
","""event"",""trial"",""time""
""blur"",""0"",""1434""
","""event"",""trial"",""time""
""focus"",""0"",""4073""
","""event"",""trial"",""time""
""fullscreenenter"",""0"",""5293""
","
","null","<p></p>","null","","","","","","","",""
"","image","94","120189","0.0-94.0","""event"",""trial"",""time""
""blur"",""0"",""1434""
""focus"",""0"",""4073""
""fullscreenenter"",""0"",""5293""
","""event"",""trial"",""time""
""blur"",""0"",""1434""
","""event"",""trial"",""time""
""focus"",""0"",""4073""
","""event"",""trial"",""time""
""fullscreenenter"",""0"",""5293""
","
","1621","run_exp/static/images/Set 6_rs/111a.jpg","78","","","","","","learn","SL",""
"","show_choice","95","120581","0.0-95.0","""event"",""trial"",""time""
""blur"",""0"",""1434""
""focus"",""0"",""4073""
""fullscreenenter"",""0"",""5293""
","""event"",""trial"",""time""
""blur"",""0"",""1434""
","""event"",""trial"",""time""
""focus"",""0"",""4073""
","""event"",""trial"",""time""
""fullscreenenter"",""0"",""5293""
","
","null","run_exp/static/images/Set 6_rs/111a.jpg","null","","","","","","learn","SL",""
"","html-keyboard-response","96","121097","0.0-96.0","""event"",""trial"",""time""
""blur"",""0"",""1434""
""focus"",""0"",""4073""
""fullscreenenter"",""0"",""5293""
","""event"",""trial"",""time""
""blur"",""0"",""1434""
","""event"",""trial"",""time""
""focus"",""0"",""4073""
","""event"",""trial"",""time""
""fullscreenenter"",""0"",""5293""
","
","null","<p></p>","null","","","","","","","",""
"","image","97","122488","0.0-97.0","""event"",""trial"",""time""
""blur"",""0"",""1434""
""focus"",""0"",""4073""
""fullscreenenter"",""0"",""5293""
","""event"",""trial"",""time""
""blur"",""0"",""1434""
","""event"",""trial"",""time""
""focus"",""0"",""4073""
","""event"",""trial"",""time""
""fullscreenenter"",""0"",""5293""
","
","1389.5999999046326","run_exp/static/images/Set 6_rs/181a.jpg","78","","","","","","learn","SL",""
"","show_choice","98","123108","0.0-98.0","""event"",""trial"",""time""
""blur"",""0"",""1434""
""focus"",""0"",""4073""
""fullscreenenter"",""0"",""5293""
","""event"",""trial"",""time""
""blur"",""0"",""1434""
","""event"",""trial"",""time""
""focus"",""0"",""4073""
","""event"",""trial"",""time""
""fullscreenenter"",""0"",""5293""
","
","null","run_exp/static/images/Set 6_rs/181a.jpg","null","","","","","","learn","SL",""
"","html-keyboard-response","99","123623","0.0-99.0","""event"",""trial"",""time""
""blur"",""0"",""1434""
""focus"",""0"",""4073""
""fullscreenenter"",""0"",""5293""
","""event"",""trial"",""time""
""blur"",""0"",""1434""
","""event"",""trial"",""time""
""focus"",""0"",""4073""
","""event"",""trial"",""time""
""fullscreenenter"",""0"",""5293""
","
","null","<p></p>","null","","","","","","","",""
"","image","100","124277","0.0-100.0","""event"",""trial"",""time""
""blur"",""0"",""1434""
""focus"",""0"",""4073""
""fullscreenenter"",""0"",""5293""
","""event"",""trial"",""time""
""blur"",""0"",""1434""
","""event"",""trial"",""time""
""focus"",""0"",""4073""
","""event"",""trial"",""time""
""fullscreenenter"",""0"",""5293""
","
","652.5","run_exp/static/images/Set 6_rs/079a.jpg","86","","","","","","learn","SL",""
"","show_choice","101","125636","0.0-101.0","""event"",""trial"",""time""
""blur"",""0"",""1434""
""focus"",""0"",""4073""
""fullscreenenter"",""0"",""5293""
","""event"",""trial"",""time""
""blur"",""0"",""1434""
","""event"",""trial"",""time""
""focus"",""0"",""4073""
","""event"",""trial"",""time""
""fullscreenenter"",""0"",""5293""
","
","null","run_exp/static/images/Set 6_rs/079a.jpg","null","","","","","","learn","SL",""
"","html-keyboard-response","102","126151","0.0-102.0","""event"",""trial"",""time""
""blur"",""0"",""1434""
""focus"",""0"",""4073""
""fullscreenenter"",""0"",""5293""
","""event"",""trial"",""time""
""blur"",""0"",""1434""
","""event"",""trial"",""time""
""focus"",""0"",""4073""
","""event"",""trial"",""time""
""fullscreenenter"",""0"",""5293""
","
","null","<p></p>","null","","","","","","","",""
"","image","103","127008","0.0-103.0","""event"",""trial"",""time""
""blur"",""0"",""1434""
""focus"",""0"",""4073""
""fullscreenenter"",""0"",""5293""
","""event"",""trial"",""time""
""blur"",""0"",""1434""
","""event"",""trial"",""time""
""focus"",""0"",""4073""
","""event"",""trial"",""time""
""fullscreenenter"",""0"",""5293""
","
","856.1000000238419","run_exp/static/images/Set 6_rs/085a.jpg","78","","","","","","learn","SL",""
"","show_choice","104","128157","0.0-104.0","""event"",""trial"",""time""
""blur"",""0"",""1434""
""focus"",""0"",""4073""
""fullscreenenter"",""0"",""5293""
","""event"",""trial"",""time""
""blur"",""0"",""1434""
","""event"",""trial"",""time""
""focus"",""0"",""4073""
","""event"",""trial"",""time""
""fullscreenenter"",""0"",""5293""
","
","null","run_exp/static/images/Set 6_rs/085a.jpg","null","","","","","","learn","SL",""
"","html-keyboard-response","105","128659","0.0-105.0","""event"",""trial"",""time""
""blur"",""0"",""1434""
""focus"",""0"",""4073""
""fullscreenenter"",""0"",""5293""
","""event"",""trial"",""time""
""blur"",""0"",""1434""
","""event"",""trial"",""time""
""focus"",""0"",""4073""
","""event"",""trial"",""time""
""fullscreenenter"",""0"",""5293""
","
","null","<p></p>","null","","","","","","","",""
"","image","106","130157","0.0-106.0","""event"",""trial"",""time""
""blur"",""0"",""1434""
""focus"",""0"",""4073""
""fullscreenenter"",""0"",""5293""
","""event"",""trial"",""time""
""blur"",""0"",""1434""
","""event"",""trial"",""time""
""focus"",""0"",""4073""
","""event"",""trial"",""time""
""fullscreenenter"",""0"",""5293""
","
","1497.1999999284744","run_exp/static/images/Set 6_rs/064a.jpg","86","","","","","","learn","SR",""
"","show_choice","107","130670","0.0-107.0","""event"",""trial"",""time""
""blur"",""0"",""1434""
""focus"",""0"",""4073""
""fullscreenenter"",""0"",""5293""
","""event"",""trial"",""time""
""blur"",""0"",""1434""
","""event"",""trial"",""time""
""focus"",""0"",""4073""
","""event"",""trial"",""time""
""fullscreenenter"",""0"",""5293""
","
","null","run_exp/static/images/Set 6_rs/064a.jpg","null","","","","","","learn","SR",""
"","html-keyboard-response","108","131174","0.0-108.0","""event"",""trial"",""time""
""blur"",""0"",""1434""
""focus"",""0"",""4073""
""fullscreenenter"",""0"",""5293""
","""event"",""trial"",""time""
""blur"",""0"",""1434""
","""event"",""trial"",""time""
""focus"",""0"",""4073""
","""event"",""trial"",""time""
""fullscreenenter"",""0"",""5293""
","
","null","<p></p>","null","","","","","","","",""
"","image","109","131839","0.0-109.0","""event"",""trial"",""time""
""blur"",""0"",""1434""
""focus"",""0"",""4073""
""fullscreenenter"",""0"",""5293""
","""event"",""trial"",""time""
""blur"",""0"",""1434""
","""event"",""trial"",""time""
""focus"",""0"",""4073""
","""event"",""trial"",""time""
""fullscreenenter"",""0"",""5293""
","
","663.2999999523163","run_exp/static/images/Set 6_rs/177a.jpg","78","","","","","","learn","SR",""
"","show_choice","110","133181","0.0-110.0","""event"",""trial"",""time""
""blur"",""0"",""1434""
""focus"",""0"",""4073""
""fullscreenenter"",""0"",""5293""
","""event"",""trial"",""time""
""blur"",""0"",""1434""
","""event"",""trial"",""time""
""focus"",""0"",""4073""
","""event"",""trial"",""time""
""fullscreenenter"",""0"",""5293""
","
","null","run_exp/static/images/Set 6_rs/177a.jpg","null","","","","","","learn","SR",""
"","html-keyboard-response","111","133695","0.0-111.0","""event"",""trial"",""time""
""blur"",""0"",""1434""
""focus"",""0"",""4073""
""fullscreenenter"",""0"",""5293""
","""event"",""trial"",""time""
""blur"",""0"",""1434""
","""event"",""trial"",""time""
""focus"",""0"",""4073""
","""event"",""trial"",""time""
""fullscreenenter"",""0"",""5293""
","
","null","<p></p>","null","","","","","","","",""
"","image","112","134726","0.0-112.0","""event"",""trial"",""time""
""blur"",""0"",""1434""
""focus"",""0"",""4073""
""fullscreenenter"",""0"",""5293""
","""event"",""trial"",""time""
""blur"",""0"",""1434""
","""event"",""trial"",""time""
""focus"",""0"",""4073""
","""event"",""trial"",""time""
""fullscreenenter"",""0"",""5293""
","
","1029.7999999523163","run_exp/static/images/Set 6_rs/017a.jpg","86","","","","","","learn","SL",""
"","show_choice","113","135705","0.0-113.0","""event"",""trial"",""time""
""blur"",""0"",""1434""
""focus"",""0"",""4073""
""fullscreenenter"",""0"",""5293""
","""event"",""trial"",""time""
""blur"",""0"",""1434""
","""event"",""trial"",""time""
""focus"",""0"",""4073""
","""event"",""trial"",""time""
""fullscreenenter"",""0"",""5293""
","
","null","run_exp/static/images/Set 6_rs/017a.jpg","null","","","","","","learn","SL",""
"","html-keyboard-response","114","136220","0.0-114.0","""event"",""trial"",""time""
""blur"",""0"",""1434""
""focus"",""0"",""4073""
""fullscreenenter"",""0"",""5293""
","""event"",""trial"",""time""
""blur"",""0"",""1434""
","""event"",""trial"",""time""
""focus"",""0"",""4073""
","""event"",""trial"",""time""
""fullscreenenter"",""0"",""5293""
","
","null","<p></p>","null","","","","","","","",""
"","image","115","137606","0.0-115.0","""event"",""trial"",""time""
""blur"",""0"",""1434""
""focus"",""0"",""4073""
""fullscreenenter"",""0"",""5293""
","""event"",""trial"",""time""
""blur"",""0"",""1434""
","""event"",""trial"",""time""
""focus"",""0"",""4073""
","""event"",""trial"",""time""
""fullscreenenter"",""0"",""5293""
","
","1385.3000000715256","run_exp/static/images/Set 6_rs/061a.jpg","78","","","","","","learn","SR",""
"","show_choice","116","138235","0.0-116.0","""event"",""trial"",""time""
""blur"",""0"",""1434""
""focus"",""0"",""4073""
""fullscreenenter"",""0"",""5293""
","""event"",""trial"",""time""
""blur"",""0"",""1434""
","""event"",""trial"",""time""
""focus"",""0"",""4073""
","""event"",""trial"",""time""
""fullscreenenter"",""0"",""5293""
","
","null","run_exp/static/images/Set 6_rs/061a.jpg","null","","","","","","learn","SR",""
"","html-keyboard-response","117","138748","0.0-117.0","""event"",""trial"",""time""
""blur"",""0"",""1434""
""focus"",""0"",""4073""
""fullscreenenter"",""0"",""5293""
","""event"",""trial"",""time""
""blur"",""0"",""1434""
","""event"",""trial"",""time""
""focus"",""0"",""4073""
","""event"",""trial"",""time""
""fullscreenenter"",""0"",""5293""
","
","null","<p></p>","null","","","","","","","",""
"","image","118","140138","0.0-118.0","""event"",""trial"",""time""
""blur"",""0"",""1434""
""focus"",""0"",""4073""
""fullscreenenter"",""0"",""5293""
","""event"",""trial"",""time""
""blur"",""0"",""1434""
","""event"",""trial"",""time""
""focus"",""0"",""4073""
","""event"",""trial"",""time""
""fullscreenenter"",""0"",""5293""
","
","1388.3000000715256","run_exp/static/images/Set 6_rs/024a.jpg","86","","","","","","learn","SR",""
"","show_choice","119","140756","0.0-119.0","""event"",""trial"",""time""
""blur"",""0"",""1434""
""focus"",""0"",""4073""
""fullscreenenter"",""0"",""5293""
","""event"",""trial"",""time""
""blur"",""0"",""1434""
","""event"",""trial"",""time""
""focus"",""0"",""4073""
","""event"",""trial"",""time""
""fullscreenenter"",""0"",""5293""
","
","null","run_exp/static/images/Set 6_rs/024a.jpg","null","","","","","","learn","SR",""
"","html-keyboard-response","120","141271","0.0-120.0","""event"",""trial"",""time""
""blur"",""0"",""1434""
""focus"",""0"",""4073""
""fullscreenenter"",""0"",""5293""
","""event"",""trial"",""time""
""blur"",""0"",""1434""
","""event"",""trial"",""time""
""focus"",""0"",""4073""
","""event"",""trial"",""time""
""fullscreenenter"",""0"",""5293""
","
","null","<p></p>","null","","","","","","","",""
"","image","121","142158","0.0-121.0","""event"",""trial"",""time""
""blur"",""0"",""1434""
""focus"",""0"",""4073""
""fullscreenenter"",""0"",""5293""
","""event"",""trial"",""time""
""blur"",""0"",""1434""
","""event"",""trial"",""time""
""focus"",""0"",""4073""
","""event"",""trial"",""time""
""fullscreenenter"",""0"",""5293""
","
","886.5","run_exp/static/images/Set 6_rs/132a.jpg","78","","","","","","learn","SR",""
"","show_choice","122","143283","0.0-122.0","""event"",""trial"",""time""
""blur"",""0"",""1434""
""focus"",""0"",""4073""
""fullscreenenter"",""0"",""5293""
","""event"",""trial"",""time""
""blur"",""0"",""1434""
","""event"",""trial"",""time""
""focus"",""0"",""4073""
","""event"",""trial"",""time""
""fullscreenenter"",""0"",""5293""
","
","null","run_exp/static/images/Set 6_rs/132a.jpg","null","","","","","","learn","SR",""
"","html-keyboard-response","123","143797","0.0-123.0","""event"",""trial"",""time""
""blur"",""0"",""1434""
""focus"",""0"",""4073""
""fullscreenenter"",""0"",""5293""
","""event"",""trial"",""time""
""blur"",""0"",""1434""
","""event"",""trial"",""time""
""focus"",""0"",""4073""
","""event"",""trial"",""time""
""fullscreenenter"",""0"",""5293""
","
","null","<p></p>","null","","","","","","","",""
"","image","124","144817","0.0-124.0","""event"",""trial"",""time""
""blur"",""0"",""1434""
""focus"",""0"",""4073""
""fullscreenenter"",""0"",""5293""
","""event"",""trial"",""time""
""blur"",""0"",""1434""
","""event"",""trial"",""time""
""focus"",""0"",""4073""
","""event"",""trial"",""time""
""fullscreenenter"",""0"",""5293""
","
","1019.2000000476837","run_exp/static/images/Set 6_rs/121a.jpg","86","","","","","","learn","SR",""
"","show_choice","125","145805","0.0-125.0","""event"",""trial"",""time""
""blur"",""0"",""1434""
""focus"",""0"",""4073""
""fullscreenenter"",""0"",""5293""
","""event"",""trial"",""time""
""blur"",""0"",""1434""
","""event"",""trial"",""time""
""focus"",""0"",""4073""
","""event"",""trial"",""time""
""fullscreenenter"",""0"",""5293""
","
","null","run_exp/static/images/Set 6_rs/121a.jpg","null","","","","","","learn","SR",""
"","html-keyboard-response","126","146319","0.0-126.0","""event"",""trial"",""time""
""blur"",""0"",""1434""
""focus"",""0"",""4073""
""fullscreenenter"",""0"",""5293""
","""event"",""trial"",""time""
""blur"",""0"",""1434""
","""event"",""trial"",""time""
""focus"",""0"",""4073""
","""event"",""trial"",""time""
""fullscreenenter"",""0"",""5293""
","
","null","<p></p>","null","","","","","","","",""
"","image","127","147577","0.0-127.0","""event"",""trial"",""time""
""blur"",""0"",""1434""
""focus"",""0"",""4073""
""fullscreenenter"",""0"",""5293""
","""event"",""trial"",""time""
""blur"",""0"",""1434""
","""event"",""trial"",""time""
""focus"",""0"",""4073""
","""event"",""trial"",""time""
""fullscreenenter"",""0"",""5293""
","
","1256.5999999046326","run_exp/static/images/Set 6_rs/191a.jpg","78","","","","","","learn","SL",""
"","show_choice","128","148331","0.0-128.0","""event"",""trial"",""time""
""blur"",""0"",""1434""
""focus"",""0"",""4073""
""fullscreenenter"",""0"",""5293""
","""event"",""trial"",""time""
""blur"",""0"",""1434""
","""event"",""trial"",""time""
""focus"",""0"",""4073""
","""event"",""trial"",""time""
""fullscreenenter"",""0"",""5293""
","
","null","run_exp/static/images/Set 6_rs/191a.jpg","null","","","","","","learn","SL",""
"","html-keyboard-response","129","148846","0.0-129.0","""event"",""trial"",""time""
""blur"",""0"",""1434""
""focus"",""0"",""4073""
""fullscreenenter"",""0"",""5293""
","""event"",""trial"",""time""
""blur"",""0"",""1434""
","""event"",""trial"",""time""
""focus"",""0"",""4073""
","""event"",""trial"",""time""
""fullscreenenter"",""0"",""5293""
","
","null","<p></p>","null","","","","","","","",""
"","image","130","149696","0.0-130.0","""event"",""trial"",""time""
""blur"",""0"",""1434""
""focus"",""0"",""4073""
""fullscreenenter"",""0"",""5293""
","""event"",""trial"",""time""
""blur"",""0"",""1434""
","""event"",""trial"",""time""
""focus"",""0"",""4073""
","""event"",""trial"",""time""
""fullscreenenter"",""0"",""5293""
","
","849.3000000715256","run_exp/static/images/Set 6_rs/070a.jpg","86","","","","","","learn","SR",""
"","show_choice","131","150861","0.0-131.0","""event"",""trial"",""time""
""blur"",""0"",""1434""
""focus"",""0"",""4073""
""fullscreenenter"",""0"",""5293""
","""event"",""trial"",""time""
""blur"",""0"",""1434""
","""event"",""trial"",""time""
""focus"",""0"",""4073""
","""event"",""trial"",""time""
""fullscreenenter"",""0"",""5293""
","
","null","run_exp/static/images/Set 6_rs/070a.jpg","null","","","","","","learn","SR",""
"","html-keyboard-response","132","151373","0.0-132.0","""event"",""trial"",""time""
""blur"",""0"",""1434""
""focus"",""0"",""4073""
""fullscreenenter"",""0"",""5293""
","""event"",""trial"",""time""
""blur"",""0"",""1434""
","""event"",""trial"",""time""
""focus"",""0"",""4073""
","""event"",""trial"",""time""
""fullscreenenter"",""0"",""5293""
","
","null","<p></p>","null","","","","","","","",""
"","image","133","152157","0.0-133.0","""event"",""trial"",""time""
""blur"",""0"",""1434""
""focus"",""0"",""4073""
""fullscreenenter"",""0"",""5293""
","""event"",""trial"",""time""
""blur"",""0"",""1434""
","""event"",""trial"",""time""
""focus"",""0"",""4073""
","""event"",""trial"",""time""
""fullscreenenter"",""0"",""5293""
","
","782.7999999523163","run_exp/static/images/Set 6_rs/025a.jpg","78","","","","","","learn","SL",""
"","show_choice","134","153381","0.0-134.0","""event"",""trial"",""time""
""blur"",""0"",""1434""
""focus"",""0"",""4073""
""fullscreenenter"",""0"",""5293""
","""event"",""trial"",""time""
""blur"",""0"",""1434""
","""event"",""trial"",""time""
""focus"",""0"",""4073""
","""event"",""trial"",""time""
""fullscreenenter"",""0"",""5293""
","
","null","run_exp/static/images/Set 6_rs/025a.jpg","null","","","","","","learn","SL",""
"","html-keyboard-response","135","153894","0.0-135.0","""event"",""trial"",""time""
""blur"",""0"",""1434""
""focus"",""0"",""4073""
""fullscreenenter"",""0"",""5293""
","""event"",""trial"",""time""
""blur"",""0"",""1434""
","""event"",""trial"",""time""
""focus"",""0"",""4073""
","""event"",""trial"",""time""
""fullscreenenter"",""0"",""5293""
","
","null","<p></p>","null","","","","","","","",""
"","image","136","154699","0.0-136.0","""event"",""trial"",""time""
""blur"",""0"",""1434""
""focus"",""0"",""4073""
""fullscreenenter"",""0"",""5293""
","""event"",""trial"",""time""
""blur"",""0"",""1434""
","""event"",""trial"",""time""
""focus"",""0"",""4073""
","""event"",""trial"",""time""
""fullscreenenter"",""0"",""5293""
","
","804.1000000238419","run_exp/static/images/Set 6_rs/089a.jpg","86","","","","","","learn","SL",""
"","show_choice","137","155900","0.0-137.0","""event"",""trial"",""time""
""blur"",""0"",""1434""
""focus"",""0"",""4073""
""fullscreenenter"",""0"",""5293""
","""event"",""trial"",""time""
""blur"",""0"",""1434""
","""event"",""trial"",""time""
""focus"",""0"",""4073""
","""event"",""trial"",""time""
""fullscreenenter"",""0"",""5293""
","
","null","run_exp/static/images/Set 6_rs/089a.jpg","null","","","","","","learn","SL",""
"","html-keyboard-response","138","156412","0.0-138.0","""event"",""trial"",""time""
""blur"",""0"",""1434""
""focus"",""0"",""4073""
""fullscreenenter"",""0"",""5293""
","""event"",""trial"",""time""
""blur"",""0"",""1434""
","""event"",""trial"",""time""
""focus"",""0"",""4073""
","""event"",""trial"",""time""
""fullscreenenter"",""0"",""5293""
","
","null","<p></p>","null","","","","","","","",""
"","image","139","157397","0.0-139.0","""event"",""trial"",""time""
""blur"",""0"",""1434""
""focus"",""0"",""4073""
""fullscreenenter"",""0"",""5293""
","""event"",""trial"",""time""
""blur"",""0"",""1434""
","""event"",""trial"",""time""
""focus"",""0"",""4073""
","""event"",""trial"",""time""
""fullscreenenter"",""0"",""5293""
","
","983.3999999761581","run_exp/static/images/Set 6_rs/131a.jpg","86","","","","","","learn","SR",""
"","show_choice","140","158415","0.0-140.0","""event"",""trial"",""time""
""blur"",""0"",""1434""
""focus"",""0"",""4073""
""fullscreenenter"",""0"",""5293""
","""event"",""trial"",""time""
""blur"",""0"",""1434""
","""event"",""trial"",""time""
""focus"",""0"",""4073""
","""event"",""trial"",""time""
""fullscreenenter"",""0"",""5293""
","
","null","run_exp/static/images/Set 6_rs/131a.jpg","null","","","","","","learn","SR",""
"","html-keyboard-response","141","158929","0.0-141.0","""event"",""trial"",""time""
""blur"",""0"",""1434""
""focus"",""0"",""4073""
""fullscreenenter"",""0"",""5293""
","""event"",""trial"",""time""
""blur"",""0"",""1434""
","""event"",""trial"",""time""
""focus"",""0"",""4073""
","""event"",""trial"",""time""
""fullscreenenter"",""0"",""5293""
","
","null","<p></p>","null","","","","","","","",""
"","image","142","160676","0.0-142.0","""event"",""trial"",""time""
""blur"",""0"",""1434""
""focus"",""0"",""4073""
""fullscreenenter"",""0"",""5293""
","""event"",""trial"",""time""
""blur"",""0"",""1434""
","""event"",""trial"",""time""
""focus"",""0"",""4073""
","""event"",""trial"",""time""
""fullscreenenter"",""0"",""5293""
","
","1746.3999999761581","run_exp/static/images/Set 6_rs/057a.jpg","86","","","","","","learn","SL",""
"","show_choice","143","160940","0.0-143.0","""event"",""trial"",""time""
""blur"",""0"",""1434""
""focus"",""0"",""4073""
""fullscreenenter"",""0"",""5293""
","""event"",""trial"",""time""
""blur"",""0"",""1434""
","""event"",""trial"",""time""
""focus"",""0"",""4073""
","""event"",""trial"",""time""
""fullscreenenter"",""0"",""5293""
","
","null","run_exp/static/images/Set 6_rs/057a.jpg","null","","","","","","learn","SL",""
"","html-keyboard-response","144","161455","0.0-144.0","""event"",""trial"",""time""
""blur"",""0"",""1434""
""focus"",""0"",""4073""
""fullscreenenter"",""0"",""5293""
","""event"",""trial"",""time""
""blur"",""0"",""1434""
","""event"",""trial"",""time""
""focus"",""0"",""4073""
","""event"",""trial"",""time""
""fullscreenenter"",""0"",""5293""
","
","null","<p></p>","null","","","","","","","",""
"","image","145","163267","0.0-145.0","""event"",""trial"",""time""
""blur"",""0"",""1434""
""focus"",""0"",""4073""
""fullscreenenter"",""0"",""5293""
","""event"",""trial"",""time""
""blur"",""0"",""1434""
","""event"",""trial"",""time""
""focus"",""0"",""4073""
","""event"",""trial"",""time""
""fullscreenenter"",""0"",""5293""
","
","1810.7999999523163","run_exp/static/images/Set 6_rs/066a.jpg","86","","","","","","learn","SL",""
"","show_choice","146","163464","0.0-146.0","""event"",""trial"",""time""
""blur"",""0"",""1434""
""focus"",""0"",""4073""
""fullscreenenter"",""0"",""5293""
","""event"",""trial"",""time""
""blur"",""0"",""1434""
","""event"",""trial"",""time""
""focus"",""0"",""4073""
","""event"",""trial"",""time""
""fullscreenenter"",""0"",""5293""
","
","null","run_exp/static/images/Set 6_rs/066a.jpg","null","","","","","","learn","SL",""
"","html-keyboard-response","147","163977","0.0-147.0","""event"",""trial"",""time""
""blur"",""0"",""1434""
""focus"",""0"",""4073""
""fullscreenenter"",""0"",""5293""
","""event"",""trial"",""time""
""blur"",""0"",""1434""
","""event"",""trial"",""time""
""focus"",""0"",""4073""
","""event"",""trial"",""time""
""fullscreenenter"",""0"",""5293""
","
","null","<p></p>","null","","","","","","","",""
"","image","148","165982","0.0-148.0","""event"",""trial"",""time""
""blur"",""0"",""1434""
""focus"",""0"",""4073""
""fullscreenenter"",""0"",""5293""
","""event"",""trial"",""time""
""blur"",""0"",""1434""
","""event"",""trial"",""time""
""focus"",""0"",""4073""
","""event"",""trial"",""time""
""fullscreenenter"",""0"",""5293""
","
","null","run_exp/static/images/Set 6_rs/134a.jpg","null","","","","","","learn","SR",""
"","show_choice","149","167993","0.0-149.0","""event"",""trial"",""time""
""blur"",""0"",""1434""
""focus"",""0"",""4073""
""fullscreenenter"",""0"",""5293""
","""event"",""trial"",""time""
""blur"",""0"",""1434""
","""event"",""trial"",""time""
""focus"",""0"",""4073""
","""event"",""trial"",""time""
""fullscreenenter"",""0"",""5293""
","
","null","run_exp/static/images/blank.png","null","","","","","","learn","SR",""
"","html-keyboard-response","150","168506","0.0-150.0","""event"",""trial"",""time""
""blur"",""0"",""1434""
""focus"",""0"",""4073""
""fullscreenenter"",""0"",""5293""
","""event"",""trial"",""time""
""blur"",""0"",""1434""
","""event"",""trial"",""time""
""focus"",""0"",""4073""
","""event"",""trial"",""time""
""fullscreenenter"",""0"",""5293""
","
","null","<p></p>","null","","","","","","","",""
"","image","151","169637","0.0-151.0","""event"",""trial"",""time""
""blur"",""0"",""1434""
""focus"",""0"",""4073""
""fullscreenenter"",""0"",""5293""
","""event"",""trial"",""time""
""blur"",""0"",""1434""
","""event"",""trial"",""time""
""focus"",""0"",""4073""
","""event"",""trial"",""time""
""fullscreenenter"",""0"",""5293""
","
","1129.6999999284744","run_exp/static/images/Set 6_rs/036a.jpg","86","","","","","","learn","SL",""
"","show_choice","152","170515","0.0-152.0","""event"",""trial"",""time""
""blur"",""0"",""1434""
""focus"",""0"",""4073""
""fullscreenenter"",""0"",""5293""
","""event"",""trial"",""time""
""blur"",""0"",""1434""
","""event"",""trial"",""time""
""focus"",""0"",""4073""
","""event"",""trial"",""time""
""fullscreenenter"",""0"",""5293""
","
","null","run_exp/static/images/Set 6_rs/036a.jpg","null","","","","","","learn","SL",""
"","html-keyboard-response","153","171028","0.0-153.0","""event"",""trial"",""time""
""blur"",""0"",""1434""
""focus"",""0"",""4073""
""fullscreenenter"",""0"",""5293""
","""event"",""trial"",""time""
""blur"",""0"",""1434""
","""event"",""trial"",""time""
""focus"",""0"",""4073""
","""event"",""trial"",""time""
""fullscreenenter"",""0"",""5293""
","
","null","<p></p>","null","","","","","","","",""
"","image","154","172156","0.0-154.0","""event"",""trial"",""time""
""blur"",""0"",""1434""
""focus"",""0"",""4073""
""fullscreenenter"",""0"",""5293""
","""event"",""trial"",""time""
""blur"",""0"",""1434""
","""event"",""trial"",""time""
""focus"",""0"",""4073""
","""event"",""trial"",""time""
""fullscreenenter"",""0"",""5293""
","
","1127.6000000238419","run_exp/static/images/Set 6_rs/117a.jpg","78","","","","","","learn","SL",""
"","show_choice","155","173042","0.0-155.0","""event"",""trial"",""time""
""blur"",""0"",""1434""
""focus"",""0"",""4073""
""fullscreenenter"",""0"",""5293""
","""event"",""trial"",""time""
""blur"",""0"",""1434""
","""event"",""trial"",""time""
""focus"",""0"",""4073""
","""event"",""trial"",""time""
""fullscreenenter"",""0"",""5293""
","
","null","run_exp/static/images/Set 6_rs/117a.jpg","null","","","","","","learn","SL",""
"","html-keyboard-response","156","173555","0.0-156.0","""event"",""trial"",""time""
""blur"",""0"",""1434""
""focus"",""0"",""4073""
""fullscreenenter"",""0"",""5293""
","""event"",""trial"",""time""
""blur"",""0"",""1434""
","""event"",""trial"",""time""
""focus"",""0"",""4073""
","""event"",""trial"",""time""
""fullscreenenter"",""0"",""5293""
","
","null","<p></p>","null","","","","","","","",""
"","image","157","175146","0.0-157.0","""event"",""trial"",""time""
""blur"",""0"",""1434""
""focus"",""0"",""4073""
""fullscreenenter"",""0"",""5293""
","""event"",""trial"",""time""
""blur"",""0"",""1434""
","""event"",""trial"",""time""
""focus"",""0"",""4073""
","""event"",""trial"",""time""
""fullscreenenter"",""0"",""5293""
","
","1589.9000000953674","run_exp/static/images/Set 6_rs/129a.jpg","86","","","","","","learn","SL",""
"","show_choice","158","175564","0.0-158.0","""event"",""trial"",""time""
""blur"",""0"",""1434""
""focus"",""0"",""4073""
""fullscreenenter"",""0"",""5293""
","""event"",""trial"",""time""
""blur"",""0"",""1434""
","""event"",""trial"",""time""
""focus"",""0"",""4073""
","""event"",""trial"",""time""
""fullscreenenter"",""0"",""5293""
","
","null","run_exp/static/images/Set 6_rs/129a.jpg","null","","","","","","learn","SL",""
"","html-keyboard-response","159","176078","0.0-159.0","""event"",""trial"",""time""
""blur"",""0"",""1434""
""focus"",""0"",""4073""
""fullscreenenter"",""0"",""5293""
","""event"",""trial"",""time""
""blur"",""0"",""1434""
","""event"",""trial"",""time""
""focus"",""0"",""4073""
","""event"",""trial"",""time""
""fullscreenenter"",""0"",""5293""
","
","null","<p></p>","null","","","","","","","",""
"","image","160","178091","0.0-160.0","""event"",""trial"",""time""
""blur"",""0"",""1434""
""focus"",""0"",""4073""
""fullscreenenter"",""0"",""5293""
","""event"",""trial"",""time""
""blur"",""0"",""1434""
","""event"",""trial"",""time""
""focus"",""0"",""4073""
","""event"",""trial"",""time""
""fullscreenenter"",""0"",""5293""
","
","null","run_exp/static/images/Set 6_rs/008a.jpg","null","","","","","","learn","SL",""
"","show_choice","161","180101","0.0-161.0","""event"",""trial"",""time""
""blur"",""0"",""1434""
""focus"",""0"",""4073""
""fullscreenenter"",""0"",""5293""
","""event"",""trial"",""time""
""blur"",""0"",""1434""
","""event"",""trial"",""time""
""focus"",""0"",""4073""
","""event"",""trial"",""time""
""fullscreenenter"",""0"",""5293""
","
","null","run_exp/static/images/blank.png","null","","","","","","learn","SL",""
"","html-keyboard-response","162","180615","0.0-162.0","""event"",""trial"",""time""
""blur"",""0"",""1434""
""focus"",""0"",""4073""
""fullscreenenter"",""0"",""5293""
","""event"",""trial"",""time""
""blur"",""0"",""1434""
","""event"",""trial"",""time""
""focus"",""0"",""4073""
","""event"",""trial"",""time""
""fullscreenenter"",""0"",""5293""
","
","null","<p></p>","null","","","","","","","",""
"","image","163","181286","0.0-163.0","""event"",""trial"",""time""
""blur"",""0"",""1434""
""focus"",""0"",""4073""
""fullscreenenter"",""0"",""5293""
","""event"",""trial"",""time""
""blur"",""0"",""1434""
","""event"",""trial"",""time""
""focus"",""0"",""4073""
","""event"",""trial"",""time""
""fullscreenenter"",""0"",""5293""
","
","669.6000000238419","run_exp/static/images/Set 6_rs/154a.jpg","86","","","","","","learn","SR",""
"","show_choice","164","182619","0.0-164.0","""event"",""trial"",""time""
""blur"",""0"",""1434""
""focus"",""0"",""4073""
""fullscreenenter"",""0"",""5293""
","""event"",""trial"",""time""
""blur"",""0"",""1434""
","""event"",""trial"",""time""
""focus"",""0"",""4073""
","""event"",""trial"",""time""
""fullscreenenter"",""0"",""5293""
","
","null","run_exp/static/images/Set 6_rs/154a.jpg","null","","","","","","learn","SR",""
"","html-keyboard-response","165","183135","0.0-165.0","""event"",""trial"",""time""
""blur"",""0"",""1434""
""focus"",""0"",""4073""
""fullscreenenter"",""0"",""5293""
","""event"",""trial"",""time""
""blur"",""0"",""1434""
","""event"",""trial"",""time""
""focus"",""0"",""4073""
","""event"",""trial"",""time""
""fullscreenenter"",""0"",""5293""
","
","null","<p></p>","null","","","","","","","",""
"","image","166","183767","0.0-166.0","""event"",""trial"",""time""
""blur"",""0"",""1434""
""focus"",""0"",""4073""
""fullscreenenter"",""0"",""5293""
","""event"",""trial"",""time""
""blur"",""0"",""1434""
","""event"",""trial"",""time""
""focus"",""0"",""4073""
","""event"",""trial"",""time""
""fullscreenenter"",""0"",""5293""
","
","631.0999999046326","run_exp/static/images/Set 6_rs/074a.jpg","78","","","","","","learn","SL",""
"","show_choice","167","185146","0.0-167.0","""event"",""trial"",""time""
""blur"",""0"",""1434""
""focus"",""0"",""4073""
""fullscreenenter"",""0"",""5293""
","""event"",""trial"",""time""
""blur"",""0"",""1434""
","""event"",""trial"",""time""
""focus"",""0"",""4073""
","""event"",""trial"",""time""
""fullscreenenter"",""0"",""5293""
","
","null","run_exp/static/images/Set 6_rs/074a.jpg","null","","","","","","learn","SL",""
"","html-keyboard-response","168","185661","0.0-168.0","""event"",""trial"",""time""
""blur"",""0"",""1434""
""focus"",""0"",""4073""
""fullscreenenter"",""0"",""5293""
","""event"",""trial"",""time""
""blur"",""0"",""1434""
","""event"",""trial"",""time""
""focus"",""0"",""4073""
","""event"",""trial"",""time""
""fullscreenenter"",""0"",""5293""
","
","null","<p></p>","null","","","","","","","",""
"","image","169","186956","0.0-169.0","""event"",""trial"",""time""
""blur"",""0"",""1434""
""focus"",""0"",""4073""
""fullscreenenter"",""0"",""5293""
","""event"",""trial"",""time""
""blur"",""0"",""1434""
","""event"",""trial"",""time""
""focus"",""0"",""4073""
","""event"",""trial"",""time""
""fullscreenenter"",""0"",""5293""
","
","1293.5","run_exp/static/images/Set 6_rs/019a.jpg","86","","","","","","learn","SL",""
"","show_choice","170","187666","0.0-170.0","""event"",""trial"",""time""
""blur"",""0"",""1434""
""focus"",""0"",""4073""
""fullscreenenter"",""0"",""5293""
","""event"",""trial"",""time""
""blur"",""0"",""1434""
","""event"",""trial"",""time""
""focus"",""0"",""4073""
","""event"",""trial"",""time""
""fullscreenenter"",""0"",""5293""
","
","null","run_exp/static/images/Set 6_rs/019a.jpg","null","","","","","","learn","SL",""
"","html-keyboard-response","171","188182","0.0-171.0","""event"",""trial"",""time""
""blur"",""0"",""1434""
""focus"",""0"",""4073""
""fullscreenenter"",""0"",""5293""
","""event"",""trial"",""time""
""blur"",""0"",""1434""
","""event"",""trial"",""time""
""focus"",""0"",""4073""
","""event"",""trial"",""time""
""fullscreenenter"",""0"",""5293""
","
","null","<p></p>","null","","","","","","","",""
"","image","172","189058","0.0-172.0","""event"",""trial"",""time""
""blur"",""0"",""1434""
""focus"",""0"",""4073""
""fullscreenenter"",""0"",""5293""
","""event"",""trial"",""time""
""blur"",""0"",""1434""
","""event"",""trial"",""time""
""focus"",""0"",""4073""
","""event"",""trial"",""time""
""fullscreenenter"",""0"",""5293""
","
","874.8000000715256","run_exp/static/images/Set 6_rs/150a.jpg","86","","","","","","learn","SR",""
"","show_choice","173","190191","0.0-173.0","""event"",""trial"",""time""
""blur"",""0"",""1434""
""focus"",""0"",""4073""
""fullscreenenter"",""0"",""5293""
","""event"",""trial"",""time""
""blur"",""0"",""1434""
","""event"",""trial"",""time""
""focus"",""0"",""4073""
","""event"",""trial"",""time""
""fullscreenenter"",""0"",""5293""
","
","null","run_exp/static/images/Set 6_rs/150a.jpg","null","","","","","","learn","SR",""
"","html-keyboard-response","174","190706","0.0-174.0","""event"",""trial"",""time""
""blur"",""0"",""1434""
""focus"",""0"",""4073""
""fullscreenenter"",""0"",""5293""
","""event"",""trial"",""time""
""blur"",""0"",""1434""
","""event"",""trial"",""time""
""focus"",""0"",""4073""
","""event"",""trial"",""time""
""fullscreenenter"",""0"",""5293""
","
","null","<p></p>","null","","","","","","","",""
"","image","175","191516","0.0-175.0","""event"",""trial"",""time""
""blur"",""0"",""1434""
""focus"",""0"",""4073""
""fullscreenenter"",""0"",""5293""
","""event"",""trial"",""time""
""blur"",""0"",""1434""
","""event"",""trial"",""time""
""focus"",""0"",""4073""
","""event"",""trial"",""time""
""fullscreenenter"",""0"",""5293""
","
","809.3000000715256","run_exp/static/images/Set 6_rs/006a.jpg","78","","","","","","learn","SL",""
"","show_choice","176","192718","0.0-176.0","""event"",""trial"",""time""
""blur"",""0"",""1434""
""focus"",""0"",""4073""
""fullscreenenter"",""0"",""5293""
","""event"",""trial"",""time""
""blur"",""0"",""1434""
","""event"",""trial"",""time""
""focus"",""0"",""4073""
","""event"",""trial"",""time""
""fullscreenenter"",""0"",""5293""
","
","null","run_exp/static/images/Set 6_rs/006a.jpg","null","","","","","","learn","SL",""
"","html-keyboard-response","177","193219","0.0-177.0","""event"",""trial"",""time""
""blur"",""0"",""1434""
""focus"",""0"",""4073""
""fullscreenenter"",""0"",""5293""
","""event"",""trial"",""time""
""blur"",""0"",""1434""
","""event"",""trial"",""time""
""focus"",""0"",""4073""
","""event"",""trial"",""time""
""fullscreenenter"",""0"",""5293""
","
","null","<p></p>","null","","","","","","","",""
"","image","178","194046","0.0-178.0","""event"",""trial"",""time""
""blur"",""0"",""1434""
""focus"",""0"",""4073""
""fullscreenenter"",""0"",""5293""
","""event"",""trial"",""time""
""blur"",""0"",""1434""
","""event"",""trial"",""time""
""focus"",""0"",""4073""
","""event"",""trial"",""time""
""fullscreenenter"",""0"",""5293""
","
","825.5","run_exp/static/images/Set 6_rs/063a.jpg","86","","","","","","learn","SR",""
"","show_choice","179","195229","0.0-179.0","""event"",""trial"",""time""
""blur"",""0"",""1434""
""focus"",""0"",""4073""
""fullscreenenter"",""0"",""5293""
","""event"",""trial"",""time""
""blur"",""0"",""1434""
","""event"",""trial"",""time""
""focus"",""0"",""4073""
","""event"",""trial"",""time""
""fullscreenenter"",""0"",""5293""
","
","null","run_exp/static/images/Set 6_rs/063a.jpg","null","","","","","","learn","SR",""
"","html-keyboard-response","180","195742","0.0-180.0","""event"",""trial"",""time""
""blur"",""0"",""1434""
""focus"",""0"",""4073""
""fullscreenenter"",""0"",""5293""
","""event"",""trial"",""time""
""blur"",""0"",""1434""
","""event"",""trial"",""time""
""focus"",""0"",""4073""
","""event"",""trial"",""time""
""fullscreenenter"",""0"",""5293""
","
","null","<p></p>","null","","","","","","","",""
"","image","181","196406","0.0-181.0","""event"",""trial"",""time""
""blur"",""0"",""1434""
""focus"",""0"",""4073""
""fullscreenenter"",""0"",""5293""
","""event"",""trial"",""time""
""blur"",""0"",""1434""
","""event"",""trial"",""time""
""focus"",""0"",""4073""
","""event"",""trial"",""time""
""fullscreenenter"",""0"",""5293""
","
","662.8999999761581","run_exp/static/images/Set 6_rs/010a.jpg","86","","","","","","learn","SR",""
"","show_choice","182","197751","0.0-182.0","""event"",""trial"",""time""
""blur"",""0"",""1434""
""focus"",""0"",""4073""
""fullscreenenter"",""0"",""5293""
","""event"",""trial"",""time""
""blur"",""0"",""1434""
","""event"",""trial"",""time""
""focus"",""0"",""4073""
","""event"",""trial"",""time""
""fullscreenenter"",""0"",""5293""
","
","null","run_exp/static/images/Set 6_rs/010a.jpg","null","","","","","","learn","SR",""
"","html-keyboard-response","183","198266","0.0-183.0","""event"",""trial"",""time""
""blur"",""0"",""1434""
""focus"",""0"",""4073""
""fullscreenenter"",""0"",""5293""
","""event"",""trial"",""time""
""blur"",""0"",""1434""
","""event"",""trial"",""time""
""focus"",""0"",""4073""
","""event"",""trial"",""time""
""fullscreenenter"",""0"",""5293""
","
","null","<p></p>","null","","","","","","","",""
"","image","184","199178","0.0-184.0","""event"",""trial"",""time""
""blur"",""0"",""1434""
""focus"",""0"",""4073""
""fullscreenenter"",""0"",""5293""
","""event"",""trial"",""time""
""blur"",""0"",""1434""
","""event"",""trial"",""time""
""focus"",""0"",""4073""
","""event"",""trial"",""time""
""fullscreenenter"",""0"",""5293""
","
","910.6000000238419","run_exp/static/images/Set 6_rs/126a.jpg","78","","","","","","learn","SR",""
"","show_choice","185","200273","0.0-185.0","""event"",""trial"",""time""
""blur"",""0"",""1434""
""focus"",""0"",""4073""
""fullscreenenter"",""0"",""5293""
","""event"",""trial"",""time""
""blur"",""0"",""1434""
","""event"",""trial"",""time""
""focus"",""0"",""4073""
","""event"",""trial"",""time""
""fullscreenenter"",""0"",""5293""
","
","null","run_exp/static/images/Set 6_rs/126a.jpg","null","","","","","","learn","SR",""
"","html-keyboard-response","186","200788","0.0-186.0","""event"",""trial"",""time""
""blur"",""0"",""1434""
""focus"",""0"",""4073""
""fullscreenenter"",""0"",""5293""
","""event"",""trial"",""time""
""blur"",""0"",""1434""
","""event"",""trial"",""time""
""focus"",""0"",""4073""
","""event"",""trial"",""time""
""fullscreenenter"",""0"",""5293""
","
","null","<p></p>","null","","","","","","","",""
"","image","187","201956","0.0-187.0","""event"",""trial"",""time""
""blur"",""0"",""1434""
""focus"",""0"",""4073""
""fullscreenenter"",""0"",""5293""
","""event"",""trial"",""time""
""blur"",""0"",""1434""
","""event"",""trial"",""time""
""focus"",""0"",""4073""
","""event"",""trial"",""time""
""fullscreenenter"",""0"",""5293""
","
","1166.9000000953674","run_exp/static/images/Set 6_rs/062a.jpg","78","","","","","","learn","SL",""
"","show_choice","188","202799","0.0-188.0","""event"",""trial"",""time""
""blur"",""0"",""1434""
""focus"",""0"",""4073""
""fullscreenenter"",""0"",""5293""
","""event"",""trial"",""time""
""blur"",""0"",""1434""
","""event"",""trial"",""time""
""focus"",""0"",""4073""
","""event"",""trial"",""time""
""fullscreenenter"",""0"",""5293""
","
","null","run_exp/static/images/Set 6_rs/062a.jpg","null","","","","","","learn","SL",""
"","html-keyboard-response","189","203313","0.0-189.0","""event"",""trial"",""time""
""blur"",""0"",""1434""
""focus"",""0"",""4073""
""fullscreenenter"",""0"",""5293""
","""event"",""trial"",""time""
""blur"",""0"",""1434""
","""event"",""trial"",""time""
""focus"",""0"",""4073""
","""event"",""trial"",""time""
""fullscreenenter"",""0"",""5293""
","
","null","<p></p>","null","","","","","","","",""
"","image","190","204927","0.0-190.0","""event"",""trial"",""time""
""blur"",""0"",""1434""
""focus"",""0"",""4073""
""fullscreenenter"",""0"",""5293""
","""event"",""trial"",""time""
""blur"",""0"",""1434""
","""event"",""trial"",""time""
""focus"",""0"",""4073""
","""event"",""trial"",""time""
""fullscreenenter"",""0"",""5293""
","
","1612.3999999761581","run_exp/static/images/Set 6_rs/168a.jpg","78","","","","","","learn","SL",""
"","show_choice","191","205320","0.0-191.0","""event"",""trial"",""time""
""blur"",""0"",""1434""
""focus"",""0"",""4073""
""fullscreenenter"",""0"",""5293""
","""event"",""trial"",""time""
""blur"",""0"",""1434""
","""event"",""trial"",""time""
""focus"",""0"",""4073""
","""event"",""trial"",""time""
""fullscreenenter"",""0"",""5293""
","
","null","run_exp/static/images/Set 6_rs/168a.jpg","null","","","","","","learn","SL",""
"","html-keyboard-response","192","205831","0.0-192.0","""event"",""trial"",""time""
""blur"",""0"",""1434""
""focus"",""0"",""4073""
""fullscreenenter"",""0"",""5293""
","""event"",""trial"",""time""
""blur"",""0"",""1434""
","""event"",""trial"",""time""
""focus"",""0"",""4073""
","""event"",""trial"",""time""
""fullscreenenter"",""0"",""5293""
","
","null","<p></p>","null","","","","","","","",""
"","image","193","207396","0.0-193.0","""event"",""trial"",""time""
""blur"",""0"",""1434""
""focus"",""0"",""4073""
""fullscreenenter"",""0"",""5293""
","""event"",""trial"",""time""
""blur"",""0"",""1434""
","""event"",""trial"",""time""
""focus"",""0"",""4073""
","""event"",""trial"",""time""
""fullscreenenter"",""0"",""5293""
","
","1564.1000000238419","run_exp/static/images/Set 6_rs/116a.jpg","86","","","","","","learn","SL",""
"","show_choice","194","207842","0.0-194.0","""event"",""trial"",""time""
""blur"",""0"",""1434""
""focus"",""0"",""4073""
""fullscreenenter"",""0"",""5293""
","""event"",""trial"",""time""
""blur"",""0"",""1434""
","""event"",""trial"",""time""
""focus"",""0"",""4073""
","""event"",""trial"",""time""
""fullscreenenter"",""0"",""5293""
","
","null","run_exp/static/images/Set 6_rs/116a.jpg","null","","","","","","learn","SL",""
"","html-keyboard-response","195","208350","0.0-195.0","""event"",""trial"",""time""
""blur"",""0"",""1434""
""focus"",""0"",""4073""
""fullscreenenter"",""0"",""5293""
","""event"",""trial"",""time""
""blur"",""0"",""1434""
","""event"",""trial"",""time""
""focus"",""0"",""4073""
","""event"",""trial"",""time""
""fullscreenenter"",""0"",""5293""
","
","null","<p></p>","null","","","","","","","",""
"","test_intro","196","245454","0.0-196.0","""event"",""trial"",""time""
""blur"",""0"",""1434""
""focus"",""0"",""4073""
""fullscreenenter"",""0"",""5293""
","""event"",""trial"",""time""
""blur"",""0"",""1434""
","""event"",""trial"",""time""
""focus"",""0"",""4073""
","""event"",""trial"",""time""
""fullscreenenter"",""0"",""5293""
","
","null","run_exp/static/audio/clip_2_memory.m4a","null","","","","","<div class='center'><p>Now, lets see how much you remember about the items you just saw.  For each item, you need to indicate if it was <b>old</b> by pressing the <b>v</b> key, <b>similar</b> by pressing the <b>b</b> key, or <b>new</b> by pressing the <b>n</b> key.</p><p>Old refers to an item that you saw before in the indoor/outdoor game that you just played, new refers to an item you have <b>not</b> seen before within the indoor/outdoor game, and similar refers to an item that is similar to an item youve seen before but is not exactly the same. </p><p>Before we begin, lets go over some brief demonstrations to make sure you understand.</p></div>","","",""
"","html-keyboard-response","197","247078","0.0-197.0","""event"",""trial"",""time""
""blur"",""0"",""1434""
""focus"",""0"",""4073""
""fullscreenenter"",""0"",""5293""
","""event"",""trial"",""time""
""blur"",""0"",""1434""
","""event"",""trial"",""time""
""focus"",""0"",""4073""
","""event"",""trial"",""time""
""fullscreenenter"",""0"",""5293""
","
","1622.6000000238419","<div class='center'><p>Now, lets see how much you remember about the items you just saw.  For each item, you need to indicate if it was <b>old</b> by pressing the <b>v</b> key, <b>similar</b> by pressing the <b>b</b> key, or <b>new</b> by pressing the <b>n</b> key.</p><p>Old refers to an item that you saw before in the indoor/outdoor game that you just played, new refers to an item you have <b>not</b> seen before within the indoor/outdoor game, and similar refers to an item that is similar to an item youve seen before but is not exactly the same. </p><p>Before we begin, lets go over some brief demonstrations to make sure you understand.</p><div><p><b>[Press the space bar to continue]</b></p></div>","32","","","","","","","",""
"","items","198","254580","0.0-198.0","""event"",""trial"",""time""
""blur"",""0"",""1434""
""focus"",""0"",""4073""
""fullscreenenter"",""0"",""5293""
","""event"",""trial"",""time""
""blur"",""0"",""1434""
","""event"",""trial"",""time""
""focus"",""0"",""4073""
","""event"",""trial"",""time""
""fullscreenenter"",""0"",""5293""
","
","null","run_exp/static/audio/clip_3_items.m4a","null","","","","","","","",""
"","mop","199","259095","0.0-199.0","""event"",""trial"",""time""
""blur"",""0"",""1434""
""focus"",""0"",""4073""
""fullscreenenter"",""0"",""5293""
","""event"",""trial"",""time""
""blur"",""0"",""1434""
","""event"",""trial"",""time""
""focus"",""0"",""4073""
","""event"",""trial"",""time""
""fullscreenenter"",""0"",""5293""
","
","null","run_exp/static/audio/clip_4_mop.m4a","null","","","","","","","",""
"","baseball","200","262609","0.0-200.0","""event"",""trial"",""time""
""blur"",""0"",""1434""
""focus"",""0"",""4073""
""fullscreenenter"",""0"",""5293""
","""event"",""trial"",""time""
""blur"",""0"",""1434""
","""event"",""trial"",""time""
""focus"",""0"",""4073""
","""event"",""trial"",""time""
""fullscreenenter"",""0"",""5293""
","
","null","run_exp/static/audio/clip_5_baseball.m4a","null","","","","","","","",""
"","trumpet","201","266122","0.0-201.0","""event"",""trial"",""time""
""blur"",""0"",""1434""
""focus"",""0"",""4073""
""fullscreenenter"",""0"",""5293""
","""event"",""trial"",""time""
""blur"",""0"",""1434""
","""event"",""trial"",""time""
""focus"",""0"",""4073""
","""event"",""trial"",""time""
""fullscreenenter"",""0"",""5293""
","
","null","run_exp/static/audio/clip_6_trumpet.m4a","null","","","","","","","",""
"","gummies","202","269639","0.0-202.0","""event"",""trial"",""time""
""blur"",""0"",""1434""
""focus"",""0"",""4073""
""fullscreenenter"",""0"",""5293""
","""event"",""trial"",""time""
""blur"",""0"",""1434""
","""event"",""trial"",""time""
""focus"",""0"",""4073""
","""event"",""trial"",""time""
""fullscreenenter"",""0"",""5293""
","
","null","run_exp/static/audio/clip_7_gummies.m4a","null","","","","","","","",""
"","osn","203","274150","0.0-203.0","""event"",""trial"",""time""
""blur"",""0"",""1434""
""focus"",""0"",""4073""
""fullscreenenter"",""0"",""5293""
","""event"",""trial"",""time""
""blur"",""0"",""1434""
","""event"",""trial"",""time""
""focus"",""0"",""4073""
","""event"",""trial"",""time""
""fullscreenenter"",""0"",""5293""
","
","null","run_exp/static/audio/clip_8_osn.m4a","null","","","","","","","",""
"","old_1","204","280667","0.0-204.0","""event"",""trial"",""time""
""blur"",""0"",""1434""
""focus"",""0"",""4073""
""fullscreenenter"",""0"",""5293""
","""event"",""trial"",""time""
""blur"",""0"",""1434""
","""event"",""trial"",""time""
""focus"",""0"",""4073""
","""event"",""trial"",""time""
""fullscreenenter"",""0"",""5293""
","
","null","run_exp/static/audio/clip_9_old_trumpet.m4a","null","","","","","","","",""
"","new_1","205","288171","0.0-205.0","""event"",""trial"",""time""
""blur"",""0"",""1434""
""focus"",""0"",""4073""
""fullscreenenter"",""0"",""5293""
","""event"",""trial"",""time""
""blur"",""0"",""1434""
","""event"",""trial"",""time""
""focus"",""0"",""4073""
","""event"",""trial"",""time""
""fullscreenenter"",""0"",""5293""
","
","null","run_exp/static/audio/clip_10_new_balloon.m4a","null","","","","","","","",""
"","similar_1a","206","292676","0.0-206.0","""event"",""trial"",""time""
""blur"",""0"",""1434""
""focus"",""0"",""4073""
""fullscreenenter"",""0"",""5293""
","""event"",""trial"",""time""
""blur"",""0"",""1434""
","""event"",""trial"",""time""
""focus"",""0"",""4073""
","""event"",""trial"",""time""
""fullscreenenter"",""0"",""5293""
","
","null","run_exp/static/audio/clip_11a_similar_mop.m4a","null","","","","","","","",""
"","similar_1b","207","299184","0.0-207.0","""event"",""trial"",""time""
""blur"",""0"",""1434""
""focus"",""0"",""4073""
""fullscreenenter"",""0"",""5293""
","""event"",""trial"",""time""
""blur"",""0"",""1434""
","""event"",""trial"",""time""
""focus"",""0"",""4073""
","""event"",""trial"",""time""
""fullscreenenter"",""0"",""5293""
","
","null","run_exp/static/audio/clip_11b_similar_mop.m4a","null","","","","","","","",""
"","new_2","208","302690","0.0-208.0","""event"",""trial"",""time""
""blur"",""0"",""1434""
""focus"",""0"",""4073""
""fullscreenenter"",""0"",""5293""
","""event"",""trial"",""time""
""blur"",""0"",""1434""
","""event"",""trial"",""time""
""focus"",""0"",""4073""
","""event"",""trial"",""time""
""fullscreenenter"",""0"",""5293""
","
","null","run_exp/static/audio/clip_12_new_stoplight.m4a","null","","","","","","","",""
"","old_2","209","306198","0.0-209.0","""event"",""trial"",""time""
""blur"",""0"",""1434""
""focus"",""0"",""4073""
""fullscreenenter"",""0"",""5293""
","""event"",""trial"",""time""
""blur"",""0"",""1434""
","""event"",""trial"",""time""
""focus"",""0"",""4073""
","""event"",""trial"",""time""
""fullscreenenter"",""0"",""5293""
","
","null","run_exp/static/audio/clip_13_old_baseball.m4a","null","","","","","","","",""
"","similar_2a","210","309715","0.0-210.0","""event"",""trial"",""time""
""blur"",""0"",""1434""
""focus"",""0"",""4073""
""fullscreenenter"",""0"",""5293""
","""event"",""trial"",""time""
""blur"",""0"",""1434""
","""event"",""trial"",""time""
""focus"",""0"",""4073""
","""event"",""trial"",""time""
""fullscreenenter"",""0"",""5293""
","
","null","run_exp/static/audio/clip_14a_similar_gummies.m4a","null","","","","","","","",""
"","similar_2b","211","317231","0.0-211.0","""event"",""trial"",""time""
""blur"",""0"",""1434""
""focus"",""0"",""4073""
""fullscreenenter"",""0"",""5293""
","""event"",""trial"",""time""
""blur"",""0"",""1434""
","""event"",""trial"",""time""
""focus"",""0"",""4073""
","""event"",""trial"",""time""
""fullscreenenter"",""0"",""5293""
","
","null","run_exp/static/audio/clip_14b_similar_gummies.m4a","null","","","","","","","",""
"","practice","212","359353","0.0-212.0","""event"",""trial"",""time""
""blur"",""0"",""1434""
""focus"",""0"",""4073""
""fullscreenenter"",""0"",""5293""
","""event"",""trial"",""time""
""blur"",""0"",""1434""
","""event"",""trial"",""time""
""focus"",""0"",""4073""
","""event"",""trial"",""time""
""fullscreenenter"",""0"",""5293""
","
","null","run_exp/static/audio/clip_15_practice.m4a","null","","","","","<div class='center'><p>Lets practice a little to make sure you understand the difference between new, similar, and old. Lets say you saw these three items in the indoor/outdoor game.</p><p> Try your best to remember these images because youll soon be tested on them in a practice game. In the practice game, youll be shown images and youll have to say if they are old (one of the three images belows), similar (similar to one of the images below but not exactly the same), or new (are not one of the images below nor similar to them).</p><p>Once you press the space bar youll be shown these images again but one at time. Then youll begin the practice game.</p><p><img src='run_exp/static/images/tutorial/test/three_indoor_outdoor.png' height='300'></p></div>","","",""
"","html-keyboard-response","213","360899","0.0-213.0","""event"",""trial"",""time""
""blur"",""0"",""1434""
""focus"",""0"",""4073""
""fullscreenenter"",""0"",""5293""
","""event"",""trial"",""time""
""blur"",""0"",""1434""
","""event"",""trial"",""time""
""focus"",""0"",""4073""
","""event"",""trial"",""time""
""fullscreenenter"",""0"",""5293""
","
","1544.8999999761581","<div class='center'><p>Lets practice a little to make sure you understand the difference between new, similar, and old. Lets say you saw these three items in the indoor/outdoor game.</p><p> Try your best to remember these images because youll soon be tested on them in a practice game. In the practice game, youll be shown images and youll have to say if they are old (one of the three images belows), similar (similar to one of the images below but not exactly the same), or new (are not one of the images below nor similar to them).</p><p>Once you press the space bar youll be shown these images again but one at time. Then youll begin the practice game.</p><p><img src='run_exp/static/images/tutorial/test/three_indoor_outdoor.png' height='300'></p><div><p><b>[Press the space bar to continue]</b></p></div>","32","","","","","","","",""
"","planet","214","362910","0.0-214.0","""event"",""trial"",""time""
""blur"",""0"",""1434""
""focus"",""0"",""4073""
""fullscreenenter"",""0"",""5293""
","""event"",""trial"",""time""
""blur"",""0"",""1434""
","""event"",""trial"",""time""
""focus"",""0"",""4073""
","""event"",""trial"",""time""
""fullscreenenter"",""0"",""5293""
","
","null","run_exp/static/images/tutorial/test/008a.jpg","null","","","","","","","",""
"","boot","215","364913","0.0-215.0","""event"",""trial"",""time""
""blur"",""0"",""1434""
""focus"",""0"",""4073""
""fullscreenenter"",""0"",""5293""
","""event"",""trial"",""time""
""blur"",""0"",""1434""
","""event"",""trial"",""time""
""focus"",""0"",""4073""
","""event"",""trial"",""time""
""fullscreenenter"",""0"",""5293""
","
","null","run_exp/static/images/tutorial/test/011a.jpg","null","","","","","","","",""
"","lemon","216","366920","0.0-216.0","""event"",""trial"",""time""
""blur"",""0"",""1434""
""focus"",""0"",""4073""
""fullscreenenter"",""0"",""5293""
","""event"",""trial"",""time""
""blur"",""0"",""1434""
","""event"",""trial"",""time""
""focus"",""0"",""4073""
","""event"",""trial"",""time""
""fullscreenenter"",""0"",""5293""
","
","null","run_exp/static/images/tutorial/test/018a.jpg","null","","","","","","","",""
"","practice_q1","217","370628","0.0-217.0","""event"",""trial"",""time""
""blur"",""0"",""1434""
""focus"",""0"",""4073""
""fullscreenenter"",""0"",""5293""
","""event"",""trial"",""time""
""blur"",""0"",""1434""
","""event"",""trial"",""time""
""focus"",""0"",""4073""
","""event"",""trial"",""time""
""fullscreenenter"",""0"",""5293""
","
","3706.100000023842","run_exp/static/audio/clip_16_practice_question.m4a","78","","","","","","","",""
"","correct","218","372553","0.0-218.0-0.0","""event"",""trial"",""time""
""blur"",""0"",""1434""
""focus"",""0"",""4073""
""fullscreenenter"",""0"",""5293""
","""event"",""trial"",""time""
""blur"",""0"",""1434""
","""event"",""trial"",""time""
""focus"",""0"",""4073""
","""event"",""trial"",""time""
""fullscreenenter"",""0"",""5293""
","
","null","run_exp/static/audio/clip_17_correct.m4a","null","","","","","<div class='center'><p>That's correct!</p></div>","","",""
"","html-keyboard-response","219","373610","0.0-218.0-1.0","""event"",""trial"",""time""
""blur"",""0"",""1434""
""focus"",""0"",""4073""
""fullscreenenter"",""0"",""5293""
","""event"",""trial"",""time""
""blur"",""0"",""1434""
","""event"",""trial"",""time""
""focus"",""0"",""4073""
","""event"",""trial"",""time""
""fullscreenenter"",""0"",""5293""
","
","1055.7000000476837","<div class='center'><p>That's correct!</p><div><p><b>[Press the space bar to continue]</b></p></div>","32","","","","","","","",""
"","practice_q2","220","374828","0.0-218.0-2.0","""event"",""trial"",""time""
""blur"",""0"",""1434""
""focus"",""0"",""4073""
""fullscreenenter"",""0"",""5293""
","""event"",""trial"",""time""
