success,trial_type,trial_index,time_elapsed,internal_node_id,rt,stimulus,key_press,subject_id,participant_id,age,gender,prompt,phase,condition,lure_bin
TRUE,fullscreen,0,2768,0.0-0.0,,,,,,,,,,,
,pavlovia,1,2772,0.0-1.0,,,,,,,,,,,
,welcome,2,38496,0.0-2.0,null,run_exp/static/audio/clip_1_welcome.m4a,null,63,520,12,male,"<div class='center'><p>This is your last game of the experiment! First, you'll be shown pictures of items one at a time. For each picture, you have to decide if the item is typically found indoors or outdoors.</p><p>If you think it's usually found indoors, then press <b>v</b> key on your keyboard. If you think it's usually found outdoors, then press the <b>n</b> key.There will be reminders on the screen to help you remember which keys to press. </p><p>If you're not sure whether the item is an indoor item or outdoor item, go ahead and take a guess but try your best not to skip that choice. </p></div>",,,
,html-keyboard-response,3,43684,0.0-3.0,5186.099999,"<div class='center'><p>This is your last game of the experiment! First, you'll be shown pictures of items one at a time. For each picture, you have to decide if the item is typically found indoors or outdoors.</p><p>If you think it's usually found indoors, then press <b>v</b> key on your keyboard. If you think it's usually found outdoors, then press the <b>n</b> key.There will be reminders on the screen to help you remember which keys to press. </p><p>If you're not sure whether the item is an indoor item or outdoor item, go ahead and take a guess but try your best not to skip that choice. </p><div><p><b>[Press the space bar to continue]</b></p></div>",32,,,,,,,,
,image,4,45690,0.0-4.0,null,run_exp/static/images/Set 6_rs/016a.jpg,null,,,,,,learn,SL,
,show_choice,5,47697,0.0-5.0,null,run_exp/static/images/blank.png,null,,,,,,learn,SL,
,html-keyboard-response,6,48200,0.0-6.0,null,<p></p>,null,,,,,,,,
,image,7,49614,0.0-7.0,1412.4,run_exp/static/images/Set 6_rs/111a.jpg,86,,,,,,learn,SL,
,show_choice,8,50207,0.0-8.0,null,run_exp/static/images/Set 6_rs/111a.jpg,null,,,,,,learn,SL,
,html-keyboard-response,9,50713,0.0-9.0,null,<p></p>,null,,,,,,,,
,image,10,51806,0.0-10.0,1091.900001,run_exp/static/images/Set 6_rs/167a.jpg,78,,,,,,learn,SL,
,show_choice,11,52716,0.0-11.0,null,run_exp/static/images/Set 6_rs/167a.jpg,null,,,,,,learn,SL,
,html-keyboard-response,12,53221,0.0-12.0,null,<p></p>,null,,,,,,,,
,image,13,53935,0.0-13.0,712,run_exp/static/images/Set 6_rs/089a.jpg,86,,,,,,learn,SL,
,show_choice,14,55228,0.0-14.0,null,run_exp/static/images/Set 6_rs/089a.jpg,null,,,,,,learn,SL,
,html-keyboard-response,15,55728,0.0-15.0,null,<p></p>,null,,,,,,,,
,image,16,56390,0.0-16.0,660.6000004,run_exp/static/images/Set 6_rs/079a.jpg,86,,,,,,learn,SL,
,show_choice,17,57735,0.0-17.0,null,run_exp/static/images/Set 6_rs/079a.jpg,null,,,,,,learn,SL,
,html-keyboard-response,18,58239,0.0-18.0,null,<p></p>,null,,,,,,,,
,image,19,59062,0.0-19.0,822.3000002,run_exp/static/images/Set 6_rs/121a.jpg,86,,,,,,learn,SR,
,show_choice,20,60245,0.0-20.0,null,run_exp/static/images/Set 6_rs/121a.jpg,null,,,,,,learn,SR,
,html-keyboard-response,21,60751,0.0-21.0,null,<p></p>,null,,,,,,,,
,image,22,61318,0.0-22.0,566,run_exp/static/images/Set 6_rs/045a.jpg,86,,,,,,learn,SR,
,show_choice,23,62753,0.0-23.0,null,run_exp/static/images/Set 6_rs/045a.jpg,null,,,,,,learn,SR,
,html-keyboard-response,24,63256,0.0-24.0,null,<p></p>,null,,,,,,,,
,image,25,64191,0.0-25.0,933.5,run_exp/static/images/Set 6_rs/007a.jpg,86,,,,,,learn,SR,
,show_choice,26,65261,0.0-26.0,null,run_exp/static/images/Set 6_rs/007a.jpg,null,,,,,,learn,SR,
,html-keyboard-response,27,65762,0.0-27.0,null,<p></p>,null,,,,,,,,
,image,28,66518,0.0-28.0,754.7999992,run_exp/static/images/Set 6_rs/178a.jpg,78,,,,,,learn,SR,
,show_choice,29,67769,0.0-29.0,null,run_exp/static/images/Set 6_rs/178a.jpg,null,,,,,,learn,SR,
,html-keyboard-response,30,68273,0.0-30.0,null,<p></p>,null,,,,,,,,
,image,31,69398,0.0-31.0,1124,run_exp/static/images/Set 6_rs/074a.jpg,78,,,,,,learn,SL,
,show_choice,32,70280,0.0-32.0,null,run_exp/static/images/Set 6_rs/074a.jpg,null,,,,,,learn,SL,
,html-keyboard-response,33,70784,0.0-33.0,null,<p></p>,null,,,,,,,,
,image,34,71446,0.0-34.0,661.6999998,run_exp/static/images/Set 6_rs/177a.jpg,78,,,,,,learn,SR,
,show_choice,35,72786,0.0-35.0,null,run_exp/static/images/Set 6_rs/177a.jpg,null,,,,,,learn,SR,
,html-keyboard-response,36,73290,0.0-36.0,null,<p></p>,null,,,,,,,,
,image,37,74022,0.0-37.0,731,run_exp/static/images/Set 6_rs/172a.jpg,86,,,,,,learn,SR,
,show_choice,38,75297,0.0-38.0,null,run_exp/static/images/Set 6_rs/172a.jpg,null,,,,,,learn,SR,
,html-keyboard-response,39,75798,0.0-39.0,null,<p></p>,null,,,,,,,,
,image,40,76830,0.0-40.0,1031.4,run_exp/static/images/Set 6_rs/144a.jpg,78,,,,,,learn,SL,
,show_choice,41,77804,0.0-41.0,null,run_exp/static/images/Set 6_rs/144a.jpg,null,,,,,,learn,SL,
,html-keyboard-response,42,78306,0.0-42.0,null,<p></p>,null,,,,,,,,
,image,43,79150,0.0-43.0,843.0999994,run_exp/static/images/Set 6_rs/129a.jpg,78,,,,,,learn,SL,
,show_choice,44,80313,0.0-44.0,null,run_exp/static/images/Set 6_rs/129a.jpg,null,,,,,,learn,SL,
,html-keyboard-response,45,80818,0.0-45.0,null,<p></p>,null,,,,,,,,
,image,46,81518,0.0-46.0,699.4000006,run_exp/static/images/Set 6_rs/025a.jpg,78,,,,,,learn,SL,
,show_choice,47,82822,0.0-47.0,null,run_exp/static/images/Set 6_rs/025a.jpg,null,,,,,,learn,SL,
,html-keyboard-response,48,83326,0.0-48.0,null,<p></p>,null,,,,,,,,
,image,49,84086,0.0-49.0,759.8999996,run_exp/static/images/Set 6_rs/187a.jpg,78,,,,,,learn,SR,
,show_choice,50,85328,0.0-50.0,null,run_exp/static/images/Set 6_rs/187a.jpg,null,,,,,,learn,SR,
,html-keyboard-response,51,85831,0.0-51.0,null,<p></p>,null,,,,,,,,
,image,52,86503,0.0-52.0,670.3999996,run_exp/static/images/Set 6_rs/071a.jpg,78,,,,,,learn,SL,
,show_choice,53,87833,0.0-53.0,null,run_exp/static/images/Set 6_rs/071a.jpg,null,,,,,,learn,SL,
,html-keyboard-response,54,88337,0.0-54.0,null,<p></p>,null,,,,,,,,
,image,55,89126,0.0-55.0,789.1999998,run_exp/static/images/Set 6_rs/186a.jpg,78,,,,,,learn,SR,
,show_choice,56,90340,0.0-56.0,null,run_exp/static/images/Set 6_rs/186a.jpg,null,,,,,,learn,SR,
,html-keyboard-response,57,90846,0.0-57.0,null,<p></p>,null,,,,,,,,
,image,58,92135,0.0-58.0,1287.6,run_exp/static/images/Set 6_rs/062a.jpg,86,,,,,,learn,SL,
,show_choice,59,92848,0.0-59.0,null,run_exp/static/images/Set 6_rs/062a.jpg,null,,,,,,learn,SL,
,html-keyboard-response,60,93351,0.0-60.0,null,<p></p>,null,,,,,,,,
,image,61,94119,0.0-61.0,766.3999996,run_exp/static/images/Set 6_rs/181a.jpg,78,,,,,,learn,SL,
,show_choice,62,95357,0.0-62.0,null,run_exp/static/images/Set 6_rs/181a.jpg,null,,,,,,learn,SL,
,html-keyboard-response,63,95862,0.0-63.0,null,<p></p>,null,,,,,,,,
,image,64,96735,0.0-64.0,871.9000006,run_exp/static/images/Set 6_rs/169a.jpg,86,,,,,,learn,SR,
,show_choice,65,97866,0.0-65.0,null,run_exp/static/images/Set 6_rs/169a.jpg,null,,,,,,learn,SR,
,html-keyboard-response,66,98370,0.0-66.0,null,<p></p>,null,,,,,,,,
,image,67,99167,0.0-67.0,796.3000002,run_exp/static/images/Set 6_rs/057a.jpg,86,,,,,,learn,SL,
,show_choice,68,100372,0.0-68.0,null,run_exp/static/images/Set 6_rs/057a.jpg,null,,,,,,learn,SL,
,html-keyboard-response,69,100878,0.0-69.0,null,<p></p>,null,,,,,,,,
,image,70,101951,0.0-70.0,1070.799999,run_exp/static/images/Set 6_rs/008a.jpg,78,,,,,,learn,SL,
,show_choice,71,102886,0.0-71.0,null,run_exp/static/images/Set 6_rs/008a.jpg,null,,,,,,learn,SL,
,html-keyboard-response,72,103391,0.0-72.0,null,<p></p>,null,,,,,,,,
,image,73,104343,0.0-73.0,950.8999996,run_exp/static/images/Set 6_rs/061a.jpg,78,,,,,,learn,SR,
,show_choice,74,105398,0.0-74.0,null,run_exp/static/images/Set 6_rs/061a.jpg,null,,,,,,learn,SR,
,html-keyboard-response,75,105899,0.0-75.0,null,<p></p>,null,,,,,,,,
,image,76,106983,0.0-76.0,1083.400001,run_exp/static/images/Set 6_rs/091a.jpg,78,,,,,,learn,SL,
,show_choice,77,107904,0.0-77.0,null,run_exp/static/images/Set 6_rs/091a.jpg,null,,,,,,learn,SL,
,html-keyboard-response,78,108405,0.0-78.0,null,<p></p>,null,,,,,,,,
,image,79,109400,0.0-79.0,993.4000006,run_exp/static/images/Set 6_rs/019a.jpg,86,,,,,,learn,SL,
,show_choice,80,110407,0.0-80.0,null,run_exp/static/images/Set 6_rs/019a.jpg,null,,,,,,learn,SL,
,html-keyboard-response,81,110908,0.0-81.0,null,<p></p>,null,,,,,,,,
,image,82,111991,0.0-82.0,1082.3,run_exp/static/images/Set 6_rs/060a.jpg,78,,,,,,learn,SL,
,show_choice,83,112911,0.0-83.0,null,run_exp/static/images/Set 6_rs/060a.jpg,null,,,,,,learn,SL,
,html-keyboard-response,84,113417,0.0-84.0,null,<p></p>,null,,,,,,,,
,image,85,114423,0.0-85.0,1005.599999,run_exp/static/images/Set 6_rs/088a.jpg,86,,,,,,learn,SR,
,show_choice,86,115419,0.0-86.0,null,run_exp/static/images/Set 6_rs/088a.jpg,null,,,,,,learn,SR,
,html-keyboard-response,87,115924,0.0-87.0,null,<p></p>,null,,,,,,,,
,image,88,116959,0.0-88.0,1034.2,run_exp/static/images/Set 6_rs/134a.jpg,86,,,,,,learn,SR,
,show_choice,89,117929,0.0-89.0,null,run_exp/static/images/Set 6_rs/134a.jpg,null,,,,,,learn,SR,
,html-keyboard-response,90,118433,0.0-90.0,null,<p></p>,null,,,,,,,,
,image,91,119328,0.0-91.0,893.6999998,run_exp/static/images/Set 6_rs/067a.jpg,86,,,,,,learn,SL,
,show_choice,92,120435,0.0-92.0,null,run_exp/static/images/Set 6_rs/067a.jpg,null,,,,,,learn,SL,
,html-keyboard-response,93,120938,0.0-93.0,null,<p></p>,null,,,,,,,,
,image,94,121737,0.0-94.0,797.3000002,run_exp/static/images/Set 6_rs/150a.jpg,78,,,,,,learn,SR,
,show_choice,95,122945,0.0-95.0,null,run_exp/static/images/Set 6_rs/150a.jpg,null,,,,,,learn,SR,
,html-keyboard-response,96,123447,0.0-96.0,null,<p></p>,null,,,,,,,,
,image,97,124136,0.0-97.0,687.5999994,run_exp/static/images/Set 6_rs/116a.jpg,78,,,,,,learn,SL,
,show_choice,98,125453,0.0-98.0,null,run_exp/static/images/Set 6_rs/116a.jpg,null,,,,,,learn,SL,
,html-keyboard-response,99,125959,0.0-99.0,null,<p></p>,null,,,,,,,,
,image,100,126760,0.0-100.0,799.6999998,run_exp/static/images/Set 6_rs/122a.jpg,78,,,,,,learn,SR,
,show_choice,101,127965,0.0-101.0,null,run_exp/static/images/Set 6_rs/122a.jpg,null,,,,,,learn,SR,
,html-keyboard-response,102,128471,0.0-102.0,null,<p></p>,null,,,,,,,,
,image,103,129256,0.0-103.0,783.6999998,run_exp/static/images/Set 6_rs/168a.jpg,86,,,,,,learn,SL,
,show_choice,104,130475,0.0-104.0,null,run_exp/static/images/Set 6_rs/168a.jpg,null,,,,,,learn,SL,
,html-keyboard-response,105,130979,0.0-105.0,null,<p></p>,null,,,,,,,,
,image,106,131672,0.0-106.0,691.6000004,run_exp/static/images/Set 6_rs/095a.jpg,78,,,,,,learn,SL,
,show_choice,107,132984,0.0-107.0,null,run_exp/static/images/Set 6_rs/095a.jpg,null,,,,,,learn,SL,
,html-keyboard-response,108,133486,0.0-108.0,null,<p></p>,null,,,,,,,,
,image,109,134113,0.0-109.0,625.3999996,run_exp/static/images/Set 6_rs/152a.jpg,78,,,,,,learn,SR,
,show_choice,110,135488,0.0-110.0,null,run_exp/static/images/Set 6_rs/152a.jpg,null,,,,,,learn,SR,
,html-keyboard-response,111,135993,0.0-111.0,null,<p></p>,null,,,,,,,,
,image,112,136880,0.0-112.0,886.1999998,run_exp/static/images/Set 6_rs/138a.jpg,86,,,,,,learn,SL,
,show_choice,113,137999,0.0-113.0,null,run_exp/static/images/Set 6_rs/138a.jpg,null,,,,,,learn,SL,
,html-keyboard-response,114,138502,0.0-114.0,null,<p></p>,null,,,,,,,,
,image,115,139480,0.0-115.0,977.7999992,run_exp/static/images/Set 6_rs/191a.jpg,86,,,,,,learn,SL,
,show_choice,116,140507,0.0-116.0,null,run_exp/static/images/Set 6_rs/191a.jpg,null,,,,,,learn,SL,
,html-keyboard-response,117,141013,0.0-117.0,null,<p></p>,null,,,,,,,,
,image,118,142008,0.0-118.0,994.5999994,run_exp/static/images/Set 6_rs/108a.jpg,86,,,,,,learn,SR,
,show_choice,119,143014,0.0-119.0,null,run_exp/static/images/Set 6_rs/108a.jpg,null,,,,,,learn,SR,
,html-keyboard-response,120,143516,0.0-120.0,null,<p></p>,null,,,,,,,,
,image,121,144337,0.0-121.0,819.6000004,run_exp/static/images/Set 6_rs/123a.jpg,78,,,,,,learn,SL,
,show_choice,122,145517,0.0-122.0,null,run_exp/static/images/Set 6_rs/123a.jpg,null,,,,,,learn,SL,
,html-keyboard-response,123,146023,0.0-123.0,null,<p></p>,null,,,,,,,,
,image,124,146872,0.0-124.0,848,run_exp/static/images/Set 6_rs/073a.jpg,78,,,,,,learn,SL,
,show_choice,125,148027,0.0-125.0,null,run_exp/static/images/Set 6_rs/073a.jpg,null,,,,,,learn,SL,
,html-keyboard-response,126,148531,0.0-126.0,null,<p></p>,null,,,,,,,,
,image,127,149265,0.0-127.0,732.5,run_exp/static/images/Set 6_rs/076a.jpg,78,,,,,,learn,SR,
,show_choice,128,150535,0.0-128.0,null,run_exp/static/images/Set 6_rs/076a.jpg,null,,,,,,learn,SR,
,html-keyboard-response,129,151036,0.0-129.0,null,<p></p>,null,,,,,,,,
,image,130,151993,0.0-130.0,955.8999996,run_exp/static/images/Set 6_rs/132a.jpg,86,,,,,,learn,SR,
,show_choice,131,153042,0.0-131.0,null,run_exp/static/images/Set 6_rs/132a.jpg,null,,,,,,learn,SR,
,html-keyboard-response,132,153546,0.0-132.0,null,<p></p>,null,,,,,,,,
,image,133,154217,0.0-133.0,669.7999992,run_exp/static/images/Set 6_rs/055a.jpg,78,,,,,,learn,SL,
,show_choice,134,155552,0.0-134.0,null,run_exp/static/images/Set 6_rs/055a.jpg,null,,,,,,learn,SL,
,html-keyboard-response,135,156056,0.0-135.0,null,<p></p>,null,,,,,,,,
,image,136,157152,0.0-136.0,1095.7,run_exp/static/images/Set 6_rs/131a.jpg,86,,,,,,learn,SR,
,show_choice,137,158062,0.0-137.0,null,run_exp/static/images/Set 6_rs/131a.jpg,null,,,,,,learn,SR,
,html-keyboard-response,138,158567,0.0-138.0,null,<p></p>,null,,,,,,,,
,image,139,159408,0.0-139.0,839.6999998,run_exp/static/images/Set 6_rs/154a.jpg,86,,,,,,learn,SR,
,show_choice,140,160571,0.0-140.0,null,run_exp/static/images/Set 6_rs/154a.jpg,null,,,,,,learn,SR,
,html-keyboard-response,141,161074,0.0-141.0,null,<p></p>,null,,,,,,,,
,image,142,161937,0.0-142.0,861.8000002,run_exp/static/images/Set 6_rs/066a.jpg,86,,,,,,learn,SL,
,show_choice,143,163080,0.0-143.0,null,run_exp/static/images/Set 6_rs/066a.jpg,null,,,,,,learn,SL,
,html-keyboard-response,144,163586,0.0-144.0,null,<p></p>,null,,,,,,,,
,image,145,164377,0.0-145.0,789.6999998,run_exp/static/images/Set 6_rs/064a.jpg,86,,,,,,learn,SR,
,show_choice,146,165592,0.0-146.0,null,run_exp/static/images/Set 6_rs/064a.jpg,null,,,,,,learn,SR,
,html-keyboard-response,147,166098,0.0-147.0,null,<p></p>,null,,,,,,,,
,image,148,166912,0.0-148.0,812.8999996,run_exp/static/images/Set 6_rs/148a.jpg,86,,,,,,learn,SR,
,show_choice,149,168101,0.0-149.0,null,run_exp/static/images/Set 6_rs/148a.jpg,null,,,,,,learn,SR,
,html-keyboard-response,150,168607,0.0-150.0,null,<p></p>,null,,,,,,,,
,image,151,169498,0.0-151.0,890,run_exp/static/images/Set 6_rs/112a.jpg,78,,,,,,learn,SR,
,show_choice,152,170612,0.0-152.0,null,run_exp/static/images/Set 6_rs/112a.jpg,null,,,,,,learn,SR,
,html-keyboard-response,153,171116,0.0-153.0,null,<p></p>,null,,,,,,,,
,image,154,171889,0.0-154.0,772.2999992,run_exp/static/images/Set 6_rs/012a.jpg,86,,,,,,learn,SR,
,show_choice,155,173121,0.0-155.0,null,run_exp/static/images/Set 6_rs/012a.jpg,null,,,,,,learn,SR,
,html-keyboard-response,156,173623,0.0-156.0,null,<p></p>,null,,,,,,,,
,image,157,174441,0.0-157.0,817.6000004,run_exp/static/images/Set 6_rs/036a.jpg,86,,,,,,learn,SL,
,show_choice,158,175629,0.0-158.0,null,run_exp/static/images/Set 6_rs/036a.jpg,null,,,,,,learn,SL,
,html-keyboard-response,159,176134,0.0-159.0,null,<p></p>,null,,,,,,,,
,image,160,176970,0.0-160.0,834.1000004,run_exp/static/images/Set 6_rs/085a.jpg,86,,,,,,learn,SL,
,show_choice,161,178141,0.0-161.0,null,run_exp/static/images/Set 6_rs/085a.jpg,null,,,,,,learn,SL,
,html-keyboard-response,162,178647,0.0-162.0,null,<p></p>,null,,,,,,,,
,image,163,179321,0.0-163.0,673.9000006,run_exp/static/images/Set 6_rs/023a.jpg,86,,,,,,learn,SR,
,show_choice,164,180649,0.0-164.0,null,run_exp/static/images/Set 6_rs/023a.jpg,null,,,,,,learn,SR,
,html-keyboard-response,165,181154,0.0-165.0,null,<p></p>,null,,,,,,,,
,image,166,181738,0.0-166.0,583.1999998,run_exp/static/images/Set 6_rs/166a.jpg,78,,,,,,learn,SR,
,show_choice,167,183159,0.0-167.0,null,run_exp/static/images/Set 6_rs/166a.jpg,null,,,,,,learn,SR,
,html-keyboard-response,168,183664,0.0-168.0,null,<p></p>,null,,,,,,,,
,image,169,184753,0.0-169.0,1088.099999,run_exp/static/images/Set 6_rs/141a.jpg,86,,,,,,learn,SR,
,show_choice,170,185670,0.0-170.0,null,run_exp/static/images/Set 6_rs/141a.jpg,null,,,,,,learn,SR,
,html-keyboard-response,171,186175,0.0-171.0,null,<p></p>,null,,,,,,,,
,image,172,187082,0.0-172.0,905.4000006,run_exp/static/images/Set 6_rs/024a.jpg,86,,,,,,learn,SR,
,show_choice,173,188179,0.0-173.0,null,run_exp/static/images/Set 6_rs/024a.jpg,null,,,,,,learn,SR,
,html-keyboard-response,174,188685,0.0-174.0,null,<p></p>,null,,,,,,,,
,image,175,189650,0.0-175.0,963.8999996,run_exp/static/images/Set 6_rs/117a.jpg,86,,,,,,learn,SL,
,show_choice,176,190689,0.0-176.0,null,run_exp/static/images/Set 6_rs/117a.jpg,null,,,,,,learn,SL,
,html-keyboard-response,177,191193,0.0-177.0,null,<p></p>,null,,,,,,,,
,image,178,192082,0.0-178.0,888.1999998,run_exp/static/images/Set 6_rs/010a.jpg,78,,,,,,learn,SR,
,show_choice,179,193199,0.0-179.0,null,run_exp/static/images/Set 6_rs/010a.jpg,null,,,,,,learn,SR,
,html-keyboard-response,180,193701,0.0-180.0,null,<p></p>,null,,,,,,,,
,image,181,194402,0.0-181.0,699.6000004,run_exp/static/images/Set 6_rs/126a.jpg,86,,,,,,learn,SR,
,show_choice,182,195705,0.0-182.0,null,run_exp/static/images/Set 6_rs/126a.jpg,null,,,,,,learn,SR,
,html-keyboard-response,183,196207,0.0-183.0,null,<p></p>,null,,,,,,,,
,image,184,197170,0.0-184.0,961.6000004,run_exp/static/images/Set 6_rs/017a.jpg,86,,,,,,learn,SL,
,show_choice,185,198209,0.0-185.0,null,run_exp/static/images/Set 6_rs/017a.jpg,null,,,,,,learn,SL,
,html-keyboard-response,186,198715,0.0-186.0,null,<p></p>,null,,,,,,,,
,image,187,199394,0.0-187.0,678.5,run_exp/static/images/Set 6_rs/075a.jpg,86,,,,,,learn,SR,
,show_choice,188,200717,0.0-188.0,null,run_exp/static/images/Set 6_rs/075a.jpg,null,,,,,,learn,SR,
,html-keyboard-response,189,201218,0.0-189.0,null,<p></p>,null,,,,,,,,
,image,190,201890,0.0-190.0,670.8000002,run_exp/static/images/Set 6_rs/006a.jpg,78,,,,,,learn,SL,
,show_choice,191,203225,0.0-191.0,null,run_exp/static/images/Set 6_rs/006a.jpg,null,,,,,,learn,SL,
,html-keyboard-response,192,203730,0.0-192.0,null,<p></p>,null,,,,,,,,
,image,193,204570,0.0-193.0,839.8999996,run_exp/static/images/Set 6_rs/063a.jpg,78,,,,,,learn,SR,
,show_choice,194,205732,0.0-194.0,null,run_exp/static/images/Set 6_rs/063a.jpg,null,,,,,,learn,SR,
,html-keyboard-response,195,206237,0.0-195.0,null,<p></p>,null,,,,,,,,
,test_intro,196,247625,0.0-196.0,null,run_exp/static/audio/clip_2_memory.m4a,null,,,,,"<div class='center'><p>Now, let’s see how much you remember about the items you just saw.  For each item, you need to indicate if it was <b>old</b> by pressing the <b>v</b> key, <b>similar</b> by pressing the <b>b</b> key, or <b>new</b> by pressing the <b>n</b> key.</p><p>Old refers to an item that you saw before in the indoor/outdoor game that you just played, new refers to an item you have <b>not</b> seen before within the indoor/outdoor game, and similar refers to an item that is similar to an item you’ve seen before but is not exactly the same. </p><p>Before we begin, let’s go over some brief demonstrations to make sure you understand.</p></div>",,,
,html-keyboard-response,197,248314,0.0-197.0,688.1999998,"<div class='center'><p>Now, let’s see how much you remember about the items you just saw.  For each item, you need to indicate if it was <b>old</b> by pressing the <b>v</b> key, <b>similar</b> by pressing the <b>b</b> key, or <b>new</b> by pressing the <b>n</b> key.</p><p>Old refers to an item that you saw before in the indoor/outdoor game that you just played, new refers to an item you have <b>not</b> seen before within the indoor/outdoor game, and similar refers to an item that is similar to an item you’ve seen before but is not exactly the same. </p><p>Before we begin, let’s go over some brief demonstrations to make sure you understand.</p><div><p><b>[Press the space bar to continue]</b></p></div>",32,,,,,,,,
,items,198,255816,0.0-198.0,null,run_exp/static/audio/clip_3_items.m4a,null,,,,,,,,
,mop,199,260321,0.0-199.0,null,run_exp/static/audio/clip_4_mop.m4a,null,,,,,,,,
,baseball,200,263828,0.0-200.0,null,run_exp/static/audio/clip_5_baseball.m4a,null,,,,,,,,
,trumpet,201,267331,0.0-201.0,null,run_exp/static/audio/clip_6_trumpet.m4a,null,,,,,,,,
,gummies,202,270834,0.0-202.0,null,run_exp/static/audio/clip_7_gummies.m4a,null,,,,,,,,
,osn,203,275341,0.0-203.0,null,run_exp/static/audio/clip_8_osn.m4a,null,,,,,,,,
,old_1,204,281847,0.0-204.0,null,run_exp/static/audio/clip_9_old_trumpet.m4a,null,,,,,,,,
,new_1,205,289352,0.0-205.0,null,run_exp/static/audio/clip_10_new_balloon.m4a,null,,,,,,,,
,similar_1a,206,293857,0.0-206.0,null,run_exp/static/audio/clip_11a_similar_mop.m4a,null,,,,,,,,
,similar_1b,207,300359,0.0-207.0,null,run_exp/static/audio/clip_11b_similar_mop.m4a,null,,,,,,,,
,new_2,208,303862,0.0-208.0,null,run_exp/static/audio/clip_12_new_stoplight.m4a,null,,,,,,,,
,old_2,209,307368,0.0-209.0,null,run_exp/static/audio/clip_13_old_baseball.m4a,null,,,,,,,,
,similar_2a,210,310874,0.0-210.0,null,run_exp/static/audio/clip_14a_similar_gummies.m4a,null,,,,,,,,
,similar_2b,211,318378,0.0-211.0,null,run_exp/static/audio/clip_14b_similar_gummies.m4a,null,,,,,,,,
,practice,212,334099,0.0-212.0,null,run_exp/static/audio/clip_15_practice.m4a,null,,,,,"<div class='center'><p>Ok, let’s practice a little to make sure you understand the difference between new, similar, and old. Let’s say you saw these three items in the indoor/outdoor game. Study these because you’ll be tested on them soon in this practice game. </p><p><img src='run_exp/static/images/tutorial/test/three_indoor_outdoor.png' height='300'></p></div>",,,
,html-keyboard-response,213,335687,0.0-213.0,1587.400001,"<div class='center'><p>Ok, let’s practice a little to make sure you understand the difference between new, similar, and old. Let’s say you saw these three items in the indoor/outdoor game. Study these because you’ll be tested on them soon in this practice game. </p><p><img src='run_exp/static/images/tutorial/test/three_indoor_outdoor.png' height='300'></p><div><p><b>[Press the space bar to continue]</b></p></div>",32,,,,,,,,
,practice_q1,214,338694,0.0-214.0,3006.200001,run_exp/static/audio/clip_16_practice_question.m4a,78,,,,,,,,
,correct,215,340577,0.0-215.0-0.0,null,run_exp/static/audio/clip_17_correct.m4a,null,,,,,<div class='center'><p>That's correct!</p></div>,,,
,html-keyboard-response,216,341253,0.0-215.0-1.0,675.3000002,<div class='center'><p>That's correct!</p><div><p><b>[Press the space bar to continue]</b></p></div>,32,,,,,,,,
,practice_q2,217,342478,0.0-215.0-2.0,1222.599999,run_exp/static/audio/clip_16_practice_question.m4a,78,,,,,,,,
,incorrect_q2,218,345500,0.0-216.0-0.0,null,run_exp/static/audio/clip_19_incorrect_old.m4a,null,,,,,<div class='center'><p>That’s incorrect. It’s old.</p></div>,,,
,html-keyboard-response,219,346158,0.0-216.0-1.0,657.3000002,<div class='center'><p>That’s incorrect. It’s old.</p><div><p><b>[Press the space bar to continue]</b></p></div>,32,,,,,,,,
,practice_q3,220,347430,0.0-216.0-2.0,1270.700001,run_exp/static/audio/clip_16_practice_question.m4a,66,,,,,,,,
,correct,221,349308,0.0-217.0-0.0,null,run_exp/static/audio/clip_17_correct.m4a,null,,,,,<div class='center'><p>That's correct!</p></div>,,,
,html-keyboard-response,222,350102,0.0-217.0-1.0,793,<div class='center'><p>That's correct!</p><div><p><b>[Press the space bar to continue]</b></p></div>,32,,,,,,,,
,repeat,223,354812,0.0-218.0-0.0,null,run_exp/static/audio/clip_21_practice_again.m4a,null,,,,,<div class='center'><p>Oops. you missed at least one of these questions. Let's try practiceing again. </p></div>,,,
,html-keyboard-response,224,355359,0.0-218.0-1.0,546.6999998,<div class='center'><p>Oops. you missed at least one of these questions. Let's try practiceing again. </p><div><p><b>[Press the space bar to continue]</b></p></div>,32,,,,,,,,
,practice_q1,225,356911,0.0-218.0-2.0,1551,run_exp/static/audio/clip_16_practice_question.m4a,78,,,,,,,,
,correct,226,358782,0.0-219.0-0.0,null,run_exp/static/audio/clip_17_correct.m4a,null,,,,,<div class='center'><p>That's correct!</p></div>,,,
,html-keyboard-response,227,359414,0.0-219.0-1.0,631.0999994,<div class='center'><p>That's correct!</p><div><p><b>[Press the space bar to continue]</b></p></div>,32,,,,,,,,
,practice_q2,228,359999,0.0-219.0-2.0,584,run_exp/static/audio/clip_16_practice_question.m4a,86,,,,,,,,
,correct,229,361870,0.0-220.0-0.0,null,run_exp/static/audio/clip_17_correct.m4a,null,,,,,<div class='center'><p>That's correct!</p></div>,,,
,html-keyboard-response,230,362302,0.0-220.0-1.0,430.8999996,<div class='center'><p>That's correct!</p><div><p><b>[Press the space bar to continue]</b></p></div>,32,,,,,,,,
,practice_q3,231,362775,0.0-220.0-2.0,472.1000004,run_exp/static/audio/clip_16_practice_question.m4a,66,,,,,,,,
,correct,232,364773,0.0-221.0-0.0,null,run_exp/static/audio/clip_17_correct.m4a,null,,,,,<div class='center'><p>That's correct!</p></div>,,,
,html-keyboard-response,233,365406,0.0-221.0-1.0,632.2000008,<div class='center'><p>That's correct!</p><div><p><b>[Press the space bar to continue]</b></p></div>,32,,,,,,,,
,begin_text,234,380447,0.0-222.0-0.0,null,run_exp/static/audio/clip_22_begin_test.m4a,null,,,,,"<div class='center'><p>Now it’s your turn. For each item, you need to indicate if the item is <b>old</b> by pressing the <b>v</b> key, <b>similar</b> by pressing the <b>b</b> key, or <b>new</b> by pressing the <b>n</b> key. </p></div>",,,
,html-keyboard-response,235,381026,0.0-222.0-1.0,577.5,"<div class='center'><p>Now it’s your turn. For each item, you need to indicate if the item is <b>old</b> by pressing the <b>v</b> key, <b>similar</b> by pressing the <b>b</b> key, or <b>new</b> by pressing the <b>n</b> key. </p><div><p><b>[Press the space bar to continue]</b></p></div>",32,,,,,,,,
,image,236,382496,0.0-223.0-0.0,1469.2,run_exp/static/images/Set 6_rs/012a.jpg,78,,,,,,test,TR,1
,show_choice,237,383001,0.0-223.0-1.0,null,run_exp/static/images/Set 6_rs/012a.jpg,null,,,,,,test,TR,
,html-keyboard-response,238,383502,0.0-223.0-2.0,null,<p></p>,null,,,,,,,,
,image,239,384840,0.0-224.0-0.0,1337,run_exp/static/images/Set 6_rs/062b.jpg,86,,,,,,test,TL,1
,show_choice,240,385341,0.0-224.0-1.0,null,run_exp/static/images/Set 6_rs/062b.jpg,null,,,,,,test,TL,
,html-keyboard-response,241,385843,0.0-224.0-2.0,null,<p></p>,null,,,,,,,,
,image,242,386560,0.0-225.0-0.0,715.5999994,run_exp/static/images/Set 6_rs/076a.jpg,86,,,,,,test,TR,4
,show_choice,243,387063,0.0-225.0-1.0,null,run_exp/static/images/Set 6_rs/076a.jpg,null,,,,,,test,TR,
,html-keyboard-response,244,387566,0.0-225.0-2.0,null,<p></p>,null,,,,,,,,
,image,245,388311,0.0-226.0-0.0,743.3999996,run_exp/static/images/Set 6_rs/117b.jpg,86,,,,,,test,TL,5
,show_choice,246,388816,0.0-226.0-1.0,null,run_exp/static/images/Set 6_rs/117b.jpg,null,,,,,,test,TL,
,html-keyboard-response,247,389316,0.0-226.0-2.0,null,<p></p>,null,,,,,,,,
,image,248,390544,0.0-227.0-0.0,1226.7,run_exp/static/images/Set 6_rs/189a.jpg,66,,,,,,test,TF,5
,show_choice,249,391047,0.0-227.0-1.0,null,run_exp/static/images/Set 6_rs/189a.jpg,null,,,,,,test,TF,
,html-keyboard-response,250,391547,0.0-227.0-2.0,null,<p></p>,null,,,,,,,,
,image,251,392450,0.0-228.0-0.0,901.3999996,run_exp/static/images/Set 6_rs/036b.jpg,86,,,,,,test,TL,4
,show_choice,252,392955,0.0-228.0-1.0,null,run_exp/static/images/Set 6_rs/036b.jpg,null,,,,,,test,TL,
,html-keyboard-response,253,393459,0.0-228.0-2.0,null,<p></p>,null,,,,,,,,
,image,254,394473,0.0-229.0-0.0,1012.7,run_exp/static/images/Set 6_rs/079b.jpg,86,,,,,,test,TL,5
,show_choice,255,394975,0.0-229.0-1.0,null,run_exp/static/images/Set 6_rs/079b.jpg,null,,,,,,test,TL,
,html-keyboard-response,256,395476,0.0-229.0-2.0,null,<p></p>,null,,,,,,,,
,image,257,396377,0.0-230.0-0.0,899.8000002,run_exp/static/images/Set 6_rs/154a.jpg,86,,,,,,test,TR,3
,show_choice,258,396881,0.0-230.0-1.0,null,run_exp/static/images/Set 6_rs/154a.jpg,null,,,,,,test,TR,
,html-keyboard-response,259,397387,0.0-230.0-2.0,null,<p></p>,null,,,,,,,,
,image,260,398153,0.0-231.0-0.0,765.3999996,run_exp/static/images/Set 6_rs/171a.jpg,66,,,,,,test,TF,1
,show_choice,261,398655,0.0-231.0-1.0,null,run_exp/static/images/Set 6_rs/171a.jpg,null,,,,,,test,TF,
,html-keyboard-response,262,399158,0.0-231.0-2.0,null,<p></p>,null,,,,,,,,
,image,263,400081,0.0-232.0-0.0,922.6999998,run_exp/static/images/Set 6_rs/123b.jpg,86,,,,,,test,TL,2
,show_choice,264,400583,0.0-232.0-1.0,null,run_exp/static/images/Set 6_rs/123b.jpg,null,,,,,,test,TL,
,html-keyboard-response,265,401089,0.0-232.0-2.0,null,<p></p>,null,,,,,,,,
,image,266,402017,0.0-233.0-0.0,927.1999998,run_exp/static/images/Set 6_rs/140a.jpg,78,,,,,,test,TF,1
,show_choice,267,402521,0.0-233.0-1.0,null,run_exp/static/images/Set 6_rs/140a.jpg,null,,,,,,test,TF,
,html-keyboard-response,268,403022,0.0-233.0-2.0,null,<p></p>,null,,,,,,,,
,image,269,404130,0.0-234.0-0.0,1107.099999,run_exp/static/images/Set 6_rs/008b.jpg,78,,,,,,test,TL,2
,show_choice,270,404631,0.0-234.0-1.0,null,run_exp/static/images/Set 6_rs/008b.jpg,null,,,,,,test,TL,
,html-keyboard-response,271,405134,0.0-234.0-2.0,null,<p></p>,null,,,,,,,,
,image,272,406210,0.0-235.0-0.0,1074.7,run_exp/static/images/Set 6_rs/108a.jpg,86,,,,,,test,TR,5
,show_choice,273,406715,0.0-235.0-1.0,null,run_exp/static/images/Set 6_rs/108a.jpg,null,,,,,,test,TR,
,html-keyboard-response,274,407216,0.0-235.0-2.0,null,<p></p>,null,,,,,,,,
,image,275,408106,0.0-236.0-0.0,888.6000004,run_exp/static/images/Set 6_rs/148a.jpg,86,,,,,,test,TR,2
,show_choice,276,408610,0.0-236.0-1.0,null,run_exp/static/images/Set 6_rs/148a.jpg,null,,,,,,test,TR,
,html-keyboard-response,277,409111,0.0-236.0-2.0,null,<p></p>,null,,,,,,,,
,image,278,409945,0.0-237.0-0.0,832.2999992,run_exp/static/images/Set 6_rs/122a.jpg,86,,,,,,test,TR,5
,show_choice,279,410450,0.0-237.0-1.0,null,run_exp/static/images/Set 6_rs/122a.jpg,null,,,,,,test,TR,
,html-keyboard-response,280,410952,0.0-237.0-2.0,null,<p></p>,null,,,,,,,,
,image,281,412010,0.0-238.0-0.0,1057.3,run_exp/static/images/Set 6_rs/149a.jpg,66,,,,,,test,TF,1
,show_choice,282,412515,0.0-238.0-1.0,null,run_exp/static/images/Set 6_rs/149a.jpg,null,,,,,,test,TF,
,html-keyboard-response,283,413017,0.0-238.0-2.0,null,<p></p>,null,,,,,,,,
,image,284,414009,0.0-239.0-0.0,991.5999994,run_exp/static/images/Set 6_rs/061a.jpg,86,,,,,,test,TR,5
,show_choice,285,414515,0.0-239.0-1.0,null,run_exp/static/images/Set 6_rs/061a.jpg,null,,,,,,test,TR,
,html-keyboard-response,286,415016,0.0-239.0-2.0,null,<p></p>,null,,,,,,,,
,image,287,415882,0.0-240.0-0.0,865,run_exp/static/images/Set 6_rs/138b.jpg,86,,,,,,test,TL,1
,show_choice,288,416384,0.0-240.0-1.0,null,run_exp/static/images/Set 6_rs/138b.jpg,null,,,,,,test,TL,
,html-keyboard-response,289,416886,0.0-240.0-2.0,null,<p></p>,null,,,,,,,,
,image,290,417690,0.0-241.0-0.0,802.8999996,run_exp/static/images/Set 6_rs/071b.jpg,86,,,,,,test,TL,4
,show_choice,291,418195,0.0-241.0-1.0,null,run_exp/static/images/Set 6_rs/071b.jpg,null,,,,,,test,TL,
,html-keyboard-response,292,418701,0.0-241.0-2.0,null,<p></p>,null,,,,,,,,
,image,293,420002,0.0-242.0-0.0,1299.799999,run_exp/static/images/Set 6_rs/067b.jpg,66,,,,,,test,TL,5
,show_choice,294,420505,0.0-242.0-1.0,null,run_exp/static/images/Set 6_rs/067b.jpg,null,,,,,,test,TL,
,html-keyboard-response,295,421008,0.0-242.0-2.0,null,<p></p>,null,,,,,,,,
,image,296,422306,0.0-243.0-0.0,1297.8,run_exp/static/images/Set 6_rs/065a.jpg,78,,,,,,test,TF,3
,show_choice,297,422808,0.0-243.0-1.0,null,run_exp/static/images/Set 6_rs/065a.jpg,null,,,,,,test,TF,
,html-keyboard-response,298,423310,0.0-243.0-2.0,null,<p></p>,null,,,,,,,,
,image,299,424202,0.0-244.0-0.0,891.1000004,run_exp/static/images/Set 6_rs/155a.jpg,78,,,,,,test,TF,4
,show_choice,300,424707,0.0-244.0-1.0,null,run_exp/static/images/Set 6_rs/155a.jpg,null,,,,,,test,TF,
,html-keyboard-response,301,425213,0.0-244.0-2.0,null,<p></p>,null,,,,,,,,
,image,302,425938,0.0-245.0-0.0,723.2999992,run_exp/static/images/Set 6_rs/168b.jpg,78,,,,,,test,TL,3
,show_choice,303,426441,0.0-245.0-1.0,null,run_exp/static/images/Set 6_rs/168b.jpg,null,,,,,,test,TL,
,html-keyboard-response,304,426942,0.0-245.0-2.0,null,<p></p>,null,,,,,,,,
,image,305,427650,0.0-246.0-0.0,707.3999996,run_exp/static/images/Set 6_rs/190a.jpg,78,,,,,,test,TF,3
,show_choice,306,428155,0.0-246.0-1.0,null,run_exp/static/images/Set 6_rs/190a.jpg,null,,,,,,test,TF,
,html-keyboard-response,307,428660,0.0-246.0-2.0,null,<p></p>,null,,,,,,,,
,image,308,429706,0.0-247.0-0.0,1044.9,run_exp/static/images/Set 6_rs/181b.jpg,66,,,,,,test,TL,1
,show_choice,309,430212,0.0-247.0-1.0,null,run_exp/static/images/Set 6_rs/181b.jpg,null,,,,,,test,TL,
,html-keyboard-response,310,430713,0.0-247.0-2.0,null,<p></p>,null,,,,,,,,
,image,311,432266,0.0-248.0-0.0,1552.3,run_exp/static/images/Set 6_rs/109a.jpg,78,,,,,,test,TF,5
,show_choice,312,432771,0.0-248.0-1.0,null,run_exp/static/images/Set 6_rs/109a.jpg,null,,,,,,test,TF,
,html-keyboard-response,313,433273,0.0-248.0-2.0,null,<p></p>,null,,,,,,,,
,image,314,434130,0.0-249.0-0.0,856.6999998,run_exp/static/images/Set 6_rs/136a.jpg,78,,,,,,test,TF,4
,show_choice,315,434636,0.0-249.0-1.0,null,run_exp/static/images/Set 6_rs/136a.jpg,null,,,,,,test,TF,
,html-keyboard-response,316,435141,0.0-249.0-2.0,null,<p></p>,null,,,,,,,,
,image,317,435987,0.0-250.0-0.0,845.3000002,run_exp/static/images/Set 6_rs/024a.jpg,86,,,,,,test,TR,5
,show_choice,318,436490,0.0-250.0-1.0,null,run_exp/static/images/Set 6_rs/024a.jpg,null,,,,,,test,TR,
,html-keyboard-response,319,436991,0.0-250.0-2.0,null,<p></p>,null,,,,,,,,
,image,320,438547,0.0-251.0-0.0,1554.5,run_exp/static/images/Set 6_rs/129b.jpg,86,,,,,,test,TL,1
,show_choice,321,439051,0.0-251.0-1.0,null,run_exp/static/images/Set 6_rs/129b.jpg,null,,,,,,test,TL,
,html-keyboard-response,322,439553,0.0-251.0-2.0,null,<p></p>,null,,,,,,,,
,image,323,441187,0.0-252.0-0.0,1633,run_exp/static/images/Set 6_rs/016b.jpg,78,,,,,,test,TL,1
,show_choice,324,441688,0.0-252.0-1.0,null,run_exp/static/images/Set 6_rs/016b.jpg,null,,,,,,test,TL,
,html-keyboard-response,325,442190,0.0-252.0-2.0,null,<p></p>,null,,,,,,,,
,image,326,443819,0.0-253.0-0.0,1627.200001,run_exp/static/images/Set 6_rs/097a.jpg,78,,,,,,test,TF,5
,show_choice,327,444323,0.0-253.0-1.0,null,run_exp/static/images/Set 6_rs/097a.jpg,null,,,,,,test,TF,
,html-keyboard-response,328,444824,0.0-253.0-2.0,null,<p></p>,null,,,,,,,,
,image,329,446315,0.0-254.0-0.0,1490.1,run_exp/static/images/Set 6_rs/169a.jpg,86,,,,,,test,TR,4
,show_choice,330,446820,0.0-254.0-1.0,null,run_exp/static/images/Set 6_rs/169a.jpg,null,,,,,,test,TR,
,html-keyboard-response,331,447322,0.0-254.0-2.0,null,<p></p>,null,,,,,,,,
,image,332,448243,0.0-255.0-0.0,920.1000004,run_exp/static/images/Set 6_rs/150a.jpg,86,,,,,,test,TR,1
,show_choice,333,448748,0.0-255.0-1.0,null,run_exp/static/images/Set 6_rs/150a.jpg,null,,,,,,test,TR,
,html-keyboard-response,334,449251,0.0-255.0-2.0,null,<p></p>,null,,,,,,,,
,image,335,450427,0.0-256.0-0.0,1175,run_exp/static/images/Set 6_rs/001a.jpg,86,,,,,,test,TF,1
,show_choice,336,450928,0.0-256.0-1.0,null,run_exp/static/images/Set 6_rs/001a.jpg,null,,,,,,test,TF,
,html-keyboard-response,337,451429,0.0-256.0-2.0,null,<p></p>,null,,,,,,,,
,image,338,452339,0.0-257.0-0.0,908.3999996,run_exp/static/images/Set 6_rs/172a.jpg,86,,,,,,test,TR,1
,show_choice,339,452842,0.0-257.0-1.0,null,run_exp/static/images/Set 6_rs/172a.jpg,null,,,,,,test,TR,
,html-keyboard-response,340,453347,0.0-257.0-2.0,null,<p></p>,null,,,,,,,,
,image,341,454290,0.0-258.0-0.0,942.3999996,run_exp/static/images/Set 6_rs/011a.jpg,78,,,,,,test,TF,3
,show_choice,342,454795,0.0-258.0-1.0,null,run_exp/static/images/Set 6_rs/011a.jpg,null,,,,,,test,TF,
,html-keyboard-response,343,455297,0.0-258.0-2.0,null,<p></p>,null,,,,,,,,
,image,344,456444,0.0-259.0-0.0,1145,run_exp/static/images/Set 6_rs/007a.jpg,86,,,,,,test,TR,3
,show_choice,345,456949,0.0-259.0-1.0,null,run_exp/static/images/Set 6_rs/007a.jpg,null,,,,,,test,TR,
,html-keyboard-response,346,457450,0.0-259.0-2.0,null,<p></p>,null,,,,,,,,
,image,347,458595,0.0-260.0-0.0,1143.900001,run_exp/static/images/Set 6_rs/141a.jpg,86,,,,,,test,TR,2
,show_choice,348,459096,0.0-260.0-1.0,null,run_exp/static/images/Set 6_rs/141a.jpg,null,,,,,,test,TR,
,html-keyboard-response,349,459599,0.0-260.0-2.0,null,<p></p>,null,,,,,,,,
,image,350,460499,0.0-261.0-0.0,899,run_exp/static/images/Set 6_rs/028a.jpg,86,,,,,,test,TF,1
,show_choice,351,461004,0.0-261.0-1.0,null,run_exp/static/images/Set 6_rs/028a.jpg,null,,,,,,test,TF,
,html-keyboard-response,352,461510,0.0-261.0-2.0,null,<p></p>,null,,,,,,,,
,image,353,462290,0.0-262.0-0.0,778.8999996,run_exp/static/images/Set 6_rs/060b.jpg,86,,,,,,test,TL,3
,show_choice,354,462796,0.0-262.0-1.0,null,run_exp/static/images/Set 6_rs/060b.jpg,null,,,,,,test,TL,
,html-keyboard-response,355,463297,0.0-262.0-2.0,null,<p></p>,null,,,,,,,,
,image,356,464475,0.0-263.0-0.0,1177,run_exp/static/images/Set 6_rs/048a.jpg,66,,,,,,test,TF,4
,show_choice,357,464978,0.0-263.0-1.0,null,run_exp/static/images/Set 6_rs/048a.jpg,null,,,,,,test,TF,
,html-keyboard-response,358,465479,0.0-263.0-2.0,null,<p></p>,null,,,,,,,,
,image,359,466452,0.0-264.0-0.0,972.1999998,run_exp/static/images/Set 6_rs/126a.jpg,86,,,,,,test,TR,2
,show_choice,360,466957,0.0-264.0-1.0,null,run_exp/static/images/Set 6_rs/126a.jpg,null,,,,,,test,TR,
,html-keyboard-response,361,467463,0.0-264.0-2.0,null,<p></p>,null,,,,,,,,
,image,362,468292,0.0-265.0-0.0,827.5,run_exp/static/images/Set 6_rs/177a.jpg,86,,,,,,test,TR,5
,show_choice,363,468797,0.0-265.0-1.0,null,run_exp/static/images/Set 6_rs/177a.jpg,null,,,,,,test,TR,
,html-keyboard-response,364,469298,0.0-265.0-2.0,null,<p></p>,null,,,,,,,,
,image,365,470228,0.0-266.0-0.0,928.3999996,run_exp/static/images/Set 6_rs/170a.jpg,86,,,,,,test,TF,2
,show_choice,366,470733,0.0-266.0-1.0,null,run_exp/static/images/Set 6_rs/170a.jpg,null,,,,,,test,TF,
,html-keyboard-response,367,471237,0.0-266.0-2.0,null,<p></p>,null,,,,,,,,
,image,368,472427,0.0-267.0-0.0,1189.8,run_exp/static/images/Set 6_rs/111b.jpg,78,,,,,,test,TL,3
,show_choice,369,472929,0.0-267.0-1.0,null,run_exp/static/images/Set 6_rs/111b.jpg,null,,,,,,test,TL,
,html-keyboard-response,370,473430,0.0-267.0-2.0,null,<p></p>,null,,,,,,,,
,image,371,474500,0.0-268.0-0.0,1068.6,run_exp/static/images/Set 6_rs/121a.jpg,86,,,,,,test,TR,4
,show_choice,372,475005,0.0-268.0-1.0,null,run_exp/static/images/Set 6_rs/121a.jpg,null,,,,,,test,TR,
,html-keyboard-response,373,475507,0.0-268.0-2.0,null,<p></p>,null,,,,,,,,
,image,374,476588,0.0-269.0-0.0,1080.599999,run_exp/static/images/Set 6_rs/017b.jpg,66,,,,,,test,TL,3
,show_choice,375,477093,0.0-269.0-1.0,null,run_exp/static/images/Set 6_rs/017b.jpg,null,,,,,,test,TL,
,html-keyboard-response,376,477595,0.0-269.0-2.0,null,<p></p>,null,,,,,,,,
,image,377,478692,0.0-270.0-0.0,1095.7,run_exp/static/images/Set 6_rs/112a.jpg,86,,,,,,test,TR,5
,show_choice,378,479197,0.0-270.0-1.0,null,run_exp/static/images/Set 6_rs/112a.jpg,null,,,,,,test,TR,
,html-keyboard-response,379,479698,0.0-270.0-2.0,null,<p></p>,null,,,,,,,,
,image,380,480604,0.0-271.0-0.0,904.2999992,run_exp/static/images/Set 6_rs/132a.jpg,86,,,,,,test,TR,5
,show_choice,381,481109,0.0-271.0-1.0,null,run_exp/static/images/Set 6_rs/132a.jpg,null,,,,,,test,TR,
,html-keyboard-response,382,481615,0.0-271.0-2.0,null,<p></p>,null,,,,,,,,
,image,383,482348,0.0-272.0-0.0,731.4000006,run_exp/static/images/Set 6_rs/063a.jpg,86,,,,,,test,TR,2
,show_choice,384,482849,0.0-272.0-1.0,null,run_exp/static/images/Set 6_rs/063a.jpg,null,,,,,,test,TR,
,html-keyboard-response,385,483352,0.0-272.0-2.0,null,<p></p>,null,,,,,,,,
,image,386,484388,0.0-273.0-0.0,1035.099999,run_exp/static/images/Set 6_rs/023a.jpg,86,,,,,,test,TR,3
,show_choice,387,484891,0.0-273.0-1.0,null,run_exp/static/images/Set 6_rs/023a.jpg,null,,,,,,test,TR,
,html-keyboard-response,388,485392,0.0-273.0-2.0,null,<p></p>,null,,,,,,,,
,image,389,486348,0.0-274.0-0.0,955.0999994,run_exp/static/images/Set 6_rs/077a.jpg,86,,,,,,test,TF,3
,show_choice,390,486853,0.0-274.0-1.0,null,run_exp/static/images/Set 6_rs/077a.jpg,null,,,,,,test,TF,
,html-keyboard-response,391,487359,0.0-274.0-2.0,null,<p></p>,null,,,,,,,,
,image,392,488212,0.0-275.0-0.0,852.1000004,run_exp/static/images/Set 6_rs/090a.jpg,78,,,,,,test,TF,5
,show_choice,393,488714,0.0-275.0-1.0,null,run_exp/static/images/Set 6_rs/090a.jpg,null,,,,,,test,TF,
,html-keyboard-response,394,489216,0.0-275.0-2.0,null,<p></p>,null,,,,,,,,
,image,395,490156,0.0-276.0-0.0,938.6999998,run_exp/static/images/Set 6_rs/025b.jpg,86,,,,,,test,TL,5
,show_choice,396,490657,0.0-276.0-1.0,null,run_exp/static/images/Set 6_rs/025b.jpg,null,,,,,,test,TL,
,html-keyboard-response,397,491163,0.0-276.0-2.0,null,<p></p>,null,,,,,,,,
,image,398,492580,0.0-277.0-0.0,1415.4,run_exp/static/images/Set 6_rs/118a.jpg,66,,,,,,test,TF,5
,show_choice,399,493082,0.0-277.0-1.0,null,run_exp/static/images/Set 6_rs/118a.jpg,null,,,,,,test,TF,
,html-keyboard-response,400,493583,0.0-277.0-2.0,null,<p></p>,null,,,,,,,,
,image,401,494796,0.0-278.0-0.0,1211.900001,run_exp/static/images/Set 6_rs/089b.jpg,66,,,,,,test,TL,4
,show_choice,402,495300,0.0-278.0-1.0,null,run_exp/static/images/Set 6_rs/089b.jpg,null,,,,,,test,TL,
,html-keyboard-response,403,495801,0.0-278.0-2.0,null,<p></p>,null,,,,,,,,
,image,404,497252,0.0-279.0-0.0,1450.099999,run_exp/static/images/Set 6_rs/188a.jpg,78,,,,,,test,TF,3
,show_choice,405,497758,0.0-279.0-1.0,null,run_exp/static/images/Set 6_rs/188a.jpg,null,,,,,,test,TF,
,html-keyboard-response,406,498259,0.0-279.0-2.0,null,<p></p>,null,,,,,,,,
,image,407,499309,0.0-280.0-0.0,1049.1,run_exp/static/images/Set 6_rs/186a.jpg,86,,,,,,test,TR,5
,show_choice,408,499814,0.0-280.0-1.0,null,run_exp/static/images/Set 6_rs/186a.jpg,null,,,,,,test,TR,
,html-keyboard-response,409,500315,0.0-280.0-2.0,null,<p></p>,null,,,,,,,,
,image,410,501924,0.0-281.0-0.0,1607.7,run_exp/static/images/Set 6_rs/152a.jpg,86,,,,,,test,TR,2
,show_choice,411,502430,0.0-281.0-1.0,null,run_exp/static/images/Set 6_rs/152a.jpg,null,,,,,,test,TR,
,html-keyboard-response,412,502931,0.0-281.0-2.0,null,<p></p>,null,,,,,,,,
,image,413,503940,0.0-282.0-0.0,1008.7,run_exp/static/images/Set 6_rs/074b.jpg,86,,,,,,test,TL,4
,show_choice,414,504442,0.0-282.0-1.0,null,run_exp/static/images/Set 6_rs/074b.jpg,null,,,,,,test,TL,
,html-keyboard-response,415,504943,0.0-282.0-2.0,null,<p></p>,null,,,,,,,,
,image,416,506108,0.0-283.0-0.0,1164.099999,run_exp/static/images/Set 6_rs/105a.jpg,78,,,,,,test,TF,5
,show_choice,417,506610,0.0-283.0-1.0,null,run_exp/static/images/Set 6_rs/105a.jpg,null,,,,,,test,TF,
,html-keyboard-response,418,507112,0.0-283.0-2.0,null,<p></p>,null,,,,,,,,
,image,419,508236,0.0-284.0-0.0,1122.5,run_exp/static/images/Set 6_rs/066b.jpg,86,,,,,,test,TL,5
,show_choice,420,508741,0.0-284.0-1.0,null,run_exp/static/images/Set 6_rs/066b.jpg,null,,,,,,test,TL,
,html-keyboard-response,421,509243,0.0-284.0-2.0,null,<p></p>,null,,,,,,,,
,image,422,510525,0.0-285.0-0.0,1281.3,run_exp/static/images/Set 6_rs/086a.jpg,78,,,,,,test,TF,1
,show_choice,423,511030,0.0-285.0-1.0,null,run_exp/static/images/Set 6_rs/086a.jpg,null,,,,,,test,TF,
,html-keyboard-response,424,511532,0.0-285.0-2.0,null,<p></p>,null,,,,,,,,
,image,425,512284,0.0-286.0-0.0,751.1999998,run_exp/static/images/Set 6_rs/078a.jpg,78,,,,,,test,TF,1
,show_choice,426,512785,0.0-286.0-1.0,null,run_exp/static/images/Set 6_rs/078a.jpg,null,,,,,,test,TF,
,html-keyboard-response,427,513291,0.0-286.0-2.0,null,<p></p>,null,,,,,,,,
,image,428,514397,0.0-287.0-0.0,1104.900001,run_exp/static/images/Set 6_rs/019b.jpg,86,,,,,,test,TL,2
,show_choice,429,514898,0.0-287.0-1.0,null,run_exp/static/images/Set 6_rs/019b.jpg,null,,,,,,test,TL,
,html-keyboard-response,430,515400,0.0-287.0-2.0,null,<p></p>,null,,,,,,,,
,image,431,516932,0.0-288.0-0.0,1531.2,run_exp/static/images/Set 6_rs/100a.jpg,66,,,,,,test,TF,2
,show_choice,432,517434,0.0-288.0-1.0,null,run_exp/static/images/Set 6_rs/100a.jpg,null,,,,,,test,TF,
,html-keyboard-response,433,517936,0.0-288.0-2.0,null,<p></p>,null,,,,,,,,
,image,434,518725,0.0-289.0-0.0,788.3999996,run_exp/static/images/Set 6_rs/052a.jpg,78,,,,,,test,TF,1
,show_choice,435,519226,0.0-289.0-1.0,null,run_exp/static/images/Set 6_rs/052a.jpg,null,,,,,,test,TF,
,html-keyboard-response,436,519732,0.0-289.0-2.0,null,<p></p>,null,,,,,,,,
,image,437,520493,0.0-290.0-0.0,759.6999998,run_exp/static/images/Set 6_rs/015a.jpg,78,,,,,,test,TF,4
,show_choice,438,520995,0.0-290.0-1.0,null,run_exp/static/images/Set 6_rs/015a.jpg,null,,,,,,test,TF,
,html-keyboard-response,439,521497,0.0-290.0-2.0,null,<p></p>,null,,,,,,,,
,image,440,522485,0.0-291.0-0.0,987,run_exp/static/images/Set 6_rs/134a.jpg,86,,,,,,test,TR,3
,show_choice,441,522988,0.0-291.0-1.0,null,run_exp/static/images/Set 6_rs/134a.jpg,null,,,,,,test,TR,
,html-keyboard-response,442,523491,0.0-291.0-2.0,null,<p></p>,null,,,,,,,,
,image,443,524429,0.0-292.0-0.0,936.5999994,run_exp/static/images/Set 6_rs/095b.jpg,86,,,,,,test,TL,5
,show_choice,444,524934,0.0-292.0-1.0,null,run_exp/static/images/Set 6_rs/095b.jpg,null,,,,,,test,TL,
,html-keyboard-response,445,525436,0.0-292.0-2.0,null,<p></p>,null,,,,,,,,
,image,446,526941,0.0-293.0-0.0,1504.400001,run_exp/static/images/Set 6_rs/131a.jpg,86,,,,,,test,TR,5
,show_choice,447,527444,0.0-293.0-1.0,null,run_exp/static/images/Set 6_rs/131a.jpg,null,,,,,,test,TR,
,html-keyboard-response,448,527945,0.0-293.0-2.0,null,<p></p>,null,,,,,,,,
,image,449,529093,0.0-294.0-0.0,1146.7,run_exp/static/images/Set 6_rs/191b.jpg,86,,,,,,test,TL,2
,show_choice,450,529598,0.0-294.0-1.0,null,run_exp/static/images/Set 6_rs/191b.jpg,null,,,,,,test,TL,
,html-keyboard-response,451,530099,0.0-294.0-2.0,null,<p></p>,null,,,,,,,,
,image,452,530981,0.0-295.0-0.0,880.8000002,run_exp/static/images/Set 6_rs/085b.jpg,86,,,,,,test,TL,1
,show_choice,453,531484,0.0-295.0-1.0,null,run_exp/static/images/Set 6_rs/085b.jpg,null,,,,,,test,TL,
,html-keyboard-response,454,531990,0.0-295.0-2.0,null,<p></p>,null,,,,,,,,
,image,455,532982,0.0-296.0-0.0,990.7000008,run_exp/static/images/Set 6_rs/144b.jpg,86,,,,,,test,TL,4
,show_choice,456,533487,0.0-296.0-1.0,null,run_exp/static/images/Set 6_rs/144b.jpg,null,,,,,,test,TL,
,html-keyboard-response,457,533988,0.0-296.0-2.0,null,<p></p>,null,,,,,,,,
,image,458,534733,0.0-297.0-0.0,743.9000006,run_exp/static/images/Set 6_rs/056a.jpg,86,,,,,,test,TF,3
,show_choice,459,535237,0.0-297.0-1.0,null,run_exp/static/images/Set 6_rs/056a.jpg,null,,,,,,test,TF,
,html-keyboard-response,460,535743,0.0-297.0-2.0,null,<p></p>,null,,,,,,,,
,image,461,536486,0.0-298.0-0.0,741.3000002,run_exp/static/images/Set 6_rs/035a.jpg,78,,,,,,test,TF,4
,show_choice,462,536991,0.0-298.0-1.0,null,run_exp/static/images/Set 6_rs/035a.jpg,null,,,,,,test,TF,
,html-keyboard-response,463,537492,0.0-298.0-2.0,null,<p></p>,null,,,,,,,,
,image,464,538494,0.0-299.0-0.0,1000.4,run_exp/static/images/Set 6_rs/167b.jpg,86,,,,,,test,TL,2
,show_choice,465,538997,0.0-299.0-1.0,null,run_exp/static/images/Set 6_rs/167b.jpg,null,,,,,,test,TL,
,html-keyboard-response,466,539500,0.0-299.0-2.0,null,<p></p>,null,,,,,,,,
,image,467,540733,0.0-300.0-0.0,1232.2,run_exp/static/images/Set 6_rs/091b.jpg,78,,,,,,test,TL,3
,show_choice,468,541239,0.0-300.0-1.0,null,run_exp/static/images/Set 6_rs/091b.jpg,null,,,,,,test,TL,
,html-keyboard-response,469,541740,0.0-300.0-2.0,null,<p></p>,null,,,,,,,,
,image,470,543150,0.0-301.0-0.0,1409,run_exp/static/images/Set 6_rs/178a.jpg,86,,,,,,test,TR,3
,show_choice,471,543655,0.0-301.0-1.0,null,run_exp/static/images/Set 6_rs/178a.jpg,null,,,,,,test,TR,
,html-keyboard-response,472,544156,0.0-301.0-2.0,null,<p></p>,null,,,,,,,,
,image,473,545166,0.0-302.0-0.0,1008.2,run_exp/static/images/Set 6_rs/166a.jpg,86,,,,,,test,TR,1
,show_choice,474,545667,0.0-302.0-1.0,null,run_exp/static/images/Set 6_rs/166a.jpg,null,,,,,,test,TR,
,html-keyboard-response,475,546168,0.0-302.0-2.0,null,<p></p>,null,,,,,,,,
,image,476,546878,0.0-303.0-0.0,708.1000004,run_exp/static/images/Set 6_rs/116b.jpg,86,,,,,,test,TL,2
,show_choice,477,547381,0.0-303.0-1.0,null,run_exp/static/images/Set 6_rs/116b.jpg,null,,,,,,test,TL,
,html-keyboard-response,478,547882,0.0-303.0-2.0,null,<p></p>,null,,,,,,,,
,image,479,548934,0.0-304.0-0.0,1050.900001,run_exp/static/images/Set 6_rs/073b.jpg,86,,,,,,test,TL,3
,show_choice,480,549435,0.0-304.0-1.0,null,run_exp/static/images/Set 6_rs/073b.jpg,null,,,,,,test,TL,
,html-keyboard-response,481,549937,0.0-304.0-2.0,null,<p></p>,null,,,,,,,,
,image,482,550590,0.0-305.0-0.0,650.8999996,run_exp/static/images/Set 6_rs/045a.jpg,86,,,,,,test,TR,2
,show_choice,483,551093,0.0-305.0-1.0,null,run_exp/static/images/Set 6_rs/045a.jpg,null,,,,,,test,TR,
,html-keyboard-response,484,551599,0.0-305.0-2.0,null,<p></p>,null,,,,,,,,
,image,485,552486,0.0-306.0-0.0,885.6000004,run_exp/static/images/Set 6_rs/022a.jpg,86,,,,,,test,TF,4
,show_choice,486,552991,0.0-306.0-1.0,null,run_exp/static/images/Set 6_rs/022a.jpg,null,,,,,,test,TF,
,html-keyboard-response,487,553493,0.0-306.0-2.0,null,<p></p>,null,,,,,,,,
,image,488,554510,0.0-307.0-0.0,1016.5,run_exp/static/images/Set 6_rs/006b.jpg,86,,,,,,test,TL,2
,show_choice,489,555016,0.0-307.0-1.0,null,run_exp/static/images/Set 6_rs/006b.jpg,null,,,,,,test,TL,
,html-keyboard-response,490,555517,0.0-307.0-2.0,null,<p></p>,null,,,,,,,,
,image,491,556318,0.0-308.0-0.0,799.7999992,run_exp/static/images/Set 6_rs/010a.jpg,86,,,,,,test,TR,5
,show_choice,492,556820,0.0-308.0-1.0,null,run_exp/static/images/Set 6_rs/010a.jpg,null,,,,,,test,TR,
,html-keyboard-response,493,557321,0.0-308.0-2.0,null,<p></p>,null,,,,,,,,
,image,494,558510,0.0-309.0-0.0,1187.5,run_exp/static/images/Set 6_rs/055b.jpg,66,,,,,,test,TL,4
,show_choice,495,559014,0.0-309.0-1.0,null,run_exp/static/images/Set 6_rs/055b.jpg,null,,,,,,test,TL,
,html-keyboard-response,496,559514,0.0-309.0-2.0,null,<p></p>,null,,,,,,,,
,image,497,560886,0.0-310.0-0.0,1370.3,run_exp/static/images/Set 6_rs/021a.jpg,78,,,,,,test,TF,2
,show_choice,498,561391,0.0-310.0-1.0,null,run_exp/static/images/Set 6_rs/021a.jpg,null,,,,,,test,TF,
,html-keyboard-response,499,561892,0.0-310.0-2.0,null,<p></p>,null,,,,,,,,
,image,500,563134,0.0-311.0-0.0,1240.6,run_exp/static/images/Set 6_rs/064a.jpg,86,,,,,,test,TR,5
,show_choice,501,563636,0.0-311.0-1.0,null,run_exp/static/images/Set 6_rs/064a.jpg,null,,,,,,test,TR,
,html-keyboard-response,502,564138,0.0-311.0-2.0,null,<p></p>,null,,,,,,,,
,image,503,564942,0.0-312.0-0.0,803.4000006,run_exp/static/images/Set 6_rs/176a.jpg,66,,,,,,test,TF,4
,show_choice,504,565444,0.0-312.0-1.0,null,run_exp/static/images/Set 6_rs/176a.jpg,null,,,,,,test,TF,
,html-keyboard-response,505,565946,0.0-312.0-2.0,null,<p></p>,null,,,,,,,,
,image,506,566822,0.0-313.0-0.0,874.7999992,run_exp/static/images/Set 6_rs/047a.jpg,78,,,,,,test,TF,3
,show_choice,507,567326,0.0-313.0-1.0,null,run_exp/static/images/Set 6_rs/047a.jpg,null,,,,,,test,TF,
,html-keyboard-response,508,567826,0.0-313.0-2.0,null,<p></p>,null,,,,,,,,
,image,509,568511,0.0-314.0-0.0,679.7999992,run_exp/static/images/Set 6_rs/187a.jpg,86,,,,,,test,TR,3
,show_choice,510,569013,0.0-314.0-1.0,null,run_exp/static/images/Set 6_rs/187a.jpg,null,,,,,,test,TR,
,html-keyboard-response,511,569519,0.0-314.0-2.0,null,<p></p>,null,,,,,,,,
,image,512,570606,0.0-315.0-0.0,1085.8,run_exp/static/images/Set 6_rs/133a.jpg,78,,,,,,test,TF,4
,show_choice,513,571112,0.0-315.0-1.0,null,run_exp/static/images/Set 6_rs/133a.jpg,null,,,,,,test,TF,
,html-keyboard-response,514,571613,0.0-315.0-2.0,null,<p></p>,null,,,,,,,,
,image,515,572670,0.0-316.0-0.0,1056,run_exp/static/images/Set 6_rs/075a.jpg,86,,,,,,test,TR,1
,show_choice,516,573172,0.0-316.0-1.0,null,run_exp/static/images/Set 6_rs/075a.jpg,null,,,,,,test,TR,
,html-keyboard-response,517,573676,0.0-316.0-2.0,null,<p></p>,null,,,,,,,,
,image,518,574607,0.0-317.0-0.0,929.5,run_exp/static/images/Set 6_rs/057b.jpg,86,,,,,,test,TL,1
,show_choice,519,575112,0.0-317.0-1.0,null,run_exp/static/images/Set 6_rs/057b.jpg,null,,,,,,test,TL,
,html-keyboard-response,520,575614,0.0-317.0-2.0,null,<p></p>,null,,,,,,,,
,image,521,576535,0.0-318.0-0.0,920,run_exp/static/images/Set 6_rs/088a.jpg,86,,,,,,test,TR,2
,show_choice,522,577040,0.0-318.0-1.0,null,run_exp/static/images/Set 6_rs/088a.jpg,null,,,,,,test,TR,
,html-keyboard-response,523,577541,0.0-318.0-2.0,null,<p></p>,null,,,,,,,,
,all_done,524,584514,0.0-319.0-0.0,null,run_exp/static/audio/clip_23_all_done.m4a,null,,,,,<div class='center'><p>You are finished with all three parts of the experiment! You can press the space bar to end the game now. </p></div>,,,
,html-keyboard-response,525,585394,0.0-319.0-1.0,879.4000006,<div class='center'><p>You are finished with all three parts of the experiment! You can press the space bar to end the game now. </p><div><p><b>[Press the space bar to continue]</b></p></div>,32,,,,,,,,