"success","trial_type","trial_index","time_elapsed","internal_node_id","interactions","blur_events","focus_events","fullscreenenter_events","fullscreenexit_events","rt","stimulus","key_press","subject_id","participant_id","age","gender","prompt","phase","condition","lure_bin"
"true","fullscreen","0","4883","0.0-0.0","""event"",""trial"",""time""
""fullscreenenter"",""0"",""3920""
","
","
","""event"",""trial"",""time""
""fullscreenenter"",""0"",""3920""
","
","","","","","","","","","","",""
"","pavlovia","1","4886","0.0-1.0","""event"",""trial"",""time""
""fullscreenenter"",""0"",""3920""
","
","
","""event"",""trial"",""time""
""fullscreenenter"",""0"",""3920""
","
","","","","","","","","","","",""
"","welcome","2","39700","0.0-2.0","""event"",""trial"",""time""
""fullscreenenter"",""0"",""3920""
","
","
","""event"",""trial"",""time""
""fullscreenenter"",""0"",""3920""
","
","null","run_exp/static/audio/clip_1_welcome.m4a","null","490","891","23","Female","<div class='center'><p>Welcome to the third part of the study! First, you'll be shown pictures of items one at a time. For each picture, you have to decide if the item is typically found indoors or outdoors.</p><p>If you think it's usually found indoors, then press <b>v</b> key on your keyboard. If you think it's usually found outdoors, then press the <b>n</b> key.There will be reminders on the screen to help you remember which keys to press. </p><p>If you're not sure whether the item is an indoor item or an outdoor item, go ahead and take a guess but try your best not to skip that choice. </p></div>","","",""
"","html-keyboard-response","3","40325","0.0-3.0","""event"",""trial"",""time""
""fullscreenenter"",""0"",""3920""
","
","
","""event"",""trial"",""time""
""fullscreenenter"",""0"",""3920""
","
","619.8999999761581","<div class='center'><p>Welcome to the third part of the study! First, you'll be shown pictures of items one at a time. For each picture, you have to decide if the item is typically found indoors or outdoors.</p><p>If you think it's usually found indoors, then press <b>v</b> key on your keyboard. If you think it's usually found outdoors, then press the <b>n</b> key.There will be reminders on the screen to help you remember which keys to press. </p><p>If you're not sure whether the item is an indoor item or an outdoor item, go ahead and take a guess but try your best not to skip that choice. </p><div><p><b>[Press the space bar to continue]</b></p></div>","32","","","","","","","",""
"","image","4","42050","0.0-4.0","""event"",""trial"",""time""
""fullscreenenter"",""0"",""3920""
","
","
","""event"",""trial"",""time""
""fullscreenenter"",""0"",""3920""
","
","1723.4000000357628","run_exp/static/images/Set 6_rs/172a.jpg","78","","","","","","learn","SR",""
"","show_choice","5","42328","0.0-5.0","""event"",""trial"",""time""
""fullscreenenter"",""0"",""3920""
","
","
","""event"",""trial"",""time""
""fullscreenenter"",""0"",""3920""
","
","null","run_exp/static/images/Set 6_rs/172a.jpg","null","","","","","","learn","SR",""
"","html-keyboard-response","6","42830","0.0-6.0","""event"",""trial"",""time""
""fullscreenenter"",""0"",""3920""
","
","
","""event"",""trial"",""time""
""fullscreenenter"",""0"",""3920""
","
","null","<p></p>","null","","","","","","","",""
"","image","7","43936","0.0-7.0","""event"",""trial"",""time""
""fullscreenenter"",""0"",""3920""
","
","
","""event"",""trial"",""time""
""fullscreenenter"",""0"",""3920""
","
","1105.5","run_exp/static/images/Set 6_rs/057a.jpg","86","","","","","","learn","SL",""
"","show_choice","8","44833","0.0-8.0","""event"",""trial"",""time""
""fullscreenenter"",""0"",""3920""
","
","
","""event"",""trial"",""time""
""fullscreenenter"",""0"",""3920""
","
","null","run_exp/static/images/Set 6_rs/057a.jpg","null","","","","","","learn","SL",""
"","html-keyboard-response","9","45334","0.0-9.0","""event"",""trial"",""time""
""fullscreenenter"",""0"",""3920""
","
","
","""event"",""trial"",""time""
""fullscreenenter"",""0"",""3920""
","
","null","<p></p>","null","","","","","","","",""
"","image","10","46633","0.0-10.0","""event"",""trial"",""time""
""fullscreenenter"",""0"",""3920""
","
","
","""event"",""trial"",""time""
""fullscreenenter"",""0"",""3920""
","
","1297.300000011921","run_exp/static/images/Set 6_rs/138a.jpg","78","","","","","","learn","SL",""
"","show_choice","11","47336","0.0-11.0","""event"",""trial"",""time""
""fullscreenenter"",""0"",""3920""
","
","
","""event"",""trial"",""time""
""fullscreenenter"",""0"",""3920""
","
","null","run_exp/static/images/Set 6_rs/138a.jpg","null","","","","","","learn","SL",""
"","html-keyboard-response","12","47838","0.0-12.0","""event"",""trial"",""time""
""fullscreenenter"",""0"",""3920""
","
","
","""event"",""trial"",""time""
""fullscreenenter"",""0"",""3920""
","
","null","<p></p>","null","","","","","","","",""
"","image","13","48811","0.0-13.0","""event"",""trial"",""time""
""fullscreenenter"",""0"",""3920""
","
","
","""event"",""trial"",""time""
""fullscreenenter"",""0"",""3920""
","
","971.8999999761581","run_exp/static/images/Set 6_rs/010a.jpg","86","","","","","","learn","SR",""
"","show_choice","14","49841","0.0-14.0","""event"",""trial"",""time""
""fullscreenenter"",""0"",""3920""
","
","
","""event"",""trial"",""time""
""fullscreenenter"",""0"",""3920""
","
","null","run_exp/static/images/Set 6_rs/010a.jpg","null","","","","","","learn","SR",""
"","html-keyboard-response","15","50342","0.0-15.0","""event"",""trial"",""time""
""fullscreenenter"",""0"",""3920""
","
","
","""event"",""trial"",""time""
""fullscreenenter"",""0"",""3920""
","
","null","<p></p>","null","","","","","","","",""
"","image","16","51732","0.0-16.0","""event"",""trial"",""time""
""fullscreenenter"",""0"",""3920""
","
","
","""event"",""trial"",""time""
""fullscreenenter"",""0"",""3920""
","
","1389.699999988079","run_exp/static/images/Set 6_rs/168a.jpg","86","","","","","","learn","SL",""
"","show_choice","17","52344","0.0-17.0","""event"",""trial"",""time""
""fullscreenenter"",""0"",""3920""
","
","
","""event"",""trial"",""time""
""fullscreenenter"",""0"",""3920""
","
","null","run_exp/static/images/Set 6_rs/168a.jpg","null","","","","","","learn","SL",""
"","html-keyboard-response","18","52846","0.0-18.0","""event"",""trial"",""time""
""fullscreenenter"",""0"",""3920""
","
","
","""event"",""trial"",""time""
""fullscreenenter"",""0"",""3920""
","
","null","<p></p>","null","","","","","","","",""
"","image","19","53637","0.0-19.0","""event"",""trial"",""time""
""fullscreenenter"",""0"",""3920""
","
","
","""event"",""trial"",""time""
""fullscreenenter"",""0"",""3920""
","
","790","run_exp/static/images/Set 6_rs/154a.jpg","86","","","","","","learn","SR",""
"","show_choice","20","54849","0.0-20.0","""event"",""trial"",""time""
""fullscreenenter"",""0"",""3920""
","
","
","""event"",""trial"",""time""
""fullscreenenter"",""0"",""3920""
","
","null","run_exp/static/images/Set 6_rs/154a.jpg","null","","","","","","learn","SR",""
"","html-keyboard-response","21","55351","0.0-21.0","""event"",""trial"",""time""
""fullscreenenter"",""0"",""3920""
","
","
","""event"",""trial"",""time""
""fullscreenenter"",""0"",""3920""
","
","null","<p></p>","null","","","","","","","",""
"","image","22","57083","0.0-22.0","""event"",""trial"",""time""
""fullscreenenter"",""0"",""3920""
","
","
","""event"",""trial"",""time""
""fullscreenenter"",""0"",""3920""
","
","1731","run_exp/static/images/Set 6_rs/152a.jpg","78","","","","","","learn","SR",""
"","show_choice","23","57353","0.0-23.0","""event"",""trial"",""time""
""fullscreenenter"",""0"",""3920""
","
","
","""event"",""trial"",""time""
""fullscreenenter"",""0"",""3920""
","
","null","run_exp/static/images/Set 6_rs/152a.jpg","null","","","","","","learn","SR",""
"","html-keyboard-response","24","57855","0.0-24.0","""event"",""trial"",""time""
""fullscreenenter"",""0"",""3920""
","
","
","""event"",""trial"",""time""
""fullscreenenter"",""0"",""3920""
","
","null","<p></p>","null","","","","","","","",""
"","image","25","59668","0.0-25.0","""event"",""trial"",""time""
""fullscreenenter"",""0"",""3920""
","
","
","""event"",""trial"",""time""
""fullscreenenter"",""0"",""3920""
","
","1811.5","run_exp/static/images/Set 6_rs/122a.jpg","86","","","","","","learn","SR",""
"","show_choice","26","59858","0.0-26.0","""event"",""trial"",""time""
""fullscreenenter"",""0"",""3920""
","
","
","""event"",""trial"",""time""
""fullscreenenter"",""0"",""3920""
","
","null","run_exp/static/images/Set 6_rs/122a.jpg","null","","","","","","learn","SR",""
"","html-keyboard-response","27","60360","0.0-27.0","""event"",""trial"",""time""
""fullscreenenter"",""0"",""3920""
","
","
","""event"",""trial"",""time""
""fullscreenenter"",""0"",""3920""
","
","null","<p></p>","null","","","","","","","",""
"","image","28","61484","0.0-28.0","""event"",""trial"",""time""
""fullscreenenter"",""0"",""3920""
","
","
","""event"",""trial"",""time""
""fullscreenenter"",""0"",""3920""
","
","1123.3999999761581","run_exp/static/images/Set 6_rs/177a.jpg","78","","","","","","learn","SR",""
"","show_choice","29","62362","0.0-29.0","""event"",""trial"",""time""
""fullscreenenter"",""0"",""3920""
","
","
","""event"",""trial"",""time""
""fullscreenenter"",""0"",""3920""
","
","null","run_exp/static/images/Set 6_rs/177a.jpg","null","","","","","","learn","SR",""
"","html-keyboard-response","30","62864","0.0-30.0","""event"",""trial"",""time""
""fullscreenenter"",""0"",""3920""
","
","
","""event"",""trial"",""time""
""fullscreenenter"",""0"",""3920""
","
","null","<p></p>","null","","","","","","","",""
"","image","31","64255","0.0-31.0","""event"",""trial"",""time""
""fullscreenenter"",""0"",""3920""
","
","
","""event"",""trial"",""time""
""fullscreenenter"",""0"",""3920""
","
","1390.0999999642372","run_exp/static/images/Set 6_rs/091a.jpg","86","","","","","","learn","SL",""
"","show_choice","32","64866","0.0-32.0","""event"",""trial"",""time""
""fullscreenenter"",""0"",""3920""
","
","
","""event"",""trial"",""time""
""fullscreenenter"",""0"",""3920""
","
","null","run_exp/static/images/Set 6_rs/091a.jpg","null","","","","","","learn","SL",""
"","html-keyboard-response","33","65368","0.0-33.0","""event"",""trial"",""time""
""fullscreenenter"",""0"",""3920""
","
","
","""event"",""trial"",""time""
""fullscreenenter"",""0"",""3920""
","
","null","<p></p>","null","","","","","","","",""
"","image","34","66272","0.0-34.0","""event"",""trial"",""time""
""fullscreenenter"",""0"",""3920""
","
","
","""event"",""trial"",""time""
""fullscreenenter"",""0"",""3920""
","
","903.3999999761581","run_exp/static/images/Set 6_rs/111a.jpg","86","","","","","","learn","SL",""
"","show_choice","35","67369","0.0-35.0","""event"",""trial"",""time""
""fullscreenenter"",""0"",""3920""
","
","
","""event"",""trial"",""time""
""fullscreenenter"",""0"",""3920""
","
","null","run_exp/static/images/Set 6_rs/111a.jpg","null","","","","","","learn","SL",""
"","html-keyboard-response","36","67871","0.0-36.0","""event"",""trial"",""time""
""fullscreenenter"",""0"",""3920""
","
","
","""event"",""trial"",""time""
""fullscreenenter"",""0"",""3920""
","
","null","<p></p>","null","","","","","","","",""
"","image","37","68606","0.0-37.0","""event"",""trial"",""time""
""fullscreenenter"",""0"",""3920""
","
","
","""event"",""trial"",""time""
""fullscreenenter"",""0"",""3920""
","
","733.3000000119209","run_exp/static/images/Set 6_rs/144a.jpg","86","","","","","","learn","SL",""
"","show_choice","38","69873","0.0-38.0","""event"",""trial"",""time""
""fullscreenenter"",""0"",""3920""
","
","
","""event"",""trial"",""time""
""fullscreenenter"",""0"",""3920""
","
","null","run_exp/static/images/Set 6_rs/144a.jpg","null","","","","","","learn","SL",""
"","html-keyboard-response","39","70375","0.0-39.0","""event"",""trial"",""time""
""fullscreenenter"",""0"",""3920""
","
","
","""event"",""trial"",""time""
""fullscreenenter"",""0"",""3920""
","
","null","<p></p>","null","","","","","","","",""
"","image","40","71368","0.0-40.0","""event"",""trial"",""time""
""fullscreenenter"",""0"",""3920""
","
","
","""event"",""trial"",""time""
""fullscreenenter"",""0"",""3920""
","
","992.3000000119209","run_exp/static/images/Set 6_rs/129a.jpg","86","","","","","","learn","SL",""
"","show_choice","41","72377","0.0-41.0","""event"",""trial"",""time""
""fullscreenenter"",""0"",""3920""
","
","
","""event"",""trial"",""time""
""fullscreenenter"",""0"",""3920""
","
","null","run_exp/static/images/Set 6_rs/129a.jpg","null","","","","","","learn","SL",""
"","html-keyboard-response","42","72877","0.0-42.0","""event"",""trial"",""time""
""fullscreenenter"",""0"",""3920""
","
","
","""event"",""trial"",""time""
""fullscreenenter"",""0"",""3920""
","
","null","<p></p>","null","","","","","","","",""
"","image","43","73649","0.0-43.0","""event"",""trial"",""time""
""fullscreenenter"",""0"",""3920""
","
","
","""event"",""trial"",""time""
""fullscreenenter"",""0"",""3920""
","
","770.5","run_exp/static/images/Set 6_rs/055a.jpg","86","","","","","","learn","SL",""
"","show_choice","44","74880","0.0-44.0","""event"",""trial"",""time""
""fullscreenenter"",""0"",""3920""
","
","
","""event"",""trial"",""time""
""fullscreenenter"",""0"",""3920""
","
","null","run_exp/static/images/Set 6_rs/055a.jpg","null","","","","","","learn","SL",""
"","html-keyboard-response","45","75381","0.0-45.0","""event"",""trial"",""time""
""fullscreenenter"",""0"",""3920""
","
","
","""event"",""trial"",""time""
""fullscreenenter"",""0"",""3920""
","
","null","<p></p>","null","","","","","","","",""
"","image","46","76391","0.0-46.0","""event"",""trial"",""time""
""fullscreenenter"",""0"",""3920""
","
","
","""event"",""trial"",""time""
""fullscreenenter"",""0"",""3920""
","
","1008.5","run_exp/static/images/Set 6_rs/066a.jpg","86","","","","","","learn","SL",""
"","show_choice","47","77384","0.0-47.0","""event"",""trial"",""time""
""fullscreenenter"",""0"",""3920""
","
","
","""event"",""trial"",""time""
""fullscreenenter"",""0"",""3920""
","
","null","run_exp/static/images/Set 6_rs/066a.jpg","null","","","","","","learn","SL",""
"","html-keyboard-response","48","77884","0.0-48.0","""event"",""trial"",""time""
""fullscreenenter"",""0"",""3920""
","
","
","""event"",""trial"",""time""
""fullscreenenter"",""0"",""3920""
","
","null","<p></p>","null","","","","","","","",""
"","image","49","78500","0.0-49.0","""event"",""trial"",""time""
""fullscreenenter"",""0"",""3920""
","
","
","""event"",""trial"",""time""
""fullscreenenter"",""0"",""3920""
","
","615.1000000238419","run_exp/static/images/Set 6_rs/132a.jpg","86","","","","","","learn","SR",""
"","show_choice","50","79886","0.0-50.0","""event"",""trial"",""time""
""fullscreenenter"",""0"",""3920""
","
","
","""event"",""trial"",""time""
""fullscreenenter"",""0"",""3920""
","
","null","run_exp/static/images/Set 6_rs/132a.jpg","null","","","","","","learn","SR",""
"","html-keyboard-response","51","80387","0.0-51.0","""event"",""trial"",""time""
""fullscreenenter"",""0"",""3920""
","
","
","""event"",""trial"",""time""
""fullscreenenter"",""0"",""3920""
","
","null","<p></p>","null","","","","","","","",""
"","image","52","81544","0.0-52.0","""event"",""trial"",""time""
""fullscreenenter"",""0"",""3920""
","
","
","""event"",""trial"",""time""
""fullscreenenter"",""0"",""3920""
","
","1155.800000011921","run_exp/static/images/Set 6_rs/187a.jpg","86","","","","","","learn","SR",""
"","show_choice","53","82389","0.0-53.0","""event"",""trial"",""time""
""fullscreenenter"",""0"",""3920""
","
","
","""event"",""trial"",""time""
""fullscreenenter"",""0"",""3920""
","
","null","run_exp/static/images/Set 6_rs/187a.jpg","null","","","","","","learn","SR",""
"","html-keyboard-response","54","82891","0.0-54.0","""event"",""trial"",""time""
""fullscreenenter"",""0"",""3920""
","
","
","""event"",""trial"",""time""
""fullscreenenter"",""0"",""3920""
","
","null","<p></p>","null","","","","","","","",""
"","image","55","84012","0.0-55.0","""event"",""trial"",""time""
""fullscreenenter"",""0"",""3920""
","
","
","""event"",""trial"",""time""
""fullscreenenter"",""0"",""3920""
","
","1120.199999988079","run_exp/static/images/Set 6_rs/050a.jpg","86","","","","","","learn","SL",""
"","show_choice","56","84893","0.0-56.0","""event"",""trial"",""time""
""fullscreenenter"",""0"",""3920""
","
","
","""event"",""trial"",""time""
""fullscreenenter"",""0"",""3920""
","
","null","run_exp/static/images/Set 6_rs/050a.jpg","null","","","","","","learn","SL",""
"","html-keyboard-response","57","85394","0.0-57.0","""event"",""trial"",""time""
""fullscreenenter"",""0"",""3920""
","
","
","""event"",""trial"",""time""
""fullscreenenter"",""0"",""3920""
","
","null","<p></p>","null","","","","","","","",""
"","image","58","86884","0.0-58.0","""event"",""trial"",""time""
""fullscreenenter"",""0"",""3920""
","
","
","""event"",""trial"",""time""
""fullscreenenter"",""0"",""3920""
","
","1489.300000011921","run_exp/static/images/Set 6_rs/085a.jpg","78","","","","","","learn","SL",""
"","show_choice","59","87396","0.0-59.0","""event"",""trial"",""time""
""fullscreenenter"",""0"",""3920""
","
","
","""event"",""trial"",""time""
""fullscreenenter"",""0"",""3920""
","
","null","run_exp/static/images/Set 6_rs/085a.jpg","null","","","","","","learn","SL",""
"","html-keyboard-response","60","87897","0.0-60.0","""event"",""trial"",""time""
""fullscreenenter"",""0"",""3920""
","
","
","""event"",""trial"",""time""
""fullscreenenter"",""0"",""3920""
","
","null","<p></p>","null","","","","","","","",""
"","image","61","88866","0.0-61.0","""event"",""trial"",""time""
""fullscreenenter"",""0"",""3920""
","
","
","""event"",""trial"",""time""
""fullscreenenter"",""0"",""3920""
","
","967.8000000119209","run_exp/static/images/Set 6_rs/123a.jpg","78","","","","","","learn","SL",""
"","show_choice","62","89900","0.0-62.0","""event"",""trial"",""time""
""fullscreenenter"",""0"",""3920""
","
","
","""event"",""trial"",""time""
""fullscreenenter"",""0"",""3920""
","
","null","run_exp/static/images/Set 6_rs/123a.jpg","null","","","","","","learn","SL",""
"","html-keyboard-response","63","90401","0.0-63.0","""event"",""trial"",""time""
""fullscreenenter"",""0"",""3920""
","
","
","""event"",""trial"",""time""
""fullscreenenter"",""0"",""3920""
","
","null","<p></p>","null","","","","","","","",""
"","image","64","91307","0.0-64.0","""event"",""trial"",""time""
""fullscreenenter"",""0"",""3920""
","
","
","""event"",""trial"",""time""
""fullscreenenter"",""0"",""3920""
","
","904.1000000238419","run_exp/static/images/Set 6_rs/073a.jpg","86","","","","","","learn","SL",""
"","show_choice","65","92404","0.0-65.0","""event"",""trial"",""time""
""fullscreenenter"",""0"",""3920""
","
","
","""event"",""trial"",""time""
""fullscreenenter"",""0"",""3920""
","
","null","run_exp/static/images/Set 6_rs/073a.jpg","null","","","","","","learn","SL",""
"","html-keyboard-response","66","92904","0.0-66.0","""event"",""trial"",""time""
""fullscreenenter"",""0"",""3920""
","
","
","""event"",""trial"",""time""
""fullscreenenter"",""0"",""3920""
","
","null","<p></p>","null","","","","","","","",""
"","image","67","93540","0.0-67.0","""event"",""trial"",""time""
""fullscreenenter"",""0"",""3920""
","
","
","""event"",""trial"",""time""
""fullscreenenter"",""0"",""3920""
","
","634.5","run_exp/static/images/Set 6_rs/095a.jpg","86","","","","","","learn","SL",""
"","show_choice","68","94906","0.0-68.0","""event"",""trial"",""time""
""fullscreenenter"",""0"",""3920""
","
","
","""event"",""trial"",""time""
""fullscreenenter"",""0"",""3920""
","
","null","run_exp/static/images/Set 6_rs/095a.jpg","null","","","","","","learn","SL",""
"","html-keyboard-response","69","95407","0.0-69.0","""event"",""trial"",""time""
""fullscreenenter"",""0"",""3920""
","
","
","""event"",""trial"",""time""
""fullscreenenter"",""0"",""3920""
","
","null","<p></p>","null","","","","","","","",""
"","image","70","96488","0.0-70.0","""event"",""trial"",""time""
""fullscreenenter"",""0"",""3920""
","
","
","""event"",""trial"",""time""
""fullscreenenter"",""0"",""3920""
","
","1080.1000000238419","run_exp/static/images/Set 6_rs/150a.jpg","86","","","","","","learn","SR",""
"","show_choice","71","97409","0.0-71.0","""event"",""trial"",""time""
""fullscreenenter"",""0"",""3920""
","
","
","""event"",""trial"",""time""
""fullscreenenter"",""0"",""3920""
","
","null","run_exp/static/images/Set 6_rs/150a.jpg","null","","","","","","learn","SR",""
"","html-keyboard-response","72","97910","0.0-72.0","""event"",""trial"",""time""
""fullscreenenter"",""0"",""3920""
","
","
","""event"",""trial"",""time""
""fullscreenenter"",""0"",""3920""
","
","null","<p></p>","null","","","","","","","",""
"","image","73","98753","0.0-73.0","""event"",""trial"",""time""
""fullscreenenter"",""0"",""3920""
","
","
","""event"",""trial"",""time""
""fullscreenenter"",""0"",""3920""
","
","842.3999999761581","run_exp/static/images/Set 6_rs/016a.jpg","86","","","","","","learn","SL",""
"","show_choice","74","99911","0.0-74.0","""event"",""trial"",""time""
""fullscreenenter"",""0"",""3920""
","
","
","""event"",""trial"",""time""
""fullscreenenter"",""0"",""3920""
","
","null","run_exp/static/images/Set 6_rs/016a.jpg","null","","","","","","learn","SL",""
"","html-keyboard-response","75","100414","0.0-75.0","""event"",""trial"",""time""
""fullscreenenter"",""0"",""3920""
","
","
","""event"",""trial"",""time""
""fullscreenenter"",""0"",""3920""
","
","null","<p></p>","null","","","","","","","",""
"","image","76","101058","0.0-76.0","""event"",""trial"",""time""
""fullscreenenter"",""0"",""3920""
","
","
","""event"",""trial"",""time""
""fullscreenenter"",""0"",""3920""
","
","643.3000000119209","run_exp/static/images/Set 6_rs/186a.jpg","86","","","","","","learn","SR",""
"","show_choice","77","102416","0.0-77.0","""event"",""trial"",""time""
""fullscreenenter"",""0"",""3920""
","
","
","""event"",""trial"",""time""
""fullscreenenter"",""0"",""3920""
","
","null","run_exp/static/images/Set 6_rs/186a.jpg","null","","","","","","learn","SR",""
"","html-keyboard-response","78","102917","0.0-78.0","""event"",""trial"",""time""
""fullscreenenter"",""0"",""3920""
","
","
","""event"",""trial"",""time""
""fullscreenenter"",""0"",""3920""
","
","null","<p></p>","null","","","","","","","",""
"","image","79","103918","0.0-79.0","""event"",""trial"",""time""
""fullscreenenter"",""0"",""3920""
","
","
","""event"",""trial"",""time""
""fullscreenenter"",""0"",""3920""
","
","1000","run_exp/static/images/Set 6_rs/063a.jpg","78","","","","","","learn","SR",""
"","show_choice","80","104920","0.0-80.0","""event"",""trial"",""time""
""fullscreenenter"",""0"",""3920""
","
","
","""event"",""trial"",""time""
""fullscreenenter"",""0"",""3920""
","
","null","run_exp/static/images/Set 6_rs/063a.jpg","null","","","","","","learn","SR",""
"","html-keyboard-response","81","105421","0.0-81.0","""event"",""trial"",""time""
""fullscreenenter"",""0"",""3920""
","
","
","""event"",""trial"",""time""
""fullscreenenter"",""0"",""3920""
","
","null","<p></p>","null","","","","","","","",""
"","image","82","106233","0.0-82.0","""event"",""trial"",""time""
""fullscreenenter"",""0"",""3920""
","
","
","""event"",""trial"",""time""
""fullscreenenter"",""0"",""3920""
","
","811","run_exp/static/images/Set 6_rs/025a.jpg","78","","","","","","learn","SL",""
"","show_choice","83","107423","0.0-83.0","""event"",""trial"",""time""
""fullscreenenter"",""0"",""3920""
","
","
","""event"",""trial"",""time""
""fullscreenenter"",""0"",""3920""
","
","null","run_exp/static/images/Set 6_rs/025a.jpg","null","","","","","","learn","SL",""
"","html-keyboard-response","84","107924","0.0-84.0","""event"",""trial"",""time""
""fullscreenenter"",""0"",""3920""
","
","
","""event"",""trial"",""time""
""fullscreenenter"",""0"",""3920""
","
","null","<p></p>","null","","","","","","","",""
"","image","85","108898","0.0-85.0","""event"",""trial"",""time""
""fullscreenenter"",""0"",""3920""
","
","
","""event"",""trial"",""time""
""fullscreenenter"",""0"",""3920""
","
","972.1999999880791","run_exp/static/images/Set 6_rs/126a.jpg","78","","","","","","learn","SR",""
"","show_choice","86","109927","0.0-86.0","""event"",""trial"",""time""
""fullscreenenter"",""0"",""3920""
","
","
","""event"",""trial"",""time""
""fullscreenenter"",""0"",""3920""
","
","null","run_exp/static/images/Set 6_rs/126a.jpg","null","","","","","","learn","SR",""
"","html-keyboard-response","87","110428","0.0-87.0","""event"",""trial"",""time""
""fullscreenenter"",""0"",""3920""
","
","
","""event"",""trial"",""time""
""fullscreenenter"",""0"",""3920""
","
","null","<p></p>","null","","","","","","","",""
"","image","88","111148","0.0-88.0","""event"",""trial"",""time""
""fullscreenenter"",""0"",""3920""
","
","
","""event"",""trial"",""time""
""fullscreenenter"",""0"",""3920""
","
","718.5","run_exp/static/images/Set 6_rs/019a.jpg","86","","","","","","learn","SL",""
"","show_choice","89","112430","0.0-89.0","""event"",""trial"",""time""
""fullscreenenter"",""0"",""3920""
","
","
","""event"",""trial"",""time""
""fullscreenenter"",""0"",""3920""
","
","null","run_exp/static/images/Set 6_rs/019a.jpg","null","","","","","","learn","SL",""
"","html-keyboard-response","90","112931","0.0-90.0","""event"",""trial"",""time""
""fullscreenenter"",""0"",""3920""
","
","
","""event"",""trial"",""time""
""fullscreenenter"",""0"",""3920""
","
","null","<p></p>","null","","","","","","","",""
"","image","91","114212","0.0-91.0","""event"",""trial"",""time""
""fullscreenenter"",""0"",""3920""
","
","
","""event"",""trial"",""time""
""fullscreenenter"",""0"",""3920""
","
","1280.0999999642372","run_exp/static/images/Set 6_rs/141a.jpg","78","","","","","","learn","SR",""
"","show_choice","92","114933","0.0-92.0","""event"",""trial"",""time""
""fullscreenenter"",""0"",""3920""
","
","
","""event"",""trial"",""time""
""fullscreenenter"",""0"",""3920""
","
","null","run_exp/static/images/Set 6_rs/141a.jpg","null","","","","","","learn","SR",""
"","html-keyboard-response","93","115434","0.0-93.0","""event"",""trial"",""time""
""fullscreenenter"",""0"",""3920""
","
","
","""event"",""trial"",""time""
""fullscreenenter"",""0"",""3920""
","
","null","<p></p>","null","","","","","","","",""
"","image","94","116237","0.0-94.0","""event"",""trial"",""time""
""fullscreenenter"",""0"",""3920""
","
","
","""event"",""trial"",""time""
""fullscreenenter"",""0"",""3920""
","
","802","run_exp/static/images/Set 6_rs/014a.jpg","86","","","","","","learn","SL",""
"","show_choice","95","117436","0.0-95.0","""event"",""trial"",""time""
""fullscreenenter"",""0"",""3920""
","
","
","""event"",""trial"",""time""
""fullscreenenter"",""0"",""3920""
","
","null","run_exp/static/images/Set 6_rs/014a.jpg","null","","","","","","learn","SL",""
"","html-keyboard-response","96","117938","0.0-96.0","""event"",""trial"",""time""
""fullscreenenter"",""0"",""3920""
","
","
","""event"",""trial"",""time""
""fullscreenenter"",""0"",""3920""
","
","null","<p></p>","null","","","","","","","",""
"","image","97","118512","0.0-97.0","""event"",""trial"",""time""
""fullscreenenter"",""0"",""3920""
","
","
","""event"",""trial"",""time""
""fullscreenenter"",""0"",""3920""
","
","573.5999999642372","run_exp/static/images/Set 6_rs/112a.jpg","86","","","","","","learn","SR",""
"","show_choice","98","119939","0.0-98.0","""event"",""trial"",""time""
""fullscreenenter"",""0"",""3920""
","
","
","""event"",""trial"",""time""
""fullscreenenter"",""0"",""3920""
","
","null","run_exp/static/images/Set 6_rs/112a.jpg","null","","","","","","learn","SR",""
"","html-keyboard-response","99","120441","0.0-99.0","""event"",""trial"",""time""
""fullscreenenter"",""0"",""3920""
","
","
","""event"",""trial"",""time""
""fullscreenenter"",""0"",""3920""
","
","null","<p></p>","null","","","","","","","",""
"","image","100","121409","0.0-100.0","""event"",""trial"",""time""
""fullscreenenter"",""0"",""3920""
","
","
","""event"",""trial"",""time""
""fullscreenenter"",""0"",""3920""
","
","967.4000000357628","run_exp/static/images/Set 6_rs/062a.jpg","86","","","","","","learn","SL",""
"","show_choice","101","122449","0.0-101.0","""event"",""trial"",""time""
""fullscreenenter"",""0"",""3920""
","
","
","""event"",""trial"",""time""
""fullscreenenter"",""0"",""3920""
","
","null","run_exp/static/images/Set 6_rs/062a.jpg","null","","","","","","learn","SL",""
"","html-keyboard-response","102","122950","0.0-102.0","""event"",""trial"",""time""
""fullscreenenter"",""0"",""3920""
","
","
","""event"",""trial"",""time""
""fullscreenenter"",""0"",""3920""
","
","null","<p></p>","null","","","","","","","",""
"","image","103","123982","0.0-103.0","""event"",""trial"",""time""
""fullscreenenter"",""0"",""3920""
","
","
","""event"",""trial"",""time""
""fullscreenenter"",""0"",""3920""
","
","1030.199999988079","run_exp/static/images/Set 6_rs/045a.jpg","86","","","","","","learn","SR",""
"","show_choice","104","124953","0.0-104.0","""event"",""trial"",""time""
""fullscreenenter"",""0"",""3920""
","
","
","""event"",""trial"",""time""
""fullscreenenter"",""0"",""3920""
","
","null","run_exp/static/images/Set 6_rs/045a.jpg","null","","","","","","learn","SR",""
"","html-keyboard-response","105","125454","0.0-105.0","""event"",""trial"",""time""
""fullscreenenter"",""0"",""3920""
","
","
","""event"",""trial"",""time""
""fullscreenenter"",""0"",""3920""
","
","null","<p></p>","null","","","","","","","",""
"","image","106","126194","0.0-106.0","""event"",""trial"",""time""
""fullscreenenter"",""0"",""3920""
","
","
","""event"",""trial"",""time""
""fullscreenenter"",""0"",""3920""
","
","738.1999999880791","run_exp/static/images/Set 6_rs/023a.jpg","86","","","","","","learn","SR",""
"","show_choice","107","127456","0.0-107.0","""event"",""trial"",""time""
""fullscreenenter"",""0"",""3920""
","
","
","""event"",""trial"",""time""
""fullscreenenter"",""0"",""3920""
","
","null","run_exp/static/images/Set 6_rs/023a.jpg","null","","","","","","learn","SR",""
"","html-keyboard-response","108","127957","0.0-108.0","""event"",""trial"",""time""
""fullscreenenter"",""0"",""3920""
","
","
","""event"",""trial"",""time""
""fullscreenenter"",""0"",""3920""
","
","null","<p></p>","null","","","","","","","",""
"","image","109","128873","0.0-109.0","""event"",""trial"",""time""
""fullscreenenter"",""0"",""3920""
","
","
","""event"",""trial"",""time""
""fullscreenenter"",""0"",""3920""
","
","915","run_exp/static/images/Set 6_rs/089a.jpg","86","","","","","","learn","SL",""
"","show_choice","110","129960","0.0-110.0","""event"",""trial"",""time""
""fullscreenenter"",""0"",""3920""
","
","
","""event"",""trial"",""time""
""fullscreenenter"",""0"",""3920""
","
","null","run_exp/static/images/Set 6_rs/089a.jpg","null","","","","","","learn","SL",""
"","html-keyboard-response","111","130462","0.0-111.0","""event"",""trial"",""time""
""fullscreenenter"",""0"",""3920""
","
","
","""event"",""trial"",""time""
""fullscreenenter"",""0"",""3920""
","
","null","<p></p>","null","","","","","","","",""
"","image","112","131425","0.0-112.0","""event"",""trial"",""time""
""fullscreenenter"",""0"",""3920""
","
","
","""event"",""trial"",""time""
""fullscreenenter"",""0"",""3920""
","
","961.2000000476837","run_exp/static/images/Set 6_rs/075a.jpg","78","","","","","","learn","SR",""
"","show_choice","113","132465","0.0-113.0","""event"",""trial"",""time""
""fullscreenenter"",""0"",""3920""
","
","
","""event"",""trial"",""time""
""fullscreenenter"",""0"",""3920""
","
","null","run_exp/static/images/Set 6_rs/075a.jpg","null","","","","","","learn","SR",""
"","html-keyboard-response","114","132966","0.0-114.0","""event"",""trial"",""time""
""fullscreenenter"",""0"",""3920""
","
","
","""event"",""trial"",""time""
""fullscreenenter"",""0"",""3920""
","
","null","<p></p>","null","","","","","","","",""
"","image","115","133766","0.0-115.0","""event"",""trial"",""time""
""fullscreenenter"",""0"",""3920""
","
","
","""event"",""trial"",""time""
""fullscreenenter"",""0"",""3920""
","
","798.5","run_exp/static/images/Set 6_rs/108a.jpg","78","","","","","","learn","SR",""
"","show_choice","116","134968","0.0-116.0","""event"",""trial"",""time""
""fullscreenenter"",""0"",""3920""
","
","
","""event"",""trial"",""time""
""fullscreenenter"",""0"",""3920""
","
","null","run_exp/static/images/Set 6_rs/108a.jpg","null","","","","","","learn","SR",""
"","html-keyboard-response","117","135469","0.0-117.0","""event"",""trial"",""time""
""fullscreenenter"",""0"",""3920""
","
","
","""event"",""trial"",""time""
""fullscreenenter"",""0"",""3920""
","
","null","<p></p>","null","","","","","","","",""
"","image","118","136178","0.0-118.0","""event"",""trial"",""time""
""fullscreenenter"",""0"",""3920""
","
","
","""event"",""trial"",""time""
""fullscreenenter"",""0"",""3920""
","
","707.9000000357628","run_exp/static/images/Set 6_rs/024a.jpg","86","","","","","","learn","SR",""
"","show_choice","119","137473","0.0-119.0","""event"",""trial"",""time""
""fullscreenenter"",""0"",""3920""
","
","
","""event"",""trial"",""time""
""fullscreenenter"",""0"",""3920""
","
","null","run_exp/static/images/Set 6_rs/024a.jpg","null","","","","","","learn","SR",""
"","html-keyboard-response","120","137974","0.0-120.0","""event"",""trial"",""time""
""fullscreenenter"",""0"",""3920""
","
","
","""event"",""trial"",""time""
""fullscreenenter"",""0"",""3920""
","
","null","<p></p>","null","","","","","","","",""
"","image","121","138944","0.0-121.0","""event"",""trial"",""time""
""fullscreenenter"",""0"",""3920""
","
","
","""event"",""trial"",""time""
""fullscreenenter"",""0"",""3920""
","
","968.0999999642372","run_exp/static/images/Set 6_rs/116a.jpg","86","","","","","","learn","SL",""
"","show_choice","122","139977","0.0-122.0","""event"",""trial"",""time""
""fullscreenenter"",""0"",""3920""
","
","
","""event"",""trial"",""time""
""fullscreenenter"",""0"",""3920""
","
","null","run_exp/static/images/Set 6_rs/116a.jpg","null","","","","","","learn","SL",""
"","html-keyboard-response","123","140478","0.0-123.0","""event"",""trial"",""time""
""fullscreenenter"",""0"",""3920""
","
","
","""event"",""trial"",""time""
""fullscreenenter"",""0"",""3920""
","
","null","<p></p>","null","","","","","","","",""
"","image","124","141543","0.0-124.0","""event"",""trial"",""time""
""fullscreenenter"",""0"",""3920""
","
","
","""event"",""trial"",""time""
""fullscreenenter"",""0"",""3920""
","
","1063.2000000476837","run_exp/static/images/Set 6_rs/074a.jpg","78","","","","","","learn","SL",""
"","show_choice","125","142481","0.0-125.0","""event"",""trial"",""time""
""fullscreenenter"",""0"",""3920""
","
","
","""event"",""trial"",""time""
""fullscreenenter"",""0"",""3920""
","
","null","run_exp/static/images/Set 6_rs/074a.jpg","null","","","","","","learn","SL",""
"","html-keyboard-response","126","142983","0.0-126.0","""event"",""trial"",""time""
""fullscreenenter"",""0"",""3920""
","
","
","""event"",""trial"",""time""
""fullscreenenter"",""0"",""3920""
","
","null","<p></p>","null","","","","","","","",""
"","image","127","143670","0.0-127.0","""event"",""trial"",""time""
""fullscreenenter"",""0"",""3920""
","
","
","""event"",""trial"",""time""
""fullscreenenter"",""0"",""3920""
","
","680.4000000357628","run_exp/static/images/Set 6_rs/071a.jpg","78","","","","","","learn","SL",""
"","show_choice","128","144992","0.0-128.0","""event"",""trial"",""time""
""fullscreenenter"",""0"",""3920""
","
","
","""event"",""trial"",""time""
""fullscreenenter"",""0"",""3920""
","
","null","run_exp/static/images/Set 6_rs/071a.jpg","null","","","","","","learn","SL",""
"","html-keyboard-response","129","145493","0.0-129.0","""event"",""trial"",""time""
""fullscreenenter"",""0"",""3920""
","
","
","""event"",""trial"",""time""
""fullscreenenter"",""0"",""3920""
","
","null","<p></p>","null","","","","","","","",""
"","image","130","146183","0.0-130.0","""event"",""trial"",""time""
""fullscreenenter"",""0"",""3920""
","
","
","""event"",""trial"",""time""
""fullscreenenter"",""0"",""3920""
","
","689.5","run_exp/static/images/Set 6_rs/076a.jpg","78","","","","","","learn","SR",""
"","show_choice","131","147494","0.0-131.0","""event"",""trial"",""time""
""fullscreenenter"",""0"",""3920""
","
","
","""event"",""trial"",""time""
""fullscreenenter"",""0"",""3920""
","
","null","run_exp/static/images/Set 6_rs/076a.jpg","null","","","","","","learn","SR",""
"","html-keyboard-response","132","147995","0.0-132.0","""event"",""trial"",""time""
""fullscreenenter"",""0"",""3920""
","
","
","""event"",""trial"",""time""
""fullscreenenter"",""0"",""3920""
","
","null","<p></p>","null","","","","","","","",""
"","image","133","149411","0.0-133.0","""event"",""trial"",""time""
""fullscreenenter"",""0"",""3920""
","
","
","""event"",""trial"",""time""
""fullscreenenter"",""0"",""3920""
","
","1414.7999999523163","run_exp/static/images/Set 6_rs/006a.jpg","86","","","","","","learn","SL",""
"","show_choice","134","149998","0.0-134.0","""event"",""trial"",""time""
""fullscreenenter"",""0"",""3920""
","
","
","""event"",""trial"",""time""
""fullscreenenter"",""0"",""3920""
","
","null","run_exp/static/images/Set 6_rs/006a.jpg","null","","","","","","learn","SL",""
"","html-keyboard-response","135","150499","0.0-135.0","""event"",""trial"",""time""
""fullscreenenter"",""0"",""3920""
","
","
","""event"",""trial"",""time""
""fullscreenenter"",""0"",""3920""
","
","null","<p></p>","null","","","","","","","",""
"","image","136","151253","0.0-136.0","""event"",""trial"",""time""
""fullscreenenter"",""0"",""3920""
","
","
","""event"",""trial"",""time""
""fullscreenenter"",""0"",""3920""
","
","751.8000000119209","run_exp/static/images/Set 6_rs/166a.jpg","78","","","","","","learn","SR",""
"","show_choice","137","152503","0.0-137.0","""event"",""trial"",""time""
""fullscreenenter"",""0"",""3920""
","
","
","""event"",""trial"",""time""
""fullscreenenter"",""0"",""3920""
","
","null","run_exp/static/images/Set 6_rs/166a.jpg","null","","","","","","learn","SR",""
"","html-keyboard-response","138","153005","0.0-138.0","""event"",""trial"",""time""
""fullscreenenter"",""0"",""3920""
","
","
","""event"",""trial"",""time""
""fullscreenenter"",""0"",""3920""
","
","null","<p></p>","null","","","","","","","",""
"","image","139","153739","0.0-139.0","""event"",""trial"",""time""
""fullscreenenter"",""0"",""3920""
","
","
","""event"",""trial"",""time""
""fullscreenenter"",""0"",""3920""
","
","733.4000000357628","run_exp/static/images/Set 6_rs/169a.jpg","78","","","","","","learn","SR",""
"","show_choice","140","155007","0.0-140.0","""event"",""trial"",""time""
""fullscreenenter"",""0"",""3920""
","
","
","""event"",""trial"",""time""
""fullscreenenter"",""0"",""3920""
","
","null","run_exp/static/images/Set 6_rs/169a.jpg","null","","","","","","learn","SR",""
"","html-keyboard-response","141","155508","0.0-141.0","""event"",""trial"",""time""
""fullscreenenter"",""0"",""3920""
","
","
","""event"",""trial"",""time""
""fullscreenenter"",""0"",""3920""
","
","null","<p></p>","null","","","","","","","",""
"","image","142","156339","0.0-142.0","""event"",""trial"",""time""
""fullscreenenter"",""0"",""3920""
","
","
","""event"",""trial"",""time""
""fullscreenenter"",""0"",""3920""
","
","830","run_exp/static/images/Set 6_rs/007a.jpg","86","","","","","","learn","SR",""
"","show_choice","143","157511","0.0-143.0","""event"",""trial"",""time""
""fullscreenenter"",""0"",""3920""
","
","
","""event"",""trial"",""time""
""fullscreenenter"",""0"",""3920""
","
","null","run_exp/static/images/Set 6_rs/007a.jpg","null","","","","","","learn","SR",""
"","html-keyboard-response","144","158013","0.0-144.0","""event"",""trial"",""time""
""fullscreenenter"",""0"",""3920""
","
","
","""event"",""trial"",""time""
""fullscreenenter"",""0"",""3920""
","
","null","<p></p>","null","","","","","","","",""
"","image","145","158702","0.0-145.0","""event"",""trial"",""time""
""fullscreenenter"",""0"",""3920""
","
","
","""event"",""trial"",""time""
""fullscreenenter"",""0"",""3920""
","
","688.1999999880791","run_exp/static/images/Set 6_rs/079a.jpg","86","","","","","","learn","SL",""
"","show_choice","146","160014","0.0-146.0","""event"",""trial"",""time""
""fullscreenenter"",""0"",""3920""
","
","
","""event"",""trial"",""time""
""fullscreenenter"",""0"",""3920""
","
","null","run_exp/static/images/Set 6_rs/079a.jpg","null","","","","","","learn","SL",""
"","html-keyboard-response","147","160515","0.0-147.0","""event"",""trial"",""time""
""fullscreenenter"",""0"",""3920""
","
","
","""event"",""trial"",""time""
""fullscreenenter"",""0"",""3920""
","
","null","<p></p>","null","","","","","","","",""
"","image","148","161724","0.0-148.0","""event"",""trial"",""time""
""fullscreenenter"",""0"",""3920""
","
","
","""event"",""trial"",""time""
""fullscreenenter"",""0"",""3920""
","
","1207.5","run_exp/static/images/Set 6_rs/191a.jpg","78","","","","","","learn","SL",""
"","show_choice","149","162518","0.0-149.0","""event"",""trial"",""time""
""fullscreenenter"",""0"",""3920""
","
","
","""event"",""trial"",""time""
""fullscreenenter"",""0"",""3920""
","
","null","run_exp/static/images/Set 6_rs/191a.jpg","null","","","","","","learn","SL",""
"","html-keyboard-response","150","163020","0.0-150.0","""event"",""trial"",""time""
""fullscreenenter"",""0"",""3920""
","
","
","""event"",""trial"",""time""
""fullscreenenter"",""0"",""3920""
","
","null","<p></p>","null","","","","","","","",""
"","image","151","163933","0.0-151.0","""event"",""trial"",""time""
""fullscreenenter"",""0"",""3920""
","
","
","""event"",""trial"",""time""
""fullscreenenter"",""0"",""3920""
","
","911.9000000357628","run_exp/static/images/Set 6_rs/134a.jpg","78","","","","","","learn","SR",""
"","show_choice","152","165023","0.0-152.0","""event"",""trial"",""time""
""fullscreenenter"",""0"",""3920""
","
","
","""event"",""trial"",""time""
""fullscreenenter"",""0"",""3920""
","
","null","run_exp/static/images/Set 6_rs/134a.jpg","null","","","","","","learn","SR",""
"","html-keyboard-response","153","165524","0.0-153.0","""event"",""trial"",""time""
""fullscreenenter"",""0"",""3920""
","
","
","""event"",""trial"",""time""
""fullscreenenter"",""0"",""3920""
","
","null","<p></p>","null","","","","","","","",""
"","image","154","166738","0.0-154.0","""event"",""trial"",""time""
""fullscreenenter"",""0"",""3920""
","
","
","""event"",""trial"",""time""
""fullscreenenter"",""0"",""3920""
","
","1213.1000000238419","run_exp/static/images/Set 6_rs/131a.jpg","86","","","","","","learn","SR",""
"","show_choice","155","167525","0.0-155.0","""event"",""trial"",""time""
""fullscreenenter"",""0"",""3920""
","
","
","""event"",""trial"",""time""
""fullscreenenter"",""0"",""3920""
","
","null","run_exp/static/images/Set 6_rs/131a.jpg","null","","","","","","learn","SR",""
"","html-keyboard-response","156","168026","0.0-156.0","""event"",""trial"",""time""
""fullscreenenter"",""0"",""3920""
","
","
","""event"",""trial"",""time""
""fullscreenenter"",""0"",""3920""
","
","null","<p></p>","null","","","","","","","",""
"","image","157","168888","0.0-157.0","""event"",""trial"",""time""
""fullscreenenter"",""0"",""3920""
","
","
","""event"",""trial"",""time""
""fullscreenenter"",""0"",""3920""
","
","861.2000000476837","run_exp/static/images/Set 6_rs/064a.jpg","78","","","","","","learn","SR",""
"","show_choice","158","170028","0.0-158.0","""event"",""trial"",""time""
""fullscreenenter"",""0"",""3920""
","
","
","""event"",""trial"",""time""
""fullscreenenter"",""0"",""3920""
","
","null","run_exp/static/images/Set 6_rs/064a.jpg","null","","","","","","learn","SR",""
"","html-keyboard-response","159","170530","0.0-159.0","""event"",""trial"",""time""
""fullscreenenter"",""0"",""3920""
","
","
","""event"",""trial"",""time""
""fullscreenenter"",""0"",""3920""
","
","null","<p></p>","null","","","","","","","",""
"","image","160","172095","0.0-160.0","""event"",""trial"",""time""
""fullscreenenter"",""0"",""3920""
","
","
","""event"",""trial"",""time""
""fullscreenenter"",""0"",""3920""
","
","1564","run_exp/static/images/Set 6_rs/008a.jpg","86","","","","","","learn","SL",""
"","show_choice","161","172533","0.0-161.0","""event"",""trial"",""time""
""fullscreenenter"",""0"",""3920""
","
","
","""event"",""trial"",""time""
""fullscreenenter"",""0"",""3920""
","
","null","run_exp/static/images/Set 6_rs/008a.jpg","null","","","","","","learn","SL",""
"","html-keyboard-response","162","173035","0.0-162.0","""event"",""trial"",""time""
""fullscreenenter"",""0"",""3920""
","
","
","""event"",""trial"",""time""
""fullscreenenter"",""0"",""3920""
","
","null","<p></p>","null","","","","","","","",""
"","image","163","173802","0.0-163.0","""event"",""trial"",""time""
""fullscreenenter"",""0"",""3920""
","
","
","""event"",""trial"",""time""
""fullscreenenter"",""0"",""3920""
","
","765.2999999523163","run_exp/static/images/Set 6_rs/017a.jpg","86","","","","","","learn","SL",""
"","show_choice","164","175037","0.0-164.0","""event"",""trial"",""time""
""fullscreenenter"",""0"",""3920""
","
","
","""event"",""trial"",""time""
""fullscreenenter"",""0"",""3920""
","
","null","run_exp/static/images/Set 6_rs/017a.jpg","null","","","","","","learn","SL",""
"","html-keyboard-response","165","175538","0.0-165.0","""event"",""trial"",""time""
""fullscreenenter"",""0"",""3920""
","
","
","""event"",""trial"",""time""
""fullscreenenter"",""0"",""3920""
","
","null","<p></p>","null","","","","","","","",""
"","image","166","176579","0.0-166.0","""event"",""trial"",""time""
""fullscreenenter"",""0"",""3920""
","
","
","""event"",""trial"",""time""
""fullscreenenter"",""0"",""3920""
","
","1039.699999988079","run_exp/static/images/Set 6_rs/036a.jpg","86","","","","","","learn","SL",""
"","show_choice","167","177541","0.0-167.0","""event"",""trial"",""time""
""fullscreenenter"",""0"",""3920""
","
","
","""event"",""trial"",""time""
""fullscreenenter"",""0"",""3920""
","
","null","run_exp/static/images/Set 6_rs/036a.jpg","null","","","","","","learn","SL",""
"","html-keyboard-response","168","178043","0.0-168.0","""event"",""trial"",""time""
""fullscreenenter"",""0"",""3920""
","
","
","""event"",""trial"",""time""
""fullscreenenter"",""0"",""3920""
","
","null","<p></p>","null","","","","","","","",""
"","image","169","179275","0.0-169.0","""event"",""trial"",""time""
""fullscreenenter"",""0"",""3920""
","
","
","""event"",""trial"",""time""
""fullscreenenter"",""0"",""3920""
","
","1230.199999988079","run_exp/static/images/Set 6_rs/117a.jpg","78","","","","","","learn","SL",""
"","show_choice","170","180046","0.0-170.0","""event"",""trial"",""time""
""fullscreenenter"",""0"",""3920""
","
","
","""event"",""trial"",""time""
""fullscreenenter"",""0"",""3920""
","
","null","run_exp/static/images/Set 6_rs/117a.jpg","null","","","","","","learn","SL",""
"","html-keyboard-response","171","180547","0.0-171.0","""event"",""trial"",""time""
""fullscreenenter"",""0"",""3920""
","
","
","""event"",""trial"",""time""
""fullscreenenter"",""0"",""3920""
","
","null","<p></p>","null","","","","","","","",""
"","image","172","181831","0.0-172.0","""event"",""trial"",""time""
""fullscreenenter"",""0"",""3920""
","
","
","""event"",""trial"",""time""
""fullscreenenter"",""0"",""3920""
","
","1283.199999988079","run_exp/static/images/Set 6_rs/088a.jpg","86","","","","","","learn","SR",""
"","show_choice","173","182548","0.0-173.0","""event"",""trial"",""time""
""fullscreenenter"",""0"",""3920""
","
","
","""event"",""trial"",""time""
""fullscreenenter"",""0"",""3920""
","
","null","run_exp/static/images/Set 6_rs/088a.jpg","null","","","","","","learn","SR",""
"","html-keyboard-response","174","183049","0.0-174.0","""event"",""trial"",""time""
""fullscreenenter"",""0"",""3920""
","
","
","""event"",""trial"",""time""
""fullscreenenter"",""0"",""3920""
","
","null","<p></p>","null","","","","","","","",""
"","image","175","184288","0.0-175.0","""event"",""trial"",""time""
""fullscreenenter"",""0"",""3920""
","
","
","""event"",""trial"",""time""
""fullscreenenter"",""0"",""3920""
","
","1237.5","run_exp/static/images/Set 6_rs/061a.jpg","78","","","","","","learn","SR",""
"","show_choice","176","185051","0.0-176.0","""event"",""trial"",""time""
""fullscreenenter"",""0"",""3920""
","
","
","""event"",""trial"",""time""
""fullscreenenter"",""0"",""3920""
","
","null","run_exp/static/images/Set 6_rs/061a.jpg","null","","","","","","learn","SR",""
"","html-keyboard-response","177","185553","0.0-177.0","""event"",""trial"",""time""
""fullscreenenter"",""0"",""3920""
","
","
","""event"",""trial"",""time""
""fullscreenenter"",""0"",""3920""
","
","null","<p></p>","null","","","","","","","",""
"","image","178","186442","0.0-178.0","""event"",""trial"",""time""
""fullscreenenter"",""0"",""3920""
","
","
","""event"",""trial"",""time""
""fullscreenenter"",""0"",""3920""
","
","888.4000000357628","run_exp/static/images/Set 6_rs/012a.jpg","86","","","","","","learn","SR",""
"","show_choice","179","187554","0.0-179.0","""event"",""trial"",""time""
""fullscreenenter"",""0"",""3920""
","
","
","""event"",""trial"",""time""
""fullscreenenter"",""0"",""3920""
","
","null","run_exp/static/images/Set 6_rs/012a.jpg","null","","","","","","learn","SR",""
"","html-keyboard-response","180","188056","0.0-180.0","""event"",""trial"",""time""
""fullscreenenter"",""0"",""3920""
","
","
","""event"",""trial"",""time""
""fullscreenenter"",""0"",""3920""
","
","null","<p></p>","null","","","","","","","",""
"","image","181","188801","0.0-181.0","""event"",""trial"",""time""
""fullscreenenter"",""0"",""3920""
","
","
","""event"",""trial"",""time""
""fullscreenenter"",""0"",""3920""
","
","744","run_exp/static/images/Set 6_rs/178a.jpg","78","","","","","","learn","SR",""
"","show_choice","182","190059","0.0-182.0","""event"",""trial"",""time""
""fullscreenenter"",""0"",""3920""
","
","
","""event"",""trial"",""time""
""fullscreenenter"",""0"",""3920""
","
","null","run_exp/static/images/Set 6_rs/178a.jpg","null","","","","","","learn","SR",""
"","html-keyboard-response","183","190560","0.0-183.0","""event"",""trial"",""time""
""fullscreenenter"",""0"",""3920""
","
","
","""event"",""trial"",""time""
""fullscreenenter"",""0"",""3920""
","
","null","<p></p>","null","","","","","","","",""
"","image","184","191462","0.0-184.0","""event"",""trial"",""time""
""fullscreenenter"",""0"",""3920""
","
","
","""event"",""trial"",""time""
""fullscreenenter"",""0"",""3920""
","
","901","run_exp/static/images/Set 6_rs/070a.jpg","86","","","","","","learn","SR",""
"","show_choice","185","192563","0.0-185.0","""event"",""trial"",""time""
""fullscreenenter"",""0"",""3920""
","
","
","""event"",""trial"",""time""
""fullscreenenter"",""0"",""3920""
","
","null","run_exp/static/images/Set 6_rs/070a.jpg","null","","","","","","learn","SR",""
"","html-keyboard-response","186","193065","0.0-186.0","""event"",""trial"",""time""
""fullscreenenter"",""0"",""3920""
","
","
","""event"",""trial"",""time""
""fullscreenenter"",""0"",""3920""
","
","null","<p></p>","null","","","","","","","",""
"","image","187","194497","0.0-187.0","""event"",""trial"",""time""
""fullscreenenter"",""0"",""3920""
","
","
","""event"",""trial"",""time""
""fullscreenenter"",""0"",""3920""
","
","1430.4000000357628","run_exp/static/images/Set 6_rs/181a.jpg","78","","","","","","learn","SL",""
"","show_choice","188","195068","0.0-188.0","""event"",""trial"",""time""
""fullscreenenter"",""0"",""3920""
","
","
","""event"",""trial"",""time""
""fullscreenenter"",""0"",""3920""
","
","null","run_exp/static/images/Set 6_rs/181a.jpg","null","","","","","","learn","SL",""
"","html-keyboard-response","189","195569","0.0-189.0","""event"",""trial"",""time""
""fullscreenenter"",""0"",""3920""
","
","
","""event"",""trial"",""time""
""fullscreenenter"",""0"",""3920""
","
","null","<p></p>","null","","","","","","","",""
"","image","190","197572","0.0-190.0","""event"",""trial"",""time""
""fullscreenenter"",""0"",""3920""
","
","
","""event"",""trial"",""time""
""fullscreenenter"",""0"",""3920""
","
","null","run_exp/static/images/Set 6_rs/121a.jpg","null","","","","","","learn","SR",""
"","show_choice","191","199581","0.0-191.0","""event"",""trial"",""time""
""fullscreenenter"",""0"",""3920""
","
","
","""event"",""trial"",""time""
""fullscreenenter"",""0"",""3920""
","
","null","run_exp/static/images/blank.png","null","","","","","","learn","SR",""
"","html-keyboard-response","192","200083","0.0-192.0","""event"",""trial"",""time""
""fullscreenenter"",""0"",""3920""
","
","
","""event"",""trial"",""time""
""fullscreenenter"",""0"",""3920""
","
","null","<p></p>","null","","","","","","","",""
"","image","193","201403","0.0-193.0","""event"",""trial"",""time""
""fullscreenenter"",""0"",""3920""
","
","
","""event"",""trial"",""time""
""fullscreenenter"",""0"",""3920""
","
","1318.3999999761581","run_exp/static/images/Set 6_rs/167a.jpg","78","","","","","","learn","SL",""
"","show_choice","194","202086","0.0-194.0","""event"",""trial"",""time""
""fullscreenenter"",""0"",""3920""
","
","
","""event"",""trial"",""time""
""fullscreenenter"",""0"",""3920""
","
","null","run_exp/static/images/Set 6_rs/167a.jpg","null","","","","","","learn","SL",""
"","html-keyboard-response","195","202587","0.0-195.0","""event"",""trial"",""time""
""fullscreenenter"",""0"",""3920""
","
","
","""event"",""trial"",""time""
""fullscreenenter"",""0"",""3920""
","
","null","<p></p>","null","","","","","","","",""
"","test_intro","196","239538","0.0-196.0","""event"",""trial"",""time""
""fullscreenenter"",""0"",""3920""
","
","
","""event"",""trial"",""time""
""fullscreenenter"",""0"",""3920""
","
","null","run_exp/static/audio/clip_2_memory.m4a","null","","","","","<div class='center'><p>Now, lets see how much you remember about the items you just saw.  For each item, you need to indicate if it was <b>old</b> by pressing the <b>v</b> key, <b>similar</b> by pressing the <b>b</b> key, or <b>new</b> by pressing the <b>n</b> key.</p><p>Old refers to an item that you saw before in the indoor/outdoor game that you just played, new refers to an item you have <b>not</b> seen before within the indoor/outdoor game, and similar refers to an item that is similar to an item youve seen before but is not exactly the same. </p><p>Before we begin, lets go over some brief demonstrations to make sure you understand.</p></div>","","",""
"","html-keyboard-response","197","240186","0.0-197.0","""event"",""trial"",""time""
""fullscreenenter"",""0"",""3920""
","
","
","""event"",""trial"",""time""
""fullscreenenter"",""0"",""3920""
","
","647","<div class='center'><p>Now, lets see how much you remember about the items you just saw.  For each item, you need to indicate if it was <b>old</b> by pressing the <b>v</b> key, <b>similar</b> by pressing the <b>b</b> key, or <b>new</b> by pressing the <b>n</b> key.</p><p>Old refers to an item that you saw before in the indoor/outdoor game that you just played, new refers to an item you have <b>not</b> seen before within the indoor/outdoor game, and similar refers to an item that is similar to an item youve seen before but is not exactly the same. </p><p>Before we begin, lets go over some brief demonstrations to make sure you understand.</p><div><p><b>[Press the space bar to continue]</b></p></div>","32","","","","","","","",""
"","items","198","247688","0.0-198.0","""event"",""trial"",""time""
""fullscreenenter"",""0"",""3920""
","
","
","""event"",""trial"",""time""
""fullscreenenter"",""0"",""3920""
","
","null","run_exp/static/audio/clip_3_items.m4a","null","","","","","","","",""
"","mop","199","252192","0.0-199.0","""event"",""trial"",""time""
""fullscreenenter"",""0"",""3920""
","
","
","""event"",""trial"",""time""
""fullscreenenter"",""0"",""3920""
","
","null","run_exp/static/audio/clip_4_mop.m4a","null","","","","","","","",""
"","baseball","200","255695","0.0-200.0","""event"",""trial"",""time""
""fullscreenenter"",""0"",""3920""
","
","
","""event"",""trial"",""time""
""fullscreenenter"",""0"",""3920""
","
","null","run_exp/static/audio/clip_5_baseball.m4a","null","","","","","","","",""
"","trumpet","201","259197","0.0-201.0","""event"",""trial"",""time""
""fullscreenenter"",""0"",""3920""
","
","
","""event"",""trial"",""time""
""fullscreenenter"",""0"",""3920""
","
","null","run_exp/static/audio/clip_6_trumpet.m4a","null","","","","","","","",""
"","gummies","202","262700","0.0-202.0","""event"",""trial"",""time""
""fullscreenenter"",""0"",""3920""
","
","
","""event"",""trial"",""time""
""fullscreenenter"",""0"",""3920""
","
","null","run_exp/static/audio/clip_7_gummies.m4a","null","","","","","","","",""
"","osn","203","267202","0.0-203.0","""event"",""trial"",""time""
""fullscreenenter"",""0"",""3920""
","
","
","""event"",""trial"",""time""
""fullscreenenter"",""0"",""3920""
","
","null","run_exp/static/audio/clip_8_osn.m4a","null","","","","","","","",""
"","old_1","204","273705","0.0-204.0","""event"",""trial"",""time""
""fullscreenenter"",""0"",""3920""
","
","
","""event"",""trial"",""time""
""fullscreenenter"",""0"",""3920""
","
","null","run_exp/static/audio/clip_9_old_trumpet.m4a","null","","","","","","","",""
"","new_1","205","281208","0.0-205.0","""event"",""trial"",""time""
""fullscreenenter"",""0"",""3920""
","
","
","""event"",""trial"",""time""
""fullscreenenter"",""0"",""3920""
","
","null","run_exp/static/audio/clip_10_new_balloon.m4a","null","","","","","","","",""
"","similar_1a","206","285711","0.0-206.0","""event"",""trial"",""time""
""fullscreenenter"",""0"",""3920""
","
","
","""event"",""trial"",""time""
""fullscreenenter"",""0"",""3920""
","
","null","run_exp/static/audio/clip_11a_similar_mop.m4a","null","","","","","","","",""
"","similar_1b","207","292214","0.0-207.0","""event"",""trial"",""time""
""fullscreenenter"",""0"",""3920""
","
","
","""event"",""trial"",""time""
""fullscreenenter"",""0"",""3920""
","
","null","run_exp/static/audio/clip_11b_similar_mop.m4a","null","","","","","","","",""
"","new_2","208","295716","0.0-208.0","""event"",""trial"",""time""
""fullscreenenter"",""0"",""3920""
","
","
","""event"",""trial"",""time""
""fullscreenenter"",""0"",""3920""
","
","null","run_exp/static/audio/clip_12_new_stoplight.m4a","null","","","","","","","",""
"","old_2","209","299218","0.0-209.0","""event"",""trial"",""time""
""fullscreenenter"",""0"",""3920""
","
","
","""event"",""trial"",""time""
""fullscreenenter"",""0"",""3920""
","
","null","run_exp/static/audio/clip_13_old_baseball.m4a","null","","","","","","","",""
"","similar_2a","210","302721","0.0-210.0","""event"",""trial"",""time""
""fullscreenenter"",""0"",""3920""
","
","
","""event"",""trial"",""time""
""fullscreenenter"",""0"",""3920""
","
","null","run_exp/static/audio/clip_14a_similar_gummies.m4a","null","","","","","","","",""
"","similar_2b","211","310223","0.0-211.0","""event"",""trial"",""time""
""fullscreenenter"",""0"",""3920""
","
","
","""event"",""trial"",""time""
""fullscreenenter"",""0"",""3920""
","
","null","run_exp/static/audio/clip_14b_similar_gummies.m4a","null","","","","","","","",""
"","practice","212","352358","0.0-212.0","""event"",""trial"",""time""
""fullscreenenter"",""0"",""3920""
","
","
","""event"",""trial"",""time""
""fullscreenenter"",""0"",""3920""
","
","null","run_exp/static/audio/clip_15_practice.m4a","null","","","","","<div class='center'><p>Lets practice a little to make sure you understand the difference between new, similar, and old. Lets say you saw these three items in the indoor/outdoor game.</p><p> Try your best to remember these images because youll soon be tested on them in a practice game. In the practice game, youll be shown images and youll have to say if they are old (one of the three images belows), similar (similar to one of the images below but not exactly the same), or new (are not one of the images below nor similar to them).</p><p>Once you press the space bar youll be shown these images again but one at time. Then youll begin the practice game.</p><p><img src='run_exp/static/images/tutorial/test/three_indoor_outdoor.png' height='300'></p></div>","","",""
"","html-keyboard-response","213","352743","0.0-213.0","""event"",""trial"",""time""
""fullscreenenter"",""0"",""3920""
","
","
","""event"",""trial"",""time""
""fullscreenenter"",""0"",""3920""
","
","383.5999999642372","<div class='center'><p>Lets practice a little to make sure you understand the difference between new, similar, and old. Lets say you saw these three items in the indoor/outdoor game.</p><p> Try your best to remember these images because youll soon be tested on them in a practice game. In the practice game, youll be shown images and youll have to say if they are old (one of the three images belows), similar (similar to one of the images below but not exactly the same), or new (are not one of the images below nor similar to them).</p><p>Once you press the space bar youll be shown these images again but one at time. Then youll begin the practice game.</p><p><img src='run_exp/static/images/tutorial/test/three_indoor_outdoor.png' height='300'></p><div><p><b>[Press the space bar to continue]</b></p></div>","32","","","","","","","",""
"","planet","214","354745","0.0-214.0","""event"",""trial"",""time""
""fullscreenenter"",""0"",""3920""
","
","
","""event"",""trial"",""time""
""fullscreenenter"",""0"",""3920""
","
","null","run_exp/static/images/tutorial/test/008a.jpg","null","","","","","","","",""
"","boot","215","356746","0.0-215.0","""event"",""trial"",""time""
""fullscreenenter"",""0"",""3920""
","
","
","""event"",""trial"",""time""
""fullscreenenter"",""0"",""3920""
","
","null","run_exp/static/images/tutorial/test/011a.jpg","null","","","","","","","",""
"","lemon","216","358748","0.0-216.0","""event"",""trial"",""time""
""fullscreenenter"",""0"",""3920""
","
","
","""event"",""trial"",""time""
""fullscreenenter"",""0"",""3920""
","
","null","run_exp/static/images/tutorial/test/018a.jpg","null","","","","","","","",""
"","practice_q1","217","363267","0.0-217.0","""event"",""trial"",""time""
""fullscreenenter"",""0"",""3920""
","
","
","""event"",""trial"",""time""
""fullscreenenter"",""0"",""3920""
","
","4516.899999976158","run_exp/static/audio/clip_16_practice_question.m4a","78","","","","","","","",""
"","correct","218","365179","0.0-218.0-0.0","""event"",""trial"",""time""
""fullscreenenter"",""0"",""3920""
","
","
","""event"",""trial"",""time""
""fullscreenenter"",""0"",""3920""
","
","null","run_exp/static/audio/clip_17_correct.m4a","null","","","","","<div class='center'><p>That's correct!</p></div>","","",""
"","html-keyboard-response","219","365755","0.0-218.0-1.0","""event"",""trial"",""time""
""fullscreenenter"",""0"",""3920""
","
","
","""event"",""trial"",""time""
""fullscreenenter"",""0"",""3920""
","
","575.6999999880791","<div class='center'><p>That's correct!</p><div><p><b>[Press the space bar to continue]</b></p></div>","32","","","","","","","",""
"","practice_q2","220","367195","0.0-218.0-2.0","""event"",""trial"",""time""
""fullscreenenter"",""0"",""3920""
","
","
","""event"",""trial"",""time""
""fullscreenenter"",""0"",""3920""
","
","1438.800000011921","run_exp/static/audio/clip_16_practice_question.m4a","86","","","","","","","",""
"","correct","221","369098","0.0-219.0-0.0","""event"",""trial"",""time""
""fullscreenenter"",""0"",""3920""
","
","
","""event"",""trial"",""time""
""fullscreenenter"",""0"",""3920""
","
","null","run_exp/static/audio/clip_17_correct.m4a","null","","","","","<div class='center'><p>That's correct!</p></div>","","",""
"","html-keyboard-response","222","369374","0.0-219.0-1.0","""event"",""trial"",""time""
""fullscreenenter"",""0"",""3920""
","
","
","""event"",""trial"",""time""
""fullscreenenter"",""0"",""3920""
","
","275.10000002384186","<div class='center'><p>That's correct!</p><div><p><b>[Press the space bar to continue]</b></p></div>","32","","","","","","","",""
"","practice_q3","223","370704","0.0-219.0-2.0","""event"",""trial"",""time""
""fullscreenenter"",""0"",""3920""
","
","
","""event"",""trial"",""time""
""fullscreenenter"",""0"",""3920""
","
","1328.6000000238419","run_exp/static/audio/clip_16_practice_question.m4a","66","","","","","","","",""
"","correct","224","372799","0.0-220.0-0.0","""event"",""trial"",""time""
""fullscreenenter"",""0"",""3920""
","
","
","""event"",""trial"",""time""
""fullscreenenter"",""0"",""3920""
","
","null","run_exp/static/audio/clip_17_correct.m4a","null","","","","","<div class='center'><p>That's correct!</p></div>","","",""
"","html-keyboard-response","225","373083","0.0-220.0-1.0","""event"",""trial"",""time""
""fullscreenenter"",""0"",""3920""
","
","
","""event"",""trial"",""time""
""fullscreenenter"",""0"",""3920""
","
","282.7999999523163","<div class='center'><p>That's correct!</p><div><p><b>[Press the space bar to continue]</b></p></div>","32","","","","","","","",""
"","begin_text","226","391579","0.0-221.0-0.0","""event"",""trial"",""time""
""fullscreenenter"",""0"",""3920""
","
","
","""event"",""trial"",""time""
""fullscreenenter"",""0"",""3920""
","
","null","run_exp/static/audio/clip_22_begin_test.m4a","null","","","","","<div class='center'><p>On to the real game where well test your memory of items from the indoor/outdoor game. For each item, you need to indicate if the item is <b>old</b> by pressing the <b>v</b> key, <b>similar</b> by pressing the <b>b</b> key, or <b>new</b> by pressing the <b>n</b> key. </p></div>","","",""
"","html-keyboard-response","227","395847","0.0-221.0-1.0","""event"",""trial"",""time""
""fullscreenenter"",""0"",""3920""
","
","
","""event"",""trial"",""time""
""fullscreenenter"",""0"",""3920""
","
","4267","<div class='center'><p>On to the real game where well test your memory of items from the indoor/outdoor game. For each item, you need to indicate if the item is <b>old</b> by pressing the <b>v</b> key, <b>similar</b> by pressing the <b>b</b> key, or <b>new</b> by pressing the <b>n</b> key. </p><div><p><b>[Press the space bar to continue]</b></p></div>","32","","","","","","","",""
"","image","228","397978","0.0-222.0-0.0","""event"",""trial"",""time""
""fullscreenenter"",""0"",""3920""
","
","
","""event"",""trial"",""time""
""fullscreenenter"",""0"",""3920""
","
","2129.099999964237","run_exp/static/images/Set 6_rs/132a.jpg","86","","","","","","test","TR","5"
"","show_choice","229","398480","0.0-222.0-1.0","""event"",""trial"",""time""
""fullscreenenter"",""0"",""3920""
","
","
","""event"",""trial"",""time""
""fullscreenenter"",""0"",""3920""
","
","null","run_exp/static/images/Set 6_rs/132a.jpg","null","","","","","","test","TR",""
"","html-keyboard-response","230","398982","0.0-222.0-2.0","""event"",""trial"",""time""
""fullscreenenter"",""0"",""3920""
","
","
","""event"",""trial"",""time""
""fullscreenenter"",""0"",""3920""
","
","null","<p></p>","null","","","","","","","",""
"","image","231","400087","0.0-223.0-0.0","""event"",""trial"",""time""
""fullscreenenter"",""0"",""3920""
","
","
","""event"",""trial"",""time""
""fullscreenenter"",""0"",""3920""
","
","1103.6000000238419","run_exp/static/images/Set 6_rs/169a.jpg","86","","","","","","test","TR","4"
"","show_choice","232","400590","0.0-223.0-1.0","""event"",""trial"",""time""
""fullscreenenter"",""0"",""3920""
","
","
","""event"",""trial"",""time""
""fullscreenenter"",""0"",""3920""
","
","null","run_exp/static/images/Set 6_rs/169a.jpg","null","","","","","","test","TR",""
"","html-keyboard-response","233","401093","0.0-223.0-2.0","""event"",""trial"",""time""
""fullscreenenter"",""0"",""3920""
","
","
","""event"",""trial"",""time""
""fullscreenenter"",""0"",""3920""
","
","null","<p></p>","null","","","","","","","",""
"","image","234","403237","0.0-224.0-0.0","""event"",""trial"",""time""
""fullscreenenter"",""0"",""3920""
","
","
","""event"",""trial"",""time""
""fullscreenenter"",""0"",""3920""
","
","2143.399999976158","run_exp/static/images/Set 6_rs/152a.jpg","66","","","","","","test","TR","2"
"","show_choice","235","403747","0.0-224.0-1.0","""event"",""trial"",""time""
""fullscreenenter"",""0"",""3920""
","
","
","""event"",""trial"",""time""
""fullscreenenter"",""0"",""3920""
","
","null","run_exp/static/images/Set 6_rs/152a.jpg","null","","","","","","test","TR",""
"","html-keyboard-response","236","404252","0.0-224.0-2.0","""event"",""trial"",""time""
""fullscreenenter"",""0"",""3920""
","
","
","""event"",""trial"",""time""
""fullscreenenter"",""0"",""3920""
","
","null","<p></p>","null","","","","","","","",""
"","image","237","405755","0.0-225.0-0.0","""event"",""trial"",""time""
""fullscreenenter"",""0"",""3920""
","
","
","""event"",""trial"",""time""
""fullscreenenter"",""0"",""3920""
","
","1502.300000011921","run_exp/static/images/Set 6_rs/019b.jpg","66","","","","","","test","TL","2"
"","show_choice","238","406257","0.0-225.0-1.0","""event"",""trial"",""time""
""fullscreenenter"",""0"",""3920""
","
","
","""event"",""trial"",""time""
""fullscreenenter"",""0"",""3920""
","
","null","run_exp/static/images/Set 6_rs/019b.jpg","null","","","","","","test","TL",""
"","html-keyboard-response","239","406759","0.0-225.0-2.0","""event"",""trial"",""time""
""fullscreenenter"",""0"",""3920""
","
","
","""event"",""trial"",""time""
""fullscreenenter"",""0"",""3920""
","
","null","<p></p>","null","","","","","","","",""
"","image","240","408225","0.0-226.0-0.0","""event"",""trial"",""time""
""fullscreenenter"",""0"",""3920""
","
","
","""event"",""trial"",""time""
""fullscreenenter"",""0"",""3920""
","
","1463.9000000357628","run_exp/static/images/Set 6_rs/154a.jpg","86","","","","","","test","TR","3"
"","show_choice","241","408726","0.0-226.0-1.0","""event"",""trial"",""time""
""fullscreenenter"",""0"",""3920""
","
","
","""event"",""trial"",""time""
""fullscreenenter"",""0"",""3920""
","
","null","run_exp/static/images/Set 6_rs/154a.jpg","null","","","","","","test","TR",""
"","html-keyboard-response","242","409228","0.0-226.0-2.0","""event"",""trial"",""time""
""fullscreenenter"",""0"",""3920""
","
","
","""event"",""trial"",""time""
""fullscreenenter"",""0"",""3920""
","
","null","<p></p>","null","","","","","","","",""
"","image","243","410737","0.0-227.0-0.0","""event"",""trial"",""time""
""fullscreenenter"",""0"",""3920""
","
","
","""event"",""trial"",""time""
""fullscreenenter"",""0"",""3920""
","
","1508.199999988079","run_exp/static/images/Set 6_rs/065a.jpg","78","","","","","","test","TF","3"
"","show_choice","244","411238","0.0-227.0-1.0","""event"",""trial"",""time""
""fullscreenenter"",""0"",""3920""
","
","
","""event"",""trial"",""time""
""fullscreenenter"",""0"",""3920""
","
","null","run_exp/static/images/Set 6_rs/065a.jpg","null","","","","","","test","TF",""
"","html-keyboard-response","245","411740","0.0-227.0-2.0","""event"",""trial"",""time""
""fullscreenenter"",""0"",""3920""
","
","
","""event"",""trial"",""time""
""fullscreenenter"",""0"",""3920""
","
","null","<p></p>","null","","","","","","","",""
"","image","246","413682","0.0-228.0-0.0","""event"",""trial"",""time""
""fullscreenenter"",""0"",""3920""
","
","
","""event"",""trial"",""time""
""fullscreenenter"",""0"",""3920""
","
","1941.3999999761581","run_exp/static/images/Set 6_rs/171a.jpg","66","","","","","","test","TF","1"
"","show_choice","247","414186","0.0-228.0-1.0","""event"",""trial"",""time""
""fullscreenenter"",""0"",""3920""
","
","
","""event"",""trial"",""time""
""fullscreenenter"",""0"",""3920""
","
","null","run_exp/static/images/Set 6_rs/171a.jpg","null","","","","","","test","TF",""
"","html-keyboard-response","248","414687","0.0-228.0-2.0","""event"",""trial"",""time""
""fullscreenenter"",""0"",""3920""
","
","
","""event"",""trial"",""time""
""fullscreenenter"",""0"",""3920""
","
","null","<p></p>","null","","","","","","","",""
"","image","249","415896","0.0-229.0-0.0","""event"",""trial"",""time""
""fullscreenenter"",""0"",""3920""
","
","
","""event"",""trial"",""time""
""fullscreenenter"",""0"",""3920""
","
","1208.0999999642372","run_exp/static/images/Set 6_rs/088a.jpg","86","","","","","","test","TR","2"
"","show_choice","250","416399","0.0-229.0-1.0","""event"",""trial"",""time""
""fullscreenenter"",""0"",""3920""
","
","
","""event"",""trial"",""time""
""fullscreenenter"",""0"",""3920""
","
","null","run_exp/static/images/Set 6_rs/088a.jpg","null","","","","","","test","TR",""
"","html-keyboard-response","251","416902","0.0-229.0-2.0","""event"",""trial"",""time""
""fullscreenenter"",""0"",""3920""
","
","
","""event"",""trial"",""time""
""fullscreenenter"",""0"",""3920""
","
","null","<p></p>","null","","","","","","","",""
"","image","252","418383","0.0-230.0-0.0","""event"",""trial"",""time""
""fullscreenenter"",""0"",""3920""
","
","
","""event"",""trial"",""time""
""fullscreenenter"",""0"",""3920""
","
","1480.2999999523163","run_exp/static/images/Set 6_rs/091b.jpg","66","","","","","","test","TL","3"
"","show_choice","253","418886","0.0-230.0-1.0","""event"",""trial"",""time""
""fullscreenenter"",""0"",""3920""
","
","
","""event"",""trial"",""time""
""fullscreenenter"",""0"",""3920""
","
","null","run_exp/static/images/Set 6_rs/091b.jpg","null","","","","","","test","TL",""
"","html-keyboard-response","254","419389","0.0-230.0-2.0","""event"",""trial"",""time""
""fullscreenenter"",""0"",""3920""
","
","
","""event"",""trial"",""time""
""fullscreenenter"",""0"",""3920""
","
","null","<p></p>","null","","","","","","","",""
"","image","255","420679","0.0-231.0-0.0","""event"",""trial"",""time""
""fullscreenenter"",""0"",""3920""
","
","
","""event"",""trial"",""time""
""fullscreenenter"",""0"",""3920""
","
","1288.1000000238419","run_exp/static/images/Set 6_rs/016b.jpg","66","","","","","","test","TL","1"
"","show_choice","256","421194","0.0-231.0-1.0","""event"",""trial"",""time""
""fullscreenenter"",""0"",""3920""
","
","
","""event"",""trial"",""time""
""fullscreenenter"",""0"",""3920""
","
","null","run_exp/static/images/Set 6_rs/016b.jpg","null","","","","","","test","TL",""
"","html-keyboard-response","257","421696","0.0-231.0-2.0","""event"",""trial"",""time""
""fullscreenenter"",""0"",""3920""
","
","
","""event"",""trial"",""time""
""fullscreenenter"",""0"",""3920""
","
","null","<p></p>","null","","","","","","","",""
"","image","258","423737","0.0-232.0-0.0","""event"",""trial"",""time""
""fullscreenenter"",""0"",""3920""
","
","
","""event"",""trial"",""time""
""fullscreenenter"",""0"",""3920""
","
","2040.1000000238419","run_exp/static/images/Set 6_rs/056a.jpg","78","","","","","","test","TF","3"
"","show_choice","259","424240","0.0-232.0-1.0","""event"",""trial"",""time""
""fullscreenenter"",""0"",""3920""
","
","
","""event"",""trial"",""time""
""fullscreenenter"",""0"",""3920""
","
","null","run_exp/static/images/Set 6_rs/056a.jpg","null","","","","","","test","TF",""
"","html-keyboard-response","260","424741","0.0-232.0-2.0","""event"",""trial"",""time""
""fullscreenenter"",""0"",""3920""
","
","
","""event"",""trial"",""time""
""fullscreenenter"",""0"",""3920""
","
","null","<p></p>","null","","","","","","","",""
"","image","261","426517","0.0-233.0-0.0","""event"",""trial"",""time""
""fullscreenenter"",""0"",""3920""
","
","
","""event"",""trial"",""time""
""fullscreenenter"",""0"",""3920""
","
","1774.7000000476837","run_exp/static/images/Set 6_rs/121a.jpg","78","","","","","","test","TR","4"
"","show_choice","262","427018","0.0-233.0-1.0","""event"",""trial"",""time""
""fullscreenenter"",""0"",""3920""
","
","
","""event"",""trial"",""time""
""fullscreenenter"",""0"",""3920""
","
","null","run_exp/static/images/Set 6_rs/121a.jpg","null","","","","","","test","TR",""
"","html-keyboard-response","263","427520","0.0-233.0-2.0","""event"",""trial"",""time""
""fullscreenenter"",""0"",""3920""
","
","
","""event"",""trial"",""time""
""fullscreenenter"",""0"",""3920""
","
","null","<p></p>","null","","","","","","","",""
"","image","264","429162","0.0-234.0-0.0","""event"",""trial"",""time""
""fullscreenenter"",""0"",""3920""
","
","
","""event"",""trial"",""time""
""fullscreenenter"",""0"",""3920""
","
","1640.5999999642372","run_exp/static/images/Set 6_rs/122a.jpg","86","","","","","","test","TR","5"
"","show_choice","265","429663","0.0-234.0-1.0","""event"",""trial"",""time""
""fullscreenenter"",""0"",""3920""
","
","
","""event"",""trial"",""time""
""fullscreenenter"",""0"",""3920""
","
","null","run_exp/static/images/Set 6_rs/122a.jpg","null","","","","","","test","TR",""
"","html-keyboard-response","266","430164","0.0-234.0-2.0","""event"",""trial"",""time""
""fullscreenenter"",""0"",""3920""
","
","
","""event"",""trial"",""time""
""fullscreenenter"",""0"",""3920""
","
","null","<p></p>","null","","","","","","","",""
"","image","267","431419","0.0-235.0-0.0","""event"",""trial"",""time""
""fullscreenenter"",""0"",""3920""
","
","
","""event"",""trial"",""time""
""fullscreenenter"",""0"",""3920""
","
","1253.8999999761581","run_exp/static/images/Set 6_rs/172a.jpg","66","","","","","","test","TR","1"
"","show_choice","268","431923","0.0-235.0-1.0","""event"",""trial"",""time""
""fullscreenenter"",""0"",""3920""
","
","
","""event"",""trial"",""time""
""fullscreenenter"",""0"",""3920""
","
","null","run_exp/static/images/Set 6_rs/172a.jpg","null","","","","","","test","TR",""
"","html-keyboard-response","269","432424","0.0-235.0-2.0","""event"",""trial"",""time""
""fullscreenenter"",""0"",""3920""
","
","
","""event"",""trial"",""time""
""fullscreenenter"",""0"",""3920""
","
","null","<p></p>","null","","","","","","","",""
"","image","270","433721","0.0-236.0-0.0","""event"",""trial"",""time""
""fullscreenenter"",""0"",""3920""
","
","
","""event"",""trial"",""time""
""fullscreenenter"",""0"",""3920""
","
","1295","run_exp/static/images/Set 6_rs/144b.jpg","66","","","","","","test","TL","4"
"","show_choice","271","434222","0.0-236.0-1.0","""event"",""trial"",""time""
""fullscreenenter"",""0"",""3920""
","
","
","""event"",""trial"",""time""
""fullscreenenter"",""0"",""3920""
","
","null","run_exp/static/images/Set 6_rs/144b.jpg","null","","","","","","test","TL",""
"","html-keyboard-response","272","434725","0.0-236.0-2.0","""event"",""trial"",""time""
""fullscreenenter"",""0"",""3920""
","
","
","""event"",""trial"",""time""
""fullscreenenter"",""0"",""3920""
","
","null","<p></p>","null","","","","","","","",""
"","image","273","436174","0.0-237.0-0.0","""event"",""trial"",""time""
""fullscreenenter"",""0"",""3920""
","
","
","""event"",""trial"",""time""
""fullscreenenter"",""0"",""3920""
","
","1448.300000011921","run_exp/static/images/Set 6_rs/108a.jpg","86","","","","","","test","TR","5"
"","show_choice","274","436676","0.0-237.0-1.0","""event"",""trial"",""time""
""fullscreenenter"",""0"",""3920""
","
","
","""event"",""trial"",""time""
""fullscreenenter"",""0"",""3920""
","
","null","run_exp/static/images/Set 6_rs/108a.jpg","null","","","","","","test","TR",""
"","html-keyboard-response","275","437177","0.0-237.0-2.0","""event"",""trial"",""time""
""fullscreenenter"",""0"",""3920""
","
","
","""event"",""trial"",""time""
""fullscreenenter"",""0"",""3920""
","
","null","<p></p>","null","","","","","","","",""
"","image","276","438293","0.0-238.0-0.0","""event"",""trial"",""time""
""fullscreenenter"",""0"",""3920""
","
","
","""event"",""trial"",""time""
""fullscreenenter"",""0"",""3920""
","
","1114.300000011921","run_exp/static/images/Set 6_rs/045a.jpg","86","","","","","","test","TR","2"
"","show_choice","277","438794","0.0-238.0-1.0","""event"",""trial"",""time""
""fullscreenenter"",""0"",""3920""
","
","
","""event"",""trial"",""time""
""fullscreenenter"",""0"",""3920""
","
","null","run_exp/static/images/Set 6_rs/045a.jpg","null","","","","","","test","TR",""
"","html-keyboard-response","278","439296","0.0-238.0-2.0","""event"",""trial"",""time""
""fullscreenenter"",""0"",""3920""
","
","
","""event"",""trial"",""time""
""fullscreenenter"",""0"",""3920""
","
","null","<p></p>","null","","","","","","","",""
"","image","279","440930","0.0-239.0-0.0","""event"",""trial"",""time""
""fullscreenenter"",""0"",""3920""
","
","
","""event"",""trial"",""time""
""fullscreenenter"",""0"",""3920""
","
","1632.9000000357628","run_exp/static/images/Set 6_rs/126a.jpg","86","","","","","","test","TR","2"
"","show_choice","280","441432","0.0-239.0-1.0","""event"",""trial"",""time""
""fullscreenenter"",""0"",""3920""
","
","
","""event"",""trial"",""time""
""fullscreenenter"",""0"",""3920""
","
","null","run_exp/static/images/Set 6_rs/126a.jpg","null","","","","","","test","TR",""
"","html-keyboard-response","281","441934","0.0-239.0-2.0","""event"",""trial"",""time""
""fullscreenenter"",""0"",""3920""
","
","
","""event"",""trial"",""time""
""fullscreenenter"",""0"",""3920""
","
","null","<p></p>","null","","","","","","","",""
"","image","282","442850","0.0-240.0-0.0","""event"",""trial"",""time""
""fullscreenenter"",""0"",""3920""
","
","
","""event"",""trial"",""time""
""fullscreenenter"",""0"",""3920""
","
","915","run_exp/static/images/Set 6_rs/186a.jpg","86","","","","","","test","TR","5"
"","show_choice","283","443352","0.0-240.0-1.0","""event"",""trial"",""time""
""fullscreenenter"",""0"",""3920""
","
","
","""event"",""trial"",""time""
""fullscreenenter"",""0"",""3920""
","
","null","run_exp/static/images/Set 6_rs/186a.jpg","null","","","","","","test","TR",""
"","html-keyboard-response","284","443854","0.0-240.0-2.0","""event"",""trial"",""time""
""fullscreenenter"",""0"",""3920""
","
","
","""event"",""trial"",""time""
""fullscreenenter"",""0"",""3920""
","
","null","<p></p>","null","","","","","","","",""
"","image","285","445252","0.0-241.0-0.0","""event"",""trial"",""time""
""fullscreenenter"",""0"",""3920""
","
","
","""event"",""trial"",""time""
""fullscreenenter"",""0"",""3920""
","
","1397.5","run_exp/static/images/Set 6_rs/074b.jpg","66","","","","","","test","TL","4"
"","show_choice","286","445754","0.0-241.0-1.0","""event"",""trial"",""time""
""fullscreenenter"",""0"",""3920""
","
","
","""event"",""trial"",""time""
""fullscreenenter"",""0"",""3920""
","
","null","run_exp/static/images/Set 6_rs/074b.jpg","null","","","","","","test","TL",""
"","html-keyboard-response","287","446255","0.0-241.0-2.0","""event"",""trial"",""time""
""fullscreenenter"",""0"",""3920""
","
","
","""event"",""trial"",""time""
""fullscreenenter"",""0"",""3920""
","
","null","<p></p>","null","","","","","","","",""
"","image","288","447315","0.0-242.0-0.0","""event"",""trial"",""time""
""fullscreenenter"",""0"",""3920""
","
","
","""event"",""trial"",""time""
""fullscreenenter"",""0"",""3920""
","
","1058.4000000357628","run_exp/static/images/Set 6_rs/015a.jpg","78","","","","","","test","TF","4"
"","show_choice","289","447816","0.0-242.0-1.0","""event"",""trial"",""time""
""fullscreenenter"",""0"",""3920""
","
","
","""event"",""trial"",""time""
""fullscreenenter"",""0"",""3920""
","
","null","run_exp/static/images/Set 6_rs/015a.jpg","null","","","","","","test","TF",""
"","html-keyboard-response","290","448318","0.0-242.0-2.0","""event"",""trial"",""time""
""fullscreenenter"",""0"",""3920""
","
","
","""event"",""trial"",""time""
""fullscreenenter"",""0"",""3920""
","
","null","<p></p>","null","","","","","","","",""
"","image","291","449456","0.0-243.0-0.0","""event"",""trial"",""time""
""fullscreenenter"",""0"",""3920""
","
","
","""event"",""trial"",""time""
""fullscreenenter"",""0"",""3920""
","
","1136.3999999761581","run_exp/static/images/Set 6_rs/071b.jpg","66","","","","","","test","TL","4"
"","show_choice","292","449957","0.0-243.0-1.0","""event"",""trial"",""time""
""fullscreenenter"",""0"",""3920""
","
","
","""event"",""trial"",""time""
""fullscreenenter"",""0"",""3920""
","
","null","run_exp/static/images/Set 6_rs/071b.jpg","null","","","","","","test","TL",""
"","html-keyboard-response","293","450459","0.0-243.0-2.0","""event"",""trial"",""time""
""fullscreenenter"",""0"",""3920""
","
","
","""event"",""trial"",""time""
""fullscreenenter"",""0"",""3920""
","
","null","<p></p>","null","","","","","","","",""
"","image","294","451524","0.0-244.0-0.0","""event"",""trial"",""time""
""fullscreenenter"",""0"",""3920""
","
","
","""event"",""trial"",""time""
""fullscreenenter"",""0"",""3920""
","
","1064.0999999642372","run_exp/static/images/Set 6_rs/150a.jpg","86","","","","","","test","TR","1"
"","show_choice","295","452026","0.0-244.0-1.0","""event"",""trial"",""time""
""fullscreenenter"",""0"",""3920""
","
","
","""event"",""trial"",""time""
""fullscreenenter"",""0"",""3920""
","
","null","run_exp/static/images/Set 6_rs/150a.jpg","null","","","","","","test","TR",""
"","html-keyboard-response","296","452529","0.0-244.0-2.0","""event"",""trial"",""time""
""fullscreenenter"",""0"",""3920""
","
","
","""event"",""trial"",""time""
""fullscreenenter"",""0"",""3920""
","
","null","<p></p>","null","","","","","","","",""
"","image","297","453695","0.0-245.0-0.0","""event"",""trial"",""time""
""fullscreenenter"",""0"",""3920""
","
","
","""event"",""trial"",""time""
""fullscreenenter"",""0"",""3920""
","
","1164.199999988079","run_exp/static/images/Set 6_rs/118a.jpg","78","","","","","","test","TF","5"
"","show_choice","298","454196","0.0-245.0-1.0","""event"",""trial"",""time""
""fullscreenenter"",""0"",""3920""
","
","
","""event"",""trial"",""time""
""fullscreenenter"",""0"",""3920""
","
","null","run_exp/static/images/Set 6_rs/118a.jpg","null","","","","","","test","TF",""
"","html-keyboard-response","299","454697","0.0-245.0-2.0","""event"",""trial"",""time""
""fullscreenenter"",""0"",""3920""
","
","
","""event"",""trial"",""time""
""fullscreenenter"",""0"",""3920""
","
","null","<p></p>","null","","","","","","","",""
"","image","300","455946","0.0-246.0-0.0","""event"",""trial"",""time""
""fullscreenenter"",""0"",""3920""
","
","
","""event"",""trial"",""time""
""fullscreenenter"",""0"",""3920""
","
","1247.4000000357628","run_exp/static/images/Set 6_rs/050b.jpg","86","","","","","","test","TL","3"
"","show_choice","301","456449","0.0-246.0-1.0","""event"",""trial"",""time""
""fullscreenenter"",""0"",""3920""
","
","
","""event"",""trial"",""time""
""fullscreenenter"",""0"",""3920""
","
","null","run_exp/static/images/Set 6_rs/050b.jpg","null","","","","","","test","TL",""
"","html-keyboard-response","302","456963","0.0-246.0-2.0","""event"",""trial"",""time""
""fullscreenenter"",""0"",""3920""
","
","
","""event"",""trial"",""time""
""fullscreenenter"",""0"",""3920""
","
","null","<p></p>","null","","","","","","","",""
"","image","303","457894","0.0-247.0-0.0","""event"",""trial"",""time""
""fullscreenenter"",""0"",""3920""
","
","
","""event"",""trial"",""time""
""fullscreenenter"",""0"",""3920""
","
","930.3000000119209","run_exp/static/images/Set 6_rs/187a.jpg","86","","","","","","test","TR","3"
"","show_choice","304","458397","0.0-247.0-1.0","""event"",""trial"",""time""
""fullscreenenter"",""0"",""3920""
","
","
","""event"",""trial"",""time""
""fullscreenenter"",""0"",""3920""
","
","null","run_exp/static/images/Set 6_rs/187a.jpg","null","","","","","","test","TR",""
"","html-keyboard-response","305","458900","0.0-247.0-2.0","""event"",""trial"",""time""
""fullscreenenter"",""0"",""3920""
","
","
","""event"",""trial"",""time""
""fullscreenenter"",""0"",""3920""
","
","null","<p></p>","null","","","","","","","",""
"","image","306","460157","0.0-248.0-0.0","""event"",""trial"",""time""
""fullscreenenter"",""0"",""3920""
","
","
","""event"",""trial"",""time""
""fullscreenenter"",""0"",""3920""
","
","1255.9000000357628","run_exp/static/images/Set 6_rs/141a.jpg","86","","","","","","test","TR","2"
"","show_choice","307","460660","0.0-248.0-1.0","""event"",""trial"",""time""
""fullscreenenter"",""0"",""3920""
","
","
","""event"",""trial"",""time""
""fullscreenenter"",""0"",""3920""
","
","null","run_exp/static/images/Set 6_rs/141a.jpg","null","","","","","","test","TR",""
"","html-keyboard-response","308","461161","0.0-248.0-2.0","""event"",""trial"",""time""
""fullscreenenter"",""0"",""3920""
","
","
","""event"",""trial"",""time""
""fullscreenenter"",""0"",""3920""
","
","null","<p></p>","null","","","","","","","",""
"","image","309","462338","0.0-249.0-0.0","""event"",""trial"",""time""
""fullscreenenter"",""0"",""3920""
","
","
","""event"",""trial"",""time""
""fullscreenenter"",""0"",""3920""
","
","1175.0999999642372","run_exp/static/images/Set 6_rs/052a.jpg","78","","","","","","test","TF","1"
"","show_choice","310","462841","0.0-249.0-1.0","""event"",""trial"",""time""
""fullscreenenter"",""0"",""3920""
","
","
","""event"",""trial"",""time""
""fullscreenenter"",""0"",""3920""
","
","null","run_exp/static/images/Set 6_rs/052a.jpg","null","","","","","","test","TF",""
"","html-keyboard-response","311","463343","0.0-249.0-2.0","""event"",""trial"",""time""
""fullscreenenter"",""0"",""3920""
","
","
","""event"",""trial"",""time""
""fullscreenenter"",""0"",""3920""
","
","null","<p></p>","null","","","","","","","",""
"","image","312","464303","0.0-250.0-0.0","""event"",""trial"",""time""
""fullscreenenter"",""0"",""3920""
","
","
","""event"",""trial"",""time""
""fullscreenenter"",""0"",""3920""
","
","958.1999999880791","run_exp/static/images/Set 6_rs/055b.jpg","66","","","","","","test","TL","4"
"","show_choice","313","464806","0.0-250.0-1.0","""event"",""trial"",""time""
""fullscreenenter"",""0"",""3920""
","
","
","""event"",""trial"",""time""
""fullscreenenter"",""0"",""3920""
","
","null","run_exp/static/images/Set 6_rs/055b.jpg","null","","","","","","test","TL",""
"","html-keyboard-response","314","465308","0.0-250.0-2.0","""event"",""trial"",""time""
""fullscreenenter"",""0"",""3920""
","
","
","""event"",""trial"",""time""
""fullscreenenter"",""0"",""3920""
","
","null","<p></p>","null","","","","","","","",""
"","image","315","466557","0.0-251.0-0.0","""event"",""trial"",""time""
""fullscreenenter"",""0"",""3920""
","
","
","""event"",""trial"",""time""
""fullscreenenter"",""0"",""3920""
","
","1247.7999999523163","run_exp/static/images/Set 6_rs/191b.jpg","66","","","","","","test","TL","2"
"","show_choice","316","467060","0.0-251.0-1.0","""event"",""trial"",""time""
""fullscreenenter"",""0"",""3920""
","
","
","""event"",""trial"",""time""
""fullscreenenter"",""0"",""3920""
","
","null","run_exp/static/images/Set 6_rs/191b.jpg","null","","","","","","test","TL",""
"","html-keyboard-response","317","467563","0.0-251.0-2.0","""event"",""trial"",""time""
""fullscreenenter"",""0"",""3920""
","
","
","""event"",""trial"",""time""
""fullscreenenter"",""0"",""3920""
","
","null","<p></p>","null","","","","","","","",""
"","image","318","468835","0.0-252.0-0.0","""event"",""trial"",""time""
""fullscreenenter"",""0"",""3920""
","
","
","""event"",""trial"",""time""
""fullscreenenter"",""0"",""3920""
","
","1271.199999988079","run_exp/static/images/Set 6_rs/138b.jpg","86","","","","","","test","TL","1"
"","show_choice","319","469339","0.0-252.0-1.0","""event"",""trial"",""time""
""fullscreenenter"",""0"",""3920""
","
","
","""event"",""trial"",""time""
""fullscreenenter"",""0"",""3920""
","
","null","run_exp/static/images/Set 6_rs/138b.jpg","null","","","","","","test","TL",""
"","html-keyboard-response","320","469841","0.0-252.0-2.0","""event"",""trial"",""time""
""fullscreenenter"",""0"",""3920""
","
","
","""event"",""trial"",""time""
""fullscreenenter"",""0"",""3920""
","
","null","<p></p>","null","","","","","","","",""
"","image","321","471380","0.0-253.0-0.0","""event"",""trial"",""time""
""fullscreenenter"",""0"",""3920""
","
","
","""event"",""trial"",""time""
""fullscreenenter"",""0"",""3920""
","
","1537.300000011921","run_exp/static/images/Set 6_rs/017b.jpg","66","","","","","","test","TL","3"
"","show_choice","322","471891","0.0-253.0-1.0","""event"",""trial"",""time""
""fullscreenenter"",""0"",""3920""
","
","
","""event"",""trial"",""time""
""fullscreenenter"",""0"",""3920""
","
","null","run_exp/static/images/Set 6_rs/017b.jpg","null","","","","","","test","TL",""
"","html-keyboard-response","323","472392","0.0-253.0-2.0","""event"",""trial"",""time""
""fullscreenenter"",""0"",""3920""
","
","
","""event"",""trial"",""time""
""fullscreenenter"",""0"",""3920""
","
","null","<p></p>","null","","","","","","","",""
"","image","324","473515","0.0-254.0-0.0","""event"",""trial"",""time""
""fullscreenenter"",""0"",""3920""
","
","
","""event"",""trial"",""time""
""fullscreenenter"",""0"",""3920""
","
","1121.1000000238419","run_exp/static/images/Set 6_rs/008b.jpg","86","","","","","","test","TL","2"
"","show_choice","325","474016","0.0-254.0-1.0","""event"",""trial"",""time""
""fullscreenenter"",""0"",""3920""
","
","
","""event"",""trial"",""time""
""fullscreenenter"",""0"",""3920""
","
","null","run_exp/static/images/Set 6_rs/008b.jpg","null","","","","","","test","TL",""
"","html-keyboard-response","326","474517","0.0-254.0-2.0","""event"",""trial"",""time""
""fullscreenenter"",""0"",""3920""
","
","
","""event"",""trial"",""time""
""fullscreenenter"",""0"",""3920""
","
","null","<p></p>","null","","","","","","","",""
"","image","327","475472","0.0-255.0-0.0","""event"",""trial"",""time""
""fullscreenenter"",""0"",""3920""
","
","
","""event"",""trial"",""time""
""fullscreenenter"",""0"",""3920""
","
","953.8000000119209","run_exp/static/images/Set 6_rs/100a.jpg","78","","","","","","test","TF","2"
"","show_choice","328","475975","0.0-255.0-1.0","""event"",""trial"",""time""
""fullscreenenter"",""0"",""3920""
","
","
","""event"",""trial"",""time""
""fullscreenenter"",""0"",""3920""
","
","null","run_exp/static/images/Set 6_rs/100a.jpg","null","","","","","","test","TF",""
"","html-keyboard-response","329","476476","0.0-255.0-2.0","""event"",""trial"",""time""
""fullscreenenter"",""0"",""3920""
","
","
","""event"",""trial"",""time""
""fullscreenenter"",""0"",""3920""
","
","null","<p></p>","null","","","","","","","",""
"","image","330","477559","0.0-256.0-0.0","""event"",""trial"",""time""
""fullscreenenter"",""0"",""3920""
","
","
","""event"",""trial"",""time""
""fullscreenenter"",""0"",""3920""
","
","1081.3999999761581","run_exp/static/images/Set 6_rs/190a.jpg","78","","","","","","test","TF","3"
"","show_choice","331","478061","0.0-256.0-1.0","""event"",""trial"",""time""
""fullscreenenter"",""0"",""3920""
","
","
","""event"",""trial"",""time""
""fullscreenenter"",""0"",""3920""
","
","null","run_exp/static/images/Set 6_rs/190a.jpg","null","","","","","","test","TF",""
"","html-keyboard-response","332","478562","0.0-256.0-2.0","""event"",""trial"",""time""
""fullscreenenter"",""0"",""3920""
","
","
","""event"",""trial"",""time""
""fullscreenenter"",""0"",""3920""
","
","null","<p></p>","null","","","","","","","",""
"","image","333","479242","0.0-257.0-0.0","""event"",""trial"",""time""
""fullscreenenter"",""0"",""3920""
","
","
","""event"",""trial"",""time""
""fullscreenenter"",""0"",""3920""
","
","679.1000000238419","run_exp/static/images/Set 6_rs/097a.jpg","78","","","","","","test","TF","5"
"","show_choice","334","479745","0.0-257.0-1.0","""event"",""trial"",""time""
""fullscreenenter"",""0"",""3920""
","
","
","""event"",""trial"",""time""
""fullscreenenter"",""0"",""3920""
","
","null","run_exp/static/images/Set 6_rs/097a.jpg","null","","","","","","test","TF",""
"","html-keyboard-response","335","480246","0.0-257.0-2.0","""event"",""trial"",""time""
""fullscreenenter"",""0"",""3920""
","
","
","""event"",""trial"",""time""
""fullscreenenter"",""0"",""3920""
","
","null","<p></p>","null","","","","","","","",""
"","image","336","481441","0.0-258.0-0.0","""event"",""trial"",""time""
""fullscreenenter"",""0"",""3920""
","
","
","""event"",""trial"",""time""
""fullscreenenter"",""0"",""3920""
","
","1194.5","run_exp/static/images/Set 6_rs/167b.jpg","86","","","","","","test","TL","2"
"","show_choice","337","481943","0.0-258.0-1.0","""event"",""trial"",""time""
""fullscreenenter"",""0"",""3920""
","
","
","""event"",""trial"",""time""
""fullscreenenter"",""0"",""3920""
","
","null","run_exp/static/images/Set 6_rs/167b.jpg","null","","","","","","test","TL",""
"","html-keyboard-response","338","482444","0.0-258.0-2.0","""event"",""trial"",""time""
""fullscreenenter"",""0"",""3920""
","
","
","""event"",""trial"",""time""
""fullscreenenter"",""0"",""3920""
","
","null","<p></p>","null","","","","","","","",""
"","image","339","484074","0.0-259.0-0.0","""event"",""trial"",""time""
""fullscreenenter"",""0"",""3920""
","
","
","""event"",""trial"",""time""
""fullscreenenter"",""0"",""3920""
","
","1628.2000000476837","run_exp/static/images/Set 6_rs/170a.jpg","78","","","","","","test","TF","2"
"","show_choice","340","484576","0.0-259.0-1.0","""event"",""trial"",""time""
""fullscreenenter"",""0"",""3920""
","
","
","""event"",""trial"",""time""
""fullscreenenter"",""0"",""3920""
","
","null","run_exp/static/images/Set 6_rs/170a.jpg","null","","","","","","test","TF",""
"","html-keyboard-response","341","485077","0.0-259.0-2.0","""event"",""trial"",""time""
""fullscreenenter"",""0"",""3920""
","
","
