"success","trial_type","trial_index","time_elapsed","internal_node_id","interactions","blur_events","focus_events","fullscreenenter_events","fullscreenexit_events","rt","stimulus","key_press","subject_id","participant_id","age","gender","prompt","phase","condition","lure_bin"
"true","fullscreen","0","2373","0.0-0.0","""event"",""trial"",""time""
""fullscreenenter"",""0"",""1382""
","
","
","""event"",""trial"",""time""
""fullscreenenter"",""0"",""1382""
","
","","","","","","","","","","",""
"","pavlovia","1","2380","0.0-1.0","""event"",""trial"",""time""
""fullscreenenter"",""0"",""1382""
","
","
","""event"",""trial"",""time""
""fullscreenenter"",""0"",""1382""
","
","","","","","","","","","","",""
"","welcome","2","37200","0.0-2.0","""event"",""trial"",""time""
""fullscreenenter"",""0"",""1382""
","
","
","""event"",""trial"",""time""
""fullscreenenter"",""0"",""1382""
","
","null","run_exp/static/audio/clip_1_welcome.m4a","null","489","70","22","Female","<div class='center'><p>Welcome to the third part of the study! First, you'll be shown pictures of items one at a time. For each picture, you have to decide if the item is typically found indoors or outdoors.</p><p>If you think it's usually found indoors, then press <b>v</b> key on your keyboard. If you think it's usually found outdoors, then press the <b>n</b> key.There will be reminders on the screen to help you remember which keys to press. </p><p>If you're not sure whether the item is an indoor item or an outdoor item, go ahead and take a guess but try your best not to skip that choice. </p></div>","","",""
"","html-keyboard-response","3","38614","0.0-3.0","""event"",""trial"",""time""
""fullscreenenter"",""0"",""1382""
","
","
","""event"",""trial"",""time""
""fullscreenenter"",""0"",""1382""
","
","1410","<div class='center'><p>Welcome to the third part of the study! First, you'll be shown pictures of items one at a time. For each picture, you have to decide if the item is typically found indoors or outdoors.</p><p>If you think it's usually found indoors, then press <b>v</b> key on your keyboard. If you think it's usually found outdoors, then press the <b>n</b> key.There will be reminders on the screen to help you remember which keys to press. </p><p>If you're not sure whether the item is an indoor item or an outdoor item, go ahead and take a guess but try your best not to skip that choice. </p><div><p><b>[Press the space bar to continue]</b></p></div>","32","","","","","","","",""
"","image","4","40453","0.0-4.0","""event"",""trial"",""time""
""fullscreenenter"",""0"",""1382""
","
","
","""event"",""trial"",""time""
""fullscreenenter"",""0"",""1382""
","
","1836.0999999940395","run_exp/static/images/Set 6_rs/154a.jpg","86","","","","","","learn","SR",""
"","show_choice","5","40620","0.0-5.0","""event"",""trial"",""time""
""fullscreenenter"",""0"",""1382""
","
","
","""event"",""trial"",""time""
""fullscreenenter"",""0"",""1382""
","
","null","run_exp/static/images/Set 6_rs/154a.jpg","null","","","","","","learn","SR",""
"","html-keyboard-response","6","41127","0.0-6.0","""event"",""trial"",""time""
""fullscreenenter"",""0"",""1382""
","
","
","""event"",""trial"",""time""
""fullscreenenter"",""0"",""1382""
","
","null","<p></p>","null","","","","","","","",""
"","image","7","43130","0.0-7.0","""event"",""trial"",""time""
""fullscreenenter"",""0"",""1382""
","
","
","""event"",""trial"",""time""
""fullscreenenter"",""0"",""1382""
","
","null","run_exp/static/images/Set 6_rs/075a.jpg","null","","","","","","learn","SR",""
"","show_choice","8","45137","0.0-8.0","""event"",""trial"",""time""
""fullscreenenter"",""0"",""1382""
","
","
","""event"",""trial"",""time""
""fullscreenenter"",""0"",""1382""
","
","null","run_exp/static/images/blank.png","null","","","","","","learn","SR",""
"","html-keyboard-response","9","45642","0.0-9.0","""event"",""trial"",""time""
""fullscreenenter"",""0"",""1382""
","
","
","""event"",""trial"",""time""
""fullscreenenter"",""0"",""1382""
","
","null","<p></p>","null","","","","","","","",""
"","image","10","46564","0.0-10.0","""event"",""trial"",""time""
""fullscreenenter"",""0"",""1382""
","
","
","""event"",""trial"",""time""
""fullscreenenter"",""0"",""1382""
","
","919.4000000059605","run_exp/static/images/Set 6_rs/181a.jpg","78","","","","","","learn","SL",""
"","show_choice","11","47646","0.0-11.0","""event"",""trial"",""time""
""fullscreenenter"",""0"",""1382""
","
","
","""event"",""trial"",""time""
""fullscreenenter"",""0"",""1382""
","
","null","run_exp/static/images/Set 6_rs/181a.jpg","null","","","","","","learn","SL",""
"","html-keyboard-response","12","48152","0.0-12.0","""event"",""trial"",""time""
""fullscreenenter"",""0"",""1382""
","
","
","""event"",""trial"",""time""
""fullscreenenter"",""0"",""1382""
","
","null","<p></p>","null","","","","","","","",""
"","image","13","48988","0.0-13.0","""event"",""trial"",""time""
""fullscreenenter"",""0"",""1382""
","
","
","""event"",""trial"",""time""
""fullscreenenter"",""0"",""1382""
","
","833","run_exp/static/images/Set 6_rs/123a.jpg","78","","","","","","learn","SL",""
"","show_choice","14","50160","0.0-14.0","""event"",""trial"",""time""
""fullscreenenter"",""0"",""1382""
","
","
","""event"",""trial"",""time""
""fullscreenenter"",""0"",""1382""
","
","null","run_exp/static/images/Set 6_rs/123a.jpg","null","","","","","","learn","SL",""
"","html-keyboard-response","15","50663","0.0-15.0","""event"",""trial"",""time""
""fullscreenenter"",""0"",""1382""
","
","
","""event"",""trial"",""time""
""fullscreenenter"",""0"",""1382""
","
","null","<p></p>","null","","","","","","","",""
"","image","16","51536","0.0-16.0","""event"",""trial"",""time""
""fullscreenenter"",""0"",""1382""
","
","
","""event"",""trial"",""time""
""fullscreenenter"",""0"",""1382""
","
","870.1000000089407","run_exp/static/images/Set 6_rs/010a.jpg","86","","","","","","learn","SR",""
"","show_choice","17","52670","0.0-17.0","""event"",""trial"",""time""
""fullscreenenter"",""0"",""1382""
","
","
","""event"",""trial"",""time""
""fullscreenenter"",""0"",""1382""
","
","null","run_exp/static/images/Set 6_rs/010a.jpg","null","","","","","","learn","SR",""
"","html-keyboard-response","18","53173","0.0-18.0","""event"",""trial"",""time""
""fullscreenenter"",""0"",""1382""
","
","
","""event"",""trial"",""time""
""fullscreenenter"",""0"",""1382""
","
","null","<p></p>","null","","","","","","","",""
"","image","19","53838","0.0-19.0","""event"",""trial"",""time""
""fullscreenenter"",""0"",""1382""
","
","
","""event"",""trial"",""time""
""fullscreenenter"",""0"",""1382""
","
","662.0999999940395","run_exp/static/images/Set 6_rs/186a.jpg","86","","","","","","learn","SR",""
"","show_choice","20","55182","0.0-20.0","""event"",""trial"",""time""
""fullscreenenter"",""0"",""1382""
","
","
","""event"",""trial"",""time""
""fullscreenenter"",""0"",""1382""
","
","null","run_exp/static/images/Set 6_rs/186a.jpg","null","","","","","","learn","SR",""
"","html-keyboard-response","21","55684","0.0-21.0","""event"",""trial"",""time""
""fullscreenenter"",""0"",""1382""
","
","
","""event"",""trial"",""time""
""fullscreenenter"",""0"",""1382""
","
","null","<p></p>","null","","","","","","","",""
"","image","22","56659","0.0-22.0","""event"",""trial"",""time""
""fullscreenenter"",""0"",""1382""
","
","
","""event"",""trial"",""time""
""fullscreenenter"",""0"",""1382""
","
","973.1000000089407","run_exp/static/images/Set 6_rs/132a.jpg","78","","","","","","learn","SR",""
"","show_choice","23","57691","0.0-23.0","""event"",""trial"",""time""
""fullscreenenter"",""0"",""1382""
","
","
","""event"",""trial"",""time""
""fullscreenenter"",""0"",""1382""
","
","null","run_exp/static/images/Set 6_rs/132a.jpg","null","","","","","","learn","SR",""
"","html-keyboard-response","24","58192","0.0-24.0","""event"",""trial"",""time""
""fullscreenenter"",""0"",""1382""
","
","
","""event"",""trial"",""time""
""fullscreenenter"",""0"",""1382""
","
","null","<p></p>","null","","","","","","","",""
"","image","25","58968","0.0-25.0","""event"",""trial"",""time""
""fullscreenenter"",""0"",""1382""
","
","
","""event"",""trial"",""time""
""fullscreenenter"",""0"",""1382""
","
","773.7000000029802","run_exp/static/images/Set 6_rs/169a.jpg","78","","","","","","learn","SR",""
"","show_choice","26","60198","0.0-26.0","""event"",""trial"",""time""
""fullscreenenter"",""0"",""1382""
","
","
","""event"",""trial"",""time""
""fullscreenenter"",""0"",""1382""
","
","null","run_exp/static/images/Set 6_rs/169a.jpg","null","","","","","","learn","SR",""
"","html-keyboard-response","27","60701","0.0-27.0","""event"",""trial"",""time""
""fullscreenenter"",""0"",""1382""
","
","
","""event"",""trial"",""time""
""fullscreenenter"",""0"",""1382""
","
","null","<p></p>","null","","","","","","","",""
"","image","28","61454","0.0-28.0","""event"",""trial"",""time""
""fullscreenenter"",""0"",""1382""
","
","
","""event"",""trial"",""time""
""fullscreenenter"",""0"",""1382""
","
","750.9000000059605","run_exp/static/images/Set 6_rs/050a.jpg","86","","","","","","learn","SL",""
"","show_choice","29","62708","0.0-29.0","""event"",""trial"",""time""
""fullscreenenter"",""0"",""1382""
","
","
","""event"",""trial"",""time""
""fullscreenenter"",""0"",""1382""
","
","null","run_exp/static/images/Set 6_rs/050a.jpg","null","","","","","","learn","SL",""
"","html-keyboard-response","30","63215","0.0-30.0","""event"",""trial"",""time""
""fullscreenenter"",""0"",""1382""
","
","
","""event"",""trial"",""time""
""fullscreenenter"",""0"",""1382""
","
","null","<p></p>","null","","","","","","","",""
"","image","31","64102","0.0-31.0","""event"",""trial"",""time""
""fullscreenenter"",""0"",""1382""
","
","
","""event"",""trial"",""time""
""fullscreenenter"",""0"",""1382""
","
","885.2999999970198","run_exp/static/images/Set 6_rs/055a.jpg","86","","","","","","learn","SL",""
"","show_choice","32","65219","0.0-32.0","""event"",""trial"",""time""
""fullscreenenter"",""0"",""1382""
","
","
","""event"",""trial"",""time""
""fullscreenenter"",""0"",""1382""
","
","null","run_exp/static/images/Set 6_rs/055a.jpg","null","","","","","","learn","SL",""
"","html-keyboard-response","33","65725","0.0-33.0","""event"",""trial"",""time""
""fullscreenenter"",""0"",""1382""
","
","
","""event"",""trial"",""time""
""fullscreenenter"",""0"",""1382""
","
","null","<p></p>","null","","","","","","","",""
"","image","34","66374","0.0-34.0","""event"",""trial"",""time""
""fullscreenenter"",""0"",""1382""
","
","
","""event"",""trial"",""time""
""fullscreenenter"",""0"",""1382""
","
","646.8999999910593","run_exp/static/images/Set 6_rs/024a.jpg","86","","","","","","learn","SR",""
"","show_choice","35","67732","0.0-35.0","""event"",""trial"",""time""
""fullscreenenter"",""0"",""1382""
","
","
","""event"",""trial"",""time""
""fullscreenenter"",""0"",""1382""
","
","null","run_exp/static/images/Set 6_rs/024a.jpg","null","","","","","","learn","SR",""
"","html-keyboard-response","36","68239","0.0-36.0","""event"",""trial"",""time""
""fullscreenenter"",""0"",""1382""
","
","
","""event"",""trial"",""time""
""fullscreenenter"",""0"",""1382""
","
","null","<p></p>","null","","","","","","","",""
"","image","37","68972","0.0-37.0","""event"",""trial"",""time""
""fullscreenenter"",""0"",""1382""
","
","
","""event"",""trial"",""time""
""fullscreenenter"",""0"",""1382""
","
","731.2999999970198","run_exp/static/images/Set 6_rs/191a.jpg","78","","","","","","learn","SL",""
"","show_choice","38","70246","0.0-38.0","""event"",""trial"",""time""
""fullscreenenter"",""0"",""1382""
","
","
","""event"",""trial"",""time""
""fullscreenenter"",""0"",""1382""
","
","null","run_exp/static/images/Set 6_rs/191a.jpg","null","","","","","","learn","SL",""
"","html-keyboard-response","39","70749","0.0-39.0","""event"",""trial"",""time""
""fullscreenenter"",""0"",""1382""
","
","
","""event"",""trial"",""time""
""fullscreenenter"",""0"",""1382""
","
","null","<p></p>","null","","","","","","","",""
"","image","40","72037","0.0-40.0","""event"",""trial"",""time""
""fullscreenenter"",""0"",""1382""
","
","
","""event"",""trial"",""time""
""fullscreenenter"",""0"",""1382""
","
","1286.1000000089407","run_exp/static/images/Set 6_rs/017a.jpg","78","","","","","","learn","SL",""
"","show_choice","41","72757","0.0-41.0","""event"",""trial"",""time""
""fullscreenenter"",""0"",""1382""
","
","
","""event"",""trial"",""time""
""fullscreenenter"",""0"",""1382""
","
","null","run_exp/static/images/Set 6_rs/017a.jpg","null","","","","","","learn","SL",""
"","html-keyboard-response","42","73263","0.0-42.0","""event"",""trial"",""time""
""fullscreenenter"",""0"",""1382""
","
","
","""event"",""trial"",""time""
""fullscreenenter"",""0"",""1382""
","
","null","<p></p>","null","","","","","","","",""
"","image","43","74612","0.0-43.0","""event"",""trial"",""time""
""fullscreenenter"",""0"",""1382""
","
","
","""event"",""trial"",""time""
""fullscreenenter"",""0"",""1382""
","
","1346.9000000059605","run_exp/static/images/Set 6_rs/089a.jpg","86","","","","","","learn","SL",""
"","show_choice","44","75270","0.0-44.0","""event"",""trial"",""time""
""fullscreenenter"",""0"",""1382""
","
","
","""event"",""trial"",""time""
""fullscreenenter"",""0"",""1382""
","
","null","run_exp/static/images/Set 6_rs/089a.jpg","null","","","","","","learn","SL",""
"","html-keyboard-response","45","75772","0.0-45.0","""event"",""trial"",""time""
""fullscreenenter"",""0"",""1382""
","
","
","""event"",""trial"",""time""
""fullscreenenter"",""0"",""1382""
","
","null","<p></p>","null","","","","","","","",""
"","image","46","76766","0.0-46.0","""event"",""trial"",""time""
""fullscreenenter"",""0"",""1382""
","
","
","""event"",""trial"",""time""
""fullscreenenter"",""0"",""1382""
","
","991.7000000029802","run_exp/static/images/Set 6_rs/036a.jpg","86","","","","","","learn","SL",""
"","show_choice","47","77777","0.0-47.0","""event"",""trial"",""time""
""fullscreenenter"",""0"",""1382""
","
","
","""event"",""trial"",""time""
""fullscreenenter"",""0"",""1382""
","
","null","run_exp/static/images/Set 6_rs/036a.jpg","null","","","","","","learn","SL",""
"","html-keyboard-response","48","78279","0.0-48.0","""event"",""trial"",""time""
""fullscreenenter"",""0"",""1382""
","
","
","""event"",""trial"",""time""
""fullscreenenter"",""0"",""1382""
","
","null","<p></p>","null","","","","","","","",""
"","image","49","79141","0.0-49.0","""event"",""trial"",""time""
""fullscreenenter"",""0"",""1382""
","
","
","""event"",""trial"",""time""
""fullscreenenter"",""0"",""1382""
","
","860.1000000089407","run_exp/static/images/Set 6_rs/168a.jpg","86","","","","","","learn","SL",""
"","show_choice","50","80285","0.0-50.0","""event"",""trial"",""time""
""fullscreenenter"",""0"",""1382""
","
","
","""event"",""trial"",""time""
""fullscreenenter"",""0"",""1382""
","
","null","run_exp/static/images/Set 6_rs/168a.jpg","null","","","","","","learn","SL",""
"","html-keyboard-response","51","80790","0.0-51.0","""event"",""trial"",""time""
""fullscreenenter"",""0"",""1382""
","
","
","""event"",""trial"",""time""
""fullscreenenter"",""0"",""1382""
","
","null","<p></p>","null","","","","","","","",""
"","image","52","81377","0.0-52.0","""event"",""trial"",""time""
""fullscreenenter"",""0"",""1382""
","
","
","""event"",""trial"",""time""
""fullscreenenter"",""0"",""1382""
","
","585.5","run_exp/static/images/Set 6_rs/023a.jpg","86","","","","","","learn","SR",""
"","show_choice","53","82794","0.0-53.0","""event"",""trial"",""time""
""fullscreenenter"",""0"",""1382""
","
","
","""event"",""trial"",""time""
""fullscreenenter"",""0"",""1382""
","
","null","run_exp/static/images/Set 6_rs/023a.jpg","null","","","","","","learn","SR",""
"","html-keyboard-response","54","83301","0.0-54.0","""event"",""trial"",""time""
""fullscreenenter"",""0"",""1382""
","
","
","""event"",""trial"",""time""
""fullscreenenter"",""0"",""1382""
","
","null","<p></p>","null","","","","","","","",""
"","image","55","84019","0.0-55.0","""event"",""trial"",""time""
""fullscreenenter"",""0"",""1382""
","
","
","""event"",""trial"",""time""
""fullscreenenter"",""0"",""1382""
","
","716.5","run_exp/static/images/Set 6_rs/129a.jpg","86","","","","","","learn","SL",""
"","show_choice","56","85305","0.0-56.0","""event"",""trial"",""time""
""fullscreenenter"",""0"",""1382""
","
","
","""event"",""trial"",""time""
""fullscreenenter"",""0"",""1382""
","
","null","run_exp/static/images/Set 6_rs/129a.jpg","null","","","","","","learn","SL",""
"","html-keyboard-response","57","85811","0.0-57.0","""event"",""trial"",""time""
""fullscreenenter"",""0"",""1382""
","
","
","""event"",""trial"",""time""
""fullscreenenter"",""0"",""1382""
","
","null","<p></p>","null","","","","","","","",""
"","image","58","86476","0.0-58.0","""event"",""trial"",""time""
""fullscreenenter"",""0"",""1382""
","
","
","""event"",""trial"",""time""
""fullscreenenter"",""0"",""1382""
","
","663.1000000089407","run_exp/static/images/Set 6_rs/079a.jpg","86","","","","","","learn","SL",""
"","show_choice","59","87817","0.0-59.0","""event"",""trial"",""time""
""fullscreenenter"",""0"",""1382""
","
","
","""event"",""trial"",""time""
""fullscreenenter"",""0"",""1382""
","
","null","run_exp/static/images/Set 6_rs/079a.jpg","null","","","","","","learn","SL",""
"","html-keyboard-response","60","88322","0.0-60.0","""event"",""trial"",""time""
""fullscreenenter"",""0"",""1382""
","
","
","""event"",""trial"",""time""
""fullscreenenter"",""0"",""1382""
","
","null","<p></p>","null","","","","","","","",""
"","image","61","89207","0.0-61.0","""event"",""trial"",""time""
""fullscreenenter"",""0"",""1382""
","
","
","""event"",""trial"",""time""
""fullscreenenter"",""0"",""1382""
","
","883.1000000089407","run_exp/static/images/Set 6_rs/012a.jpg","86","","","","","","learn","SR",""
"","show_choice","62","90329","0.0-62.0","""event"",""trial"",""time""
""fullscreenenter"",""0"",""1382""
","
","
","""event"",""trial"",""time""
""fullscreenenter"",""0"",""1382""
","
","null","run_exp/static/images/Set 6_rs/012a.jpg","null","","","","","","learn","SR",""
"","html-keyboard-response","63","90836","0.0-63.0","""event"",""trial"",""time""
""fullscreenenter"",""0"",""1382""
","
","
","""event"",""trial"",""time""
""fullscreenenter"",""0"",""1382""
","
","null","<p></p>","null","","","","","","","",""
"","image","64","91373","0.0-64.0","""event"",""trial"",""time""
""fullscreenenter"",""0"",""1382""
","
","
","""event"",""trial"",""time""
""fullscreenenter"",""0"",""1382""
","
","535.1000000089407","run_exp/static/images/Set 6_rs/063a.jpg","86","","","","","","learn","SR",""
"","show_choice","65","92843","0.0-65.0","""event"",""trial"",""time""
""fullscreenenter"",""0"",""1382""
","
","
","""event"",""trial"",""time""
""fullscreenenter"",""0"",""1382""
","
","null","run_exp/static/images/Set 6_rs/063a.jpg","null","","","","","","learn","SR",""
"","html-keyboard-response","66","93347","0.0-66.0","""event"",""trial"",""time""
""fullscreenenter"",""0"",""1382""
","
","
","""event"",""trial"",""time""
""fullscreenenter"",""0"",""1382""
","
","null","<p></p>","null","","","","","","","",""
"","image","67","94414","0.0-67.0","""event"",""trial"",""time""
""fullscreenenter"",""0"",""1382""
","
","
","""event"",""trial"",""time""
""fullscreenenter"",""0"",""1382""
","
","1065.6000000089407","run_exp/static/images/Set 6_rs/014a.jpg","86","","","","","","learn","SL",""
"","show_choice","68","95354","0.0-68.0","""event"",""trial"",""time""
""fullscreenenter"",""0"",""1382""
","
","
","""event"",""trial"",""time""
""fullscreenenter"",""0"",""1382""
","
","null","run_exp/static/images/Set 6_rs/014a.jpg","null","","","","","","learn","SL",""
"","html-keyboard-response","69","95857","0.0-69.0","""event"",""trial"",""time""
""fullscreenenter"",""0"",""1382""
","
","
","""event"",""trial"",""time""
""fullscreenenter"",""0"",""1382""
","
","null","<p></p>","null","","","","","","","",""
"","image","70","96512","0.0-70.0","""event"",""trial"",""time""
""fullscreenenter"",""0"",""1382""
","
","
","""event"",""trial"",""time""
""fullscreenenter"",""0"",""1382""
","
","652.9000000059605","run_exp/static/images/Set 6_rs/152a.jpg","86","","","","","","learn","SR",""
"","show_choice","71","97863","0.0-71.0","""event"",""trial"",""time""
""fullscreenenter"",""0"",""1382""
","
","
","""event"",""trial"",""time""
""fullscreenenter"",""0"",""1382""
","
","null","run_exp/static/images/Set 6_rs/152a.jpg","null","","","","","","learn","SR",""
"","html-keyboard-response","72","98368","0.0-72.0","""event"",""trial"",""time""
""fullscreenenter"",""0"",""1382""
","
","
","""event"",""trial"",""time""
""fullscreenenter"",""0"",""1382""
","
","null","<p></p>","null","","","","","","","",""
"","image","73","99072","0.0-73.0","""event"",""trial"",""time""
""fullscreenenter"",""0"",""1382""
","
","
","""event"",""trial"",""time""
""fullscreenenter"",""0"",""1382""
","
","701.2999999970198","run_exp/static/images/Set 6_rs/062a.jpg","86","","","","","","learn","SL",""
"","show_choice","74","100372","0.0-74.0","""event"",""trial"",""time""
""fullscreenenter"",""0"",""1382""
","
","
","""event"",""trial"",""time""
""fullscreenenter"",""0"",""1382""
","
","null","run_exp/static/images/Set 6_rs/062a.jpg","null","","","","","","learn","SL",""
"","html-keyboard-response","75","100878","0.0-75.0","""event"",""trial"",""time""
""fullscreenenter"",""0"",""1382""
","
","
","""event"",""trial"",""time""
""fullscreenenter"",""0"",""1382""
","
","null","<p></p>","null","","","","","","","",""
"","image","76","101555","0.0-76.0","""event"",""trial"",""time""
""fullscreenenter"",""0"",""1382""
","
","
","""event"",""trial"",""time""
""fullscreenenter"",""0"",""1382""
","
","675.2999999970198","run_exp/static/images/Set 6_rs/088a.jpg","86","","","","","","learn","SR",""
"","show_choice","77","102885","0.0-77.0","""event"",""trial"",""time""
""fullscreenenter"",""0"",""1382""
","
","
","""event"",""trial"",""time""
""fullscreenenter"",""0"",""1382""
","
","null","run_exp/static/images/Set 6_rs/088a.jpg","null","","","","","","learn","SR",""
"","html-keyboard-response","78","103388","0.0-78.0","""event"",""trial"",""time""
""fullscreenenter"",""0"",""1382""
","
","
","""event"",""trial"",""time""
""fullscreenenter"",""0"",""1382""
","
","null","<p></p>","null","","","","","","","",""
"","image","79","103929","0.0-79.0","""event"",""trial"",""time""
""fullscreenenter"",""0"",""1382""
","
","
","""event"",""trial"",""time""
""fullscreenenter"",""0"",""1382""
","
","538.7999999970198","run_exp/static/images/Set 6_rs/070a.jpg","86","","","","","","learn","SR",""
"","show_choice","80","105395","0.0-80.0","""event"",""trial"",""time""
""fullscreenenter"",""0"",""1382""
","
","
","""event"",""trial"",""time""
""fullscreenenter"",""0"",""1382""
","
","null","run_exp/static/images/Set 6_rs/070a.jpg","null","","","","","","learn","SR",""
"","html-keyboard-response","81","105901","0.0-81.0","""event"",""trial"",""time""
""fullscreenenter"",""0"",""1382""
","
","
","""event"",""trial"",""time""
""fullscreenenter"",""0"",""1382""
","
","null","<p></p>","null","","","","","","","",""
"","image","82","106586","0.0-82.0","""event"",""trial"",""time""
""fullscreenenter"",""0"",""1382""
","
","
","""event"",""trial"",""time""
""fullscreenenter"",""0"",""1382""
","
","682.9000000059605","run_exp/static/images/Set 6_rs/138a.jpg","78","","","","","","learn","SL",""
"","show_choice","83","107908","0.0-83.0","""event"",""trial"",""time""
""fullscreenenter"",""0"",""1382""
","
","
","""event"",""trial"",""time""
""fullscreenenter"",""0"",""1382""
","
","null","run_exp/static/images/Set 6_rs/138a.jpg","null","","","","","","learn","SL",""
"","html-keyboard-response","84","108414","0.0-84.0","""event"",""trial"",""time""
""fullscreenenter"",""0"",""1382""
","
","
","""event"",""trial"",""time""
""fullscreenenter"",""0"",""1382""
","
","null","<p></p>","null","","","","","","","",""
"","image","85","109281","0.0-85.0","""event"",""trial"",""time""
""fullscreenenter"",""0"",""1382""
","
","
","""event"",""trial"",""time""
""fullscreenenter"",""0"",""1382""
","
","864.5999999940395","run_exp/static/images/Set 6_rs/121a.jpg","86","","","","","","learn","SR",""
"","show_choice","86","110418","0.0-86.0","""event"",""trial"",""time""
""fullscreenenter"",""0"",""1382""
","
","
","""event"",""trial"",""time""
""fullscreenenter"",""0"",""1382""
","
","null","run_exp/static/images/Set 6_rs/121a.jpg","null","","","","","","learn","SR",""
"","html-keyboard-response","87","110924","0.0-87.0","""event"",""trial"",""time""
""fullscreenenter"",""0"",""1382""
","
","
","""event"",""trial"",""time""
""fullscreenenter"",""0"",""1382""
","
","null","<p></p>","null","","","","","","","",""
"","image","88","111786","0.0-88.0","""event"",""trial"",""time""
""fullscreenenter"",""0"",""1382""
","
","
","""event"",""trial"",""time""
""fullscreenenter"",""0"",""1382""
","
","859.7000000029802","run_exp/static/images/Set 6_rs/144a.jpg","86","","","","","","learn","SL",""
"","show_choice","89","112932","0.0-89.0","""event"",""trial"",""time""
""fullscreenenter"",""0"",""1382""
","
","
","""event"",""trial"",""time""
""fullscreenenter"",""0"",""1382""
","
","null","run_exp/static/images/Set 6_rs/144a.jpg","null","","","","","","learn","SL",""
"","html-keyboard-response","90","113433","0.0-90.0","""event"",""trial"",""time""
""fullscreenenter"",""0"",""1382""
","
","
","""event"",""trial"",""time""
""fullscreenenter"",""0"",""1382""
","
","null","<p></p>","null","","","","","","","",""
"","image","91","114261","0.0-91.0","""event"",""trial"",""time""
""fullscreenenter"",""0"",""1382""
","
","
","""event"",""trial"",""time""
""fullscreenenter"",""0"",""1382""
","
","825.4000000059605","run_exp/static/images/Set 6_rs/006a.jpg","86","","","","","","learn","SL",""
"","show_choice","92","115439","0.0-92.0","""event"",""trial"",""time""
""fullscreenenter"",""0"",""1382""
","
","
","""event"",""trial"",""time""
""fullscreenenter"",""0"",""1382""
","
","null","run_exp/static/images/Set 6_rs/006a.jpg","null","","","","","","learn","SL",""
"","html-keyboard-response","93","115945","0.0-93.0","""event"",""trial"",""time""
""fullscreenenter"",""0"",""1382""
","
","
","""event"",""trial"",""time""
""fullscreenenter"",""0"",""1382""
","
","null","<p></p>","null","","","","","","","",""
"","image","94","117087","0.0-94.0","""event"",""trial"",""time""
""fullscreenenter"",""0"",""1382""
","
","
","""event"",""trial"",""time""
""fullscreenenter"",""0"",""1382""
","
","1139.8999999910593","run_exp/static/images/Set 6_rs/131a.jpg","86","","","","","","learn","SR",""
"","show_choice","95","117949","0.0-95.0","""event"",""trial"",""time""
""fullscreenenter"",""0"",""1382""
","
","
","""event"",""trial"",""time""
""fullscreenenter"",""0"",""1382""
","
","null","run_exp/static/images/Set 6_rs/131a.jpg","null","","","","","","learn","SR",""
"","html-keyboard-response","96","118456","0.0-96.0","""event"",""trial"",""time""
""fullscreenenter"",""0"",""1382""
","
","
","""event"",""trial"",""time""
""fullscreenenter"",""0"",""1382""
","
","null","<p></p>","null","","","","","","","",""
"","image","97","119115","0.0-97.0","""event"",""trial"",""time""
""fullscreenenter"",""0"",""1382""
","
","
","""event"",""trial"",""time""
""fullscreenenter"",""0"",""1382""
","
","657.2999999970198","run_exp/static/images/Set 6_rs/111a.jpg","86","","","","","","learn","SL",""
"","show_choice","98","120463","0.0-98.0","""event"",""trial"",""time""
""fullscreenenter"",""0"",""1382""
","
","
","""event"",""trial"",""time""
""fullscreenenter"",""0"",""1382""
","
","null","run_exp/static/images/Set 6_rs/111a.jpg","null","","","","","","learn","SL",""
"","html-keyboard-response","99","120965","0.0-99.0","""event"",""trial"",""time""
""fullscreenenter"",""0"",""1382""
","
","
","""event"",""trial"",""time""
""fullscreenenter"",""0"",""1382""
","
","null","<p></p>","null","","","","","","","",""
"","image","100","121564","0.0-100.0","""event"",""trial"",""time""
""fullscreenenter"",""0"",""1382""
","
","
","""event"",""trial"",""time""
""fullscreenenter"",""0"",""1382""
","
","597.2999999970198","run_exp/static/images/Set 6_rs/095a.jpg","86","","","","","","learn","SL",""
"","show_choice","101","122971","0.0-101.0","""event"",""trial"",""time""
""fullscreenenter"",""0"",""1382""
","
","
","""event"",""trial"",""time""
""fullscreenenter"",""0"",""1382""
","
","null","run_exp/static/images/Set 6_rs/095a.jpg","null","","","","","","learn","SL",""
"","html-keyboard-response","102","123477","0.0-102.0","""event"",""trial"",""time""
""fullscreenenter"",""0"",""1382""
","
","
","""event"",""trial"",""time""
""fullscreenenter"",""0"",""1382""
","
","null","<p></p>","null","","","","","","","",""
"","image","103","124095","0.0-103.0","""event"",""trial"",""time""
""fullscreenenter"",""0"",""1382""
","
","
","""event"",""trial"",""time""
""fullscreenenter"",""0"",""1382""
","
","615.5999999940395","run_exp/static/images/Set 6_rs/016a.jpg","86","","","","","","learn","SL",""
"","show_choice","104","125483","0.0-104.0","""event"",""trial"",""time""
""fullscreenenter"",""0"",""1382""
","
","
","""event"",""trial"",""time""
""fullscreenenter"",""0"",""1382""
","
","null","run_exp/static/images/Set 6_rs/016a.jpg","null","","","","","","learn","SL",""
"","html-keyboard-response","105","125990","0.0-105.0","""event"",""trial"",""time""
""fullscreenenter"",""0"",""1382""
","
","
","""event"",""trial"",""time""
""fullscreenenter"",""0"",""1382""
","
","null","<p></p>","null","","","","","","","",""
"","image","106","127242","0.0-106.0","""event"",""trial"",""time""
""fullscreenenter"",""0"",""1382""
","
","
","""event"",""trial"",""time""
""fullscreenenter"",""0"",""1382""
","
","1250","run_exp/static/images/Set 6_rs/008a.jpg","86","","","","","","learn","SL",""
"","show_choice","107","127997","0.0-107.0","""event"",""trial"",""time""
""fullscreenenter"",""0"",""1382""
","
","
","""event"",""trial"",""time""
""fullscreenenter"",""0"",""1382""
","
","null","run_exp/static/images/Set 6_rs/008a.jpg","null","","","","","","learn","SL",""
"","html-keyboard-response","108","128499","0.0-108.0","""event"",""trial"",""time""
""fullscreenenter"",""0"",""1382""
","
","
","""event"",""trial"",""time""
""fullscreenenter"",""0"",""1382""
","
","null","<p></p>","null","","","","","","","",""
"","image","109","129190","0.0-109.0","""event"",""trial"",""time""
""fullscreenenter"",""0"",""1382""
","
","
","""event"",""trial"",""time""
""fullscreenenter"",""0"",""1382""
","
","688.5999999940395","run_exp/static/images/Set 6_rs/112a.jpg","86","","","","","","learn","SR",""
"","show_choice","110","130503","0.0-110.0","""event"",""trial"",""time""
""fullscreenenter"",""0"",""1382""
","
","
","""event"",""trial"",""time""
""fullscreenenter"",""0"",""1382""
","
","null","run_exp/static/images/Set 6_rs/112a.jpg","null","","","","","","learn","SR",""
"","html-keyboard-response","111","131009","0.0-111.0","""event"",""trial"",""time""
""fullscreenenter"",""0"",""1382""
","
","
","""event"",""trial"",""time""
""fullscreenenter"",""0"",""1382""
","
","null","<p></p>","null","","","","","","","",""
"","image","112","131735","0.0-112.0","""event"",""trial"",""time""
""fullscreenenter"",""0"",""1382""
","
","
","""event"",""trial"",""time""
""fullscreenenter"",""0"",""1382""
","
","723.8000000119209","run_exp/static/images/Set 6_rs/071a.jpg","78","","","","","","learn","SL",""
"","show_choice","113","133016","0.0-113.0","""event"",""trial"",""time""
""fullscreenenter"",""0"",""1382""
","
","
","""event"",""trial"",""time""
""fullscreenenter"",""0"",""1382""
","
","null","run_exp/static/images/Set 6_rs/071a.jpg","null","","","","","","learn","SL",""
"","html-keyboard-response","114","133522","0.0-114.0","""event"",""trial"",""time""
""fullscreenenter"",""0"",""1382""
","
","
","""event"",""trial"",""time""
""fullscreenenter"",""0"",""1382""
","
","null","<p></p>","null","","","","","","","",""
"","image","115","134107","0.0-115.0","""event"",""trial"",""time""
""fullscreenenter"",""0"",""1382""
","
","
","""event"",""trial"",""time""
""fullscreenenter"",""0"",""1382""
","
","582.9000000059605","run_exp/static/images/Set 6_rs/025a.jpg","78","","","","","","learn","SL",""
"","show_choice","116","135527","0.0-116.0","""event"",""trial"",""time""
""fullscreenenter"",""0"",""1382""
","
","
","""event"",""trial"",""time""
""fullscreenenter"",""0"",""1382""
","
","null","run_exp/static/images/Set 6_rs/025a.jpg","null","","","","","","learn","SL",""
"","html-keyboard-response","117","136032","0.0-117.0","""event"",""trial"",""time""
""fullscreenenter"",""0"",""1382""
","
","
","""event"",""trial"",""time""
""fullscreenenter"",""0"",""1382""
","
","null","<p></p>","null","","","","","","","",""
"","image","118","137360","0.0-118.0","""event"",""trial"",""time""
""fullscreenenter"",""0"",""1382""
","
","
","""event"",""trial"",""time""
""fullscreenenter"",""0"",""1382""
","
","1327.4000000059605","run_exp/static/images/Set 6_rs/116a.jpg","86","","","","","","learn","SL",""
"","show_choice","119","138035","0.0-119.0","""event"",""trial"",""time""
""fullscreenenter"",""0"",""1382""
","
","
","""event"",""trial"",""time""
""fullscreenenter"",""0"",""1382""
","
","null","run_exp/static/images/Set 6_rs/116a.jpg","null","","","","","","learn","SL",""
"","html-keyboard-response","120","138541","0.0-120.0","""event"",""trial"",""time""
""fullscreenenter"",""0"",""1382""
","
","
","""event"",""trial"",""time""
""fullscreenenter"",""0"",""1382""
","
","null","<p></p>","null","","","","","","","",""
"","image","121","139262","0.0-121.0","""event"",""trial"",""time""
""fullscreenenter"",""0"",""1382""
","
","
","""event"",""trial"",""time""
""fullscreenenter"",""0"",""1382""
","
","718.2999999970198","run_exp/static/images/Set 6_rs/167a.jpg","86","","","","","","learn","SL",""
"","show_choice","122","140549","0.0-122.0","""event"",""trial"",""time""
""fullscreenenter"",""0"",""1382""
","
","
","""event"",""trial"",""time""
""fullscreenenter"",""0"",""1382""
","
","null","run_exp/static/images/Set 6_rs/167a.jpg","null","","","","","","learn","SL",""
"","html-keyboard-response","123","141050","0.0-123.0","""event"",""trial"",""time""
""fullscreenenter"",""0"",""1382""
","
","
","""event"",""trial"",""time""
""fullscreenenter"",""0"",""1382""
","
","null","<p></p>","null","","","","","","","",""
"","image","124","141607","0.0-124.0","""event"",""trial"",""time""
""fullscreenenter"",""0"",""1382""
","
","
","""event"",""trial"",""time""
""fullscreenenter"",""0"",""1382""
","
","554.7000000029802","run_exp/static/images/Set 6_rs/007a.jpg","86","","","","","","learn","SR",""
"","show_choice","125","143055","0.0-125.0","""event"",""trial"",""time""
""fullscreenenter"",""0"",""1382""
","
","
","""event"",""trial"",""time""
""fullscreenenter"",""0"",""1382""
","
","null","run_exp/static/images/Set 6_rs/007a.jpg","null","","","","","","learn","SR",""
"","html-keyboard-response","126","143559","0.0-126.0","""event"",""trial"",""time""
""fullscreenenter"",""0"",""1382""
","
","
","""event"",""trial"",""time""
""fullscreenenter"",""0"",""1382""
","
","null","<p></p>","null","","","","","","","",""
"","image","127","144229","0.0-127.0","""event"",""trial"",""time""
""fullscreenenter"",""0"",""1382""
","
","
","""event"",""trial"",""time""
""fullscreenenter"",""0"",""1382""
","
","668.0999999940395","run_exp/static/images/Set 6_rs/019a.jpg","86","","","","","","learn","SL",""
"","show_choice","128","145565","0.0-128.0","""event"",""trial"",""time""
""fullscreenenter"",""0"",""1382""
","
","
","""event"",""trial"",""time""
""fullscreenenter"",""0"",""1382""
","
","null","run_exp/static/images/Set 6_rs/019a.jpg","null","","","","","","learn","SL",""
"","html-keyboard-response","129","146071","0.0-129.0","""event"",""trial"",""time""
""fullscreenenter"",""0"",""1382""
","
","
","""event"",""trial"",""time""
""fullscreenenter"",""0"",""1382""
","
","null","<p></p>","null","","","","","","","",""
"","image","130","146992","0.0-130.0","""event"",""trial"",""time""
""fullscreenenter"",""0"",""1382""
","
","
","""event"",""trial"",""time""
""fullscreenenter"",""0"",""1382""
","
","919.1000000089407","run_exp/static/images/Set 6_rs/085a.jpg","78","","","","","","learn","SL",""
"","show_choice","131","148078","0.0-131.0","""event"",""trial"",""time""
""fullscreenenter"",""0"",""1382""
","
","
","""event"",""trial"",""time""
""fullscreenenter"",""0"",""1382""
","
","null","run_exp/static/images/Set 6_rs/085a.jpg","null","","","","","","learn","SL",""
"","html-keyboard-response","132","148580","0.0-132.0","""event"",""trial"",""time""
""fullscreenenter"",""0"",""1382""
","
","
","""event"",""trial"",""time""
""fullscreenenter"",""0"",""1382""
","
","null","<p></p>","null","","","","","","","",""
"","image","133","149895","0.0-133.0","""event"",""trial"",""time""
""fullscreenenter"",""0"",""1382""
","
","
","""event"",""trial"",""time""
""fullscreenenter"",""0"",""1382""
","
","1313.4000000059605","run_exp/static/images/Set 6_rs/117a.jpg","78","","","","","","learn","SL",""
"","show_choice","134","150583","0.0-134.0","""event"",""trial"",""time""
""fullscreenenter"",""0"",""1382""
","
","
","""event"",""trial"",""time""
""fullscreenenter"",""0"",""1382""
","
","null","run_exp/static/images/Set 6_rs/117a.jpg","null","","","","","","learn","SL",""
"","html-keyboard-response","135","151090","0.0-135.0","""event"",""trial"",""time""
""fullscreenenter"",""0"",""1382""
","
","
","""event"",""trial"",""time""
""fullscreenenter"",""0"",""1382""
","
","null","<p></p>","null","","","","","","","",""
"","image","136","152000","0.0-136.0","""event"",""trial"",""time""
""fullscreenenter"",""0"",""1382""
","
","
","""event"",""trial"",""time""
""fullscreenenter"",""0"",""1382""
","
","907.7999999970198","run_exp/static/images/Set 6_rs/061a.jpg","78","","","","","","learn","SR",""
"","show_choice","137","153093","0.0-137.0","""event"",""trial"",""time""
""fullscreenenter"",""0"",""1382""
","
","
","""event"",""trial"",""time""
""fullscreenenter"",""0"",""1382""
","
","null","run_exp/static/images/Set 6_rs/061a.jpg","null","","","","","","learn","SR",""
"","html-keyboard-response","138","153599","0.0-138.0","""event"",""trial"",""time""
""fullscreenenter"",""0"",""1382""
","
","
","""event"",""trial"",""time""
""fullscreenenter"",""0"",""1382""
","
","null","<p></p>","null","","","","","","","",""
"","image","139","155005","0.0-139.0","""event"",""trial"",""time""
""fullscreenenter"",""0"",""1382""
","
","
","""event"",""trial"",""time""
""fullscreenenter"",""0"",""1382""
","
","1404.1000000089407","run_exp/static/images/Set 6_rs/122a.jpg","86","","","","","","learn","SR",""
"","show_choice","140","155605","0.0-140.0","""event"",""trial"",""time""
""fullscreenenter"",""0"",""1382""
","
","
","""event"",""trial"",""time""
""fullscreenenter"",""0"",""1382""
","
","null","run_exp/static/images/Set 6_rs/122a.jpg","null","","","","","","learn","SR",""
"","html-keyboard-response","141","156108","0.0-141.0","""event"",""trial"",""time""
""fullscreenenter"",""0"",""1382""
","
","
","""event"",""trial"",""time""
""fullscreenenter"",""0"",""1382""
","
","null","<p></p>","null","","","","","","","",""
"","image","142","157002","0.0-142.0","""event"",""trial"",""time""
""fullscreenenter"",""0"",""1382""
","
","
","""event"",""trial"",""time""
""fullscreenenter"",""0"",""1382""
","
","891.1000000089407","run_exp/static/images/Set 6_rs/066a.jpg","78","","","","","","learn","SL",""
"","show_choice","143","158113","0.0-143.0","""event"",""trial"",""time""
""fullscreenenter"",""0"",""1382""
","
","
","""event"",""trial"",""time""
""fullscreenenter"",""0"",""1382""
","
","null","run_exp/static/images/Set 6_rs/066a.jpg","null","","","","","","learn","SL",""
"","html-keyboard-response","144","158617","0.0-144.0","""event"",""trial"",""time""
""fullscreenenter"",""0"",""1382""
","
","
","""event"",""trial"",""time""
""fullscreenenter"",""0"",""1382""
","
","null","<p></p>","null","","","","","","","",""
"","image","145","159483","0.0-145.0","""event"",""trial"",""time""
""fullscreenenter"",""0"",""1382""
","
","
","""event"",""trial"",""time""
""fullscreenenter"",""0"",""1382""
","
","864.0999999940395","run_exp/static/images/Set 6_rs/076a.jpg","78","","","","","","learn","SR",""
"","show_choice","146","160621","0.0-146.0","""event"",""trial"",""time""
""fullscreenenter"",""0"",""1382""
","
","
","""event"",""trial"",""time""
""fullscreenenter"",""0"",""1382""
","
","null","run_exp/static/images/Set 6_rs/076a.jpg","null","","","","","","learn","SR",""
"","html-keyboard-response","147","161124","0.0-147.0","""event"",""trial"",""time""
""fullscreenenter"",""0"",""1382""
","
","
","""event"",""trial"",""time""
""fullscreenenter"",""0"",""1382""
","
","null","<p></p>","null","","","","","","","",""
"","image","148","162025","0.0-148.0","""event"",""trial"",""time""
""fullscreenenter"",""0"",""1382""
","
","
","""event"",""trial"",""time""
""fullscreenenter"",""0"",""1382""
","
","899.2999999970198","run_exp/static/images/Set 6_rs/141a.jpg","86","","","","","","learn","SR",""
"","show_choice","149","163128","0.0-149.0","""event"",""trial"",""time""
""fullscreenenter"",""0"",""1382""
","
","
","""event"",""trial"",""time""
""fullscreenenter"",""0"",""1382""
","
","null","run_exp/static/images/Set 6_rs/141a.jpg","null","","","","","","learn","SR",""
"","html-keyboard-response","150","163630","0.0-150.0","""event"",""trial"",""time""
""fullscreenenter"",""0"",""1382""
","
","
","""event"",""trial"",""time""
""fullscreenenter"",""0"",""1382""
","
","null","<p></p>","null","","","","","","","",""
"","image","151","164791","0.0-151.0","""event"",""trial"",""time""
""fullscreenenter"",""0"",""1382""
","
","
","""event"",""trial"",""time""
""fullscreenenter"",""0"",""1382""
","
","1158.7000000029802","run_exp/static/images/Set 6_rs/064a.jpg","78","","","","","","learn","SR",""
"","show_choice","152","165636","0.0-152.0","""event"",""trial"",""time""
""fullscreenenter"",""0"",""1382""
","
","
","""event"",""trial"",""time""
""fullscreenenter"",""0"",""1382""
","
","null","run_exp/static/images/Set 6_rs/064a.jpg","null","","","","","","learn","SR",""
"","html-keyboard-response","153","166142","0.0-153.0","""event"",""trial"",""time""
""fullscreenenter"",""0"",""1382""
","
","
","""event"",""trial"",""time""
""fullscreenenter"",""0"",""1382""
","
","null","<p></p>","null","","","","","","","",""
"","image","154","166983","0.0-154.0","""event"",""trial"",""time""
""fullscreenenter"",""0"",""1382""
","
","
","""event"",""trial"",""time""
""fullscreenenter"",""0"",""1382""
","
","838.4000000059605","run_exp/static/images/Set 6_rs/108a.jpg","78","","","","","","learn","SR",""
"","show_choice","155","168146","0.0-155.0","""event"",""trial"",""time""
""fullscreenenter"",""0"",""1382""
","
","
","""event"",""trial"",""time""
""fullscreenenter"",""0"",""1382""
","
","null","run_exp/static/images/Set 6_rs/108a.jpg","null","","","","","","learn","SR",""
"","html-keyboard-response","156","168648","0.0-156.0","""event"",""trial"",""time""
""fullscreenenter"",""0"",""1382""
","
","
","""event"",""trial"",""time""
""fullscreenenter"",""0"",""1382""
","
","null","<p></p>","null","","","","","","","",""
"","image","157","169503","0.0-157.0","""event"",""trial"",""time""
""fullscreenenter"",""0"",""1382""
","
","
","""event"",""trial"",""time""
""fullscreenenter"",""0"",""1382""
","
","853.2000000029802","run_exp/static/images/Set 6_rs/045a.jpg","86","","","","","","learn","SR",""
"","show_choice","158","170654","0.0-158.0","""event"",""trial"",""time""
""fullscreenenter"",""0"",""1382""
","
","
","""event"",""trial"",""time""
""fullscreenenter"",""0"",""1382""
","
","null","run_exp/static/images/Set 6_rs/045a.jpg","null","","","","","","learn","SR",""
"","html-keyboard-response","159","171160","0.0-159.0","""event"",""trial"",""time""
""fullscreenenter"",""0"",""1382""
","
","
","""event"",""trial"",""time""
""fullscreenenter"",""0"",""1382""
","
","null","<p></p>","null","","","","","","","",""
"","image","160","172261","0.0-160.0","""event"",""trial"",""time""
""fullscreenenter"",""0"",""1382""
","
","
","""event"",""trial"",""time""
""fullscreenenter"",""0"",""1382""
","
","1098.2999999970198","run_exp/static/images/Set 6_rs/126a.jpg","78","","","","","","learn","SR",""
"","show_choice","161","173168","0.0-161.0","""event"",""trial"",""time""
""fullscreenenter"",""0"",""1382""
","
","
","""event"",""trial"",""time""
""fullscreenenter"",""0"",""1382""
","
","null","run_exp/static/images/Set 6_rs/126a.jpg","null","","","","","","learn","SR",""
"","html-keyboard-response","162","173669","0.0-162.0","""event"",""trial"",""time""
""fullscreenenter"",""0"",""1382""
","
","
","""event"",""trial"",""time""
""fullscreenenter"",""0"",""1382""
","
","null","<p></p>","null","","","","","","","",""
"","image","163","174687","0.0-163.0","""event"",""trial"",""time""
""fullscreenenter"",""0"",""1382""
","
","
","""event"",""trial"",""time""
""fullscreenenter"",""0"",""1382""
","
","1015.5999999940395","run_exp/static/images/Set 6_rs/091a.jpg","78","","","","","","learn","SL",""
"","show_choice","164","175676","0.0-164.0","""event"",""trial"",""time""
""fullscreenenter"",""0"",""1382""
","
","
","""event"",""trial"",""time""
""fullscreenenter"",""0"",""1382""
","
","null","run_exp/static/images/Set 6_rs/091a.jpg","null","","","","","","learn","SL",""
"","html-keyboard-response","165","176183","0.0-165.0","""event"",""trial"",""time""
""fullscreenenter"",""0"",""1382""
","
","
","""event"",""trial"",""time""
""fullscreenenter"",""0"",""1382""
","
","null","<p></p>","null","","","","","","","",""
"","image","166","177068","0.0-166.0","""event"",""trial"",""time""
""fullscreenenter"",""0"",""1382""
","
","
","""event"",""trial"",""time""
""fullscreenenter"",""0"",""1382""
","
","883.3000000119209","run_exp/static/images/Set 6_rs/057a.jpg","86","","","","","","learn","SL",""
"","show_choice","167","178189","0.0-167.0","""event"",""trial"",""time""
""fullscreenenter"",""0"",""1382""
","
","
","""event"",""trial"",""time""
""fullscreenenter"",""0"",""1382""
","
","null","run_exp/static/images/Set 6_rs/057a.jpg","null","","","","","","learn","SL",""
"","html-keyboard-response","168","178691","0.0-168.0","""event"",""trial"",""time""
""fullscreenenter"",""0"",""1382""
","
","
","""event"",""trial"",""time""
""fullscreenenter"",""0"",""1382""
","
","null","<p></p>","null","","","","","","","",""
"","image","169","179911","0.0-169.0","""event"",""trial"",""time""
""fullscreenenter"",""0"",""1382""
","
","
","""event"",""trial"",""time""
""fullscreenenter"",""0"",""1382""
","
","1218.2000000029802","run_exp/static/images/Set 6_rs/166a.jpg","86","","","","","","learn","SR",""
"","show_choice","170","180696","0.0-170.0","""event"",""trial"",""time""
""fullscreenenter"",""0"",""1382""
","
","
","""event"",""trial"",""time""
""fullscreenenter"",""0"",""1382""
","
","null","run_exp/static/images/Set 6_rs/166a.jpg","null","","","","","","learn","SR",""
"","html-keyboard-response","171","181203","0.0-171.0","""event"",""trial"",""time""
""fullscreenenter"",""0"",""1382""
","
","
","""event"",""trial"",""time""
""fullscreenenter"",""0"",""1382""
","
","null","<p></p>","null","","","","","","","",""
"","image","172","181919","0.0-172.0","""event"",""trial"",""time""
""fullscreenenter"",""0"",""1382""
","
","
","""event"",""trial"",""time""
""fullscreenenter"",""0"",""1382""
","
","712.4000000059605","run_exp/static/images/Set 6_rs/178a.jpg","78","","","","","","learn","SR",""
"","show_choice","173","183208","0.0-173.0","""event"",""trial"",""time""
""fullscreenenter"",""0"",""1382""
","
","
","""event"",""trial"",""time""
""fullscreenenter"",""0"",""1382""
","
","null","run_exp/static/images/Set 6_rs/178a.jpg","null","","","","","","learn","SR",""
"","html-keyboard-response","174","183710","0.0-174.0","""event"",""trial"",""time""
""fullscreenenter"",""0"",""1382""
","
","
","""event"",""trial"",""time""
""fullscreenenter"",""0"",""1382""
","
","null","<p></p>","null","","","","","","","",""
"","image","175","184577","0.0-175.0","""event"",""trial"",""time""
""fullscreenenter"",""0"",""1382""
","
","
","""event"",""trial"",""time""
""fullscreenenter"",""0"",""1382""
","
","865.5999999940395","run_exp/static/images/Set 6_rs/150a.jpg","86","","","","","","learn","SR",""
"","show_choice","176","185714","0.0-176.0","""event"",""trial"",""time""
""fullscreenenter"",""0"",""1382""
","
","
","""event"",""trial"",""time""
""fullscreenenter"",""0"",""1382""
","
","null","run_exp/static/images/Set 6_rs/150a.jpg","null","","","","","","learn","SR",""
"","html-keyboard-response","177","186221","0.0-177.0","""event"",""trial"",""time""
""fullscreenenter"",""0"",""1382""
","
","
","""event"",""trial"",""time""
""fullscreenenter"",""0"",""1382""
","
","null","<p></p>","null","","","","","","","",""
"","image","178","187001","0.0-178.0","""event"",""trial"",""time""
""fullscreenenter"",""0"",""1382""
","
","
","""event"",""trial"",""time""
""fullscreenenter"",""0"",""1382""
","
","777.9000000059605","run_exp/static/images/Set 6_rs/172a.jpg","78","","","","","","learn","SR",""
"","show_choice","179","188228","0.0-179.0","""event"",""trial"",""time""
""fullscreenenter"",""0"",""1382""
","
","
","""event"",""trial"",""time""
""fullscreenenter"",""0"",""1382""
","
","null","run_exp/static/images/Set 6_rs/172a.jpg","null","","","","","","learn","SR",""
"","html-keyboard-response","180","188731","0.0-180.0","""event"",""trial"",""time""
""fullscreenenter"",""0"",""1382""
","
","
","""event"",""trial"",""time""
""fullscreenenter"",""0"",""1382""
","
","null","<p></p>","null","","","","","","","",""
"","image","181","189570","0.0-181.0","""event"",""trial"",""time""
""fullscreenenter"",""0"",""1382""
","
","
","""event"",""trial"",""time""
""fullscreenenter"",""0"",""1382""
","
","836.3999999910593","run_exp/static/images/Set 6_rs/134a.jpg","86","","","","","","learn","SR",""
"","show_choice","182","190735","0.0-182.0","""event"",""trial"",""time""
""fullscreenenter"",""0"",""1382""
","
","
","""event"",""trial"",""time""
""fullscreenenter"",""0"",""1382""
","
","null","run_exp/static/images/Set 6_rs/134a.jpg","null","","","","","","learn","SR",""
"","html-keyboard-response","183","191239","0.0-183.0","""event"",""trial"",""time""
""fullscreenenter"",""0"",""1382""
","
","
","""event"",""trial"",""time""
""fullscreenenter"",""0"",""1382""
","
","null","<p></p>","null","","","","","","","",""
"","image","184","192296","0.0-184.0","""event"",""trial"",""time""
""fullscreenenter"",""0"",""1382""
","
","
","""event"",""trial"",""time""
""fullscreenenter"",""0"",""1382""
","
","1055.2999999970198","run_exp/static/images/Set 6_rs/177a.jpg","78","","","","","","learn","SR",""
"","show_choice","185","193245","0.0-185.0","""event"",""trial"",""time""
""fullscreenenter"",""0"",""1382""
","
","
","""event"",""trial"",""time""
""fullscreenenter"",""0"",""1382""
","
","null","run_exp/static/images/Set 6_rs/177a.jpg","null","","","","","","learn","SR",""
"","html-keyboard-response","186","193746","0.0-186.0","""event"",""trial"",""time""
""fullscreenenter"",""0"",""1382""
","
","
","""event"",""trial"",""time""
""fullscreenenter"",""0"",""1382""
","
","null","<p></p>","null","","","","","","","",""
"","image","187","194782","0.0-187.0","""event"",""trial"",""time""
""fullscreenenter"",""0"",""1382""
","
","
","""event"",""trial"",""time""
""fullscreenenter"",""0"",""1382""
","
","1033.2999999970198","run_exp/static/images/Set 6_rs/074a.jpg","78","","","","","","learn","SL",""
"","show_choice","188","195750","0.0-188.0","""event"",""trial"",""time""
""fullscreenenter"",""0"",""1382""
","
","
","""event"",""trial"",""time""
""fullscreenenter"",""0"",""1382""
","
","null","run_exp/static/images/Set 6_rs/074a.jpg","null","","","","","","learn","SL",""
"","html-keyboard-response","189","196256","0.0-189.0","""event"",""trial"",""time""
""fullscreenenter"",""0"",""1382""
","
","
","""event"",""trial"",""time""
""fullscreenenter"",""0"",""1382""
","
","null","<p></p>","null","","","","","","","",""
"","image","190","196816","0.0-190.0","""event"",""trial"",""time""
""fullscreenenter"",""0"",""1382""
","
","
","""event"",""trial"",""time""
""fullscreenenter"",""0"",""1382""
","
","557.2000000029802","run_exp/static/images/Set 6_rs/073a.jpg","86","","","","","","learn","SL",""
"","show_choice","191","198263","0.0-191.0","""event"",""trial"",""time""
""fullscreenenter"",""0"",""1382""
","
","
","""event"",""trial"",""time""
""fullscreenenter"",""0"",""1382""
","
","null","run_exp/static/images/Set 6_rs/073a.jpg","null","","","","","","learn","SL",""
"","html-keyboard-response","192","198770","0.0-192.0","""event"",""trial"",""time""
""fullscreenenter"",""0"",""1382""
","
","
","""event"",""trial"",""time""
""fullscreenenter"",""0"",""1382""
","
","null","<p></p>","null","","","","","","","",""
"","image","193","199288","0.0-193.0","""event"",""trial"",""time""
""fullscreenenter"",""0"",""1382""
","
","
","""event"",""trial"",""time""
""fullscreenenter"",""0"",""1382""
","
","515.7999999970198","run_exp/static/images/Set 6_rs/187a.jpg","86","","","","","","learn","SR",""
"","show_choice","194","200774","0.0-194.0","""event"",""trial"",""time""
""fullscreenenter"",""0"",""1382""
","
","
","""event"",""trial"",""time""
""fullscreenenter"",""0"",""1382""
","
","null","run_exp/static/images/Set 6_rs/187a.jpg","null","","","","","","learn","SR",""
"","html-keyboard-response","195","201279","0.0-195.0","""event"",""trial"",""time""
""fullscreenenter"",""0"",""1382""
","
","
","""event"",""trial"",""time""
""fullscreenenter"",""0"",""1382""
","
","null","<p></p>","null","","","","","","","",""
"","test_intro","196","238149","0.0-196.0","""event"",""trial"",""time""
""fullscreenenter"",""0"",""1382""
","
","
","""event"",""trial"",""time""
""fullscreenenter"",""0"",""1382""
","
","null","run_exp/static/audio/clip_2_memory.m4a","null","","","","","<div class='center'><p>Now, lets see how much you remember about the items you just saw.  For each item, you need to indicate if it was <b>old</b> by pressing the <b>v</b> key, <b>similar</b> by pressing the <b>b</b> key, or <b>new</b> by pressing the <b>n</b> key.</p><p>Old refers to an item that you saw before in the indoor/outdoor game that you just played, new refers to an item you have <b>not</b> seen before within the indoor/outdoor game, and similar refers to an item that is similar to an item youve seen before but is not exactly the same. </p><p>Before we begin, lets go over some brief demonstrations to make sure you understand.</p></div>","","",""
"","html-keyboard-response","197","243431","0.0-197.0","""event"",""trial"",""time""
""fullscreenenter"",""0"",""1382""
","
","
","""event"",""trial"",""time""
""fullscreenenter"",""0"",""1382""
","
","5279.800000011921","<div class='center'><p>Now, lets see how much you remember about the items you just saw.  For each item, you need to indicate if it was <b>old</b> by pressing the <b>v</b> key, <b>similar</b> by pressing the <b>b</b> key, or <b>new</b> by pressing the <b>n</b> key.</p><p>Old refers to an item that you saw before in the indoor/outdoor game that you just played, new refers to an item you have <b>not</b> seen before within the indoor/outdoor game, and similar refers to an item that is similar to an item youve seen before but is not exactly the same. </p><p>Before we begin, lets go over some brief demonstrations to make sure you understand.</p><div><p><b>[Press the space bar to continue]</b></p></div>","32","","","","","","","",""
"","items","198","250936","0.0-198.0","""event"",""trial"",""time""
""fullscreenenter"",""0"",""1382""
","
","
","""event"",""trial"",""time""
""fullscreenenter"",""0"",""1382""
","
","null","run_exp/static/audio/clip_3_items.m4a","null","","","","","","","",""
"","mop","199","255443","0.0-199.0","""event"",""trial"",""time""
""fullscreenenter"",""0"",""1382""
","
","
","""event"",""trial"",""time""
""fullscreenenter"",""0"",""1382""
","
","null","run_exp/static/audio/clip_4_mop.m4a","null","","","","","","","",""
"","baseball","200","258949","0.0-200.0","""event"",""trial"",""time""
""fullscreenenter"",""0"",""1382""
","
","
","""event"",""trial"",""time""
""fullscreenenter"",""0"",""1382""
","
","null","run_exp/static/audio/clip_5_baseball.m4a","null","","","","","","","",""
"","trumpet","201","262453","0.0-201.0","""event"",""trial"",""time""
""fullscreenenter"",""0"",""1382""
","
","
","""event"",""trial"",""time""
""fullscreenenter"",""0"",""1382""
","
","null","run_exp/static/audio/clip_6_trumpet.m4a","null","","","","","","","",""
"","gummies","202","265960","0.0-202.0","""event"",""trial"",""time""
""fullscreenenter"",""0"",""1382""
","
","
","""event"",""trial"",""time""
""fullscreenenter"",""0"",""1382""
","
","null","run_exp/static/audio/clip_7_gummies.m4a","null","","","","","","","",""
"","osn","203","270465","0.0-203.0","""event"",""trial"",""time""
""fullscreenenter"",""0"",""1382""
","
","
","""event"",""trial"",""time""
""fullscreenenter"",""0"",""1382""
","
","null","run_exp/static/audio/clip_8_osn.m4a","null","","","","","","","",""
"","old_1","204","276972","0.0-204.0","""event"",""trial"",""time""
""fullscreenenter"",""0"",""1382""
","
","
","""event"",""trial"",""time""
""fullscreenenter"",""0"",""1382""
","
","null","run_exp/static/audio/clip_9_old_trumpet.m4a","null","","","","","","","",""
"","new_1","205","284478","0.0-205.0","""event"",""trial"",""time""
""fullscreenenter"",""0"",""1382""
","
","
","""event"",""trial"",""time""
""fullscreenenter"",""0"",""1382""
","
","null","run_exp/static/audio/clip_10_new_balloon.m4a","null","","","","","","","",""
"","similar_1a","206","288983","0.0-206.0","""event"",""trial"",""time""
""fullscreenenter"",""0"",""1382""
","
","
","""event"",""trial"",""time""
""fullscreenenter"",""0"",""1382""
","
","null","run_exp/static/audio/clip_11a_similar_mop.m4a","null","","","","","","","",""
"","similar_1b","207","295489","0.0-207.0","""event"",""trial"",""time""
""fullscreenenter"",""0"",""1382""
","
","
","""event"",""trial"",""time""
""fullscreenenter"",""0"",""1382""
","
","null","run_exp/static/audio/clip_11b_similar_mop.m4a","null","","","","","","","",""
"","new_2","208","298992","0.0-208.0","""event"",""trial"",""time""
""fullscreenenter"",""0"",""1382""
","
","
","""event"",""trial"",""time""
""fullscreenenter"",""0"",""1382""
","
","null","run_exp/static/audio/clip_12_new_stoplight.m4a","null","","","","","","","",""
"","old_2","209","302500","0.0-209.0","""event"",""trial"",""time""
""fullscreenenter"",""0"",""1382""
","
","
","""event"",""trial"",""time""
""fullscreenenter"",""0"",""1382""
","
","null","run_exp/static/audio/clip_13_old_baseball.m4a","null","","","","","","","",""
"","similar_2a","210","306004","0.0-210.0","""event"",""trial"",""time""
""fullscreenenter"",""0"",""1382""
","
","
","""event"",""trial"",""time""
""fullscreenenter"",""0"",""1382""
","
","null","run_exp/static/audio/clip_14a_similar_gummies.m4a","null","","","","","","","",""
"","similar_2b","211","313512","0.0-211.0","""event"",""trial"",""time""
""fullscreenenter"",""0"",""1382""
","
","
","""event"",""trial"",""time""
""fullscreenenter"",""0"",""1382""
","
","null","run_exp/static/audio/clip_14b_similar_gummies.m4a","null","","","","","","","",""
"","practice","212","355655","0.0-212.0","""event"",""trial"",""time""
""fullscreenenter"",""0"",""1382""
","
","
","""event"",""trial"",""time""
""fullscreenenter"",""0"",""1382""
","
","null","run_exp/static/audio/clip_15_practice.m4a","null","","","","","<div class='center'><p>Lets practice a little to make sure you understand the difference between new, similar, and old. Lets say you saw these three items in the indoor/outdoor game.</p><p> Try your best to remember these images because youll soon be tested on them in a practice game. In the practice game, youll be shown images and youll have to say if they are old (one of the three images belows), similar (similar to one of the images below but not exactly the same), or new (are not one of the images below nor similar to them).</p><p>Once you press the space bar youll be shown these images again but one at time. Then youll begin the practice game.</p><p><img src='run_exp/static/images/tutorial/test/three_indoor_outdoor.png' height='300'></p></div>","","",""
"","html-keyboard-response","213","356240","0.0-213.0","""event"",""trial"",""time""
""fullscreenenter"",""0"",""1382""
","
","
","""event"",""trial"",""time""
""fullscreenenter"",""0"",""1382""
","
","582.8000000119209","<div class='center'><p>Lets practice a little to make sure you understand the difference between new, similar, and old. Lets say you saw these three items in the indoor/outdoor game.</p><p> Try your best to remember these images because youll soon be tested on them in a practice game. In the practice game, youll be shown images and youll have to say if they are old (one of the three images belows), similar (similar to one of the images below but not exactly the same), or new (are not one of the images below nor similar to them).</p><p>Once you press the space bar youll be shown these images again but one at time. Then youll begin the practice game.</p><p><img src='run_exp/static/images/tutorial/test/three_indoor_outdoor.png' height='300'></p><div><p><b>[Press the space bar to continue]</b></p></div>","32","","","","","","","",""
"","planet","214","358246","0.0-214.0","""event"",""trial"",""time""
""fullscreenenter"",""0"",""1382""
","
","
","""event"",""trial"",""time""
""fullscreenenter"",""0"",""1382""
","
","null","run_exp/static/images/tutorial/test/008a.jpg","null","","","","","","","",""
"","boot","215","360253","0.0-215.0","""event"",""trial"",""time""
""fullscreenenter"",""0"",""1382""
","
","
","""event"",""trial"",""time""
""fullscreenenter"",""0"",""1382""
","
","null","run_exp/static/images/tutorial/test/011a.jpg","null","","","","","","","",""
"","lemon","216","362256","0.0-216.0","""event"",""trial"",""time""
""fullscreenenter"",""0"",""1382""
","
","
","""event"",""trial"",""time""
""fullscreenenter"",""0"",""1382""
","
","null","run_exp/static/images/tutorial/test/018a.jpg","null","","","","","","","",""
"","practice_q1","217","364035","0.0-217.0","""event"",""trial"",""time""
""fullscreenenter"",""0"",""1382""
","
","
","""event"",""trial"",""time""
""fullscreenenter"",""0"",""1382""
","
","1775.7000000029802","run_exp/static/audio/clip_16_practice_question.m4a","78","","","","","","","",""
"","correct","218","365959","0.0-218.0-0.0","""event"",""trial"",""time""
""fullscreenenter"",""0"",""1382""
","
","
","""event"",""trial"",""time""
""fullscreenenter"",""0"",""1382""
","
","null","run_exp/static/audio/clip_17_correct.m4a","null","","","","","<div class='center'><p>That's correct!</p></div>","","",""
"","html-keyboard-response","219","366679","0.0-218.0-1.0","""event"",""trial"",""time""
""fullscreenenter"",""0"",""1382""
","
","
","""event"",""trial"",""time""
""fullscreenenter"",""0"",""1382""
","
","719","<div class='center'><p>That's correct!</p><div><p><b>[Press the space bar to continue]</b></p></div>","32","","","","","","","",""
"","practice_q2","220","367951","0.0-218.0-2.0","""event"",""trial"",""time""
""fullscreenenter"",""0"",""1382""
","
","
","""event"",""trial"",""time""
""fullscreenenter"",""0"",""1382""
","
","1269.2000000029802","run_exp/static/audio/clip_16_practice_question.m4a","86","","","","","","","",""
"","correct","221","369862","0.0-219.0-0.0","""event"",""trial"",""time""
""fullscreenenter"",""0"",""1382""
","
","
","""event"",""trial"",""time""
""fullscreenenter"",""0"",""1382""
","
","null","run_exp/static/audio/clip_17_correct.m4a","null","","","","","<div class='center'><p>That's correct!</p></div>","","",""
"","html-keyboard-response","222","370629","0.0-219.0-1.0","""event"",""trial"",""time""
""fullscreenenter"",""0"",""1382""
","
","
","""event"",""trial"",""time""
""fullscreenenter"",""0"",""1382""
","
","764.9000000059605","<div class='center'><p>That's correct!</p><div><p><b>[Press the space bar to continue]</b></p></div>","32","","","","","","","",""
"","practice_q3","223","371923","0.0-219.0-2.0","""event"",""trial"",""time""
""fullscreenenter"",""0"",""1382""
","
","
","""event"",""trial"",""time""
""fullscreenenter"",""0"",""1382""
","
","1292.7000000029802","run_exp/static/audio/clip_16_practice_question.m4a","66","","","","","","","",""
"","correct","224","373938","0.0-220.0-0.0","""event"",""trial"",""time""
""fullscreenenter"",""0"",""1382""
","
","
","""event"",""trial"",""time""
""fullscreenenter"",""0"",""1382""
","
","null","run_exp/static/audio/clip_17_correct.m4a","null","","","","","<div class='center'><p>That's correct!</p></div>","","",""
"","html-keyboard-response","225","374431","0.0-220.0-1.0","""event"",""trial"",""time""
""fullscreenenter"",""0"",""1382""
","
","
","""event"",""trial"",""time""
""fullscreenenter"",""0"",""1382""
","
","490.79999999701977","<div class='center'><p>That's correct!</p><div><p><b>[Press the space bar to continue]</b></p></div>","32","","","","","","","",""
"","begin_text","226","392924","0.0-221.0-0.0","""event"",""trial"",""time""
""fullscreenenter"",""0"",""1382""
","
","
","""event"",""trial"",""time""
""fullscreenenter"",""0"",""1382""
","
","null","run_exp/static/audio/clip_22_begin_test.m4a","null","","","","","<div class='center'><p>On to the real game where well test your memory of items from the indoor/outdoor game. For each item, you need to indicate if the item is <b>old</b> by pressing the <b>v</b> key, <b>similar</b> by pressing the <b>b</b> key, or <b>new</b> by pressing the <b>n</b> key. </p></div>","","",""
"","html-keyboard-response","227","393674","0.0-221.0-1.0","""event"",""trial"",""time""
""fullscreenenter"",""0"",""1382""
","
","
","""event"",""trial"",""time""
""fullscreenenter"",""0"",""1382""
","
","746","<div class='center'><p>On to the real game where well test your memory of items from the indoor/outdoor game. For each item, you need to indicate if the item is <b>old</b> by pressing the <b>v</b> key, <b>similar</b> by pressing the <b>b</b> key, or <b>new</b> by pressing the <b>n</b> key. </p><div><p><b>[Press the space bar to continue]</b></p></div>","32","","","","","","","",""
"","image","228","395181","0.0-222.0-0.0","""event"",""trial"",""time""
""fullscreenenter"",""0"",""1382""
","
","
","""event"",""trial"",""time""
""fullscreenenter"",""0"",""1382""
","
","1505.800000011921","run_exp/static/images/Set 6_rs/095b.jpg","66","","","","","","test","TL","5"
"","show_choice","229","395685","0.0-222.0-1.0","""event"",""trial"",""time""
""fullscreenenter"",""0"",""1382""
","
","
","""event"",""trial"",""time""
""fullscreenenter"",""0"",""1382""
","
","null","run_exp/static/images/Set 6_rs/095b.jpg","null","","","","","","test","TL",""
"","html-keyboard-response","230","396187","0.0-222.0-2.0","""event"",""trial"",""time""
""fullscreenenter"",""0"",""1382""
","
","
","""event"",""trial"",""time""
""fullscreenenter"",""0"",""1382""
","
","null","<p></p>","null","","","","","","","",""
"","image","231","397662","0.0-223.0-0.0","""event"",""trial"",""time""
""fullscreenenter"",""0"",""1382""
","
","
","""event"",""trial"",""time""
""fullscreenenter"",""0"",""1382""
","
","1472.5999999940395","run_exp/static/images/Set 6_rs/050b.jpg","86","","","","","","test","TL","3"
"","show_choice","232","398167","0.0-223.0-1.0","""event"",""trial"",""time""
""fullscreenenter"",""0"",""1382""
","
","
","""event"",""trial"",""time""
""fullscreenenter"",""0"",""1382""
","
","null","run_exp/static/images/Set 6_rs/050b.jpg","null","","","","","","test","TL",""
"","html-keyboard-response","233","398671","0.0-223.0-2.0","""event"",""trial"",""time""
""fullscreenenter"",""0"",""1382""
","
","
","""event"",""trial"",""time""
""fullscreenenter"",""0"",""1382""
","
","null","<p></p>","null","","","","","","","",""
"","image","234","400358","0.0-224.0-0.0","""event"",""trial"",""time""
""fullscreenenter"",""0"",""1382""
","
","
","""event"",""trial"",""time""
""fullscreenenter"",""0"",""1382""
","
","1684.4000000059605","run_exp/static/images/Set 6_rs/091b.jpg","78","","","","","","test","TL","3"
"","show_choice","235","400861","0.0-224.0-1.0","""event"",""trial"",""time""
""fullscreenenter"",""0"",""1382""
","
","
","""event"",""trial"",""time""
""fullscreenenter"",""0"",""1382""
","
","null","run_exp/static/images/Set 6_rs/091b.jpg","null","","","","","","test","TL",""
"","html-keyboard-response","236","401363","0.0-224.0-2.0","""event"",""trial"",""time""
""fullscreenenter"",""0"",""1382""
","
","
","""event"",""trial"",""time""
""fullscreenenter"",""0"",""1382""
","
","null","<p></p>","null","","","","","","","",""
"","image","237","402475","0.0-225.0-0.0","""event"",""trial"",""time""
""fullscreenenter"",""0"",""1382""
","
","
","""event"",""trial"",""time""
""fullscreenenter"",""0"",""1382""
","
","1109.7999999970198","run_exp/static/images/Set 6_rs/021a.jpg","78","","","","","","test","TF","2"
"","show_choice","238","402979","0.0-225.0-1.0","""event"",""trial"",""time""
""fullscreenenter"",""0"",""1382""
","
","
","""event"",""trial"",""time""
""fullscreenenter"",""0"",""1382""
","
","null","run_exp/static/images/Set 6_rs/021a.jpg","null","","","","","","test","TF",""
"","html-keyboard-response","239","403483","0.0-225.0-2.0","""event"",""trial"",""time""
""fullscreenenter"",""0"",""1382""
","
","
","""event"",""trial"",""time""
""fullscreenenter"",""0"",""1382""
","
","null","<p></p>","null","","","","","","","",""
"","image","240","404276","0.0-226.0-0.0","""event"",""trial"",""time""
""fullscreenenter"",""0"",""1382""
","
","
","""event"",""trial"",""time""
""fullscreenenter"",""0"",""1382""
","
","791","run_exp/static/images/Set 6_rs/052a.jpg","78","","","","","","test","TF","1"
"","show_choice","241","404779","0.0-226.0-1.0","""event"",""trial"",""time""
""fullscreenenter"",""0"",""1382""
","
","
","""event"",""trial"",""time""
""fullscreenenter"",""0"",""1382""
","
","null","run_exp/static/images/Set 6_rs/052a.jpg","null","","","","","","test","TF",""
"","html-keyboard-response","242","405283","0.0-226.0-2.0","""event"",""trial"",""time""
""fullscreenenter"",""0"",""1382""
","
","
","""event"",""trial"",""time""
""fullscreenenter"",""0"",""1382""
","
","null","<p></p>","null","","","","","","","",""
"","image","243","406146","0.0-227.0-0.0","""event"",""trial"",""time""
""fullscreenenter"",""0"",""1382""
","
","
","""event"",""trial"",""time""
""fullscreenenter"",""0"",""1382""
","
","861","run_exp/static/images/Set 6_rs/001a.jpg","78","","","","","","test","TF","1"
"","show_choice","244","406648","0.0-227.0-1.0","""event"",""trial"",""time""
""fullscreenenter"",""0"",""1382""
","
","
","""event"",""trial"",""time""
""fullscreenenter"",""0"",""1382""
","
","null","run_exp/static/images/Set 6_rs/001a.jpg","null","","","","","","test","TF",""
"","html-keyboard-response","245","407152","0.0-227.0-2.0","""event"",""trial"",""time""
""fullscreenenter"",""0"",""1382""
","
","
","""event"",""trial"",""time""
""fullscreenenter"",""0"",""1382""
","
","null","<p></p>","null","","","","","","","",""
"","image","246","408115","0.0-228.0-0.0","""event"",""trial"",""time""
""fullscreenenter"",""0"",""1382""
","
","
","""event"",""trial"",""time""
""fullscreenenter"",""0"",""1382""
","
","960.6999999880791","run_exp/static/images/Set 6_rs/023a.jpg","86","","","","","","test","TR","3"
"","show_choice","247","408617","0.0-228.0-1.0","""event"",""trial"",""time""
""fullscreenenter"",""0"",""1382""
","
","
","""event"",""trial"",""time""
""fullscreenenter"",""0"",""1382""
","
","null","run_exp/static/images/Set 6_rs/023a.jpg","null","","","","","","test","TR",""
"","html-keyboard-response","248","409124","0.0-228.0-2.0","""event"",""trial"",""time""
""fullscreenenter"",""0"",""1382""
","
","
","""event"",""trial"",""time""
""fullscreenenter"",""0"",""1382""
","
","null","<p></p>","null","","","","","","","",""
"","image","249","410616","0.0-229.0-0.0","""event"",""trial"",""time""
""fullscreenenter"",""0"",""1382""
","
","
","""event"",""trial"",""time""
""fullscreenenter"",""0"",""1382""
","
","1489.2999999970198","run_exp/static/images/Set 6_rs/075a.jpg","86","","","","","","test","TR","1"
"","show_choice","250","411120","0.0-229.0-1.0","""event"",""trial"",""time""
""fullscreenenter"",""0"",""1382""
","
","
","""event"",""trial"",""time""
""fullscreenenter"",""0"",""1382""
","
","null","run_exp/static/images/Set 6_rs/075a.jpg","null","","","","","","test","TR",""
"","html-keyboard-response","251","411623","0.0-229.0-2.0","""event"",""trial"",""time""
""fullscreenenter"",""0"",""1382""
","
","
","""event"",""trial"",""time""
""fullscreenenter"",""0"",""1382""
","
","null","<p></p>","null","","","","","","","",""
"","image","252","412865","0.0-230.0-0.0","""event"",""trial"",""time""
""fullscreenenter"",""0"",""1382""
","
","
","""event"",""trial"",""time""
""fullscreenenter"",""0"",""1382""
","
","1240.7000000029802","run_exp/static/images/Set 6_rs/100a.jpg","66","","","","","","test","TF","2"
"","show_choice","253","413369","0.0-230.0-1.0","""event"",""trial"",""time""
""fullscreenenter"",""0"",""1382""
","
","
","""event"",""trial"",""time""
""fullscreenenter"",""0"",""1382""
","
","null","run_exp/static/images/Set 6_rs/100a.jpg","null","","","","","","test","TF",""
"","html-keyboard-response","254","413876","0.0-230.0-2.0","""event"",""trial"",""time""
""fullscreenenter"",""0"",""1382""
","
","
","""event"",""trial"",""time""
""fullscreenenter"",""0"",""1382""
","
","null","<p></p>","null","","","","","","","",""
"","image","255","415122","0.0-231.0-0.0","""event"",""trial"",""time""
""fullscreenenter"",""0"",""1382""
","
","
","""event"",""trial"",""time""
""fullscreenenter"",""0"",""1382""
","
","1243.1000000089407","run_exp/static/images/Set 6_rs/188a.jpg","86","","","","","","test","TF","3"
"","show_choice","256","415624","0.0-231.0-1.0","""event"",""trial"",""time""
""fullscreenenter"",""0"",""1382""
","
","
","""event"",""trial"",""time""
""fullscreenenter"",""0"",""1382""
","
","null","run_exp/static/images/Set 6_rs/188a.jpg","null","","","","","","test","TF",""
"","html-keyboard-response","257","416127","0.0-231.0-2.0","""event"",""trial"",""time""
""fullscreenenter"",""0"",""1382""
","
","
","""event"",""trial"",""time""
""fullscreenenter"",""0"",""1382""
","
","null","<p></p>","null","","","","","","","",""
"","image","258","416920","0.0-232.0-0.0","""event"",""trial"",""time""
""fullscreenenter"",""0"",""1382""
","
","
","""event"",""trial"",""time""
""fullscreenenter"",""0"",""1382""
","
","791.2999999970198","run_exp/static/images/Set 6_rs/048a.jpg","78","","","","","","test","TF","4"
"","show_choice","259","417424","0.0-232.0-1.0","""event"",""trial"",""time""
""fullscreenenter"",""0"",""1382""
","
","
","""event"",""trial"",""time""
""fullscreenenter"",""0"",""1382""
","
","null","run_exp/static/images/Set 6_rs/048a.jpg","null","","","","","","test","TF",""
"","html-keyboard-response","260","417930","0.0-232.0-2.0","""event"",""trial"",""time""
""fullscreenenter"",""0"",""1382""
","
","
","""event"",""trial"",""time""
""fullscreenenter"",""0"",""1382""
","
","null","<p></p>","null","","","","","","","",""
"","image","261","419299","0.0-233.0-0.0","""event"",""trial"",""time""
""fullscreenenter"",""0"",""1382""
","
","
","""event"",""trial"",""time""
""fullscreenenter"",""0"",""1382""
","
","1366.5999999940395","run_exp/static/images/Set 6_rs/138b.jpg","66","","","","","","test","TL","1"
"","show_choice","262","419804","0.0-233.0-1.0","""event"",""trial"",""time""
""fullscreenenter"",""0"",""1382""
","
","
","""event"",""trial"",""time""
""fullscreenenter"",""0"",""1382""
","
","null","run_exp/static/images/Set 6_rs/138b.jpg","null","","","","","","test","TL",""
"","html-keyboard-response","263","420311","0.0-233.0-2.0","""event"",""trial"",""time""
""fullscreenenter"",""0"",""1382""
","
","
","""event"",""trial"",""time""
""fullscreenenter"",""0"",""1382""
","
","null","<p></p>","null","","","","","","","",""
"","image","264","421501","0.0-234.0-0.0","""event"",""trial"",""time""
""fullscreenenter"",""0"",""1382""
","
","
","""event"",""trial"",""time""
""fullscreenenter"",""0"",""1382""
","
","1187.2000000029802","run_exp/static/images/Set 6_rs/028a.jpg","86","","","","","","test","TF","1"
"","show_choice","265","422003","0.0-234.0-1.0","""event"",""trial"",""time""
""fullscreenenter"",""0"",""1382""
","
","
","""event"",""trial"",""time""
""fullscreenenter"",""0"",""1382""
","
","null","run_exp/static/images/Set 6_rs/028a.jpg","null","","","","","","test","TF",""
"","html-keyboard-response","266","422510","0.0-234.0-2.0","""event"",""trial"",""time""
""fullscreenenter"",""0"",""1382""
","
","
","""event"",""trial"",""time""
""fullscreenenter"",""0"",""1382""
","
","null","<p></p>","null","","","","","","","",""
"","image","267","423714","0.0-235.0-0.0","""event"",""trial"",""time""
""fullscreenenter"",""0"",""1382""
","
","
","""event"",""trial"",""time""
""fullscreenenter"",""0"",""1382""
","
","1201.5999999940395","run_exp/static/images/Set 6_rs/132a.jpg","86","","","","","","test","TR","5"
"","show_choice","268","424218","0.0-235.0-1.0","""event"",""trial"",""time""
""fullscreenenter"",""0"",""1382""
","
","
","""event"",""trial"",""time""
""fullscreenenter"",""0"",""1382""
","
","null","run_exp/static/images/Set 6_rs/132a.jpg","null","","","","","","test","TR",""
"","html-keyboard-response","269","424723","0.0-235.0-2.0","""event"",""trial"",""time""
""fullscreenenter"",""0"",""1382""
","
","
","""event"",""trial"",""time""
""fullscreenenter"",""0"",""1382""
","
","null","<p></p>","null","","","","","","","",""
"","image","270","426101","0.0-236.0-0.0","""event"",""trial"",""time""
""fullscreenenter"",""0"",""1382""
","
","
","""event"",""trial"",""time""
""fullscreenenter"",""0"",""1382""
","
","1375.7999999970198","run_exp/static/images/Set 6_rs/089b.jpg","66","","","","","","test","TL","4"
"","show_choice","271","426604","0.0-236.0-1.0","""event"",""trial"",""time""
""fullscreenenter"",""0"",""1382""
","
","
","""event"",""trial"",""time""
""fullscreenenter"",""0"",""1382""
","
","null","run_exp/static/images/Set 6_rs/089b.jpg","null","","","","","","test","TL",""
"","html-keyboard-response","272","427107","0.0-236.0-2.0","""event"",""trial"",""time""
""fullscreenenter"",""0"",""1382""
","
","
","""event"",""trial"",""time""
""fullscreenenter"",""0"",""1382""
","
","null","<p></p>","null","","","","","","","",""
"","image","273","428104","0.0-237.0-0.0","""event"",""trial"",""time""
""fullscreenenter"",""0"",""1382""
","
","
","""event"",""trial"",""time""
""fullscreenenter"",""0"",""1382""
","
","993.9000000059605","run_exp/static/images/Set 6_rs/070a.jpg","86","","","","","","test","TR","2"
"","show_choice","274","428606","0.0-237.0-1.0","""event"",""trial"",""time""
""fullscreenenter"",""0"",""1382""
","
","
","""event"",""trial"",""time""
""fullscreenenter"",""0"",""1382""
","
","null","run_exp/static/images/Set 6_rs/070a.jpg","null","","","","","","test","TR",""
"","html-keyboard-response","275","429111","0.0-237.0-2.0","""event"",""trial"",""time""
""fullscreenenter"",""0"",""1382""
","
","
","""event"",""trial"",""time""
""fullscreenenter"",""0"",""1382""
","
","null","<p></p>","null","","","","","","","",""
"","image","276","429897","0.0-238.0-0.0","""event"",""trial"",""time""
""fullscreenenter"",""0"",""1382""
","
","
","""event"",""trial"",""time""
""fullscreenenter"",""0"",""1382""
","
","783.7999999970198","run_exp/static/images/Set 6_rs/012a.jpg","86","","","","","","test","TR","1"
"","show_choice","277","430400","0.0-238.0-1.0","""event"",""trial"",""time""
""fullscreenenter"",""0"",""1382""
","
","
","""event"",""trial"",""time""
""fullscreenenter"",""0"",""1382""
","
","null","run_exp/static/images/Set 6_rs/012a.jpg","null","","","","","","test","TR",""
"","html-keyboard-response","278","430906","0.0-238.0-2.0","""event"",""trial"",""time""
""fullscreenenter"",""0"",""1382""
","
","
","""event"",""trial"",""time""
""fullscreenenter"",""0"",""1382""
","
","null","<p></p>","null","","","","","","","",""
"","image","279","431809","0.0-239.0-0.0","""event"",""trial"",""time""
""fullscreenenter"",""0"",""1382""
","
","
","""event"",""trial"",""time""
""fullscreenenter"",""0"",""1382""
","
","900","run_exp/static/images/Set 6_rs/016b.jpg","86","","","","","","test","TL","1"
"","show_choice","280","432314","0.0-239.0-1.0","""event"",""trial"",""time""
""fullscreenenter"",""0"",""1382""
","
","
","""event"",""trial"",""time""
""fullscreenenter"",""0"",""1382""
","
","null","run_exp/static/images/Set 6_rs/016b.jpg","null","","","","","","test","TL",""
"","html-keyboard-response","281","432816","0.0-239.0-2.0","""event"",""trial"",""time""
""fullscreenenter"",""0"",""1382""
","
","
","""event"",""trial"",""time""
""fullscreenenter"",""0"",""1382""
","
","null","<p></p>","null","","","","","","","",""
"","image","282","433779","0.0-240.0-0.0","""event"",""trial"",""time""
""fullscreenenter"",""0"",""1382""
","
","
","""event"",""trial"",""time""
""fullscreenenter"",""0"",""1382""
","
","960.6999999880791","run_exp/static/images/Set 6_rs/169a.jpg","86","","","","","","test","TR","4"
"","show_choice","283","434282","0.0-240.0-1.0","""event"",""trial"",""time""
""fullscreenenter"",""0"",""1382""
","
","
","""event"",""trial"",""time""
""fullscreenenter"",""0"",""1382""
","
","null","run_exp/static/images/Set 6_rs/169a.jpg","null","","","","","","test","TR",""
"","html-keyboard-response","284","434788","0.0-240.0-2.0","""event"",""trial"",""time""
""fullscreenenter"",""0"",""1382""
","
","
","""event"",""trial"",""time""
""fullscreenenter"",""0"",""1382""
","
","null","<p></p>","null","","","","","","","",""
"","image","285","436149","0.0-241.0-0.0","""event"",""trial"",""time""
""fullscreenenter"",""0"",""1382""
","
","
","""event"",""trial"",""time""
""fullscreenenter"",""0"",""1382""
","
","1357.7000000029802","run_exp/static/images/Set 6_rs/109a.jpg","78","","","","","","test","TF","5"
"","show_choice","286","436654","0.0-241.0-1.0","""event"",""trial"",""time""
""fullscreenenter"",""0"",""1382""
","
","
","""event"",""trial"",""time""
""fullscreenenter"",""0"",""1382""
","
","null","run_exp/static/images/Set 6_rs/109a.jpg","null","","","","","","test","TF",""
"","html-keyboard-response","287","437156","0.0-241.0-2.0","""event"",""trial"",""time""
""fullscreenenter"",""0"",""1382""
","
","
","""event"",""trial"",""time""
""fullscreenenter"",""0"",""1382""
","
","null","<p></p>","null","","","","","","","",""
"","image","288","438238","0.0-242.0-0.0","""event"",""trial"",""time""
""fullscreenenter"",""0"",""1382""
","
","
","""event"",""trial"",""time""
""fullscreenenter"",""0"",""1382""
","
","1080.7000000029802","run_exp/static/images/Set 6_rs/149a.jpg","78","","","","","","test","TF","1"
"","show_choice","289","438740","0.0-242.0-1.0","""event"",""trial"",""time""
""fullscreenenter"",""0"",""1382""
","
","
","""event"",""trial"",""time""
""fullscreenenter"",""0"",""1382""
","
","null","run_exp/static/images/Set 6_rs/149a.jpg","null","","","","","","test","TF",""
"","html-keyboard-response","290","439246","0.0-242.0-2.0","""event"",""trial"",""time""
""fullscreenenter"",""0"",""1382""
","
","
","""event"",""trial"",""time""
""fullscreenenter"",""0"",""1382""
","
","null","<p></p>","null","","","","","","","",""
"","image","291","440256","0.0-243.0-0.0","""event"",""trial"",""time""
""fullscreenenter"",""0"",""1382""
","
","
","""event"",""trial"",""time""
""fullscreenenter"",""0"",""1382""
","
","1007.8999999910593","run_exp/static/images/Set 6_rs/057b.jpg","86","","","","","","test","TL","1"
"","show_choice","292","440760","0.0-243.0-1.0","""event"",""trial"",""time""
""fullscreenenter"",""0"",""1382""
","
","
","""event"",""trial"",""time""
""fullscreenenter"",""0"",""1382""
","
","null","run_exp/static/images/Set 6_rs/057b.jpg","null","","","","","","test","TL",""
"","html-keyboard-response","293","441264","0.0-243.0-2.0","""event"",""trial"",""time""
""fullscreenenter"",""0"",""1382""
","
","
","""event"",""trial"",""time""
""fullscreenenter"",""0"",""1382""
","
","null","<p></p>","null","","","","","","","",""
"","image","294","442161","0.0-244.0-0.0","""event"",""trial"",""time""
""fullscreenenter"",""0"",""1382""
","
","
","""event"",""trial"",""time""
""fullscreenenter"",""0"",""1382""
","
","895.0999999940395","run_exp/static/images/Set 6_rs/191b.jpg","78","","","","","","test","TL","2"
"","show_choice","295","442666","0.0-244.0-1.0","""event"",""trial"",""time""
""fullscreenenter"",""0"",""1382""
","
","
","""event"",""trial"",""time""
""fullscreenenter"",""0"",""1382""
","
","null","run_exp/static/images/Set 6_rs/191b.jpg","null","","","","","","test","TL",""
"","html-keyboard-response","296","443169","0.0-244.0-2.0","""event"",""trial"",""time""
""fullscreenenter"",""0"",""1382""
","
","
","""event"",""trial"",""time""
""fullscreenenter"",""0"",""1382""
","
","null","<p></p>","null","","","","","","","",""
"","image","297","444464","0.0-245.0-0.0","""event"",""trial"",""time""
""fullscreenenter"",""0"",""1382""
","
","
","""event"",""trial"",""time""
""fullscreenenter"",""0"",""1382""
","
","1292.9000000059605","run_exp/static/images/Set 6_rs/136a.jpg","78","","","","","","test","TF","4"
"","show_choice","298","444969","0.0-245.0-1.0","""event"",""trial"",""time""
""fullscreenenter"",""0"",""1382""
","
","
","""event"",""trial"",""time""
""fullscreenenter"",""0"",""1382""
","
","null","run_exp/static/images/Set 6_rs/136a.jpg","null","","","","","","test","TF",""
"","html-keyboard-response","299","445475","0.0-245.0-2.0","""event"",""trial"",""time""
""fullscreenenter"",""0"",""1382""
","
","
","""event"",""trial"",""time""
""fullscreenenter"",""0"",""1382""
","
","null","<p></p>","null","","","","","","","",""
"","image","300","446341","0.0-246.0-0.0","""event"",""trial"",""time""
""fullscreenenter"",""0"",""1382""
","
","
","""event"",""trial"",""time""
""fullscreenenter"",""0"",""1382""
","
","863.4000000059605","run_exp/static/images/Set 6_rs/088a.jpg","86","","","","","","test","TR","2"
"","show_choice","301","446846","0.0-246.0-1.0","""event"",""trial"",""time""
""fullscreenenter"",""0"",""1382""
","
","
","""event"",""trial"",""time""
""fullscreenenter"",""0"",""1382""
","
","null","run_exp/static/images/Set 6_rs/088a.jpg","null","","","","","","test","TR",""
"","html-keyboard-response","302","447352","0.0-246.0-2.0","""event"",""trial"",""time""
""fullscreenenter"",""0"",""1382""
","
","
","""event"",""trial"",""time""
""fullscreenenter"",""0"",""1382""
","
","null","<p></p>","null","","","","","","","",""
"","image","303","448094","0.0-247.0-0.0","""event"",""trial"",""time""
""fullscreenenter"",""0"",""1382""
","
","
","""event"",""trial"",""time""
""fullscreenenter"",""0"",""1382""
","
","738.5","run_exp/static/images/Set 6_rs/010a.jpg","86","","","","","","test","TR","5"
"","show_choice","304","448598","0.0-247.0-1.0","""event"",""trial"",""time""
""fullscreenenter"",""0"",""1382""
","
","
","""event"",""trial"",""time""
""fullscreenenter"",""0"",""1382""
","
","null","run_exp/static/images/Set 6_rs/010a.jpg","null","","","","","","test","TR",""
"","html-keyboard-response","305","449102","0.0-247.0-2.0","""event"",""trial"",""time""
""fullscreenenter"",""0"",""1382""
","
","
","""event"",""trial"",""time""
""fullscreenenter"",""0"",""1382""
","
","null","<p></p>","null","","","","","","","",""
"","image","306","449820","0.0-248.0-0.0","""event"",""trial"",""time""
""fullscreenenter"",""0"",""1382""
","
","
","""event"",""trial"",""time""
""fullscreenenter"",""0"",""1382""
","
","716","run_exp/static/images/Set 6_rs/186a.jpg","86","","","","","","test","TR","5"
"","show_choice","307","450325","0.0-248.0-1.0","""event"",""trial"",""time""
""fullscreenenter"",""0"",""1382""
","
","
","""event"",""trial"",""time""
""fullscreenenter"",""0"",""1382""
","
","null","run_exp/static/images/Set 6_rs/186a.jpg","null","","","","","","test","TR",""
"","html-keyboard-response","308","450832","0.0-248.0-2.0","""event"",""trial"",""time""
""fullscreenenter"",""0"",""1382""
","
","
","""event"",""trial"",""time""
""fullscreenenter"",""0"",""1382""
","
","null","<p></p>","null","","","","","","","",""
"","image","309","452373","0.0-249.0-0.0","""event"",""trial"",""time""
""fullscreenenter"",""0"",""1382""
","
","
","""event"",""trial"",""time""
""fullscreenenter"",""0"",""1382""
","
","1538.7000000029802","run_exp/static/images/Set 6_rs/168b.jpg","66","","","","","","test","TL","3"
"","show_choice","310","452876","0.0-249.0-1.0","""event"",""trial"",""time""
""fullscreenenter"",""0"",""1382""
","
","
","""event"",""trial"",""time""
""fullscreenenter"",""0"",""1382""
","
","null","run_exp/static/images/Set 6_rs/168b.jpg","null","","","","","","test","TL",""
"","html-keyboard-response","311","453382","0.0-249.0-2.0","""event"",""trial"",""time""
""fullscreenenter"",""0"",""1382""
","
","
","""event"",""trial"",""time""
""fullscreenenter"",""0"",""1382""
","
","null","<p></p>","null","","","","","","","",""
"","image","312","454351","0.0-250.0-0.0","""event"",""trial"",""time""
""fullscreenenter"",""0"",""1382""
","
","
","""event"",""trial"",""time""
""fullscreenenter"",""0"",""1382""
","
","965.9000000059605","run_exp/static/images/Set 6_rs/166a.jpg","86","","","","","","test","TR","1"
"","show_choice","313","454855","0.0-250.0-1.0","""event"",""trial"",""time""
""fullscreenenter"",""0"",""1382""
","
","
","""event"",""trial"",""time""
""fullscreenenter"",""0"",""1382""
","
","null","run_exp/static/images/Set 6_rs/166a.jpg","null","","","","","","test","TR",""
"","html-keyboard-response","314","455357","0.0-250.0-2.0","""event"",""trial"",""time""
""fullscreenenter"",""0"",""1382""
","
","
","""event"",""trial"",""time""
""fullscreenenter"",""0"",""1382""
","
","null","<p></p>","null","","","","","","","",""
"","image","315","456525","0.0-251.0-0.0","""event"",""trial"",""time""
""fullscreenenter"",""0"",""1382""
","
","
","""event"",""trial"",""time""
""fullscreenenter"",""0"",""1382""
","
","1165.8999999910593","run_exp/static/images/Set 6_rs/035a.jpg","78","","","","","","test","TF","4"
"","show_choice","316","457028","0.0-251.0-1.0","""event"",""trial"",""time""
""fullscreenenter"",""0"",""1382""
","
","
","""event"",""trial"",""time""
""fullscreenenter"",""0"",""1382""
","
","null","run_exp/static/images/Set 6_rs/035a.jpg","null","","","","","","test","TF",""
"","html-keyboard-response","317","457532","0.0-251.0-2.0","""event"",""trial"",""time""
""fullscreenenter"",""0"",""1382""
","
","
","""event"",""trial"",""time""
""fullscreenenter"",""0"",""1382""
","
","null","<p></p>","null","","","","","","","",""
"","image","318","458479","0.0-252.0-0.0","""event"",""trial"",""time""
""fullscreenenter"",""0"",""1382""
","
","
","""event"",""trial"",""time""
""fullscreenenter"",""0"",""1382""
","
","945.2999999970198","run_exp/static/images/Set 6_rs/097a.jpg","78","","","","","","test","TF","5"
"","show_choice","319","458984","0.0-252.0-1.0","""event"",""trial"",""time""
""fullscreenenter"",""0"",""1382""
","
","
","""event"",""trial"",""time""
""fullscreenenter"",""0"",""1382""
","
","null","run_exp/static/images/Set 6_rs/097a.jpg","null","","","","","","test","TF",""
"","html-keyboard-response","320","459489","0.0-252.0-2.0","""event"",""trial"",""time""
""fullscreenenter"",""0"",""1382""
","
","
","""event"",""trial"",""time""
""fullscreenenter"",""0"",""1382""
","
","null","<p></p>","null","","","","","","","",""
"","image","321","460634","0.0-253.0-0.0","""event"",""trial"",""time""
""fullscreenenter"",""0"",""1382""
","
","
","""event"",""trial"",""time""
""fullscreenenter"",""0"",""1382""
","
","1143","run_exp/static/images/Set 6_rs/181b.jpg","66","","","","","","test","TL","1"
"","show_choice","322","461137","0.0-253.0-1.0","""event"",""trial"",""time""
""fullscreenenter"",""0"",""1382""
","
","
","""event"",""trial"",""time""
""fullscreenenter"",""0"",""1382""
","
","null","run_exp/static/images/Set 6_rs/181b.jpg","null","","","","","","test","TL",""
"","html-keyboard-response","323","461640","0.0-253.0-2.0","""event"",""trial"",""time""
""fullscreenenter"",""0"",""1382""
","
","
","""event"",""trial"",""time""
""fullscreenenter"",""0"",""1382""
","
","null","<p></p>","null","","","","","","","",""
"","image","324","462602","0.0-254.0-0.0","""event"",""trial"",""time""
""fullscreenenter"",""0"",""1382""
","
","
","""event"",""trial"",""time""
""fullscreenenter"",""0"",""1382""
","
","960.1999999880791","run_exp/static/images/Set 6_rs/118a.jpg","78","","","","","","test","TF","5"
"","show_choice","325","463107","0.0-254.0-1.0","""event"",""trial"",""time""
""fullscreenenter"",""0"",""1382""
","
","
","""event"",""trial"",""time""
""fullscreenenter"",""0"",""1382""
","
","null","run_exp/static/images/Set 6_rs/118a.jpg","null","","","","","","test","TF",""
"","html-keyboard-response","326","463614","0.0-254.0-2.0","""event"",""trial"",""time""
""fullscreenenter"",""0"",""1382""
","
","
","""event"",""trial"",""time""
""fullscreenenter"",""0"",""1382""
","
","null","<p></p>","null","","","","","","","",""
"","image","327","464978","0.0-255.0-0.0","""event"",""trial"",""time""
""fullscreenenter"",""0"",""1382""
","
","
","""event"",""trial"",""time""
""fullscreenenter"",""0"",""1382""
","
","1362.4000000059605","run_exp/static/images/Set 6_rs/187a.jpg","66","","","","","","test","TR","3"
"","show_choice","328","465482","0.0-255.0-1.0","""event"",""trial"",""time""
""fullscreenenter"",""0"",""1382""
","
","
","""event"",""trial"",""time""
""fullscreenenter"",""0"",""1382""
","
","null","run_exp/static/images/Set 6_rs/187a.jpg","null","","","","","","test","TR",""
"","html-keyboard-response","329","465984","0.0-255.0-2.0","""event"",""trial"",""time""
""fullscreenenter"",""0"",""1382""
","
","
","""event"",""trial"",""time""
""fullscreenenter"",""0"",""1382""
","
","null","<p></p>","null","","","","","","","",""
"","image","330","467050","0.0-256.0-0.0","""event"",""trial"",""time""
""fullscreenenter"",""0"",""1382""
","
","
","""event"",""trial"",""time""
""fullscreenenter"",""0"",""1382""
","
","1064.0999999940395","run_exp/static/images/Set 6_rs/064a.jpg","86","","","","","","test","TR","5"
"","show_choice","331","467552","0.0-256.0-1.0","""event"",""trial"",""time""
""fullscreenenter"",""0"",""1382""
","
","
","""event"",""trial"",""time""
""fullscreenenter"",""0"",""1382""
","
","null","run_exp/static/images/Set 6_rs/064a.jpg","null","","","","","","test","TR",""
"","html-keyboard-response","332","468056","0.0-256.0-2.0","""event"",""trial"",""time""
""fullscreenenter"",""0"",""1382""
","
","
","""event"",""trial"",""time""
""fullscreenenter"",""0"",""1382""
","
","null","<p></p>","null","","","","","","","",""
"","image","333","468967","0.0-257.0-0.0","""event"",""trial"",""time""
""fullscreenenter"",""0"",""1382""
","
","
","""event"",""trial"",""time""
""fullscreenenter"",""0"",""1382""
","
","908.8999999910593","run_exp/static/images/Set 6_rs/047a.jpg","78","","","","","","test","TF","3"
"","show_choice","334","469471","0.0-257.0-1.0","""event"",""trial"",""time""
""fullscreenenter"",""0"",""1382""
","
","
","""event"",""trial"",""time""
""fullscreenenter"",""0"",""1382""
","
","null","run_exp/static/images/Set 6_rs/047a.jpg","null","","","","","","test","TF",""
"","html-keyboard-response","335","469975","0.0-257.0-2.0","""event"",""trial"",""time""
""fullscreenenter"",""0"",""1382""
","
","
","""event"",""trial"",""time""
""fullscreenenter"",""0"",""1382""
","
","null","<p></p>","null","","","","","","","",""
"","image","336","471136","0.0-258.0-0.0","""event"",""trial"",""time""
""fullscreenenter"",""0"",""1382""
","
","
","""event"",""trial"",""time""
""fullscreenenter"",""0"",""1382""
","
","1158.2000000029802","run_exp/static/images/Set 6_rs/077a.jpg","78","","","","","","test","TF","3"
"","show_choice","337","471640","0.0-258.0-1.0","""event"",""trial"",""time""
""fullscreenenter"",""0"",""1382""
","
","
","""event"",""trial"",""time""
""fullscreenenter"",""0"",""1382""
","
","null","run_exp/static/images/Set 6_rs/077a.jpg","null","","","","","","test","TF",""
"","html-keyboard-response","338","472144","0.0-258.0-2.0","""event"",""trial"",""time""
""fullscreenenter"",""0"",""1382""
","
","
","""event"",""trial"",""time""
""fullscreenenter"",""0"",""1382""
","
","null","<p></p>","null","","","","","","","",""
"","image","339","473112","0.0-259.0-0.0","""event"",""trial"",""time""
""fullscreenenter"",""0"",""1382""
","
","
","""event"",""trial"",""time""
""fullscreenenter"",""0"",""1382""
","
","966.2000000029802","run_exp/static/images/Set 6_rs/071b.jpg","66","","","","","","test","TL","4"
"","show_choice","340","473615","0.0-259.0-1.0","""event"",""trial"",""time""
""fullscreenenter"",""0"",""1382""
","
","
","""event"",""trial"",""time""
""fullscreenenter"",""0"",""1382""
","
