"success","trial_type","trial_index","time_elapsed","internal_node_id","interactions","blur_events","focus_events","fullscreenenter_events","fullscreenexit_events","rt","stimulus","key_press","subject_id","participant_id","age","gender","prompt","phase","condition","lure_bin"
"true","fullscreen","0","2665","0.0-0.0","""event"",""trial"",""time""
""fullscreenenter"",""0"",""1688""
","
","
","""event"",""trial"",""time""
""fullscreenenter"",""0"",""1688""
","
","","","","","","","","","","",""
"","pavlovia","1","2670","0.0-1.0","""event"",""trial"",""time""
""fullscreenenter"",""0"",""1688""
","
","
","""event"",""trial"",""time""
""fullscreenenter"",""0"",""1688""
","
","","","","","","","","","","",""
"","welcome","2","37498","0.0-2.0","""event"",""trial"",""time""
""fullscreenenter"",""0"",""1688""
","
","
","""event"",""trial"",""time""
""fullscreenenter"",""0"",""1688""
","
","null","run_exp/static/audio/clip_1_welcome.m4a","null","482","392","18","Female","<div class='center'><p>Welcome to the third part of the study! First, you'll be shown pictures of items one at a time. For each picture, you have to decide if the item is typically found indoors or outdoors.</p><p>If you think it's usually found indoors, then press <b>v</b> key on your keyboard. If you think it's usually found outdoors, then press the <b>n</b> key.There will be reminders on the screen to help you remember which keys to press. </p><p>If you're not sure whether the item is an indoor item or an outdoor item, go ahead and take a guess but try your best not to skip that choice. </p></div>","","",""
"","html-keyboard-response","3","39786","0.0-3.0","""event"",""trial"",""time""
""fullscreenenter"",""0"",""1688""
","
","
","""event"",""trial"",""time""
""fullscreenenter"",""0"",""1688""
","
","2286.5999999940395","<div class='center'><p>Welcome to the third part of the study! First, you'll be shown pictures of items one at a time. For each picture, you have to decide if the item is typically found indoors or outdoors.</p><p>If you think it's usually found indoors, then press <b>v</b> key on your keyboard. If you think it's usually found outdoors, then press the <b>n</b> key.There will be reminders on the screen to help you remember which keys to press. </p><p>If you're not sure whether the item is an indoor item or an outdoor item, go ahead and take a guess but try your best not to skip that choice. </p><div><p><b>[Press the space bar to continue]</b></p></div>","32","","","","","","","",""
"","image","4","41793","0.0-4.0","""event"",""trial"",""time""
""fullscreenenter"",""0"",""1688""
","
","
","""event"",""trial"",""time""
""fullscreenenter"",""0"",""1688""
","
","null","run_exp/static/images/Set 6_rs/091a.jpg","null","","","","","","learn","SL",""
"","show_choice","5","43800","0.0-5.0","""event"",""trial"",""time""
""fullscreenenter"",""0"",""1688""
","
","
","""event"",""trial"",""time""
""fullscreenenter"",""0"",""1688""
","
","null","run_exp/static/images/blank.png","null","","","","","","learn","SL",""
"","html-keyboard-response","6","44303","0.0-6.0","""event"",""trial"",""time""
""fullscreenenter"",""0"",""1688""
","
","
","""event"",""trial"",""time""
""fullscreenenter"",""0"",""1688""
","
","null","<p></p>","null","","","","","","","",""
"","image","7","45728","0.0-7.0","""event"",""trial"",""time""
""fullscreenenter"",""0"",""1688""
","
","
","""event"",""trial"",""time""
""fullscreenenter"",""0"",""1688""
","
","1422.699999988079","run_exp/static/images/Set 6_rs/187a.jpg","86","","","","","","learn","SR",""
"","show_choice","8","46310","0.0-8.0","""event"",""trial"",""time""
""fullscreenenter"",""0"",""1688""
","
","
","""event"",""trial"",""time""
""fullscreenenter"",""0"",""1688""
","
","null","run_exp/static/images/Set 6_rs/187a.jpg","null","","","","","","learn","SR",""
"","html-keyboard-response","9","46813","0.0-9.0","""event"",""trial"",""time""
""fullscreenenter"",""0"",""1688""
","
","
","""event"",""trial"",""time""
""fullscreenenter"",""0"",""1688""
","
","null","<p></p>","null","","","","","","","",""
"","image","10","48090","0.0-10.0","""event"",""trial"",""time""
""fullscreenenter"",""0"",""1688""
","
","
","""event"",""trial"",""time""
""fullscreenenter"",""0"",""1688""
","
","1275.199999988079","run_exp/static/images/Set 6_rs/144a.jpg","86","","","","","","learn","SL",""
"","show_choice","11","48815","0.0-11.0","""event"",""trial"",""time""
""fullscreenenter"",""0"",""1688""
","
","
","""event"",""trial"",""time""
""fullscreenenter"",""0"",""1688""
","
","null","run_exp/static/images/Set 6_rs/144a.jpg","null","","","","","","learn","SL",""
"","html-keyboard-response","12","49319","0.0-12.0","""event"",""trial"",""time""
""fullscreenenter"",""0"",""1688""
","
","
","""event"",""trial"",""time""
""fullscreenenter"",""0"",""1688""
","
","null","<p></p>","null","","","","","","","",""
"","image","13","50417","0.0-13.0","""event"",""trial"",""time""
""fullscreenenter"",""0"",""1688""
","
","
","""event"",""trial"",""time""
""fullscreenenter"",""0"",""1688""
","
","1096.5999999940395","run_exp/static/images/Set 6_rs/132a.jpg","78","","","","","","learn","SR",""
"","show_choice","14","51325","0.0-14.0","""event"",""trial"",""time""
""fullscreenenter"",""0"",""1688""
","
","
","""event"",""trial"",""time""
""fullscreenenter"",""0"",""1688""
","
","null","run_exp/static/images/Set 6_rs/132a.jpg","null","","","","","","learn","SR",""
"","html-keyboard-response","15","51826","0.0-15.0","""event"",""trial"",""time""
""fullscreenenter"",""0"",""1688""
","
","
","""event"",""trial"",""time""
""fullscreenenter"",""0"",""1688""
","
","null","<p></p>","null","","","","","","","",""
"","image","16","52863","0.0-16.0","""event"",""trial"",""time""
""fullscreenenter"",""0"",""1688""
","
","
","""event"",""trial"",""time""
""fullscreenenter"",""0"",""1688""
","
","1035.2000000178814","run_exp/static/images/Set 6_rs/006a.jpg","86","","","","","","learn","SL",""
"","show_choice","17","53831","0.0-17.0","""event"",""trial"",""time""
""fullscreenenter"",""0"",""1688""
","
","
","""event"",""trial"",""time""
""fullscreenenter"",""0"",""1688""
","
","null","run_exp/static/images/Set 6_rs/006a.jpg","null","","","","","","learn","SL",""
"","html-keyboard-response","18","54335","0.0-18.0","""event"",""trial"",""time""
""fullscreenenter"",""0"",""1688""
","
","
","""event"",""trial"",""time""
""fullscreenenter"",""0"",""1688""
","
","null","<p></p>","null","","","","","","","",""
"","image","19","55050","0.0-19.0","""event"",""trial"",""time""
""fullscreenenter"",""0"",""1688""
","
","
","""event"",""trial"",""time""
""fullscreenenter"",""0"",""1688""
","
","713.7999999821186","run_exp/static/images/Set 6_rs/024a.jpg","86","","","","","","learn","SR",""
"","show_choice","20","56338","0.0-20.0","""event"",""trial"",""time""
""fullscreenenter"",""0"",""1688""
","
","
","""event"",""trial"",""time""
""fullscreenenter"",""0"",""1688""
","
","null","run_exp/static/images/Set 6_rs/024a.jpg","null","","","","","","learn","SR",""
"","html-keyboard-response","21","56844","0.0-21.0","""event"",""trial"",""time""
""fullscreenenter"",""0"",""1688""
","
","
","""event"",""trial"",""time""
""fullscreenenter"",""0"",""1688""
","
","null","<p></p>","null","","","","","","","",""
"","image","22","58235","0.0-22.0","""event"",""trial"",""time""
""fullscreenenter"",""0"",""1688""
","
","
","""event"",""trial"",""time""
""fullscreenenter"",""0"",""1688""
","
","1389.7000000178814","run_exp/static/images/Set 6_rs/134a.jpg","86","","","","","","learn","SR",""
"","show_choice","23","58848","0.0-23.0","""event"",""trial"",""time""
""fullscreenenter"",""0"",""1688""
","
","
","""event"",""trial"",""time""
""fullscreenenter"",""0"",""1688""
","
","null","run_exp/static/images/Set 6_rs/134a.jpg","null","","","","","","learn","SR",""
"","html-keyboard-response","24","59351","0.0-24.0","""event"",""trial"",""time""
""fullscreenenter"",""0"",""1688""
","
","
","""event"",""trial"",""time""
""fullscreenenter"",""0"",""1688""
","
","null","<p></p>","null","","","","","","","",""
"","image","25","60231","0.0-25.0","""event"",""trial"",""time""
""fullscreenenter"",""0"",""1688""
","
","
","""event"",""trial"",""time""
""fullscreenenter"",""0"",""1688""
","
","878","run_exp/static/images/Set 6_rs/079a.jpg","86","","","","","","learn","SL",""
"","show_choice","26","61358","0.0-26.0","""event"",""trial"",""time""
""fullscreenenter"",""0"",""1688""
","
","
","""event"",""trial"",""time""
""fullscreenenter"",""0"",""1688""
","
","null","run_exp/static/images/Set 6_rs/079a.jpg","null","","","","","","learn","SL",""
"","html-keyboard-response","27","61864","0.0-27.0","""event"",""trial"",""time""
""fullscreenenter"",""0"",""1688""
","
","
","""event"",""trial"",""time""
""fullscreenenter"",""0"",""1688""
","
","null","<p></p>","null","","","","","","","",""
"","image","28","62969","0.0-28.0","""event"",""trial"",""time""
""fullscreenenter"",""0"",""1688""
","
","
","""event"",""trial"",""time""
""fullscreenenter"",""0"",""1688""
","
","1103.5","run_exp/static/images/Set 6_rs/095a.jpg","86","","","","","","learn","SL",""
"","show_choice","29","63871","0.0-29.0","""event"",""trial"",""time""
""fullscreenenter"",""0"",""1688""
","
","
","""event"",""trial"",""time""
""fullscreenenter"",""0"",""1688""
","
","null","run_exp/static/images/Set 6_rs/095a.jpg","null","","","","","","learn","SL",""
"","html-keyboard-response","30","64377","0.0-30.0","""event"",""trial"",""time""
""fullscreenenter"",""0"",""1688""
","
","
","""event"",""trial"",""time""
""fullscreenenter"",""0"",""1688""
","
","null","<p></p>","null","","","","","","","",""
"","image","31","65307","0.0-31.0","""event"",""trial"",""time""
""fullscreenenter"",""0"",""1688""
","
","
","""event"",""trial"",""time""
""fullscreenenter"",""0"",""1688""
","
","928.0999999940395","run_exp/static/images/Set 6_rs/121a.jpg","86","","","","","","learn","SR",""
"","show_choice","32","66381","0.0-32.0","""event"",""trial"",""time""
""fullscreenenter"",""0"",""1688""
","
","
","""event"",""trial"",""time""
""fullscreenenter"",""0"",""1688""
","
","null","run_exp/static/images/Set 6_rs/121a.jpg","null","","","","","","learn","SR",""
"","html-keyboard-response","33","66883","0.0-33.0","""event"",""trial"",""time""
""fullscreenenter"",""0"",""1688""
","
","
","""event"",""trial"",""time""
""fullscreenenter"",""0"",""1688""
","
","null","<p></p>","null","","","","","","","",""
"","image","34","67897","0.0-34.0","""event"",""trial"",""time""
""fullscreenenter"",""0"",""1688""
","
","
","""event"",""trial"",""time""
""fullscreenenter"",""0"",""1688""
","
","1011.7000000178814","run_exp/static/images/Set 6_rs/122a.jpg","86","","","","","","learn","SR",""
"","show_choice","35","68890","0.0-35.0","""event"",""trial"",""time""
""fullscreenenter"",""0"",""1688""
","
","
","""event"",""trial"",""time""
""fullscreenenter"",""0"",""1688""
","
","null","run_exp/static/images/Set 6_rs/122a.jpg","null","","","","","","learn","SR",""
"","html-keyboard-response","36","69393","0.0-36.0","""event"",""trial"",""time""
""fullscreenenter"",""0"",""1688""
","
","
","""event"",""trial"",""time""
""fullscreenenter"",""0"",""1688""
","
","null","<p></p>","null","","","","","","","",""
"","image","37","70195","0.0-37.0","""event"",""trial"",""time""
""fullscreenenter"",""0"",""1688""
","
","
","""event"",""trial"",""time""
""fullscreenenter"",""0"",""1688""
","
","800.8000000119209","run_exp/static/images/Set 6_rs/045a.jpg","86","","","","","","learn","SR",""
"","show_choice","38","71399","0.0-38.0","""event"",""trial"",""time""
""fullscreenenter"",""0"",""1688""
","
","
","""event"",""trial"",""time""
""fullscreenenter"",""0"",""1688""
","
","null","run_exp/static/images/Set 6_rs/045a.jpg","null","","","","","","learn","SR",""
"","html-keyboard-response","39","71905","0.0-39.0","""event"",""trial"",""time""
""fullscreenenter"",""0"",""1688""
","
","
","""event"",""trial"",""time""
""fullscreenenter"",""0"",""1688""
","
","null","<p></p>","null","","","","","","","",""
"","image","40","73011","0.0-40.0","""event"",""trial"",""time""
""fullscreenenter"",""0"",""1688""
","
","
","""event"",""trial"",""time""
""fullscreenenter"",""0"",""1688""
","
","1104.9000000059605","run_exp/static/images/Set 6_rs/167a.jpg","78","","","","","","learn","SL",""
"","show_choice","41","73912","0.0-41.0","""event"",""trial"",""time""
""fullscreenenter"",""0"",""1688""
","
","
","""event"",""trial"",""time""
""fullscreenenter"",""0"",""1688""
","
","null","run_exp/static/images/Set 6_rs/167a.jpg","null","","","","","","learn","SL",""
"","html-keyboard-response","42","74414","0.0-42.0","""event"",""trial"",""time""
""fullscreenenter"",""0"",""1688""
","
","
","""event"",""trial"",""time""
""fullscreenenter"",""0"",""1688""
","
","null","<p></p>","null","","","","","","","",""
"","image","43","75443","0.0-43.0","""event"",""trial"",""time""
""fullscreenenter"",""0"",""1688""
","
","
","""event"",""trial"",""time""
""fullscreenenter"",""0"",""1688""
","
","1027.0999999940395","run_exp/static/images/Set 6_rs/016a.jpg","86","","","","","","learn","SL",""
"","show_choice","44","76421","0.0-44.0","""event"",""trial"",""time""
""fullscreenenter"",""0"",""1688""
","
","
","""event"",""trial"",""time""
""fullscreenenter"",""0"",""1688""
","
","null","run_exp/static/images/Set 6_rs/016a.jpg","null","","","","","","learn","SL",""
"","html-keyboard-response","45","76923","0.0-45.0","""event"",""trial"",""time""
""fullscreenenter"",""0"",""1688""
","
","
","""event"",""trial"",""time""
""fullscreenenter"",""0"",""1688""
","
","null","<p></p>","null","","","","","","","",""
"","image","46","77956","0.0-46.0","""event"",""trial"",""time""
""fullscreenenter"",""0"",""1688""
","
","
","""event"",""trial"",""time""
""fullscreenenter"",""0"",""1688""
","
","1031","run_exp/static/images/Set 6_rs/062a.jpg","86","","","","","","learn","SL",""
"","show_choice","47","78929","0.0-47.0","""event"",""trial"",""time""
""fullscreenenter"",""0"",""1688""
","
","
","""event"",""trial"",""time""
""fullscreenenter"",""0"",""1688""
","
","null","run_exp/static/images/Set 6_rs/062a.jpg","null","","","","","","learn","SL",""
"","html-keyboard-response","48","79435","0.0-48.0","""event"",""trial"",""time""
""fullscreenenter"",""0"",""1688""
","
","
","""event"",""trial"",""time""
""fullscreenenter"",""0"",""1688""
","
","null","<p></p>","null","","","","","","","",""
"","image","49","80886","0.0-49.0","""event"",""trial"",""time""
""fullscreenenter"",""0"",""1688""
","
","
","""event"",""trial"",""time""
""fullscreenenter"",""0"",""1688""
","
","1449","run_exp/static/images/Set 6_rs/168a.jpg","78","","","","","","learn","SL",""
"","show_choice","50","81442","0.0-50.0","""event"",""trial"",""time""
""fullscreenenter"",""0"",""1688""
","
","
","""event"",""trial"",""time""
""fullscreenenter"",""0"",""1688""
","
","null","run_exp/static/images/Set 6_rs/168a.jpg","null","","","","","","learn","SL",""
"","html-keyboard-response","51","81945","0.0-51.0","""event"",""trial"",""time""
""fullscreenenter"",""0"",""1688""
","
","
","""event"",""trial"",""time""
""fullscreenenter"",""0"",""1688""
","
","null","<p></p>","null","","","","","","","",""
"","image","52","82716","0.0-52.0","""event"",""trial"",""time""
""fullscreenenter"",""0"",""1688""
","
","
","""event"",""trial"",""time""
""fullscreenenter"",""0"",""1688""
","
","769.5","run_exp/static/images/Set 6_rs/063a.jpg","86","","","","","","learn","SR",""
"","show_choice","53","83947","0.0-53.0","""event"",""trial"",""time""
""fullscreenenter"",""0"",""1688""
","
","
","""event"",""trial"",""time""
""fullscreenenter"",""0"",""1688""
","
","null","run_exp/static/images/Set 6_rs/063a.jpg","null","","","","","","learn","SR",""
"","html-keyboard-response","54","84454","0.0-54.0","""event"",""trial"",""time""
""fullscreenenter"",""0"",""1688""
","
","
","""event"",""trial"",""time""
""fullscreenenter"",""0"",""1688""
","
","null","<p></p>","null","","","","","","","",""
"","image","55","85819","0.0-55.0","""event"",""trial"",""time""
""fullscreenenter"",""0"",""1688""
","
","
","""event"",""trial"",""time""
""fullscreenenter"",""0"",""1688""
","
","1363.699999988079","run_exp/static/images/Set 6_rs/150a.jpg","86","","","","","","learn","SR",""
"","show_choice","56","86457","0.0-56.0","""event"",""trial"",""time""
""fullscreenenter"",""0"",""1688""
","
","
","""event"",""trial"",""time""
""fullscreenenter"",""0"",""1688""
","
","null","run_exp/static/images/Set 6_rs/150a.jpg","null","","","","","","learn","SR",""
"","html-keyboard-response","57","86960","0.0-57.0","""event"",""trial"",""time""
""fullscreenenter"",""0"",""1688""
","
","
","""event"",""trial"",""time""
""fullscreenenter"",""0"",""1688""
","
","null","<p></p>","null","","","","","","","",""
"","image","58","88099","0.0-58.0","""event"",""trial"",""time""
""fullscreenenter"",""0"",""1688""
","
","
","""event"",""trial"",""time""
""fullscreenenter"",""0"",""1688""
","
","1137.2999999821186","run_exp/static/images/Set 6_rs/064a.jpg","86","","","","","","learn","SR",""
"","show_choice","59","88964","0.0-59.0","""event"",""trial"",""time""
""fullscreenenter"",""0"",""1688""
","
","
","""event"",""trial"",""time""
""fullscreenenter"",""0"",""1688""
","
","null","run_exp/static/images/Set 6_rs/064a.jpg","null","","","","","","learn","SR",""
"","html-keyboard-response","60","89470","0.0-60.0","""event"",""trial"",""time""
""fullscreenenter"",""0"",""1688""
","
","
","""event"",""trial"",""time""
""fullscreenenter"",""0"",""1688""
","
","null","<p></p>","null","","","","","","","",""
"","image","61","90721","0.0-61.0","""event"",""trial"",""time""
""fullscreenenter"",""0"",""1688""
","
","
","""event"",""trial"",""time""
""fullscreenenter"",""0"",""1688""
","
","1249.3999999761581","run_exp/static/images/Set 6_rs/075a.jpg","86","","","","","","learn","SR",""
"","show_choice","62","91473","0.0-62.0","""event"",""trial"",""time""
""fullscreenenter"",""0"",""1688""
","
","
","""event"",""trial"",""time""
""fullscreenenter"",""0"",""1688""
","
","null","run_exp/static/images/Set 6_rs/075a.jpg","null","","","","","","learn","SR",""
"","html-keyboard-response","63","91980","0.0-63.0","""event"",""trial"",""time""
""fullscreenenter"",""0"",""1688""
","
","
","""event"",""trial"",""time""
""fullscreenenter"",""0"",""1688""
","
","null","<p></p>","null","","","","","","","",""
"","image","64","93057","0.0-64.0","""event"",""trial"",""time""
""fullscreenenter"",""0"",""1688""
","
","
","""event"",""trial"",""time""
""fullscreenenter"",""0"",""1688""
","
","1075.2999999821186","run_exp/static/images/Set 6_rs/126a.jpg","78","","","","","","learn","SR",""
"","show_choice","65","93983","0.0-65.0","""event"",""trial"",""time""
""fullscreenenter"",""0"",""1688""
","
","
","""event"",""trial"",""time""
""fullscreenenter"",""0"",""1688""
","
","null","run_exp/static/images/Set 6_rs/126a.jpg","null","","","","","","learn","SR",""
"","html-keyboard-response","66","94489","0.0-66.0","""event"",""trial"",""time""
""fullscreenenter"",""0"",""1688""
","
","
","""event"",""trial"",""time""
""fullscreenenter"",""0"",""1688""
","
","null","<p></p>","null","","","","","","","",""
"","image","67","96100","0.0-67.0","""event"",""trial"",""time""
""fullscreenenter"",""0"",""1688""
","
","
","""event"",""trial"",""time""
""fullscreenenter"",""0"",""1688""
","
","1609.300000011921","run_exp/static/images/Set 6_rs/066a.jpg","86","","","","","","learn","SL",""
"","show_choice","68","96495","0.0-68.0","""event"",""trial"",""time""
""fullscreenenter"",""0"",""1688""
","
","
","""event"",""trial"",""time""
""fullscreenenter"",""0"",""1688""
","
","null","run_exp/static/images/Set 6_rs/066a.jpg","null","","","","","","learn","SL",""
"","html-keyboard-response","69","96998","0.0-69.0","""event"",""trial"",""time""
""fullscreenenter"",""0"",""1688""
","
","
","""event"",""trial"",""time""
""fullscreenenter"",""0"",""1688""
","
","null","<p></p>","null","","","","","","","",""
"","image","70","98485","0.0-70.0","""event"",""trial"",""time""
""fullscreenenter"",""0"",""1688""
","
","
","""event"",""trial"",""time""
""fullscreenenter"",""0"",""1688""
","
","1485","run_exp/static/images/Set 6_rs/008a.jpg","78","","","","","","learn","SL",""
"","show_choice","71","99004","0.0-71.0","""event"",""trial"",""time""
""fullscreenenter"",""0"",""1688""
","
","
","""event"",""trial"",""time""
""fullscreenenter"",""0"",""1688""
","
","null","run_exp/static/images/Set 6_rs/008a.jpg","null","","","","","","learn","SL",""
"","html-keyboard-response","72","99510","0.0-72.0","""event"",""trial"",""time""
""fullscreenenter"",""0"",""1688""
","
","
","""event"",""trial"",""time""
""fullscreenenter"",""0"",""1688""
","
","null","<p></p>","null","","","","","","","",""
"","image","73","100568","0.0-73.0","""event"",""trial"",""time""
""fullscreenenter"",""0"",""1688""
","
","
","""event"",""trial"",""time""
""fullscreenenter"",""0"",""1688""
","
","1056.6000000238419","run_exp/static/images/Set 6_rs/023a.jpg","86","","","","","","learn","SR",""
"","show_choice","74","101512","0.0-74.0","""event"",""trial"",""time""
""fullscreenenter"",""0"",""1688""
","
","
","""event"",""trial"",""time""
""fullscreenenter"",""0"",""1688""
","
","null","run_exp/static/images/Set 6_rs/023a.jpg","null","","","","","","learn","SR",""
"","html-keyboard-response","75","102017","0.0-75.0","""event"",""trial"",""time""
""fullscreenenter"",""0"",""1688""
","
","
","""event"",""trial"",""time""
""fullscreenenter"",""0"",""1688""
","
","null","<p></p>","null","","","","","","","",""
"","image","76","102920","0.0-76.0","""event"",""trial"",""time""
""fullscreenenter"",""0"",""1688""
","
","
","""event"",""trial"",""time""
""fullscreenenter"",""0"",""1688""
","
","901.5999999940395","run_exp/static/images/Set 6_rs/152a.jpg","86","","","","","","learn","SR",""
"","show_choice","77","104023","0.0-77.0","""event"",""trial"",""time""
""fullscreenenter"",""0"",""1688""
","
","
","""event"",""trial"",""time""
""fullscreenenter"",""0"",""1688""
","
","null","run_exp/static/images/Set 6_rs/152a.jpg","null","","","","","","learn","SR",""
"","html-keyboard-response","78","104527","0.0-78.0","""event"",""trial"",""time""
""fullscreenenter"",""0"",""1688""
","
","
","""event"",""trial"",""time""
""fullscreenenter"",""0"",""1688""
","
","null","<p></p>","null","","","","","","","",""
"","image","79","105440","0.0-79.0","""event"",""trial"",""time""
""fullscreenenter"",""0"",""1688""
","
","
","""event"",""trial"",""time""
""fullscreenenter"",""0"",""1688""
","
","911.8000000119209","run_exp/static/images/Set 6_rs/050a.jpg","86","","","","","","learn","SL",""
"","show_choice","80","106530","0.0-80.0","""event"",""trial"",""time""
""fullscreenenter"",""0"",""1688""
","
","
","""event"",""trial"",""time""
""fullscreenenter"",""0"",""1688""
","
","null","run_exp/static/images/Set 6_rs/050a.jpg","null","","","","","","learn","SL",""
"","html-keyboard-response","81","107033","0.0-81.0","""event"",""trial"",""time""
""fullscreenenter"",""0"",""1688""
","
","
","""event"",""trial"",""time""
""fullscreenenter"",""0"",""1688""
","
","null","<p></p>","null","","","","","","","",""
"","image","82","107974","0.0-82.0","""event"",""trial"",""time""
""fullscreenenter"",""0"",""1688""
","
","
","""event"",""trial"",""time""
""fullscreenenter"",""0"",""1688""
","
","939.1999999880791","run_exp/static/images/Set 6_rs/154a.jpg","86","","","","","","learn","SR",""
"","show_choice","83","109040","0.0-83.0","""event"",""trial"",""time""
""fullscreenenter"",""0"",""1688""
","
","
","""event"",""trial"",""time""
""fullscreenenter"",""0"",""1688""
","
","null","run_exp/static/images/Set 6_rs/154a.jpg","null","","","","","","learn","SR",""
"","html-keyboard-response","84","109546","0.0-84.0","""event"",""trial"",""time""
""fullscreenenter"",""0"",""1688""
","
","
","""event"",""trial"",""time""
""fullscreenenter"",""0"",""1688""
","
","null","<p></p>","null","","","","","","","",""
"","image","85","110628","0.0-85.0","""event"",""trial"",""time""
""fullscreenenter"",""0"",""1688""
","
","
","""event"",""trial"",""time""
""fullscreenenter"",""0"",""1688""
","
","1080.0999999940395","run_exp/static/images/Set 6_rs/076a.jpg","78","","","","","","learn","SR",""
"","show_choice","86","111548","0.0-86.0","""event"",""trial"",""time""
""fullscreenenter"",""0"",""1688""
","
","
","""event"",""trial"",""time""
""fullscreenenter"",""0"",""1688""
","
","null","run_exp/static/images/Set 6_rs/076a.jpg","null","","","","","","learn","SR",""
"","html-keyboard-response","87","112053","0.0-87.0","""event"",""trial"",""time""
""fullscreenenter"",""0"",""1688""
","
","
","""event"",""trial"",""time""
""fullscreenenter"",""0"",""1688""
","
","null","<p></p>","null","","","","","","","",""
"","image","88","112979","0.0-88.0","""event"",""trial"",""time""
""fullscreenenter"",""0"",""1688""
","
","
","""event"",""trial"",""time""
""fullscreenenter"",""0"",""1688""
","
","924.0999999940395","run_exp/static/images/Set 6_rs/186a.jpg","86","","","","","","learn","SR",""
"","show_choice","89","114057","0.0-89.0","""event"",""trial"",""time""
""fullscreenenter"",""0"",""1688""
","
","
","""event"",""trial"",""time""
""fullscreenenter"",""0"",""1688""
","
","null","run_exp/static/images/Set 6_rs/186a.jpg","null","","","","","","learn","SR",""
"","html-keyboard-response","90","114562","0.0-90.0","""event"",""trial"",""time""
""fullscreenenter"",""0"",""1688""
","
","
","""event"",""trial"",""time""
""fullscreenenter"",""0"",""1688""
","
","null","<p></p>","null","","","","","","","",""
"","image","91","115455","0.0-91.0","""event"",""trial"",""time""
""fullscreenenter"",""0"",""1688""
","
","
","""event"",""trial"",""time""
""fullscreenenter"",""0"",""1688""
","
","891","run_exp/static/images/Set 6_rs/177a.jpg","78","","","","","","learn","SR",""
"","show_choice","92","116569","0.0-92.0","""event"",""trial"",""time""
""fullscreenenter"",""0"",""1688""
","
","
","""event"",""trial"",""time""
""fullscreenenter"",""0"",""1688""
","
","null","run_exp/static/images/Set 6_rs/177a.jpg","null","","","","","","learn","SR",""
"","html-keyboard-response","93","117075","0.0-93.0","""event"",""trial"",""time""
""fullscreenenter"",""0"",""1688""
","
","
","""event"",""trial"",""time""
""fullscreenenter"",""0"",""1688""
","
","null","<p></p>","null","","","","","","","",""
"","image","94","117939","0.0-94.0","""event"",""trial"",""time""
""fullscreenenter"",""0"",""1688""
","
","
","""event"",""trial"",""time""
""fullscreenenter"",""0"",""1688""
","
","862","run_exp/static/images/Set 6_rs/057a.jpg","86","","","","","","learn","SL",""
"","show_choice","95","119078","0.0-95.0","""event"",""trial"",""time""
""fullscreenenter"",""0"",""1688""
","
","
","""event"",""trial"",""time""
""fullscreenenter"",""0"",""1688""
","
","null","run_exp/static/images/Set 6_rs/057a.jpg","null","","","","","","learn","SL",""
"","html-keyboard-response","96","119581","0.0-96.0","""event"",""trial"",""time""
""fullscreenenter"",""0"",""1688""
","
","
","""event"",""trial"",""time""
""fullscreenenter"",""0"",""1688""
","
","null","<p></p>","null","","","","","","","",""
"","image","97","120294","0.0-97.0","""event"",""trial"",""time""
""fullscreenenter"",""0"",""1688""
","
","
","""event"",""trial"",""time""
""fullscreenenter"",""0"",""1688""
","
","711.1999999880791","run_exp/static/images/Set 6_rs/111a.jpg","86","","","","","","learn","SL",""
"","show_choice","98","121588","0.0-98.0","""event"",""trial"",""time""
""fullscreenenter"",""0"",""1688""
","
","
","""event"",""trial"",""time""
""fullscreenenter"",""0"",""1688""
","
","null","run_exp/static/images/Set 6_rs/111a.jpg","null","","","","","","learn","SL",""
"","html-keyboard-response","99","122094","0.0-99.0","""event"",""trial"",""time""
""fullscreenenter"",""0"",""1688""
","
","
","""event"",""trial"",""time""
""fullscreenenter"",""0"",""1688""
","
","null","<p></p>","null","","","","","","","",""
"","image","100","122677","0.0-100.0","""event"",""trial"",""time""
""fullscreenenter"",""0"",""1688""
","
","
","""event"",""trial"",""time""
""fullscreenenter"",""0"",""1688""
","
","581","run_exp/static/images/Set 6_rs/073a.jpg","86","","","","","","learn","SL",""
"","show_choice","101","124099","0.0-101.0","""event"",""trial"",""time""
""fullscreenenter"",""0"",""1688""
","
","
","""event"",""trial"",""time""
""fullscreenenter"",""0"",""1688""
","
","null","run_exp/static/images/Set 6_rs/073a.jpg","null","","","","","","learn","SL",""
"","html-keyboard-response","102","124602","0.0-102.0","""event"",""trial"",""time""
""fullscreenenter"",""0"",""1688""
","
","
","""event"",""trial"",""time""
""fullscreenenter"",""0"",""1688""
","
","null","<p></p>","null","","","","","","","",""
"","image","103","125371","0.0-103.0","""event"",""trial"",""time""
""fullscreenenter"",""0"",""1688""
","
","
","""event"",""trial"",""time""
""fullscreenenter"",""0"",""1688""
","
","767.3000000119209","run_exp/static/images/Set 6_rs/181a.jpg","78","","","","","","learn","SL",""
"","show_choice","104","126609","0.0-104.0","""event"",""trial"",""time""
""fullscreenenter"",""0"",""1688""
","
","
","""event"",""trial"",""time""
""fullscreenenter"",""0"",""1688""
","
","null","run_exp/static/images/Set 6_rs/181a.jpg","null","","","","","","learn","SL",""
"","html-keyboard-response","105","127113","0.0-105.0","""event"",""trial"",""time""
""fullscreenenter"",""0"",""1688""
","
","
","""event"",""trial"",""time""
""fullscreenenter"",""0"",""1688""
","
","null","<p></p>","null","","","","","","","",""
"","image","106","127970","0.0-106.0","""event"",""trial"",""time""
""fullscreenenter"",""0"",""1688""
","
","
","""event"",""trial"",""time""
""fullscreenenter"",""0"",""1688""
","
","855.0999999940395","run_exp/static/images/Set 6_rs/172a.jpg","78","","","","","","learn","SR",""
"","show_choice","107","129116","0.0-107.0","""event"",""trial"",""time""
""fullscreenenter"",""0"",""1688""
","
","
","""event"",""trial"",""time""
""fullscreenenter"",""0"",""1688""
","
","null","run_exp/static/images/Set 6_rs/172a.jpg","null","","","","","","learn","SR",""
"","html-keyboard-response","108","129618","0.0-108.0","""event"",""trial"",""time""
""fullscreenenter"",""0"",""1688""
","
","
","""event"",""trial"",""time""
""fullscreenenter"",""0"",""1688""
","
","null","<p></p>","null","","","","","","","",""
"","image","109","130806","0.0-109.0","""event"",""trial"",""time""
""fullscreenenter"",""0"",""1688""
","
","
","""event"",""trial"",""time""
""fullscreenenter"",""0"",""1688""
","
","1186.699999988079","run_exp/static/images/Set 6_rs/061a.jpg","78","","","","","","learn","SR",""
"","show_choice","110","131621","0.0-110.0","""event"",""trial"",""time""
""fullscreenenter"",""0"",""1688""
","
","
","""event"",""trial"",""time""
""fullscreenenter"",""0"",""1688""
","
","null","run_exp/static/images/Set 6_rs/061a.jpg","null","","","","","","learn","SR",""
"","html-keyboard-response","111","132126","0.0-111.0","""event"",""trial"",""time""
""fullscreenenter"",""0"",""1688""
","
","
","""event"",""trial"",""time""
""fullscreenenter"",""0"",""1688""
","
","null","<p></p>","null","","","","","","","",""
"","image","112","133045","0.0-112.0","""event"",""trial"",""time""
""fullscreenenter"",""0"",""1688""
","
","
","""event"",""trial"",""time""
""fullscreenenter"",""0"",""1688""
","
","918.3000000119209","run_exp/static/images/Set 6_rs/129a.jpg","86","","","","","","learn","SL",""
"","show_choice","113","134132","0.0-113.0","""event"",""trial"",""time""
""fullscreenenter"",""0"",""1688""
","
","
","""event"",""trial"",""time""
""fullscreenenter"",""0"",""1688""
","
","null","run_exp/static/images/Set 6_rs/129a.jpg","null","","","","","","learn","SL",""
"","html-keyboard-response","114","134635","0.0-114.0","""event"",""trial"",""time""
""fullscreenenter"",""0"",""1688""
","
","
","""event"",""trial"",""time""
""fullscreenenter"",""0"",""1688""
","
","null","<p></p>","null","","","","","","","",""
"","image","115","136542","0.0-115.0","""event"",""trial"",""time""
""fullscreenenter"",""0"",""1688""
","
","
","""event"",""trial"",""time""
""fullscreenenter"",""0"",""1688""
","
","1905.6000000238419","run_exp/static/images/Set 6_rs/131a.jpg","78","","","","","","learn","SR",""
"","show_choice","116","136640","0.0-116.0","""event"",""trial"",""time""
""fullscreenenter"",""0"",""1688""
","
","
","""event"",""trial"",""time""
""fullscreenenter"",""0"",""1688""
","
","null","run_exp/static/images/Set 6_rs/131a.jpg","null","","","","","","learn","SR",""
"","html-keyboard-response","117","137145","0.0-117.0","""event"",""trial"",""time""
""fullscreenenter"",""0"",""1688""
","
","
","""event"",""trial"",""time""
""fullscreenenter"",""0"",""1688""
","
","null","<p></p>","null","","","","","","","",""
"","image","118","137979","0.0-118.0","""event"",""trial"",""time""
""fullscreenenter"",""0"",""1688""
","
","
","""event"",""trial"",""time""
""fullscreenenter"",""0"",""1688""
","
","832.5","run_exp/static/images/Set 6_rs/025a.jpg","78","","","","","","learn","SL",""
"","show_choice","119","139149","0.0-119.0","""event"",""trial"",""time""
""fullscreenenter"",""0"",""1688""
","
","
","""event"",""trial"",""time""
""fullscreenenter"",""0"",""1688""
","
","null","run_exp/static/images/Set 6_rs/025a.jpg","null","","","","","","learn","SL",""
"","html-keyboard-response","120","139655","0.0-120.0","""event"",""trial"",""time""
""fullscreenenter"",""0"",""1688""
","
","
","""event"",""trial"",""time""
""fullscreenenter"",""0"",""1688""
","
","null","<p></p>","null","","","","","","","",""
"","image","121","140302","0.0-121.0","""event"",""trial"",""time""
""fullscreenenter"",""0"",""1688""
","
","
","""event"",""trial"",""time""
""fullscreenenter"",""0"",""1688""
","
","644.7000000178814","run_exp/static/images/Set 6_rs/166a.jpg","78","","","","","","learn","SR",""
"","show_choice","122","141662","0.0-122.0","""event"",""trial"",""time""
""fullscreenenter"",""0"",""1688""
","
","
","""event"",""trial"",""time""
""fullscreenenter"",""0"",""1688""
","
","null","run_exp/static/images/Set 6_rs/166a.jpg","null","","","","","","learn","SR",""
"","html-keyboard-response","123","142167","0.0-123.0","""event"",""trial"",""time""
""fullscreenenter"",""0"",""1688""
","
","
","""event"",""trial"",""time""
""fullscreenenter"",""0"",""1688""
","
","null","<p></p>","null","","","","","","","",""
"","image","124","143188","0.0-124.0","""event"",""trial"",""time""
""fullscreenenter"",""0"",""1688""
","
","
","""event"",""trial"",""time""
""fullscreenenter"",""0"",""1688""
","
","1019.9000000059605","run_exp/static/images/Set 6_rs/141a.jpg","78","","","","","","learn","SR",""
"","show_choice","125","144172","0.0-125.0","""event"",""trial"",""time""
""fullscreenenter"",""0"",""1688""
","
","
","""event"",""trial"",""time""
""fullscreenenter"",""0"",""1688""
","
","null","run_exp/static/images/Set 6_rs/141a.jpg","null","","","","","","learn","SR",""
"","html-keyboard-response","126","144678","0.0-126.0","""event"",""trial"",""time""
""fullscreenenter"",""0"",""1688""
","
","
","""event"",""trial"",""time""
""fullscreenenter"",""0"",""1688""
","
","null","<p></p>","null","","","","","","","",""
"","image","127","145371","0.0-127.0","""event"",""trial"",""time""
""fullscreenenter"",""0"",""1688""
","
","
","""event"",""trial"",""time""
""fullscreenenter"",""0"",""1688""
","
","692","run_exp/static/images/Set 6_rs/112a.jpg","86","","","","","","learn","SR",""
"","show_choice","128","146684","0.0-128.0","""event"",""trial"",""time""
""fullscreenenter"",""0"",""1688""
","
","
","""event"",""trial"",""time""
""fullscreenenter"",""0"",""1688""
","
","null","run_exp/static/images/Set 6_rs/112a.jpg","null","","","","","","learn","SR",""
"","html-keyboard-response","129","147189","0.0-129.0","""event"",""trial"",""time""
""fullscreenenter"",""0"",""1688""
","
","
","""event"",""trial"",""time""
""fullscreenenter"",""0"",""1688""
","
","null","<p></p>","null","","","","","","","",""
"","image","130","147974","0.0-130.0","""event"",""trial"",""time""
""fullscreenenter"",""0"",""1688""
","
","
","""event"",""trial"",""time""
""fullscreenenter"",""0"",""1688""
","
","782.8999999761581","run_exp/static/images/Set 6_rs/055a.jpg","86","","","","","","learn","SL",""
"","show_choice","131","149193","0.0-131.0","""event"",""trial"",""time""
""fullscreenenter"",""0"",""1688""
","
","
","""event"",""trial"",""time""
""fullscreenenter"",""0"",""1688""
","
","null","run_exp/static/images/Set 6_rs/055a.jpg","null","","","","","","learn","SL",""
"","html-keyboard-response","132","149698","0.0-132.0","""event"",""trial"",""time""
""fullscreenenter"",""0"",""1688""
","
","
","""event"",""trial"",""time""
""fullscreenenter"",""0"",""1688""
","
","null","<p></p>","null","","","","","","","",""
"","image","133","150649","0.0-133.0","""event"",""trial"",""time""
""fullscreenenter"",""0"",""1688""
","
","
","""event"",""trial"",""time""
""fullscreenenter"",""0"",""1688""
","
","949.5999999940395","run_exp/static/images/Set 6_rs/169a.jpg","78","","","","","","learn","SR",""
"","show_choice","134","151705","0.0-134.0","""event"",""trial"",""time""
""fullscreenenter"",""0"",""1688""
","
","
","""event"",""trial"",""time""
""fullscreenenter"",""0"",""1688""
","
","null","run_exp/static/images/Set 6_rs/169a.jpg","null","","","","","","learn","SR",""
"","html-keyboard-response","135","152211","0.0-135.0","""event"",""trial"",""time""
""fullscreenenter"",""0"",""1688""
","
","
","""event"",""trial"",""time""
""fullscreenenter"",""0"",""1688""
","
","null","<p></p>","null","","","","","","","",""
"","image","136","152903","0.0-136.0","""event"",""trial"",""time""
""fullscreenenter"",""0"",""1688""
","
","
","""event"",""trial"",""time""
""fullscreenenter"",""0"",""1688""
","
","690.7000000178814","run_exp/static/images/Set 6_rs/070a.jpg","86","","","","","","learn","SR",""
"","show_choice","137","154214","0.0-137.0","""event"",""trial"",""time""
""fullscreenenter"",""0"",""1688""
","
","
","""event"",""trial"",""time""
""fullscreenenter"",""0"",""1688""
","
","null","run_exp/static/images/Set 6_rs/070a.jpg","null","","","","","","learn","SR",""
"","html-keyboard-response","138","154720","0.0-138.0","""event"",""trial"",""time""
""fullscreenenter"",""0"",""1688""
","
","
","""event"",""trial"",""time""
""fullscreenenter"",""0"",""1688""
","
","null","<p></p>","null","","","","","","","",""
"","image","139","155610","0.0-139.0","""event"",""trial"",""time""
""fullscreenenter"",""0"",""1688""
","
","
","""event"",""trial"",""time""
""fullscreenenter"",""0"",""1688""
","
","887","run_exp/static/images/Set 6_rs/089a.jpg","86","","","","","","learn","SL",""
"","show_choice","140","156725","0.0-140.0","""event"",""trial"",""time""
""fullscreenenter"",""0"",""1688""
","
","
","""event"",""trial"",""time""
""fullscreenenter"",""0"",""1688""
","
","null","run_exp/static/images/Set 6_rs/089a.jpg","null","","","","","","learn","SL",""
"","html-keyboard-response","141","157230","0.0-141.0","""event"",""trial"",""time""
""fullscreenenter"",""0"",""1688""
","
","
","""event"",""trial"",""time""
""fullscreenenter"",""0"",""1688""
","
","null","<p></p>","null","","","","","","","",""
"","image","142","158332","0.0-142.0","""event"",""trial"",""time""
""fullscreenenter"",""0"",""1688""
","
","
","""event"",""trial"",""time""
""fullscreenenter"",""0"",""1688""
","
","1100.5","run_exp/static/images/Set 6_rs/123a.jpg","78","","","","","","learn","SL",""
"","show_choice","143","159237","0.0-143.0","""event"",""trial"",""time""
""fullscreenenter"",""0"",""1688""
","
","
","""event"",""trial"",""time""
""fullscreenenter"",""0"",""1688""
","
","null","run_exp/static/images/Set 6_rs/123a.jpg","null","","","","","","learn","SL",""
"","html-keyboard-response","144","159743","0.0-144.0","""event"",""trial"",""time""
""fullscreenenter"",""0"",""1688""
","
","
","""event"",""trial"",""time""
""fullscreenenter"",""0"",""1688""
","
","null","<p></p>","null","","","","","","","",""
"","image","145","161342","0.0-145.0","""event"",""trial"",""time""
""fullscreenenter"",""0"",""1688""
","
","
","""event"",""trial"",""time""
""fullscreenenter"",""0"",""1688""
","
","1596.800000011921","run_exp/static/images/Set 6_rs/178a.jpg","78","","","","","","learn","SR",""
"","show_choice","146","161746","0.0-146.0","""event"",""trial"",""time""
""fullscreenenter"",""0"",""1688""
","
","
","""event"",""trial"",""time""
""fullscreenenter"",""0"",""1688""
","
","null","run_exp/static/images/Set 6_rs/178a.jpg","null","","","","","","learn","SR",""
"","html-keyboard-response","147","162250","0.0-147.0","""event"",""trial"",""time""
""fullscreenenter"",""0"",""1688""
","
","
","""event"",""trial"",""time""
""fullscreenenter"",""0"",""1688""
","
","null","<p></p>","null","","","","","","","",""
"","image","148","163168","0.0-148.0","""event"",""trial"",""time""
""fullscreenenter"",""0"",""1688""
","
","
","""event"",""trial"",""time""
""fullscreenenter"",""0"",""1688""
","
","917.0999999940395","run_exp/static/images/Set 6_rs/108a.jpg","78","","","","","","learn","SR",""
"","show_choice","149","164256","0.0-149.0","""event"",""trial"",""time""
""fullscreenenter"",""0"",""1688""
","
","
","""event"",""trial"",""time""
""fullscreenenter"",""0"",""1688""
","
","null","run_exp/static/images/Set 6_rs/108a.jpg","null","","","","","","learn","SR",""
"","html-keyboard-response","150","164763","0.0-150.0","""event"",""trial"",""time""
""fullscreenenter"",""0"",""1688""
","
","
","""event"",""trial"",""time""
""fullscreenenter"",""0"",""1688""
","
","null","<p></p>","null","","","","","","","",""
"","image","151","166276","0.0-151.0","""event"",""trial"",""time""
""fullscreenenter"",""0"",""1688""
","
","
","""event"",""trial"",""time""
""fullscreenenter"",""0"",""1688""
","
","1511.9000000059605","run_exp/static/images/Set 6_rs/074a.jpg","78","","","","","","learn","SL",""
"","show_choice","152","166765","0.0-152.0","""event"",""trial"",""time""
""fullscreenenter"",""0"",""1688""
","
","
","""event"",""trial"",""time""
""fullscreenenter"",""0"",""1688""
","
","null","run_exp/static/images/Set 6_rs/074a.jpg","null","","","","","","learn","SL",""
"","html-keyboard-response","153","167268","0.0-153.0","""event"",""trial"",""time""
""fullscreenenter"",""0"",""1688""
","
","
","""event"",""trial"",""time""
""fullscreenenter"",""0"",""1688""
","
","null","<p></p>","null","","","","","","","",""
"","image","154","168146","0.0-154.0","""event"",""trial"",""time""
""fullscreenenter"",""0"",""1688""
","
","
","""event"",""trial"",""time""
""fullscreenenter"",""0"",""1688""
","
","876.5","run_exp/static/images/Set 6_rs/010a.jpg","86","","","","","","learn","SR",""
"","show_choice","155","169271","0.0-155.0","""event"",""trial"",""time""
""fullscreenenter"",""0"",""1688""
","
","
","""event"",""trial"",""time""
""fullscreenenter"",""0"",""1688""
","
","null","run_exp/static/images/Set 6_rs/010a.jpg","null","","","","","","learn","SR",""
"","html-keyboard-response","156","169777","0.0-156.0","""event"",""trial"",""time""
""fullscreenenter"",""0"",""1688""
","
","
","""event"",""trial"",""time""
""fullscreenenter"",""0"",""1688""
","
","null","<p></p>","null","","","","","","","",""
"","image","157","171633","0.0-157.0","""event"",""trial"",""time""
""fullscreenenter"",""0"",""1688""
","
","
","""event"",""trial"",""time""
""fullscreenenter"",""0"",""1688""
","
","1854.2999999821186","run_exp/static/images/Set 6_rs/191a.jpg","86","","","","","","learn","SL",""
"","show_choice","158","171784","0.0-158.0","""event"",""trial"",""time""
""fullscreenenter"",""0"",""1688""
","
","
","""event"",""trial"",""time""
""fullscreenenter"",""0"",""1688""
","
","null","run_exp/static/images/Set 6_rs/191a.jpg","null","","","","","","learn","SL",""
"","html-keyboard-response","159","172290","0.0-159.0","""event"",""trial"",""time""
""fullscreenenter"",""0"",""1688""
","
","
","""event"",""trial"",""time""
""fullscreenenter"",""0"",""1688""
","
","null","<p></p>","null","","","","","","","",""
"","image","160","173246","0.0-160.0","""event"",""trial"",""time""
""fullscreenenter"",""0"",""1688""
","
","
","""event"",""trial"",""time""
""fullscreenenter"",""0"",""1688""
","
","954.5","run_exp/static/images/Set 6_rs/019a.jpg","86","","","","","","learn","SL",""
"","show_choice","161","174294","0.0-161.0","""event"",""trial"",""time""
""fullscreenenter"",""0"",""1688""
","
","
","""event"",""trial"",""time""
""fullscreenenter"",""0"",""1688""
","
","null","run_exp/static/images/Set 6_rs/019a.jpg","null","","","","","","learn","SL",""
"","html-keyboard-response","162","174795","0.0-162.0","""event"",""trial"",""time""
""fullscreenenter"",""0"",""1688""
","
","
","""event"",""trial"",""time""
""fullscreenenter"",""0"",""1688""
","
","null","<p></p>","null","","","","","","","",""
"","image","163","175542","0.0-163.0","""event"",""trial"",""time""
""fullscreenenter"",""0"",""1688""
","
","
","""event"",""trial"",""time""
""fullscreenenter"",""0"",""1688""
","
","744.8000000119209","run_exp/static/images/Set 6_rs/138a.jpg","78","","","","","","learn","SL",""
"","show_choice","164","176802","0.0-164.0","""event"",""trial"",""time""
""fullscreenenter"",""0"",""1688""
","
","
","""event"",""trial"",""time""
""fullscreenenter"",""0"",""1688""
","
","null","run_exp/static/images/Set 6_rs/138a.jpg","null","","","","","","learn","SL",""
"","html-keyboard-response","165","177307","0.0-165.0","""event"",""trial"",""time""
""fullscreenenter"",""0"",""1688""
","
","
","""event"",""trial"",""time""
""fullscreenenter"",""0"",""1688""
","
","null","<p></p>","null","","","","","","","",""
"","image","166","178242","0.0-166.0","""event"",""trial"",""time""
""fullscreenenter"",""0"",""1688""
","
","
","""event"",""trial"",""time""
""fullscreenenter"",""0"",""1688""
","
","934.4000000059605","run_exp/static/images/Set 6_rs/012a.jpg","86","","","","","","learn","SR",""
"","show_choice","167","179310","0.0-167.0","""event"",""trial"",""time""
""fullscreenenter"",""0"",""1688""
","
","
","""event"",""trial"",""time""
""fullscreenenter"",""0"",""1688""
","
","null","run_exp/static/images/Set 6_rs/012a.jpg","null","","","","","","learn","SR",""
"","html-keyboard-response","168","179812","0.0-168.0","""event"",""trial"",""time""
""fullscreenenter"",""0"",""1688""
","
","
","""event"",""trial"",""time""
""fullscreenenter"",""0"",""1688""
","
","null","<p></p>","null","","","","","","","",""
"","image","169","180642","0.0-169.0","""event"",""trial"",""time""
""fullscreenenter"",""0"",""1688""
","
","
","""event"",""trial"",""time""
""fullscreenenter"",""0"",""1688""
","
","828.4000000059605","run_exp/static/images/Set 6_rs/007a.jpg","86","","","","","","learn","SR",""
"","show_choice","170","181817","0.0-170.0","""event"",""trial"",""time""
""fullscreenenter"",""0"",""1688""
","
","
","""event"",""trial"",""time""
""fullscreenenter"",""0"",""1688""
","
","null","run_exp/static/images/Set 6_rs/007a.jpg","null","","","","","","learn","SR",""
"","html-keyboard-response","171","182322","0.0-171.0","""event"",""trial"",""time""
""fullscreenenter"",""0"",""1688""
","
","
","""event"",""trial"",""time""
""fullscreenenter"",""0"",""1688""
","
","null","<p></p>","null","","","","","","","",""
"","image","172","183851","0.0-172.0","""event"",""trial"",""time""
""fullscreenenter"",""0"",""1688""
","
","
","""event"",""trial"",""time""
""fullscreenenter"",""0"",""1688""
","
","1527.699999988079","run_exp/static/images/Set 6_rs/014a.jpg","86","","","","","","learn","SL",""
"","show_choice","173","184326","0.0-173.0","""event"",""trial"",""time""
""fullscreenenter"",""0"",""1688""
","
","
","""event"",""trial"",""time""
""fullscreenenter"",""0"",""1688""
","
","null","run_exp/static/images/Set 6_rs/014a.jpg","null","","","","","","learn","SL",""
"","html-keyboard-response","174","184830","0.0-174.0","""event"",""trial"",""time""
""fullscreenenter"",""0"",""1688""
","
","
","""event"",""trial"",""time""
""fullscreenenter"",""0"",""1688""
","
","null","<p></p>","null","","","","","","","",""
"","image","175","186772","0.0-175.0","""event"",""trial"",""time""
""fullscreenenter"",""0"",""1688""
","
","
","""event"",""trial"",""time""
""fullscreenenter"",""0"",""1688""
","
","1940.800000011921","run_exp/static/images/Set 6_rs/036a.jpg","86","","","","","","learn","SL",""
"","show_choice","176","186836","0.0-176.0","""event"",""trial"",""time""
""fullscreenenter"",""0"",""1688""
","
","
","""event"",""trial"",""time""
""fullscreenenter"",""0"",""1688""
","
","null","run_exp/static/images/Set 6_rs/036a.jpg","null","","","","","","learn","SL",""
"","html-keyboard-response","177","187342","0.0-177.0","""event"",""trial"",""time""
""fullscreenenter"",""0"",""1688""
","
","
","""event"",""trial"",""time""
""fullscreenenter"",""0"",""1688""
","
","null","<p></p>","null","","","","","","","",""
"","image","178","188238","0.0-178.0","""event"",""trial"",""time""
""fullscreenenter"",""0"",""1688""
","
","
","""event"",""trial"",""time""
""fullscreenenter"",""0"",""1688""
","
","894.4000000059605","run_exp/static/images/Set 6_rs/116a.jpg","86","","","","","","learn","SL",""
"","show_choice","179","189348","0.0-179.0","""event"",""trial"",""time""
""fullscreenenter"",""0"",""1688""
","
","
","""event"",""trial"",""time""
""fullscreenenter"",""0"",""1688""
","
","null","run_exp/static/images/Set 6_rs/116a.jpg","null","","","","","","learn","SL",""
"","html-keyboard-response","180","189854","0.0-180.0","""event"",""trial"",""time""
""fullscreenenter"",""0"",""1688""
","
","
","""event"",""trial"",""time""
""fullscreenenter"",""0"",""1688""
","
","null","<p></p>","null","","","","","","","",""
"","image","181","191365","0.0-181.0","""event"",""trial"",""time""
""fullscreenenter"",""0"",""1688""
","
","
","""event"",""trial"",""time""
""fullscreenenter"",""0"",""1688""
","
","1509","run_exp/static/images/Set 6_rs/071a.jpg","78","","","","","","learn","SL",""
"","show_choice","182","191857","0.0-182.0","""event"",""trial"",""time""
""fullscreenenter"",""0"",""1688""
","
","
","""event"",""trial"",""time""
""fullscreenenter"",""0"",""1688""
","
","null","run_exp/static/images/Set 6_rs/071a.jpg","null","","","","","","learn","SL",""
"","html-keyboard-response","183","192358","0.0-183.0","""event"",""trial"",""time""
""fullscreenenter"",""0"",""1688""
","
","
","""event"",""trial"",""time""
""fullscreenenter"",""0"",""1688""
","
","null","<p></p>","null","","","","","","","",""
"","image","184","194026","0.0-184.0","""event"",""trial"",""time""
""fullscreenenter"",""0"",""1688""
","
","
","""event"",""trial"",""time""
""fullscreenenter"",""0"",""1688""
","
","1666.5","run_exp/static/images/Set 6_rs/017a.jpg","78","","","","","","learn","SL",""
"","show_choice","185","194364","0.0-185.0","""event"",""trial"",""time""
""fullscreenenter"",""0"",""1688""
","
","
","""event"",""trial"",""time""
""fullscreenenter"",""0"",""1688""
","
","null","run_exp/static/images/Set 6_rs/017a.jpg","null","","","","","","learn","SL",""
"","html-keyboard-response","186","194869","0.0-186.0","""event"",""trial"",""time""
""fullscreenenter"",""0"",""1688""
","
","
","""event"",""trial"",""time""
""fullscreenenter"",""0"",""1688""
","
","null","<p></p>","null","","","","","","","",""
"","image","187","196874","0.0-187.0","""event"",""trial"",""time""
""fullscreenenter"",""0"",""1688""
","
","
","""event"",""trial"",""time""
""fullscreenenter"",""0"",""1688""
","
","null","run_exp/static/images/Set 6_rs/085a.jpg","null","","","","","","learn","SL",""
"","show_choice","188","198880","0.0-188.0","""event"",""trial"",""time""
""fullscreenenter"",""0"",""1688""
","
","
","""event"",""trial"",""time""
""fullscreenenter"",""0"",""1688""
","
","null","run_exp/static/images/blank.png","null","","","","","","learn","SL",""
"","html-keyboard-response","189","199386","0.0-189.0","""event"",""trial"",""time""
""fullscreenenter"",""0"",""1688""
","
","
","""event"",""trial"",""time""
""fullscreenenter"",""0"",""1688""
","
","null","<p></p>","null","","","","","","","",""
"","image","190","200246","0.0-190.0","""event"",""trial"",""time""
""fullscreenenter"",""0"",""1688""
","
","
","""event"",""trial"",""time""
""fullscreenenter"",""0"",""1688""
","
","858.4000000059605","run_exp/static/images/Set 6_rs/088a.jpg","86","","","","","","learn","SR",""
"","show_choice","191","201389","0.0-191.0","""event"",""trial"",""time""
""fullscreenenter"",""0"",""1688""
","
","
","""event"",""trial"",""time""
""fullscreenenter"",""0"",""1688""
","
","null","run_exp/static/images/Set 6_rs/088a.jpg","null","","","","","","learn","SR",""
"","html-keyboard-response","192","201891","0.0-192.0","""event"",""trial"",""time""
""fullscreenenter"",""0"",""1688""
","
","
","""event"",""trial"",""time""
""fullscreenenter"",""0"",""1688""
","
","null","<p></p>","null","","","","","","","",""
"","image","193","202659","0.0-193.0","""event"",""trial"",""time""
""fullscreenenter"",""0"",""1688""
","
","
","""event"",""trial"",""time""
""fullscreenenter"",""0"",""1688""
","
","766.9000000059605","run_exp/static/images/Set 6_rs/117a.jpg","86","","","","","","learn","SL",""
"","show_choice","194","203897","0.0-194.0","""event"",""trial"",""time""
""fullscreenenter"",""0"",""1688""
","
","
","""event"",""trial"",""time""
""fullscreenenter"",""0"",""1688""
","
","null","run_exp/static/images/Set 6_rs/117a.jpg","null","","","","","","learn","SL",""
"","html-keyboard-response","195","204402","0.0-195.0","""event"",""trial"",""time""
""fullscreenenter"",""0"",""1688""
","
","
","""event"",""trial"",""time""
""fullscreenenter"",""0"",""1688""
","
","null","<p></p>","null","","","","","","","",""
"","test_intro","196","241262","0.0-196.0","""event"",""trial"",""time""
""fullscreenenter"",""0"",""1688""
","
","
","""event"",""trial"",""time""
""fullscreenenter"",""0"",""1688""
","
","null","run_exp/static/audio/clip_2_memory.m4a","null","","","","","<div class='center'><p>Now, lets see how much you remember about the items you just saw.  For each item, you need to indicate if it was <b>old</b> by pressing the <b>v</b> key, <b>similar</b> by pressing the <b>b</b> key, or <b>new</b> by pressing the <b>n</b> key.</p><p>Old refers to an item that you saw before in the indoor/outdoor game that you just played, new refers to an item you have <b>not</b> seen before within the indoor/outdoor game, and similar refers to an item that is similar to an item youve seen before but is not exactly the same. </p><p>Before we begin, lets go over some brief demonstrations to make sure you understand.</p></div>","","",""
"","html-keyboard-response","197","241995","0.0-197.0","""event"",""trial"",""time""
""fullscreenenter"",""0"",""1688""
","
","
","""event"",""trial"",""time""
""fullscreenenter"",""0"",""1688""
","
","731.6999999880791","<div class='center'><p>Now, lets see how much you remember about the items you just saw.  For each item, you need to indicate if it was <b>old</b> by pressing the <b>v</b> key, <b>similar</b> by pressing the <b>b</b> key, or <b>new</b> by pressing the <b>n</b> key.</p><p>Old refers to an item that you saw before in the indoor/outdoor game that you just played, new refers to an item you have <b>not</b> seen before within the indoor/outdoor game, and similar refers to an item that is similar to an item youve seen before but is not exactly the same. </p><p>Before we begin, lets go over some brief demonstrations to make sure you understand.</p><div><p><b>[Press the space bar to continue]</b></p></div>","32","","","","","","","",""
"","items","198","249500","0.0-198.0","""event"",""trial"",""time""
""fullscreenenter"",""0"",""1688""
","
","
","""event"",""trial"",""time""
""fullscreenenter"",""0"",""1688""
","
","null","run_exp/static/audio/clip_3_items.m4a","null","","","","","","","",""
"","mop","199","254003","0.0-199.0","""event"",""trial"",""time""
""fullscreenenter"",""0"",""1688""
","
","
","""event"",""trial"",""time""
""fullscreenenter"",""0"",""1688""
","
","null","run_exp/static/audio/clip_4_mop.m4a","null","","","","","","","",""
"","baseball","200","257508","0.0-200.0","""event"",""trial"",""time""
""fullscreenenter"",""0"",""1688""
","
","
","""event"",""trial"",""time""
""fullscreenenter"",""0"",""1688""
","
","null","run_exp/static/audio/clip_5_baseball.m4a","null","","","","","","","",""
"","trumpet","201","261012","0.0-201.0","""event"",""trial"",""time""
""fullscreenenter"",""0"",""1688""
","
","
","""event"",""trial"",""time""
""fullscreenenter"",""0"",""1688""
","
","null","run_exp/static/audio/clip_6_trumpet.m4a","null","","","","","","","",""
"","gummies","202","264515","0.0-202.0","""event"",""trial"",""time""
""fullscreenenter"",""0"",""1688""
","
","
","""event"",""trial"",""time""
""fullscreenenter"",""0"",""1688""
","
","null","run_exp/static/audio/clip_7_gummies.m4a","null","","","","","","","",""
"","osn","203","269022","0.0-203.0","""event"",""trial"",""time""
""fullscreenenter"",""0"",""1688""
","
","
","""event"",""trial"",""time""
""fullscreenenter"",""0"",""1688""
","
","null","run_exp/static/audio/clip_8_osn.m4a","null","","","","","","","",""
"","old_1","204","275526","0.0-204.0","""event"",""trial"",""time""
""fullscreenenter"",""0"",""1688""
","
","
","""event"",""trial"",""time""
""fullscreenenter"",""0"",""1688""
","
","null","run_exp/static/audio/clip_9_old_trumpet.m4a","null","","","","","","","",""
"","new_1","205","283032","0.0-205.0","""event"",""trial"",""time""
""fullscreenenter"",""0"",""1688""
","
","
","""event"",""trial"",""time""
""fullscreenenter"",""0"",""1688""
","
","null","run_exp/static/audio/clip_10_new_balloon.m4a","null","","","","","","","",""
"","similar_1a","206","287539","0.0-206.0","""event"",""trial"",""time""
""fullscreenenter"",""0"",""1688""
","
","
","""event"",""trial"",""time""
""fullscreenenter"",""0"",""1688""
","
","null","run_exp/static/audio/clip_11a_similar_mop.m4a","null","","","","","","","",""
"","similar_1b","207","294046","0.0-207.0","""event"",""trial"",""time""
""fullscreenenter"",""0"",""1688""
","
","
","""event"",""trial"",""time""
""fullscreenenter"",""0"",""1688""
","
","null","run_exp/static/audio/clip_11b_similar_mop.m4a","null","","","","","","","",""
"","new_2","208","297549","0.0-208.0","""event"",""trial"",""time""
""fullscreenenter"",""0"",""1688""
","
","
","""event"",""trial"",""time""
""fullscreenenter"",""0"",""1688""
","
","null","run_exp/static/audio/clip_12_new_stoplight.m4a","null","","","","","","","",""
"","old_2","209","301051","0.0-209.0","""event"",""trial"",""time""
""fullscreenenter"",""0"",""1688""
","
","
","""event"",""trial"",""time""
""fullscreenenter"",""0"",""1688""
","
","null","run_exp/static/audio/clip_13_old_baseball.m4a","null","","","","","","","",""
"","similar_2a","210","304557","0.0-210.0","""event"",""trial"",""time""
""fullscreenenter"",""0"",""1688""
","
","
","""event"",""trial"",""time""
""fullscreenenter"",""0"",""1688""
","
","null","run_exp/static/audio/clip_14a_similar_gummies.m4a","null","","","","","","","",""
"","similar_2b","211","312060","0.0-211.0","""event"",""trial"",""time""
""fullscreenenter"",""0"",""1688""
","
","
","""event"",""trial"",""time""
""fullscreenenter"",""0"",""1688""
","
","null","run_exp/static/audio/clip_14b_similar_gummies.m4a","null","","","","","","","",""
"","practice","212","354179","0.0-212.0","""event"",""trial"",""time""
""fullscreenenter"",""0"",""1688""
","
","
","""event"",""trial"",""time""
""fullscreenenter"",""0"",""1688""
","
","null","run_exp/static/audio/clip_15_practice.m4a","null","","","","","<div class='center'><p>Lets practice a little to make sure you understand the difference between new, similar, and old. Lets say you saw these three items in the indoor/outdoor game.</p><p> Try your best to remember these images because youll soon be tested on them in a practice game. In the practice game, youll be shown images and youll have to say if they are old (one of the three images belows), similar (similar to one of the images below but not exactly the same), or new (are not one of the images below nor similar to them).</p><p>Once you press the space bar youll be shown these images again but one at time. Then youll begin the practice game.</p><p><img src='run_exp/static/images/tutorial/test/three_indoor_outdoor.png' height='300'></p></div>","","",""
"","html-keyboard-response","213","356885","0.0-213.0","""event"",""trial"",""time""
""fullscreenenter"",""0"",""1688""
","
","
","""event"",""trial"",""time""
""fullscreenenter"",""0"",""1688""
","
","2705.5","<div class='center'><p>Lets practice a little to make sure you understand the difference between new, similar, and old. Lets say you saw these three items in the indoor/outdoor game.</p><p> Try your best to remember these images because youll soon be tested on them in a practice game. In the practice game, youll be shown images and youll have to say if they are old (one of the three images belows), similar (similar to one of the images below but not exactly the same), or new (are not one of the images below nor similar to them).</p><p>Once you press the space bar youll be shown these images again but one at time. Then youll begin the practice game.</p><p><img src='run_exp/static/images/tutorial/test/three_indoor_outdoor.png' height='300'></p><div><p><b>[Press the space bar to continue]</b></p></div>","32","","","","","","","",""
"","planet","214","358887","0.0-214.0","""event"",""trial"",""time""
""fullscreenenter"",""0"",""1688""
","
","
","""event"",""trial"",""time""
""fullscreenenter"",""0"",""1688""
","
","null","run_exp/static/images/tutorial/test/008a.jpg","null","","","","","","","",""
"","boot","215","360894","0.0-215.0","""event"",""trial"",""time""
""fullscreenenter"",""0"",""1688""
","
","
","""event"",""trial"",""time""
""fullscreenenter"",""0"",""1688""
","
","null","run_exp/static/images/tutorial/test/011a.jpg","null","","","","","","","",""
"","lemon","216","362897","0.0-216.0","""event"",""trial"",""time""
""fullscreenenter"",""0"",""1688""
","
","
","""event"",""trial"",""time""
""fullscreenenter"",""0"",""1688""
","
","null","run_exp/static/images/tutorial/test/018a.jpg","null","","","","","","","",""
"","practice_q1","217","368361","0.0-217.0","""event"",""trial"",""time""
""fullscreenenter"",""0"",""1688""
","
","
","""event"",""trial"",""time""
""fullscreenenter"",""0"",""1688""
","
","5461.200000017881","run_exp/static/audio/clip_16_practice_question.m4a","78","","","","","","","",""
"","correct","218","370264","0.0-218.0-0.0","""event"",""trial"",""time""
""fullscreenenter"",""0"",""1688""
","
","
","""event"",""trial"",""time""
""fullscreenenter"",""0"",""1688""
","
","null","run_exp/static/audio/clip_17_correct.m4a","null","","","","","<div class='center'><p>That's correct!</p></div>","","",""
"","html-keyboard-response","219","371314","0.0-218.0-1.0","""event"",""trial"",""time""
""fullscreenenter"",""0"",""1688""
","
","
","""event"",""trial"",""time""
""fullscreenenter"",""0"",""1688""
","
","1049.4000000059605","<div class='center'><p>That's correct!</p><div><p><b>[Press the space bar to continue]</b></p></div>","32","","","","","","","",""
"","practice_q2","220","373721","0.0-218.0-2.0","""event"",""trial"",""time""
""fullscreenenter"",""0"",""1688""
","
","
","""event"",""trial"",""time""
""fullscreenenter"",""0"",""1688""
","
","2405.0999999940395","run_exp/static/audio/clip_16_practice_question.m4a","86","","","","","","","",""
"","correct","221","375618","0.0-219.0-0.0","""event"",""trial"",""time""
""fullscreenenter"",""0"",""1688""
","
","
","""event"",""trial"",""time""
""fullscreenenter"",""0"",""1688""
","
","null","run_exp/static/audio/clip_17_correct.m4a","null","","","","","<div class='center'><p>That's correct!</p></div>","","",""
"","html-keyboard-response","222","376273","0.0-219.0-1.0","""event"",""trial"",""time""
""fullscreenenter"",""0"",""1688""
","
","
","""event"",""trial"",""time""
""fullscreenenter"",""0"",""1688""
","
","654.0999999940395","<div class='center'><p>That's correct!</p><div><p><b>[Press the space bar to continue]</b></p></div>","32","","","","","","","",""
"","practice_q3","223","379894","0.0-219.0-2.0","""event"",""trial"",""time""
""fullscreenenter"",""0"",""1688""
","
","
","""event"",""trial"",""time""
""fullscreenenter"",""0"",""1688""
","
","3619.5999999940395","run_exp/static/audio/clip_16_practice_question.m4a","66","","","","","","","",""
"","correct","224","381912","0.0-220.0-0.0","""event"",""trial"",""time""
""fullscreenenter"",""0"",""1688""
","
","
","""event"",""trial"",""time""
""fullscreenenter"",""0"",""1688""
","
","null","run_exp/static/audio/clip_17_correct.m4a","null","","","","","<div class='center'><p>That's correct!</p></div>","","",""
"","html-keyboard-response","225","382425","0.0-220.0-1.0","""event"",""trial"",""time""
""fullscreenenter"",""0"",""1688""
","
","
","""event"",""trial"",""time""
""fullscreenenter"",""0"",""1688""
","
","512.1000000238419","<div class='center'><p>That's correct!</p><div><p><b>[Press the space bar to continue]</b></p></div>","32","","","","","","","",""
"","begin_text","226","400898","0.0-221.0-0.0","""event"",""trial"",""time""
""fullscreenenter"",""0"",""1688""
","
","
","""event"",""trial"",""time""
""fullscreenenter"",""0"",""1688""
","
","null","run_exp/static/audio/clip_22_begin_test.m4a","null","","","","","<div class='center'><p>On to the real game where well test your memory of items from the indoor/outdoor game. For each item, you need to indicate if the item is <b>old</b> by pressing the <b>v</b> key, <b>similar</b> by pressing the <b>b</b> key, or <b>new</b> by pressing the <b>n</b> key. </p></div>","","",""
"","html-keyboard-response","227","401542","0.0-221.0-1.0","""event"",""trial"",""time""
""fullscreenenter"",""0"",""1688""
","
","
","""event"",""trial"",""time""
""fullscreenenter"",""0"",""1688""
","
","642.0999999940395","<div class='center'><p>On to the real game where well test your memory of items from the indoor/outdoor game. For each item, you need to indicate if the item is <b>old</b> by pressing the <b>v</b> key, <b>similar</b> by pressing the <b>b</b> key, or <b>new</b> by pressing the <b>n</b> key. </p><div><p><b>[Press the space bar to continue]</b></p></div>","32","","","","","","","",""
"","image","228","403227","0.0-222.0-0.0","""event"",""trial"",""time""
""fullscreenenter"",""0"",""1688""
","
","
","""event"",""trial"",""time""
""fullscreenenter"",""0"",""1688""
","
","1683.800000011921","run_exp/static/images/Set 6_rs/061a.jpg","86","","","","","","test","TR","5"
"","show_choice","229","403729","0.0-222.0-1.0","""event"",""trial"",""time""
""fullscreenenter"",""0"",""1688""
","
","
","""event"",""trial"",""time""
""fullscreenenter"",""0"",""1688""
","
","null","run_exp/static/images/Set 6_rs/061a.jpg","null","","","","","","test","TR",""
"","html-keyboard-response","230","404233","0.0-222.0-2.0","""event"",""trial"",""time""
""fullscreenenter"",""0"",""1688""
","
","
","""event"",""trial"",""time""
""fullscreenenter"",""0"",""1688""
","
","null","<p></p>","null","","","","","","","",""
"","image","231","405673","0.0-223.0-0.0","""event"",""trial"",""time""
""fullscreenenter"",""0"",""1688""
","
","
","""event"",""trial"",""time""
""fullscreenenter"",""0"",""1688""
","
","1438.4000000059605","run_exp/static/images/Set 6_rs/028a.jpg","78","","","","","","test","TF","1"
"","show_choice","232","406178","0.0-223.0-1.0","""event"",""trial"",""time""
""fullscreenenter"",""0"",""1688""
","
","
","""event"",""trial"",""time""
""fullscreenenter"",""0"",""1688""
","
","null","run_exp/static/images/Set 6_rs/028a.jpg","null","","","","","","test","TF",""
"","html-keyboard-response","233","406681","0.0-223.0-2.0","""event"",""trial"",""time""
""fullscreenenter"",""0"",""1688""
","
","
","""event"",""trial"",""time""
""fullscreenenter"",""0"",""1688""
","
","null","<p></p>","null","","","","","","","",""
"","image","234","408385","0.0-224.0-0.0","""event"",""trial"",""time""
""fullscreenenter"",""0"",""1688""
","
","
","""event"",""trial"",""time""
""fullscreenenter"",""0"",""1688""
","
","1702.300000011921","run_exp/static/images/Set 6_rs/131a.jpg","86","","","","","","test","TR","5"
"","show_choice","235","408890","0.0-224.0-1.0","""event"",""trial"",""time""
""fullscreenenter"",""0"",""1688""
","
","
","""event"",""trial"",""time""
""fullscreenenter"",""0"",""1688""
","
","null","run_exp/static/images/Set 6_rs/131a.jpg","null","","","","","","test","TR",""
"","html-keyboard-response","236","409392","0.0-224.0-2.0","""event"",""trial"",""time""
""fullscreenenter"",""0"",""1688""
","
","
","""event"",""trial"",""time""
""fullscreenenter"",""0"",""1688""
","
","null","<p></p>","null","","","","","","","",""
"","image","237","410478","0.0-225.0-0.0","""event"",""trial"",""time""
""fullscreenenter"",""0"",""1688""
","
","
","""event"",""trial"",""time""
""fullscreenenter"",""0"",""1688""
","
","1083.8999999761581","run_exp/static/images/Set 6_rs/111b.jpg","66","","","","","","test","TL","3"
"","show_choice","238","410980","0.0-225.0-1.0","""event"",""trial"",""time""
""fullscreenenter"",""0"",""1688""
","
","
","""event"",""trial"",""time""
""fullscreenenter"",""0"",""1688""
","
","null","run_exp/static/images/Set 6_rs/111b.jpg","null","","","","","","test","TL",""
"","html-keyboard-response","239","411482","0.0-225.0-2.0","""event"",""trial"",""time""
""fullscreenenter"",""0"",""1688""
","
","
","""event"",""trial"",""time""
""fullscreenenter"",""0"",""1688""
","
","null","<p></p>","null","","","","","","","",""
"","image","240","412709","0.0-226.0-0.0","""event"",""trial"",""time""
""fullscreenenter"",""0"",""1688""
","
","
","""event"",""trial"",""time""
""fullscreenenter"",""0"",""1688""
","
","1224.9000000059605","run_exp/static/images/Set 6_rs/122a.jpg","86","","","","","","test","TR","5"
"","show_choice","241","413213","0.0-226.0-1.0","""event"",""trial"",""time""
""fullscreenenter"",""0"",""1688""
","
","
","""event"",""trial"",""time""
""fullscreenenter"",""0"",""1688""
","
","null","run_exp/static/images/Set 6_rs/122a.jpg","null","","","","","","test","TR",""
"","html-keyboard-response","242","413717","0.0-226.0-2.0","""event"",""trial"",""time""
""fullscreenenter"",""0"",""1688""
","
","
","""event"",""trial"",""time""
""fullscreenenter"",""0"",""1688""
","
","null","<p></p>","null","","","","","","","",""
"","image","243","415294","0.0-227.0-0.0","""event"",""trial"",""time""
""fullscreenenter"",""0"",""1688""
","
","
","""event"",""trial"",""time""
""fullscreenenter"",""0"",""1688""
","
","1576","run_exp/static/images/Set 6_rs/176a.jpg","78","","","","","","test","TF","4"
"","show_choice","244","415796","0.0-227.0-1.0","""event"",""trial"",""time""
""fullscreenenter"",""0"",""1688""
","
","
","""event"",""trial"",""time""
""fullscreenenter"",""0"",""1688""
","
","null","run_exp/static/images/Set 6_rs/176a.jpg","null","","","","","","test","TF",""
"","html-keyboard-response","245","416302","0.0-227.0-2.0","""event"",""trial"",""time""
""fullscreenenter"",""0"",""1688""
","
","
","""event"",""trial"",""time""
""fullscreenenter"",""0"",""1688""
","
","null","<p></p>","null","","","","","","","",""
"","image","246","417425","0.0-228.0-0.0","""event"",""trial"",""time""
""fullscreenenter"",""0"",""1688""
","
","
","""event"",""trial"",""time""
""fullscreenenter"",""0"",""1688""
","
","1120.9000000059605","run_exp/static/images/Set 6_rs/076a.jpg","86","","","","","","test","TR","4"
"","show_choice","247","417930","0.0-228.0-1.0","""event"",""trial"",""time""
""fullscreenenter"",""0"",""1688""
","
","
","""event"",""trial"",""time""
""fullscreenenter"",""0"",""1688""
","
","null","run_exp/static/images/Set 6_rs/076a.jpg","null","","","","","","test","TR",""
"","html-keyboard-response","248","418431","0.0-228.0-2.0","""event"",""trial"",""time""
""fullscreenenter"",""0"",""1688""
","
","
","""event"",""trial"",""time""
""fullscreenenter"",""0"",""1688""
","
","null","<p></p>","null","","","","","","","",""
"","image","249","419755","0.0-229.0-0.0","""event"",""trial"",""time""
""fullscreenenter"",""0"",""1688""
","
","
","""event"",""trial"",""time""
""fullscreenenter"",""0"",""1688""
","
","1321.800000011921","run_exp/static/images/Set 6_rs/073b.jpg","66","","","","","","test","TL","3"
"","show_choice","250","420260","0.0-229.0-1.0","""event"",""trial"",""time""
""fullscreenenter"",""0"",""1688""
","
","
","""event"",""trial"",""time""
""fullscreenenter"",""0"",""1688""
","
","null","run_exp/static/images/Set 6_rs/073b.jpg","null","","","","","","test","TL",""
"","html-keyboard-response","251","420763","0.0-229.0-2.0","""event"",""trial"",""time""
""fullscreenenter"",""0"",""1688""
","
","
","""event"",""trial"",""time""
""fullscreenenter"",""0"",""1688""
","
","null","<p></p>","null","","","","","","","",""
"","image","252","421768","0.0-230.0-0.0","""event"",""trial"",""time""
""fullscreenenter"",""0"",""1688""
","
","
","""event"",""trial"",""time""
""fullscreenenter"",""0"",""1688""
","
","1003.7000000178814","run_exp/static/images/Set 6_rs/117b.jpg","86","","","","","","test","TL","5"
"","show_choice","253","422270","0.0-230.0-1.0","""event"",""trial"",""time""
""fullscreenenter"",""0"",""1688""
","
","
","""event"",""trial"",""time""
""fullscreenenter"",""0"",""1688""
","
","null","run_exp/static/images/Set 6_rs/117b.jpg","null","","","","","","test","TL",""
"","html-keyboard-response","254","422772","0.0-230.0-2.0","""event"",""trial"",""time""
""fullscreenenter"",""0"",""1688""
","
","
","""event"",""trial"",""time""
""fullscreenenter"",""0"",""1688""
","
","null","<p></p>","null","","","","","","","",""
"","image","255","425345","0.0-231.0-0.0","""event"",""trial"",""time""
""fullscreenenter"",""0"",""1688""
","
","
","""event"",""trial"",""time""
""fullscreenenter"",""0"",""1688""
","
","2571.7999999821186","run_exp/static/images/Set 6_rs/090a.jpg","66","","","","","","test","TF","5"
"","show_choice","256","425846","0.0-231.0-1.0","""event"",""trial"",""time""
""fullscreenenter"",""0"",""1688""
","
","
","""event"",""trial"",""time""
""fullscreenenter"",""0"",""1688""
","
","null","run_exp/static/images/Set 6_rs/090a.jpg","null","","","","","","test","TF",""
"","html-keyboard-response","257","426350","0.0-231.0-2.0","""event"",""trial"",""time""
""fullscreenenter"",""0"",""1688""
","
","
","""event"",""trial"",""time""
""fullscreenenter"",""0"",""1688""
","
","null","<p></p>","null","","","","","","","",""
"","image","258","427417","0.0-232.0-0.0","""event"",""trial"",""time""
""fullscreenenter"",""0"",""1688""
","
","
","""event"",""trial"",""time""
""fullscreenenter"",""0"",""1688""
","
","1065.5","run_exp/static/images/Set 6_rs/186a.jpg","86","","","","","","test","TR","5"
"","show_choice","259","427921","0.0-232.0-1.0","""event"",""trial"",""time""
""fullscreenenter"",""0"",""1688""
","
","
","""event"",""trial"",""time""
""fullscreenenter"",""0"",""1688""
","
","null","run_exp/static/images/Set 6_rs/186a.jpg","null","","","","","","test","TR",""
"","html-keyboard-response","260","428426","0.0-232.0-2.0","""event"",""trial"",""time""
""fullscreenenter"",""0"",""1688""
","
","
","""event"",""trial"",""time""
""fullscreenenter"",""0"",""1688""
","
","null","<p></p>","null","","","","","","","",""
"","image","261","429256","0.0-233.0-0.0","""event"",""trial"",""time""
""fullscreenenter"",""0"",""1688""
","
","
","""event"",""trial"",""time""
""fullscreenenter"",""0"",""1688""
","
","828.2000000178814","run_exp/static/images/Set 6_rs/167b.jpg","86","","","","","","test","TL","2"
"","show_choice","262","429761","0.0-233.0-1.0","""event"",""trial"",""time""
""fullscreenenter"",""0"",""1688""
","
","
","""event"",""trial"",""time""
""fullscreenenter"",""0"",""1688""
","
","null","run_exp/static/images/Set 6_rs/167b.jpg","null","","","","","","test","TL",""
"","html-keyboard-response","263","430268","0.0-233.0-2.0","""event"",""trial"",""time""
""fullscreenenter"",""0"",""1688""
","
","
","""event"",""trial"",""time""
""fullscreenenter"",""0"",""1688""
","
","null","<p></p>","null","","","","","","","",""
"","image","264","431043","0.0-234.0-0.0","""event"",""trial"",""time""
""fullscreenenter"",""0"",""1688""
","
","
","""event"",""trial"",""time""
""fullscreenenter"",""0"",""1688""
","
","773.6999999880791","run_exp/static/images/Set 6_rs/064a.jpg","86","","","","","","test","TR","5"
"","show_choice","265","431546","0.0-234.0-1.0","""event"",""trial"",""time""
""fullscreenenter"",""0"",""1688""
","
","
","""event"",""trial"",""time""
""fullscreenenter"",""0"",""1688""
","
","null","run_exp/static/images/Set 6_rs/064a.jpg","null","","","","","","test","TR",""
"","html-keyboard-response","266","432051","0.0-234.0-2.0","""event"",""trial"",""time""
""fullscreenenter"",""0"",""1688""
","
","
","""event"",""trial"",""time""
""fullscreenenter"",""0"",""1688""
","
","null","<p></p>","null","","","","","","","",""
"","image","267","432914","0.0-235.0-0.0","""event"",""trial"",""time""
""fullscreenenter"",""0"",""1688""
","
","
","""event"",""trial"",""time""
""fullscreenenter"",""0"",""1688""
","
","861.8000000119209","run_exp/static/images/Set 6_rs/108a.jpg","86","","","","","","test","TR","5"
"","show_choice","268","433416","0.0-235.0-1.0","""event"",""trial"",""time""
""fullscreenenter"",""0"",""1688""
","
","
","""event"",""trial"",""time""
""fullscreenenter"",""0"",""1688""
","
","null","run_exp/static/images/Set 6_rs/108a.jpg","null","","","","","","test","TR",""
"","html-keyboard-response","269","433917","0.0-235.0-2.0","""event"",""trial"",""time""
""fullscreenenter"",""0"",""1688""
","
","
","""event"",""trial"",""time""
""fullscreenenter"",""0"",""1688""
","
","null","<p></p>","null","","","","","","","",""
"","image","270","434970","0.0-236.0-0.0","""event"",""trial"",""time""
""fullscreenenter"",""0"",""1688""
","
","
","""event"",""trial"",""time""
""fullscreenenter"",""0"",""1688""
","
","1051.300000011921","run_exp/static/images/Set 6_rs/097a.jpg","78","","","","","","test","TF","5"
"","show_choice","271","435474","0.0-236.0-1.0","""event"",""trial"",""time""
""fullscreenenter"",""0"",""1688""
","
","
","""event"",""trial"",""time""
""fullscreenenter"",""0"",""1688""
","
","null","run_exp/static/images/Set 6_rs/097a.jpg","null","","","","","","test","TF",""
"","html-keyboard-response","272","435980","0.0-236.0-2.0","""event"",""trial"",""time""
""fullscreenenter"",""0"",""1688""
","
","
","""event"",""trial"",""time""
""fullscreenenter"",""0"",""1688""
","
","null","<p></p>","null","","","","","","","",""
"","image","273","437127","0.0-237.0-0.0","""event"",""trial"",""time""
""fullscreenenter"",""0"",""1688""
","
","
","""event"",""trial"",""time""
""fullscreenenter"",""0"",""1688""
","
","1145","run_exp/static/images/Set 6_rs/036b.jpg","66","","","","","","test","TL","4"
"","show_choice","274","437631","0.0-237.0-1.0","""event"",""trial"",""time""
""fullscreenenter"",""0"",""1688""
","
","
","""event"",""trial"",""time""
""fullscreenenter"",""0"",""1688""
","
","null","run_exp/static/images/Set 6_rs/036b.jpg","null","","","","","","test","TL",""
"","html-keyboard-response","275","438134","0.0-237.0-2.0","""event"",""trial"",""time""
""fullscreenenter"",""0"",""1688""
","
","
","""event"",""trial"",""time""
""fullscreenenter"",""0"",""1688""
","
","null","<p></p>","null","","","","","","","",""
"","image","276","439215","0.0-238.0-0.0","""event"",""trial"",""time""
""fullscreenenter"",""0"",""1688""
","
","
","""event"",""trial"",""time""
""fullscreenenter"",""0"",""1688""
","
","1079.5999999940395","run_exp/static/images/Set 6_rs/071b.jpg","66","","","","","","test","TL","4"
"","show_choice","277","439717","0.0-238.0-1.0","""event"",""trial"",""time""
""fullscreenenter"",""0"",""1688""
","
","
","""event"",""trial"",""time""
""fullscreenenter"",""0"",""1688""
","
","null","run_exp/static/images/Set 6_rs/071b.jpg","null","","","","","","test","TL",""
"","html-keyboard-response","278","440218","0.0-238.0-2.0","""event"",""trial"",""time""
""fullscreenenter"",""0"",""1688""
","
","
","""event"",""trial"",""time""
""fullscreenenter"",""0"",""1688""
","
","null","<p></p>","null","","","","","","","",""
"","image","279","441395","0.0-239.0-0.0","""event"",""trial"",""time""
""fullscreenenter"",""0"",""1688""
","
","
","""event"",""trial"",""time""
""fullscreenenter"",""0"",""1688""
","
","1174.699999988079","run_exp/static/images/Set 6_rs/136a.jpg","78","","","","","","test","TF","4"
"","show_choice","280","441896","0.0-239.0-1.0","""event"",""trial"",""time""
""fullscreenenter"",""0"",""1688""
","
","
","""event"",""trial"",""time""
""fullscreenenter"",""0"",""1688""
","
","null","run_exp/static/images/Set 6_rs/136a.jpg","null","","","","","","test","TF",""
"","html-keyboard-response","281","442401","0.0-239.0-2.0","""event"",""trial"",""time""
""fullscreenenter"",""0"",""1688""
","
","
","""event"",""trial"",""time""
""fullscreenenter"",""0"",""1688""
","
","null","<p></p>","null","","","","","","","",""
"","image","282","443461","0.0-240.0-0.0","""event"",""trial"",""time""
""fullscreenenter"",""0"",""1688""
","
","
","""event"",""trial"",""time""
""fullscreenenter"",""0"",""1688""
","
","1058.199999988079","run_exp/static/images/Set 6_rs/149a.jpg","78","","","","","","test","TF","1"
"","show_choice","283","443963","0.0-240.0-1.0","""event"",""trial"",""time""
""fullscreenenter"",""0"",""1688""
","
","
","""event"",""trial"",""time""
""fullscreenenter"",""0"",""1688""
","
","null","run_exp/static/images/Set 6_rs/149a.jpg","null","","","","","","test","TF",""
"","html-keyboard-response","284","444468","0.0-240.0-2.0","""event"",""trial"",""time""
""fullscreenenter"",""0"",""1688""
","
","
","""event"",""trial"",""time""
""fullscreenenter"",""0"",""1688""
","
","null","<p></p>","null","","","","","","","",""
"","image","285","446809","0.0-241.0-0.0","""event"",""trial"",""time""
""fullscreenenter"",""0"",""1688""
","
","
","""event"",""trial"",""time""
""fullscreenenter"",""0"",""1688""
","
","2339.5","run_exp/static/images/Set 6_rs/089b.jpg","86","","","","","","test","TL","4"
"","show_choice","286","447311","0.0-241.0-1.0","""event"",""trial"",""time""
""fullscreenenter"",""0"",""1688""
","
","
","""event"",""trial"",""time""
""fullscreenenter"",""0"",""1688""
","
","null","run_exp/static/images/Set 6_rs/089b.jpg","null","","","","","","test","TL",""
"","html-keyboard-response","287","447817","0.0-241.0-2.0","""event"",""trial"",""time""
""fullscreenenter"",""0"",""1688""
","
","
","""event"",""trial"",""time""
""fullscreenenter"",""0"",""1688""
","
","null","<p></p>","null","","","","","","","",""
"","image","288","448615","0.0-242.0-0.0","""event"",""trial"",""time""
""fullscreenenter"",""0"",""1688""
","
","
","""event"",""trial"",""time""
""fullscreenenter"",""0"",""1688""
","
","796.2999999821186","run_exp/static/images/Set 6_rs/007a.jpg","86","","","","","","test","TR","3"
"","show_choice","289","449120","0.0-242.0-1.0","""event"",""trial"",""time""
""fullscreenenter"",""0"",""1688""
","
","
","""event"",""trial"",""time""
""fullscreenenter"",""0"",""1688""
","
","null","run_exp/static/images/Set 6_rs/007a.jpg","null","","","","","","test","TR",""
"","html-keyboard-response","290","449626","0.0-242.0-2.0","""event"",""trial"",""time""
""fullscreenenter"",""0"",""1688""
","
","
","""event"",""trial"",""time""
""fullscreenenter"",""0"",""1688""
","
","null","<p></p>","null","","","","","","","",""
"","image","291","450404","0.0-243.0-0.0","""event"",""trial"",""time""
""fullscreenenter"",""0"",""1688""
","
","
","""event"",""trial"",""time""
""fullscreenenter"",""0"",""1688""
","
","775.8000000119209","run_exp/static/images/Set 6_rs/016b.jpg","86","","","","","","test","TL","1"
"","show_choice","292","450905","0.0-243.0-1.0","""event"",""trial"",""time""
""fullscreenenter"",""0"",""1688""
","
","
","""event"",""trial"",""time""
""fullscreenenter"",""0"",""1688""
","
","null","run_exp/static/images/Set 6_rs/016b.jpg","null","","","","","","test","TL",""
"","html-keyboard-response","293","451412","0.0-243.0-2.0","""event"",""trial"",""time""
""fullscreenenter"",""0"",""1688""
","
","
","""event"",""trial"",""time""
""fullscreenenter"",""0"",""1688""
","
","null","<p></p>","null","","","","","","","",""
"","image","294","452187","0.0-244.0-0.0","""event"",""trial"",""time""
""fullscreenenter"",""0"",""1688""
","
","
","""event"",""trial"",""time""
""fullscreenenter"",""0"",""1688""
","
","773.8000000119209","run_exp/static/images/Set 6_rs/019b.jpg","86","","","","","","test","TL","2"
"","show_choice","295","452690","0.0-244.0-1.0","""event"",""trial"",""time""
""fullscreenenter"",""0"",""1688""
","
","
","""event"",""trial"",""time""
""fullscreenenter"",""0"",""1688""
","
","null","run_exp/static/images/Set 6_rs/019b.jpg","null","","","","","","test","TL",""
"","html-keyboard-response","296","453194","0.0-244.0-2.0","""event"",""trial"",""time""
""fullscreenenter"",""0"",""1688""
","
","
","""event"",""trial"",""time""
""fullscreenenter"",""0"",""1688""
","
","null","<p></p>","null","","","","","","","",""
"","image","297","455551","0.0-245.0-0.0","""event"",""trial"",""time""
""fullscreenenter"",""0"",""1688""
","
","
","""event"",""trial"",""time""
""fullscreenenter"",""0"",""1688""
","
","2355.2999999821186","run_exp/static/images/Set 6_rs/121a.jpg","86","","","","","","test","TR","4"
"","show_choice","298","456056","0.0-245.0-1.0","""event"",""trial"",""time""
""fullscreenenter"",""0"",""1688""
","
","
","""event"",""trial"",""time""
""fullscreenenter"",""0"",""1688""
","
","null","run_exp/static/images/Set 6_rs/121a.jpg","null","","","","","","test","TR",""
"","html-keyboard-response","299","456557","0.0-245.0-2.0","""event"",""trial"",""time""
""fullscreenenter"",""0"",""1688""
","
","
","""event"",""trial"",""time""
""fullscreenenter"",""0"",""1688""
","
","null","<p></p>","null","","","","","","","",""
"","image","300","458880","0.0-246.0-0.0","""event"",""trial"",""time""
""fullscreenenter"",""0"",""1688""
","
","
","""event"",""trial"",""time""
""fullscreenenter"",""0"",""1688""
","
","2321","run_exp/static/images/Set 6_rs/187a.jpg","86","","","","","","test","TR","3"
"","show_choice","301","459384","0.0-246.0-1.0","""event"",""trial"",""time""
""fullscreenenter"",""0"",""1688""
","
","
","""event"",""trial"",""time""
""fullscreenenter"",""0"",""1688""
","
","null","run_exp/static/images/Set 6_rs/187a.jpg","null","","","","","","test","TR",""
"","html-keyboard-response","302","459886","0.0-246.0-2.0","""event"",""trial"",""time""
""fullscreenenter"",""0"",""1688""
","
","
","""event"",""trial"",""time""
""fullscreenenter"",""0"",""1688""
","
","null","<p></p>","null","","","","","","","",""
"","image","303","462205","0.0-247.0-0.0","""event"",""trial"",""time""
""fullscreenenter"",""0"",""1688""
","
","
","""event"",""trial"",""time""
""fullscreenenter"",""0"",""1688""
","
","2317.800000011921","run_exp/static/images/Set 6_rs/123b.jpg","86","","","","","","test","TL","2"
"","show_choice","304","462710","0.0-247.0-1.0","""event"",""trial"",""time""
""fullscreenenter"",""0"",""1688""
","
","
","""event"",""trial"",""time""
""fullscreenenter"",""0"",""1688""
","
","null","run_exp/static/images/Set 6_rs/123b.jpg","null","","","","","","test","TL",""
"","html-keyboard-response","305","463214","0.0-247.0-2.0","""event"",""trial"",""time""
""fullscreenenter"",""0"",""1688""
","
","
","""event"",""trial"",""time""
""fullscreenenter"",""0"",""1688""
","
","null","<p></p>","null","","","","","","","",""
"","image","306","464220","0.0-248.0-0.0","""event"",""trial"",""time""
""fullscreenenter"",""0"",""1688""
","
","
","""event"",""trial"",""time""
""fullscreenenter"",""0"",""1688""
","
","1005.0999999940395","run_exp/static/images/Set 6_rs/190a.jpg","78","","","","","","test","TF","3"
"","show_choice","307","464722","0.0-248.0-1.0","""event"",""trial"",""time""
""fullscreenenter"",""0"",""1688""
","
","
","""event"",""trial"",""time""
""fullscreenenter"",""0"",""1688""
","
","null","run_exp/static/images/Set 6_rs/190a.jpg","null","","","","","","test","TF",""
"","html-keyboard-response","308","465225","0.0-248.0-2.0","""event"",""trial"",""time""
""fullscreenenter"",""0"",""1688""
","
","
","""event"",""trial"",""time""
""fullscreenenter"",""0"",""1688""
","
","null","<p></p>","null","","","","","","","",""
"","image","309","466925","0.0-249.0-0.0","""event"",""trial"",""time""
""fullscreenenter"",""0"",""1688""
","
","
","""event"",""trial"",""time""
""fullscreenenter"",""0"",""1688""
","
","1697.5999999940395","run_exp/static/images/Set 6_rs/006b.jpg","86","","","","","","test","TL","2"
"","show_choice","310","467429","0.0-249.0-1.0","""event"",""trial"",""time""
""fullscreenenter"",""0"",""1688""
","
","
","""event"",""trial"",""time""
""fullscreenenter"",""0"",""1688""
","
","null","run_exp/static/images/Set 6_rs/006b.jpg","null","","","","","","test","TL",""
"","html-keyboard-response","311","467935","0.0-249.0-2.0","""event"",""trial"",""time""
""fullscreenenter"",""0"",""1688""
","
","
","""event"",""trial"",""time""
""fullscreenenter"",""0"",""1688""
","
","null","<p></p>","null","","","","","","","",""
"","image","312","468864","0.0-250.0-0.0","""event"",""trial"",""time""
""fullscreenenter"",""0"",""1688""
","
","
","""event"",""trial"",""time""
""fullscreenenter"",""0"",""1688""
","
","928.0999999940395","run_exp/static/images/Set 6_rs/077a.jpg","78","","","","","","test","TF","3"
"","show_choice","313","469369","0.0-250.0-1.0","""event"",""trial"",""time""
""fullscreenenter"",""0"",""1688""
","
","
","""event"",""trial"",""time""
""fullscreenenter"",""0"",""1688""
","
","null","run_exp/static/images/Set 6_rs/077a.jpg","null","","","","","","test","TF",""
"","html-keyboard-response","314","469875","0.0-250.0-2.0","""event"",""trial"",""time""
""fullscreenenter"",""0"",""1688""
","
","
","""event"",""trial"",""time""
""fullscreenenter"",""0"",""1688""
","
","null","<p></p>","null","","","","","","","",""
"","image","315","470943","0.0-251.0-0.0","""event"",""trial"",""time""
""fullscreenenter"",""0"",""1688""
","
","
","""event"",""trial"",""time""
""fullscreenenter"",""0"",""1688""
","
","1065.9000000059605","run_exp/static/images/Set 6_rs/035a.jpg","78","","","","","","test","TF","4"
"","show_choice","316","471446","0.0-251.0-1.0","""event"",""trial"",""time""
""fullscreenenter"",""0"",""1688""
","
","
","""event"",""trial"",""time""
""fullscreenenter"",""0"",""1688""
","
","null","run_exp/static/images/Set 6_rs/035a.jpg","null","","","","","","test","TF",""
"","html-keyboard-response","317","471950","0.0-251.0-2.0","""event"",""trial"",""time""
""fullscreenenter"",""0"",""1688""
","
","
","""event"",""trial"",""time""
""fullscreenenter"",""0"",""1688""
","
","null","<p></p>","null","","","","","","","",""
"","image","318","472941","0.0-252.0-0.0","""event"",""trial"",""time""
""fullscreenenter"",""0"",""1688""
","
","
","""event"",""trial"",""time""
""fullscreenenter"",""0"",""1688""
","
","988.8999999761581","run_exp/static/images/Set 6_rs/025b.jpg","66","","","","","","test","TL","5"
"","show_choice","319","473444","0.0-252.0-1.0","""event"",""trial"",""time""
""fullscreenenter"",""0"",""1688""
","
","
","""event"",""trial"",""time""
""fullscreenenter"",""0"",""1688""
","
","null","run_exp/static/images/Set 6_rs/025b.jpg","null","","","","","","test","TL",""
"","html-keyboard-response","320","473946","0.0-252.0-2.0","""event"",""trial"",""time""
""fullscreenenter"",""0"",""1688""
","
","
","""event"",""trial"",""time""
""fullscreenenter"",""0"",""1688""
","
","null","<p></p>","null","","","","","","","",""
"","image","321","474902","0.0-253.0-0.0","""event"",""trial"",""time""
""fullscreenenter"",""0"",""1688""
","
","
","""event"",""trial"",""time""
""fullscreenenter"",""0"",""1688""
","
","954.7000000178814","run_exp/static/images/Set 6_rs/155a.jpg","78","","","","","","test","TF","4"
"","show_choice","322","475406","0.0-253.0-1.0","""event"",""trial"",""time""
""fullscreenenter"",""0"",""1688""
","
","
","""event"",""trial"",""time""
""fullscreenenter"",""0"",""1688""
","
","null","run_exp/static/images/Set 6_rs/155a.jpg","null","","","","","","test","TF",""
"","html-keyboard-response","323","475910","0.0-253.0-2.0","""event"",""trial"",""time""
""fullscreenenter"",""0"",""1688""
","
","
","""event"",""trial"",""time""
""fullscreenenter"",""0"",""1688""
","
","null","<p></p>","null","","","","","","","",""
"","image","324","476902","0.0-254.0-0.0","""event"",""trial"",""time""
""fullscreenenter"",""0"",""1688""
","
","
","""event"",""trial"",""time""
""fullscreenenter"",""0"",""1688""
","
","990.5999999940395","run_exp/static/images/Set 6_rs/047a.jpg","78","","","","","","test","TF","3"
"","show_choice","325","477406","0.0-254.0-1.0","""event"",""trial"",""time""
""fullscreenenter"",""0"",""1688""
","
","
","""event"",""trial"",""time""
""fullscreenenter"",""0"",""1688""
","
","null","run_exp/static/images/Set 6_rs/047a.jpg","null","","","","","","test","TF",""
"","html-keyboard-response","326","477910","0.0-254.0-2.0","""event"",""trial"",""time""
""fullscreenenter"",""0"",""1688""
","
","
","""event"",""trial"",""time""
""fullscreenenter"",""0"",""1688""
","
","null","<p></p>","null","","","","","","","",""
"","image","327","479015","0.0-255.0-0.0","""event"",""trial"",""time""
""fullscreenenter"",""0"",""1688""
","
","
","""event"",""trial"",""time""
""fullscreenenter"",""0"",""1688""
","
","1103.699999988079","run_exp/static/images/Set 6_rs/168b.jpg","78","","","","","","test","TL","3"
"","show_choice","328","479517","0.0-255.0-1.0","""event"",""trial"",""time""
""fullscreenenter"",""0"",""1688""
","
","
","""event"",""trial"",""time""
""fullscreenenter"",""0"",""1688""
","
","null","run_exp/static/images/Set 6_rs/168b.jpg","null","","","","","","test","TL",""
"","html-keyboard-response","329","480021","0.0-255.0-2.0","""event"",""trial"",""time""
""fullscreenenter"",""0"",""1688""
","
","
","""event"",""trial"",""time""
""fullscreenenter"",""0"",""1688""
","
","null","<p></p>","null","","","","","","","",""
"","image","330","480852","0.0-256.0-0.0","""event"",""trial"",""time""
""fullscreenenter"",""0"",""1688""
","
","
","""event"",""trial"",""time""
""fullscreenenter"",""0"",""1688""
","
","829.7999999821186","run_exp/static/images/Set 6_rs/133a.jpg","78","","","","","","test","TF","4"
"","show_choice","331","481353","0.0-256.0-1.0","""event"",""trial"",""time""
""fullscreenenter"",""0"",""1688""
","
","
","""event"",""trial"",""time""
""fullscreenenter"",""0"",""1688""
","
","null","run_exp/static/images/Set 6_rs/133a.jpg","null","","","","","","test","TF",""
"","html-keyboard-response","332","481860","0.0-256.0-2.0","""event"",""trial"",""time""
""fullscreenenter"",""0"",""1688""
","
","
","""event"",""trial"",""time""
""fullscreenenter"",""0"",""1688""
","
","null","<p></p>","null","","","","","","","",""
"","image","333","482891","0.0-257.0-0.0","""event"",""trial"",""time""
""fullscreenenter"",""0"",""1688""
","
","
","""event"",""trial"",""time""
""fullscreenenter"",""0"",""1688""
","
","1029.7000000178814","run_exp/static/images/Set 6_rs/116b.jpg","66","","","","","","test","TL","2"
"","show_choice","334","483396","0.0-257.0-1.0","""event"",""trial"",""time""
""fullscreenenter"",""0"",""1688""
","
","
","""event"",""trial"",""time""
""fullscreenenter"",""0"",""1688""
","
","null","run_exp/static/images/Set 6_rs/116b.jpg","null","","","","","","test","TL",""
"","html-keyboard-response","335","483902","0.0-257.0-2.0","""event"",""trial"",""time""
""fullscreenenter"",""0"",""1688""
","
","
","""event"",""trial"",""time""
""fullscreenenter"",""0"",""1688""
","
","null","<p></p>","null","","","","","","","",""
"","image","336","484932","0.0-258.0-0.0","""event"",""trial"",""time""
""fullscreenenter"",""0"",""1688""
","
","
","""event"",""trial"",""time""
""fullscreenenter"",""0"",""1688""
","
","1027.9000000059605","run_exp/static/images/Set 6_rs/012a.jpg","86","","","","","","test","TR","1"
"","show_choice","337","485433","0.0-258.0-1.0","""event"",""trial"",""time""
""fullscreenenter"",""0"",""1688""
","
","
","""event"",""trial"",""time""
""fullscreenenter"",""0"",""1688""
","
","null","run_exp/static/images/Set 6_rs/012a.jpg","null","","","","","","test","TR",""
"","html-keyboard-response","338","485940","0.0-258.0-2.0","""event"",""trial"",""time""
""fullscreenenter"",""0"",""1688""
","
","
","""event"",""trial"",""time""
""fullscreenenter"",""0"",""1688""
","
","null","<p></p>","null","","","","","","","",""
"","image","339","486585","0.0-259.0-0.0","""event"",""trial"",""time""
""fullscreenenter"",""0"",""1688""
","
","
","""event"",""trial"",""time""
""fullscreenenter"",""0"",""1688""
","
","643.9000000059605","run_exp/static/images/Set 6_rs/154a.jpg","86","","","","","","test","TR","3"
"","show_choice","340","487088","0.0-259.0-1.0","""event"",""trial"",""time""
""fullscreenenter"",""0"",""1688""
","
","
","""event"",""trial"",""time""
""fullscreenenter"",""0"",""1688""
","
","null","run_exp/static/images/Set 6_rs/154a.jpg","null","","","","","","test","TR",""
"","html-keyboard-response","341","487594","0.0-259.0-2.0","""event"",""trial"",""time""
