"success","trial_type","trial_index","time_elapsed","internal_node_id","interactions","blur_events","focus_events","fullscreenenter_events","fullscreenexit_events","rt","stimulus","key_press","subject_id","participant_id","age","gender","prompt","phase","condition","lure_bin"
"true","fullscreen","0","4172","0.0-0.0","""event"",""trial"",""time""
""fullscreenenter"",""0"",""3195""
","
","
","""event"",""trial"",""time""
""fullscreenenter"",""0"",""3195""
","
","","","","","","","","","","",""
"","pavlovia","1","4184","0.0-1.0","""event"",""trial"",""time""
""fullscreenenter"",""0"",""3195""
","
","
","""event"",""trial"",""time""
""fullscreenenter"",""0"",""3195""
","
","","","","","","","","","","",""
"","welcome","2","39715","0.0-2.0","""event"",""trial"",""time""
""fullscreenenter"",""0"",""3195""
","
","
","""event"",""trial"",""time""
""fullscreenenter"",""0"",""3195""
","
","null","run_exp/static/audio/clip_1_welcome.m4a","null","857","859","10","Female","<div class='center'><p>Welcome to the third part of the study! First, you'll be shown pictures of items one at a time. For each picture, you have to decide if the item is typically found indoors or outdoors.</p><p>If you think it's usually found indoors, then press <b>v</b> key on your keyboard. If you think it's usually found outdoors, then press the <b>n</b> key.There will be reminders on the screen to help you remember which keys to press. </p><p>If you're not sure whether the item is an indoor item or an outdoor item, go ahead and take a guess but try your best not to skip that choice. </p></div>","","",""
"","html-keyboard-response","3","39782","0.0-3.0","""event"",""trial"",""time""
""fullscreenenter"",""0"",""3195""
","
","
","""event"",""trial"",""time""
""fullscreenenter"",""0"",""3195""
","
","57.700000047683716","<div class='center'><p>Welcome to the third part of the study! First, you'll be shown pictures of items one at a time. For each picture, you have to decide if the item is typically found indoors or outdoors.</p><p>If you think it's usually found indoors, then press <b>v</b> key on your keyboard. If you think it's usually found outdoors, then press the <b>n</b> key.There will be reminders on the screen to help you remember which keys to press. </p><p>If you're not sure whether the item is an indoor item or an outdoor item, go ahead and take a guess but try your best not to skip that choice. </p><div><p><b>[Press the space bar to continue]</b></p></div>","32","","","","","","","",""
"","image","4","41788","0.0-4.0","""event"",""trial"",""time""
""fullscreenenter"",""0"",""3195""
","
","
","""event"",""trial"",""time""
""fullscreenenter"",""0"",""3195""
","
","null","run_exp/static/images/Set 6_rs/117a.jpg","null","","","","","","learn","SL",""
"","show_choice","5","43796","0.0-5.0","""event"",""trial"",""time""
""fullscreenenter"",""0"",""3195""
","
","
","""event"",""trial"",""time""
""fullscreenenter"",""0"",""3195""
","
","null","run_exp/static/images/blank.png","null","","","","","","learn","SL",""
"","html-keyboard-response","6","44311","0.0-6.0","""event"",""trial"",""time""
""fullscreenenter"",""0"",""3195""
","
","
","""event"",""trial"",""time""
""fullscreenenter"",""0"",""3195""
","
","null","<p></p>","null","","","","","","","",""
"","image","7","46315","0.0-7.0","""event"",""trial"",""time""
""fullscreenenter"",""0"",""3195""
","
","
","""event"",""trial"",""time""
""fullscreenenter"",""0"",""3195""
","
","null","run_exp/static/images/Set 6_rs/070a.jpg","null","","","","","","learn","SR",""
"","show_choice","8","48333","0.0-8.0","""event"",""trial"",""time""
""fullscreenenter"",""0"",""3195""
","
","
","""event"",""trial"",""time""
""fullscreenenter"",""0"",""3195""
","
","null","run_exp/static/images/blank.png","null","","","","","","learn","SR",""
"","html-keyboard-response","9","48847","0.0-9.0","""event"",""trial"",""time""
""fullscreenenter"",""0"",""3195""
","
","
","""event"",""trial"",""time""
""fullscreenenter"",""0"",""3195""
","
","null","<p></p>","null","","","","","","","",""
"","image","10","49642","0.0-10.0","""event"",""trial"",""time""
""fullscreenenter"",""0"",""3195""
","
","
","""event"",""trial"",""time""
""fullscreenenter"",""0"",""3195""
","
","791.4000000357628","run_exp/static/images/Set 6_rs/116a.jpg","78","","","","","","learn","SL",""
"","show_choice","11","50866","0.0-11.0","""event"",""trial"",""time""
""fullscreenenter"",""0"",""3195""
","
","
","""event"",""trial"",""time""
""fullscreenenter"",""0"",""3195""
","
","null","run_exp/static/images/Set 6_rs/116a.jpg","null","","","","","","learn","SL",""
"","html-keyboard-response","12","51378","0.0-12.0","""event"",""trial"",""time""
""fullscreenenter"",""0"",""3195""
","
","
","""event"",""trial"",""time""
""fullscreenenter"",""0"",""3195""
","
","null","<p></p>","null","","","","","","","",""
"","image","13","53394","0.0-13.0","""event"",""trial"",""time""
""fullscreenenter"",""0"",""3195""
","
","
","""event"",""trial"",""time""
""fullscreenenter"",""0"",""3195""
","
","null","run_exp/static/images/Set 6_rs/144a.jpg","null","","","","","","learn","SL",""
"","show_choice","14","55396","0.0-14.0","""event"",""trial"",""time""
""fullscreenenter"",""0"",""3195""
","
","
","""event"",""trial"",""time""
""fullscreenenter"",""0"",""3195""
","
","null","run_exp/static/images/blank.png","null","","","","","","learn","SL",""
"","html-keyboard-response","15","55908","0.0-15.0","""event"",""trial"",""time""
""fullscreenenter"",""0"",""3195""
","
","
","""event"",""trial"",""time""
""fullscreenenter"",""0"",""3195""
","
","null","<p></p>","null","","","","","","","",""
"","image","16","57925","0.0-16.0","""event"",""trial"",""time""
""fullscreenenter"",""0"",""3195""
","
","
","""event"",""trial"",""time""
""fullscreenenter"",""0"",""3195""
","
","null","run_exp/static/images/Set 6_rs/167a.jpg","null","","","","","","learn","SL",""
"","show_choice","17","59939","0.0-17.0","""event"",""trial"",""time""
""fullscreenenter"",""0"",""3195""
","
","
","""event"",""trial"",""time""
""fullscreenenter"",""0"",""3195""
","
","null","run_exp/static/images/blank.png","null","","","","","","learn","SL",""
"","html-keyboard-response","18","60451","0.0-18.0","""event"",""trial"",""time""
""fullscreenenter"",""0"",""3195""
","
","
","""event"",""trial"",""time""
""fullscreenenter"",""0"",""3195""
","
","null","<p></p>","null","","","","","","","",""
"","image","19","61457","0.0-19.0","""event"",""trial"",""time""
""fullscreenenter"",""0"",""3195""
","
","
","""event"",""trial"",""time""
""fullscreenenter"",""0"",""3195""
","
","1003.8000000119209","run_exp/static/images/Set 6_rs/079a.jpg","86","","","","","","learn","SL",""
"","show_choice","20","62455","0.0-20.0","""event"",""trial"",""time""
""fullscreenenter"",""0"",""3195""
","
","
","""event"",""trial"",""time""
""fullscreenenter"",""0"",""3195""
","
","null","run_exp/static/images/Set 6_rs/079a.jpg","null","","","","","","learn","SL",""
"","html-keyboard-response","21","62957","0.0-21.0","""event"",""trial"",""time""
""fullscreenenter"",""0"",""3195""
","
","
","""event"",""trial"",""time""
""fullscreenenter"",""0"",""3195""
","
","null","<p></p>","null","","","","","","","",""
"","image","22","63781","0.0-22.0","""event"",""trial"",""time""
""fullscreenenter"",""0"",""3195""
","
","
","""event"",""trial"",""time""
""fullscreenenter"",""0"",""3195""
","
","823.1000000238419","run_exp/static/images/Set 6_rs/187a.jpg","86","","","","","","learn","SR",""
"","show_choice","23","64973","0.0-23.0","""event"",""trial"",""time""
""fullscreenenter"",""0"",""3195""
","
","
","""event"",""trial"",""time""
""fullscreenenter"",""0"",""3195""
","
","null","run_exp/static/images/Set 6_rs/187a.jpg","null","","","","","","learn","SR",""
"","html-keyboard-response","24","65483","0.0-24.0","""event"",""trial"",""time""
""fullscreenenter"",""0"",""3195""
","
","
","""event"",""trial"",""time""
""fullscreenenter"",""0"",""3195""
","
","null","<p></p>","null","","","","","","","",""
"","image","25","66249","0.0-25.0","""event"",""trial"",""time""
""fullscreenenter"",""0"",""3195""
","
","
","""event"",""trial"",""time""
""fullscreenenter"",""0"",""3195""
","
","764.1999999880791","run_exp/static/images/Set 6_rs/121a.jpg","78","","","","","","learn","SR",""
"","show_choice","26","67489","0.0-26.0","""event"",""trial"",""time""
""fullscreenenter"",""0"",""3195""
","
","
","""event"",""trial"",""time""
""fullscreenenter"",""0"",""3195""
","
","null","run_exp/static/images/Set 6_rs/121a.jpg","null","","","","","","learn","SR",""
"","html-keyboard-response","27","68004","0.0-27.0","""event"",""trial"",""time""
""fullscreenenter"",""0"",""3195""
","
","
","""event"",""trial"",""time""
""fullscreenenter"",""0"",""3195""
","
","null","<p></p>","null","","","","","","","",""
"","image","28","69159","0.0-28.0","""event"",""trial"",""time""
""fullscreenenter"",""0"",""3195""
","
","
","""event"",""trial"",""time""
""fullscreenenter"",""0"",""3195""
","
","1153.800000011921","run_exp/static/images/Set 6_rs/131a.jpg","86","","","","","","learn","SR",""
"","show_choice","29","70009","0.0-29.0","""event"",""trial"",""time""
""fullscreenenter"",""0"",""3195""
","
","
","""event"",""trial"",""time""
""fullscreenenter"",""0"",""3195""
","
","null","run_exp/static/images/Set 6_rs/131a.jpg","null","","","","","","learn","SR",""
"","html-keyboard-response","30","70520","0.0-30.0","""event"",""trial"",""time""
""fullscreenenter"",""0"",""3195""
","
","
","""event"",""trial"",""time""
""fullscreenenter"",""0"",""3195""
","
","null","<p></p>","null","","","","","","","",""
"","image","31","71192","0.0-31.0","""event"",""trial"",""time""
""fullscreenenter"",""0"",""3195""
","
","
","""event"",""trial"",""time""
""fullscreenenter"",""0"",""3195""
","
","669.8999999761581","run_exp/static/images/Set 6_rs/010a.jpg","86","","","","","","learn","SR",""
"","show_choice","32","72537","0.0-32.0","""event"",""trial"",""time""
""fullscreenenter"",""0"",""3195""
","
","
","""event"",""trial"",""time""
""fullscreenenter"",""0"",""3195""
","
","null","run_exp/static/images/Set 6_rs/010a.jpg","null","","","","","","learn","SR",""
"","html-keyboard-response","33","73049","0.0-33.0","""event"",""trial"",""time""
""fullscreenenter"",""0"",""3195""
","
","
","""event"",""trial"",""time""
""fullscreenenter"",""0"",""3195""
","
","null","<p></p>","null","","","","","","","",""
"","image","34","73797","0.0-34.0","""event"",""trial"",""time""
""fullscreenenter"",""0"",""3195""
","
","
","""event"",""trial"",""time""
""fullscreenenter"",""0"",""3195""
","
","746.8000000119209","run_exp/static/images/Set 6_rs/014a.jpg","86","","","","","","learn","SL",""
"","show_choice","35","75055","0.0-35.0","""event"",""trial"",""time""
""fullscreenenter"",""0"",""3195""
","
","
","""event"",""trial"",""time""
""fullscreenenter"",""0"",""3195""
","
","null","run_exp/static/images/Set 6_rs/014a.jpg","null","","","","","","learn","SL",""
"","html-keyboard-response","36","75564","0.0-36.0","""event"",""trial"",""time""
""fullscreenenter"",""0"",""3195""
","
","
","""event"",""trial"",""time""
""fullscreenenter"",""0"",""3195""
","
","null","<p></p>","null","","","","","","","",""
"","image","37","76657","0.0-37.0","""event"",""trial"",""time""
""fullscreenenter"",""0"",""3195""
","
","
","""event"",""trial"",""time""
""fullscreenenter"",""0"",""3195""
","
","1090.6000000238419","run_exp/static/images/Set 6_rs/126a.jpg","78","","","","","","learn","SR",""
"","show_choice","38","77579","0.0-38.0","""event"",""trial"",""time""
""fullscreenenter"",""0"",""3195""
","
","
","""event"",""trial"",""time""
""fullscreenenter"",""0"",""3195""
","
","null","run_exp/static/images/Set 6_rs/126a.jpg","null","","","","","","learn","SR",""
"","html-keyboard-response","39","78093","0.0-39.0","""event"",""trial"",""time""
""fullscreenenter"",""0"",""3195""
","
","
","""event"",""trial"",""time""
""fullscreenenter"",""0"",""3195""
","
","null","<p></p>","null","","","","","","","",""
"","image","40","78986","0.0-40.0","""event"",""trial"",""time""
""fullscreenenter"",""0"",""3195""
","
","
","""event"",""trial"",""time""
""fullscreenenter"",""0"",""3195""
","
","890.2000000476837","run_exp/static/images/Set 6_rs/019a.jpg","86","","","","","","learn","SL",""
"","show_choice","41","80108","0.0-41.0","""event"",""trial"",""time""
""fullscreenenter"",""0"",""3195""
","
","
","""event"",""trial"",""time""
""fullscreenenter"",""0"",""3195""
","
","null","run_exp/static/images/Set 6_rs/019a.jpg","null","","","","","","learn","SL",""
"","html-keyboard-response","42","80619","0.0-42.0","""event"",""trial"",""time""
""fullscreenenter"",""0"",""3195""
","
","
","""event"",""trial"",""time""
""fullscreenenter"",""0"",""3195""
","
","null","<p></p>","null","","","","","","","",""
"","image","43","81490","0.0-43.0","""event"",""trial"",""time""
""fullscreenenter"",""0"",""3195""
","
","
","""event"",""trial"",""time""
""fullscreenenter"",""0"",""3195""
","
","869","run_exp/static/images/Set 6_rs/181a.jpg","78","","","","","","learn","SL",""
"","show_choice","44","82625","0.0-44.0","""event"",""trial"",""time""
""fullscreenenter"",""0"",""3195""
","
","
","""event"",""trial"",""time""
""fullscreenenter"",""0"",""3195""
","
","null","run_exp/static/images/Set 6_rs/181a.jpg","null","","","","","","learn","SL",""
"","html-keyboard-response","45","83139","0.0-45.0","""event"",""trial"",""time""
""fullscreenenter"",""0"",""3195""
","
","
","""event"",""trial"",""time""
""fullscreenenter"",""0"",""3195""
","
","null","<p></p>","null","","","","","","","",""
"","image","46","83879","0.0-46.0","""event"",""trial"",""time""
""fullscreenenter"",""0"",""3195""
","
","
","""event"",""trial"",""time""
""fullscreenenter"",""0"",""3195""
","
","737.6999999880791","run_exp/static/images/Set 6_rs/134a.jpg","86","","","","","","learn","SR",""
"","show_choice","47","85155","0.0-47.0","""event"",""trial"",""time""
""fullscreenenter"",""0"",""3195""
","
","
","""event"",""trial"",""time""
""fullscreenenter"",""0"",""3195""
","
","null","run_exp/static/images/Set 6_rs/134a.jpg","null","","","","","","learn","SR",""
"","html-keyboard-response","48","85670","0.0-48.0","""event"",""trial"",""time""
""fullscreenenter"",""0"",""3195""
","
","
","""event"",""trial"",""time""
""fullscreenenter"",""0"",""3195""
","
","null","<p></p>","null","","","","","","","",""
"","image","49","86631","0.0-49.0","""event"",""trial"",""time""
""fullscreenenter"",""0"",""3195""
","
","
","""event"",""trial"",""time""
""fullscreenenter"",""0"",""3195""
","
","958.6999999880791","run_exp/static/images/Set 6_rs/169a.jpg","78","","","","","","learn","SR",""
"","show_choice","50","87674","0.0-50.0","""event"",""trial"",""time""
""fullscreenenter"",""0"",""3195""
","
","
","""event"",""trial"",""time""
""fullscreenenter"",""0"",""3195""
","
","null","run_exp/static/images/Set 6_rs/169a.jpg","null","","","","","","learn","SR",""
"","html-keyboard-response","51","88186","0.0-51.0","""event"",""trial"",""time""
""fullscreenenter"",""0"",""3195""
","
","
","""event"",""trial"",""time""
""fullscreenenter"",""0"",""3195""
","
","null","<p></p>","null","","","","","","","",""
"","image","52","89256","0.0-52.0","""event"",""trial"",""time""
""fullscreenenter"",""0"",""3195""
","
","
","""event"",""trial"",""time""
""fullscreenenter"",""0"",""3195""
","
","1067.0999999642372","run_exp/static/images/Set 6_rs/172a.jpg","78","","","","","","learn","SR",""
"","show_choice","53","90197","0.0-53.0","""event"",""trial"",""time""
""fullscreenenter"",""0"",""3195""
","
","
","""event"",""trial"",""time""
""fullscreenenter"",""0"",""3195""
","
","null","run_exp/static/images/Set 6_rs/172a.jpg","null","","","","","","learn","SR",""
"","html-keyboard-response","54","90709","0.0-54.0","""event"",""trial"",""time""
""fullscreenenter"",""0"",""3195""
","
","
","""event"",""trial"",""time""
""fullscreenenter"",""0"",""3195""
","
","null","<p></p>","null","","","","","","","",""
"","image","55","91981","0.0-55.0","""event"",""trial"",""time""
""fullscreenenter"",""0"",""3195""
","
","
","""event"",""trial"",""time""
""fullscreenenter"",""0"",""3195""
","
","1269.5","run_exp/static/images/Set 6_rs/045a.jpg","86","","","","","","learn","SR",""
"","show_choice","56","92726","0.0-56.0","""event"",""trial"",""time""
""fullscreenenter"",""0"",""3195""
","
","
","""event"",""trial"",""time""
""fullscreenenter"",""0"",""3195""
","
","null","run_exp/static/images/Set 6_rs/045a.jpg","null","","","","","","learn","SR",""
"","html-keyboard-response","57","93238","0.0-57.0","""event"",""trial"",""time""
""fullscreenenter"",""0"",""3195""
","
","
","""event"",""trial"",""time""
""fullscreenenter"",""0"",""3195""
","
","null","<p></p>","null","","","","","","","",""
"","image","58","94651","0.0-58.0","""event"",""trial"",""time""
""fullscreenenter"",""0"",""3195""
","
","
","""event"",""trial"",""time""
""fullscreenenter"",""0"",""3195""
","
","1409.9000000357628","run_exp/static/images/Set 6_rs/108a.jpg","86","","","","","","learn","SR",""
"","show_choice","59","95252","0.0-59.0","""event"",""trial"",""time""
""fullscreenenter"",""0"",""3195""
","
","
","""event"",""trial"",""time""
""fullscreenenter"",""0"",""3195""
","
","null","run_exp/static/images/Set 6_rs/108a.jpg","null","","","","","","learn","SR",""
"","html-keyboard-response","60","95765","0.0-60.0","""event"",""trial"",""time""
""fullscreenenter"",""0"",""3195""
","
","
","""event"",""trial"",""time""
""fullscreenenter"",""0"",""3195""
","
","null","<p></p>","null","","","","","","","",""
"","image","61","97205","0.0-61.0","""event"",""trial"",""time""
""fullscreenenter"",""0"",""3195""
","
","
","""event"",""trial"",""time""
""fullscreenenter"",""0"",""3195""
","
","1438.4000000357628","run_exp/static/images/Set 6_rs/023a.jpg","86","","","","","","learn","SR",""
"","show_choice","62","97768","0.0-62.0","""event"",""trial"",""time""
""fullscreenenter"",""0"",""3195""
","
","
","""event"",""trial"",""time""
""fullscreenenter"",""0"",""3195""
","
","null","run_exp/static/images/Set 6_rs/023a.jpg","null","","","","","","learn","SR",""
"","html-keyboard-response","63","98280","0.0-63.0","""event"",""trial"",""time""
""fullscreenenter"",""0"",""3195""
","
","
","""event"",""trial"",""time""
""fullscreenenter"",""0"",""3195""
","
","null","<p></p>","null","","","","","","","",""
"","image","64","99428","0.0-64.0","""event"",""trial"",""time""
""fullscreenenter"",""0"",""3195""
","
","
","""event"",""trial"",""time""
""fullscreenenter"",""0"",""3195""
","
","1145.1000000238419","run_exp/static/images/Set 6_rs/089a.jpg","86","","","","","","learn","SL",""
"","show_choice","65","100286","0.0-65.0","""event"",""trial"",""time""
""fullscreenenter"",""0"",""3195""
","
","
","""event"",""trial"",""time""
""fullscreenenter"",""0"",""3195""
","
","null","run_exp/static/images/Set 6_rs/089a.jpg","null","","","","","","learn","SL",""
"","html-keyboard-response","66","100798","0.0-66.0","""event"",""trial"",""time""
""fullscreenenter"",""0"",""3195""
","
","
","""event"",""trial"",""time""
""fullscreenenter"",""0"",""3195""
","
","null","<p></p>","null","","","","","","","",""
"","image","67","102338","0.0-67.0","""event"",""trial"",""time""
""fullscreenenter"",""0"",""3195""
","
","
","""event"",""trial"",""time""
""fullscreenenter"",""0"",""3195""
","
","1538","run_exp/static/images/Set 6_rs/191a.jpg","78","","","","","","learn","SL",""
"","show_choice","68","102811","0.0-68.0","""event"",""trial"",""time""
""fullscreenenter"",""0"",""3195""
","
","
","""event"",""trial"",""time""
""fullscreenenter"",""0"",""3195""
","
","null","run_exp/static/images/Set 6_rs/191a.jpg","null","","","","","","learn","SL",""
"","html-keyboard-response","69","103325","0.0-69.0","""event"",""trial"",""time""
""fullscreenenter"",""0"",""3195""
","
","
","""event"",""trial"",""time""
""fullscreenenter"",""0"",""3195""
","
","null","<p></p>","null","","","","","","","",""
"","image","70","105340","0.0-70.0","""event"",""trial"",""time""
""fullscreenenter"",""0"",""3195""
","
","
","""event"",""trial"",""time""
""fullscreenenter"",""0"",""3195""
","
","null","run_exp/static/images/Set 6_rs/141a.jpg","null","","","","","","learn","SR",""
"","show_choice","71","107357","0.0-71.0","""event"",""trial"",""time""
""fullscreenenter"",""0"",""3195""
","
","
","""event"",""trial"",""time""
""fullscreenenter"",""0"",""3195""
","
","null","run_exp/static/images/blank.png","null","","","","","","learn","SR",""
"","html-keyboard-response","72","107873","0.0-72.0","""event"",""trial"",""time""
""fullscreenenter"",""0"",""3195""
","
","
","""event"",""trial"",""time""
""fullscreenenter"",""0"",""3195""
","
","null","<p></p>","null","","","","","","","",""
"","image","73","108624","0.0-73.0","""event"",""trial"",""time""
""fullscreenenter"",""0"",""3195""
","
","
","""event"",""trial"",""time""
""fullscreenenter"",""0"",""3195""
","
","748.2000000476837","run_exp/static/images/Set 6_rs/073a.jpg","86","","","","","","learn","SL",""
"","show_choice","74","109883","0.0-74.0","""event"",""trial"",""time""
""fullscreenenter"",""0"",""3195""
","
","
","""event"",""trial"",""time""
""fullscreenenter"",""0"",""3195""
","
","null","run_exp/static/images/Set 6_rs/073a.jpg","null","","","","","","learn","SL",""
"","html-keyboard-response","75","110399","0.0-75.0","""event"",""trial"",""time""
""fullscreenenter"",""0"",""3195""
","
","
","""event"",""trial"",""time""
""fullscreenenter"",""0"",""3195""
","
","null","<p></p>","null","","","","","","","",""
"","image","76","111788","0.0-76.0","""event"",""trial"",""time""
""fullscreenenter"",""0"",""3195""
","
","
","""event"",""trial"",""time""
""fullscreenenter"",""0"",""3195""
","
","1387.1000000238419","run_exp/static/images/Set 6_rs/168a.jpg","86","","","","","","learn","SL",""
"","show_choice","77","112413","0.0-77.0","""event"",""trial"",""time""
""fullscreenenter"",""0"",""3195""
","
","
","""event"",""trial"",""time""
""fullscreenenter"",""0"",""3195""
","
","null","run_exp/static/images/Set 6_rs/168a.jpg","null","","","","","","learn","SL",""
"","html-keyboard-response","78","112924","0.0-78.0","""event"",""trial"",""time""
""fullscreenenter"",""0"",""3195""
","
","
","""event"",""trial"",""time""
""fullscreenenter"",""0"",""3195""
","
","null","<p></p>","null","","","","","","","",""
"","image","79","114047","0.0-79.0","""event"",""trial"",""time""
""fullscreenenter"",""0"",""3195""
","
","
","""event"",""trial"",""time""
""fullscreenenter"",""0"",""3195""
","
","1119.699999988079","run_exp/static/images/Set 6_rs/071a.jpg","78","","","","","","learn","SL",""
"","show_choice","80","114930","0.0-80.0","""event"",""trial"",""time""
""fullscreenenter"",""0"",""3195""
","
","
","""event"",""trial"",""time""
""fullscreenenter"",""0"",""3195""
","
","null","run_exp/static/images/Set 6_rs/071a.jpg","null","","","","","","learn","SL",""
"","html-keyboard-response","81","115439","0.0-81.0","""event"",""trial"",""time""
""fullscreenenter"",""0"",""3195""
","
","
","""event"",""trial"",""time""
""fullscreenenter"",""0"",""3195""
","
","null","<p></p>","null","","","","","","","",""
"","image","82","116783","0.0-82.0","""event"",""trial"",""time""
""fullscreenenter"",""0"",""3195""
","
","
","""event"",""trial"",""time""
""fullscreenenter"",""0"",""3195""
","
","1342.5","run_exp/static/images/Set 6_rs/111a.jpg","86","","","","","","learn","SL",""
"","show_choice","83","117453","0.0-83.0","""event"",""trial"",""time""
""fullscreenenter"",""0"",""3195""
","
","
","""event"",""trial"",""time""
""fullscreenenter"",""0"",""3195""
","
","null","run_exp/static/images/Set 6_rs/111a.jpg","null","","","","","","learn","SL",""
"","html-keyboard-response","84","117955","0.0-84.0","""event"",""trial"",""time""
""fullscreenenter"",""0"",""3195""
","
","
","""event"",""trial"",""time""
""fullscreenenter"",""0"",""3195""
","
","null","<p></p>","null","","","","","","","",""
"","image","85","119283","0.0-85.0","""event"",""trial"",""time""
""fullscreenenter"",""0"",""3195""
","
","
","""event"",""trial"",""time""
""fullscreenenter"",""0"",""3195""
","
","1325.7999999523163","run_exp/static/images/Set 6_rs/006a.jpg","86","","","","","","learn","SL",""
"","show_choice","86","119967","0.0-86.0","""event"",""trial"",""time""
""fullscreenenter"",""0"",""3195""
","
","
","""event"",""trial"",""time""
""fullscreenenter"",""0"",""3195""
","
","null","run_exp/static/images/Set 6_rs/006a.jpg","null","","","","","","learn","SL",""
"","html-keyboard-response","87","120481","0.0-87.0","""event"",""trial"",""time""
""fullscreenenter"",""0"",""3195""
","
","
","""event"",""trial"",""time""
""fullscreenenter"",""0"",""3195""
","
","null","<p></p>","null","","","","","","","",""
"","image","88","120980","0.0-88.0","""event"",""trial"",""time""
""fullscreenenter"",""0"",""3195""
","
","
","""event"",""trial"",""time""
""fullscreenenter"",""0"",""3195""
","
","496.7000000476837","run_exp/static/images/Set 6_rs/036a.jpg","78","","","","","","learn","SL",""
"","show_choice","89","122490","0.0-89.0","""event"",""trial"",""time""
""fullscreenenter"",""0"",""3195""
","
","
","""event"",""trial"",""time""
""fullscreenenter"",""0"",""3195""
","
","null","run_exp/static/images/Set 6_rs/036a.jpg","null","","","","","","learn","SL",""
"","html-keyboard-response","90","123004","0.0-90.0","""event"",""trial"",""time""
""fullscreenenter"",""0"",""3195""
","
","
","""event"",""trial"",""time""
""fullscreenenter"",""0"",""3195""
","
","null","<p></p>","null","","","","","","","",""
"","image","91","124203","0.0-91.0","""event"",""trial"",""time""
""fullscreenenter"",""0"",""3195""
","
","
","""event"",""trial"",""time""
""fullscreenenter"",""0"",""3195""
","
","1196.800000011921","run_exp/static/images/Set 6_rs/017a.jpg","78","","","","","","learn","SL",""
"","show_choice","92","125013","0.0-92.0","""event"",""trial"",""time""
""fullscreenenter"",""0"",""3195""
","
","
","""event"",""trial"",""time""
""fullscreenenter"",""0"",""3195""
","
","null","run_exp/static/images/Set 6_rs/017a.jpg","null","","","","","","learn","SL",""
"","html-keyboard-response","93","125527","0.0-93.0","""event"",""trial"",""time""
""fullscreenenter"",""0"",""3195""
","
","
","""event"",""trial"",""time""
""fullscreenenter"",""0"",""3195""
","
","null","<p></p>","null","","","","","","","",""
"","image","94","126732","0.0-94.0","""event"",""trial"",""time""
""fullscreenenter"",""0"",""3195""
","
","
","""event"",""trial"",""time""
""fullscreenenter"",""0"",""3195""
","
","1202.5999999642372","run_exp/static/images/Set 6_rs/138a.jpg","78","","","","","","learn","SL",""
"","show_choice","95","127546","0.0-95.0","""event"",""trial"",""time""
""fullscreenenter"",""0"",""3195""
","
","
","""event"",""trial"",""time""
""fullscreenenter"",""0"",""3195""
","
","null","run_exp/static/images/Set 6_rs/138a.jpg","null","","","","","","learn","SL",""
"","html-keyboard-response","96","128060","0.0-96.0","""event"",""trial"",""time""
""fullscreenenter"",""0"",""3195""
","
","
","""event"",""trial"",""time""
""fullscreenenter"",""0"",""3195""
","
","null","<p></p>","null","","","","","","","",""
"","image","97","129201","0.0-97.0","""event"",""trial"",""time""
""fullscreenenter"",""0"",""3195""
","
","
","""event"",""trial"",""time""
""fullscreenenter"",""0"",""3195""
","
","1138.8999999761581","run_exp/static/images/Set 6_rs/061a.jpg","78","","","","","","learn","SR",""
"","show_choice","98","130069","0.0-98.0","""event"",""trial"",""time""
""fullscreenenter"",""0"",""3195""
","
","
","""event"",""trial"",""time""
""fullscreenenter"",""0"",""3195""
","
","null","run_exp/static/images/Set 6_rs/061a.jpg","null","","","","","","learn","SR",""
"","html-keyboard-response","99","130582","0.0-99.0","""event"",""trial"",""time""
""fullscreenenter"",""0"",""3195""
","
","
","""event"",""trial"",""time""
""fullscreenenter"",""0"",""3195""
","
","null","<p></p>","null","","","","","","","",""
"","image","100","131587","0.0-100.0","""event"",""trial"",""time""
""fullscreenenter"",""0"",""3195""
","
","
","""event"",""trial"",""time""
""fullscreenenter"",""0"",""3195""
","
","1002.9000000357628","run_exp/static/images/Set 6_rs/095a.jpg","86","","","","","","learn","SL",""
"","show_choice","101","132592","0.0-101.0","""event"",""trial"",""time""
""fullscreenenter"",""0"",""3195""
","
","
","""event"",""trial"",""time""
""fullscreenenter"",""0"",""3195""
","
","null","run_exp/static/images/Set 6_rs/095a.jpg","null","","","","","","learn","SL",""
"","html-keyboard-response","102","133105","0.0-102.0","""event"",""trial"",""time""
""fullscreenenter"",""0"",""3195""
","
","
","""event"",""trial"",""time""
""fullscreenenter"",""0"",""3195""
","
","null","<p></p>","null","","","","","","","",""
"","image","103","134287","0.0-103.0","""event"",""trial"",""time""
""fullscreenenter"",""0"",""3195""
","
","
","""event"",""trial"",""time""
""fullscreenenter"",""0"",""3195""
","
","1179.3999999761581","run_exp/static/images/Set 6_rs/088a.jpg","86","","","","","","learn","SR",""
"","show_choice","104","135111","0.0-104.0","""event"",""trial"",""time""
""fullscreenenter"",""0"",""3195""
","
","
","""event"",""trial"",""time""
""fullscreenenter"",""0"",""3195""
","
","null","run_exp/static/images/Set 6_rs/088a.jpg","null","","","","","","learn","SR",""
"","html-keyboard-response","105","135625","0.0-105.0","""event"",""trial"",""time""
""fullscreenenter"",""0"",""3195""
","
","
","""event"",""trial"",""time""
""fullscreenenter"",""0"",""3195""
","
","null","<p></p>","null","","","","","","","",""
"","image","106","136412","0.0-106.0","""event"",""trial"",""time""
""fullscreenenter"",""0"",""3195""
","
","
","""event"",""trial"",""time""
""fullscreenenter"",""0"",""3195""
","
","785.1000000238419","run_exp/static/images/Set 6_rs/085a.jpg","78","","","","","","learn","SL",""
"","show_choice","107","137636","0.0-107.0","""event"",""trial"",""time""
""fullscreenenter"",""0"",""3195""
","
","
","""event"",""trial"",""time""
""fullscreenenter"",""0"",""3195""
","
","null","run_exp/static/images/Set 6_rs/085a.jpg","null","","","","","","learn","SL",""
"","html-keyboard-response","108","138148","0.0-108.0","""event"",""trial"",""time""
""fullscreenenter"",""0"",""3195""
","
","
","""event"",""trial"",""time""
""fullscreenenter"",""0"",""3195""
","
","null","<p></p>","null","","","","","","","",""
"","image","109","139539","0.0-109.0","""event"",""trial"",""time""
""fullscreenenter"",""0"",""3195""
","
","
","""event"",""trial"",""time""
""fullscreenenter"",""0"",""3195""
","
","1389.1000000238419","run_exp/static/images/Set 6_rs/177a.jpg","78","","","","","","learn","SR",""
"","show_choice","110","140155","0.0-110.0","""event"",""trial"",""time""
""fullscreenenter"",""0"",""3195""
","
","
","""event"",""trial"",""time""
""fullscreenenter"",""0"",""3195""
","
","null","run_exp/static/images/Set 6_rs/177a.jpg","null","","","","","","learn","SR",""
"","html-keyboard-response","111","140658","0.0-111.0","""event"",""trial"",""time""
""fullscreenenter"",""0"",""3195""
","
","
","""event"",""trial"",""time""
""fullscreenenter"",""0"",""3195""
","
","null","<p></p>","null","","","","","","","",""
"","image","112","142115","0.0-112.0","""event"",""trial"",""time""
""fullscreenenter"",""0"",""3195""
","
","
","""event"",""trial"",""time""
""fullscreenenter"",""0"",""3195""
","
","1455.5","run_exp/static/images/Set 6_rs/132a.jpg","78","","","","","","learn","SR",""
"","show_choice","113","142663","0.0-113.0","""event"",""trial"",""time""
""fullscreenenter"",""0"",""3195""
","
","
","""event"",""trial"",""time""
""fullscreenenter"",""0"",""3195""
","
","null","run_exp/static/images/Set 6_rs/132a.jpg","null","","","","","","learn","SR",""
"","html-keyboard-response","114","143165","0.0-114.0","""event"",""trial"",""time""
""fullscreenenter"",""0"",""3195""
","
","
","""event"",""trial"",""time""
""fullscreenenter"",""0"",""3195""
","
","null","<p></p>","null","","","","","","","",""
"","image","115","144262","0.0-115.0","""event"",""trial"",""time""
""fullscreenenter"",""0"",""3195""
","
","
","""event"",""trial"",""time""
""fullscreenenter"",""0"",""3195""
","
","1095","run_exp/static/images/Set 6_rs/057a.jpg","86","","","","","","learn","SL",""
"","show_choice","116","145181","0.0-116.0","""event"",""trial"",""time""
""fullscreenenter"",""0"",""3195""
","
","
","""event"",""trial"",""time""
""fullscreenenter"",""0"",""3195""
","
","null","run_exp/static/images/Set 6_rs/057a.jpg","null","","","","","","learn","SL",""
"","html-keyboard-response","117","145695","0.0-117.0","""event"",""trial"",""time""
""fullscreenenter"",""0"",""3195""
","
","
","""event"",""trial"",""time""
""fullscreenenter"",""0"",""3195""
","
","null","<p></p>","null","","","","","","","",""
"","image","118","147242","0.0-118.0","""event"",""trial"",""time""
""fullscreenenter"",""0"",""3195""
","
","
","""event"",""trial"",""time""
""fullscreenenter"",""0"",""3195""
","
","1544.7999999523163","run_exp/static/images/Set 6_rs/074a.jpg","78","","","","","","learn","SL",""
"","show_choice","119","147699","0.0-119.0","""event"",""trial"",""time""
""fullscreenenter"",""0"",""3195""
","
","
","""event"",""trial"",""time""
""fullscreenenter"",""0"",""3195""
","
","null","run_exp/static/images/Set 6_rs/074a.jpg","null","","","","","","learn","SL",""
"","html-keyboard-response","120","148199","0.0-120.0","""event"",""trial"",""time""
""fullscreenenter"",""0"",""3195""
","
","
","""event"",""trial"",""time""
""fullscreenenter"",""0"",""3195""
","
","null","<p></p>","null","","","","","","","",""
"","image","121","149367","0.0-121.0","""event"",""trial"",""time""
""fullscreenenter"",""0"",""3195""
","
","
","""event"",""trial"",""time""
""fullscreenenter"",""0"",""3195""
","
","1165.300000011921","run_exp/static/images/Set 6_rs/063a.jpg","86","","","","","","learn","SR",""
"","show_choice","122","150207","0.0-122.0","""event"",""trial"",""time""
""fullscreenenter"",""0"",""3195""
","
","
","""event"",""trial"",""time""
""fullscreenenter"",""0"",""3195""
","
","null","run_exp/static/images/Set 6_rs/063a.jpg","null","","","","","","learn","SR",""
"","html-keyboard-response","123","150710","0.0-123.0","""event"",""trial"",""time""
""fullscreenenter"",""0"",""3195""
","
","
","""event"",""trial"",""time""
""fullscreenenter"",""0"",""3195""
","
","null","<p></p>","null","","","","","","","",""
"","image","124","152310","0.0-124.0","""event"",""trial"",""time""
""fullscreenenter"",""0"",""3195""
","
","
","""event"",""trial"",""time""
""fullscreenenter"",""0"",""3195""
","
","1598.6000000238419","run_exp/static/images/Set 6_rs/123a.jpg","78","","","","","","learn","SL",""
"","show_choice","125","152716","0.0-125.0","""event"",""trial"",""time""
""fullscreenenter"",""0"",""3195""
","
","
","""event"",""trial"",""time""
""fullscreenenter"",""0"",""3195""
","
","null","run_exp/static/images/Set 6_rs/123a.jpg","null","","","","","","learn","SL",""
"","html-keyboard-response","126","153219","0.0-126.0","""event"",""trial"",""time""
""fullscreenenter"",""0"",""3195""
","
","
","""event"",""trial"",""time""
""fullscreenenter"",""0"",""3195""
","
","null","<p></p>","null","","","","","","","",""
"","image","127","155040","0.0-127.0","""event"",""trial"",""time""
""fullscreenenter"",""0"",""3195""
","
","
","""event"",""trial"",""time""
""fullscreenenter"",""0"",""3195""
","
","1818.8999999761581","run_exp/static/images/Set 6_rs/016a.jpg","86","","","","","","learn","SL",""
"","show_choice","128","155223","0.0-128.0","""event"",""trial"",""time""
""fullscreenenter"",""0"",""3195""
","
","
","""event"",""trial"",""time""
""fullscreenenter"",""0"",""3195""
","
","null","run_exp/static/images/Set 6_rs/016a.jpg","null","","","","","","learn","SL",""
"","html-keyboard-response","129","155739","0.0-129.0","""event"",""trial"",""time""
""fullscreenenter"",""0"",""3195""
","
","
","""event"",""trial"",""time""
""fullscreenenter"",""0"",""3195""
","
","null","<p></p>","null","","","","","","","",""
"","image","130","156997","0.0-130.0","""event"",""trial"",""time""
""fullscreenenter"",""0"",""3195""
","
","
","""event"",""trial"",""time""
""fullscreenenter"",""0"",""3195""
","
","1254.300000011921","run_exp/static/images/Set 6_rs/152a.jpg","78","","","","","","learn","SR",""
"","show_choice","131","157745","0.0-131.0","""event"",""trial"",""time""
""fullscreenenter"",""0"",""3195""
","
","
","""event"",""trial"",""time""
""fullscreenenter"",""0"",""3195""
","
","null","run_exp/static/images/Set 6_rs/152a.jpg","null","","","","","","learn","SR",""
"","html-keyboard-response","132","158248","0.0-132.0","""event"",""trial"",""time""
""fullscreenenter"",""0"",""3195""
","
","
","""event"",""trial"",""time""
""fullscreenenter"",""0"",""3195""
","
","null","<p></p>","null","","","","","","","",""
"","image","133","159143","0.0-133.0","""event"",""trial"",""time""
""fullscreenenter"",""0"",""3195""
","
","
","""event"",""trial"",""time""
""fullscreenenter"",""0"",""3195""
","
","892.3999999761581","run_exp/static/images/Set 6_rs/008a.jpg","86","","","","","","learn","SL",""
"","show_choice","134","160260","0.0-134.0","""event"",""trial"",""time""
""fullscreenenter"",""0"",""3195""
","
","
","""event"",""trial"",""time""
""fullscreenenter"",""0"",""3195""
","
","null","run_exp/static/images/Set 6_rs/008a.jpg","null","","","","","","learn","SL",""
"","html-keyboard-response","135","160772","0.0-135.0","""event"",""trial"",""time""
""fullscreenenter"",""0"",""3195""
","
","
","""event"",""trial"",""time""
""fullscreenenter"",""0"",""3195""
","
","null","<p></p>","null","","","","","","","",""
"","image","136","162109","0.0-136.0","""event"",""trial"",""time""
""fullscreenenter"",""0"",""3195""
","
","
","""event"",""trial"",""time""
""fullscreenenter"",""0"",""3195""
","
","1334.1000000238419","run_exp/static/images/Set 6_rs/076a.jpg","78","","","","","","learn","SR",""
"","show_choice","137","162776","0.0-137.0","""event"",""trial"",""time""
""fullscreenenter"",""0"",""3195""
","
","
","""event"",""trial"",""time""
""fullscreenenter"",""0"",""3195""
","
","null","run_exp/static/images/Set 6_rs/076a.jpg","null","","","","","","learn","SR",""
"","html-keyboard-response","138","163277","0.0-138.0","""event"",""trial"",""time""
""fullscreenenter"",""0"",""3195""
","
","
","""event"",""trial"",""time""
""fullscreenenter"",""0"",""3195""
","
","null","<p></p>","null","","","","","","","",""
"","image","139","164037","0.0-139.0","""event"",""trial"",""time""
""fullscreenenter"",""0"",""3195""
","
","
","""event"",""trial"",""time""
""fullscreenenter"",""0"",""3195""
","
","757.5","run_exp/static/images/Set 6_rs/007a.jpg","86","","","","","","learn","SR",""
"","show_choice","140","165284","0.0-140.0","""event"",""trial"",""time""
""fullscreenenter"",""0"",""3195""
","
","
","""event"",""trial"",""time""
""fullscreenenter"",""0"",""3195""
","
","null","run_exp/static/images/Set 6_rs/007a.jpg","null","","","","","","learn","SR",""
"","html-keyboard-response","141","165788","0.0-141.0","""event"",""trial"",""time""
""fullscreenenter"",""0"",""3195""
","
","
","""event"",""trial"",""time""
""fullscreenenter"",""0"",""3195""
","
","null","<p></p>","null","","","","","","","",""
"","image","142","167524","0.0-142.0","""event"",""trial"",""time""
""fullscreenenter"",""0"",""3195""
","
","
","""event"",""trial"",""time""
""fullscreenenter"",""0"",""3195""
","
","1732.5999999642372","run_exp/static/images/Set 6_rs/150a.jpg","86","","","","","","learn","SR",""
"","show_choice","143","167806","0.0-143.0","""event"",""trial"",""time""
""fullscreenenter"",""0"",""3195""
","
","
","""event"",""trial"",""time""
""fullscreenenter"",""0"",""3195""
","
","null","run_exp/static/images/Set 6_rs/150a.jpg","null","","","","","","learn","SR",""
"","html-keyboard-response","144","168317","0.0-144.0","""event"",""trial"",""time""
""fullscreenenter"",""0"",""3195""
","
","
","""event"",""trial"",""time""
""fullscreenenter"",""0"",""3195""
","
","null","<p></p>","null","","","","","","","",""
"","image","145","169435","0.0-145.0","""event"",""trial"",""time""
""fullscreenenter"",""0"",""3195""
","
","
","""event"",""trial"",""time""
""fullscreenenter"",""0"",""3195""
","
","1115.800000011921","run_exp/static/images/Set 6_rs/012a.jpg","86","","","","","","learn","SR",""
"","show_choice","146","170328","0.0-146.0","""event"",""trial"",""time""
""fullscreenenter"",""0"",""3195""
","
","
","""event"",""trial"",""time""
""fullscreenenter"",""0"",""3195""
","
","null","run_exp/static/images/Set 6_rs/012a.jpg","null","","","","","","learn","SR",""
"","html-keyboard-response","147","170840","0.0-147.0","""event"",""trial"",""time""
""fullscreenenter"",""0"",""3195""
","
","
","""event"",""trial"",""time""
""fullscreenenter"",""0"",""3195""
","
","null","<p></p>","null","","","","","","","",""
"","image","148","172102","0.0-148.0","""event"",""trial"",""time""
""fullscreenenter"",""0"",""3195""
","
","
","""event"",""trial"",""time""
""fullscreenenter"",""0"",""3195""
","
","1259.8999999761581","run_exp/static/images/Set 6_rs/186a.jpg","86","","","","","","learn","SR",""
"","show_choice","149","172850","0.0-149.0","""event"",""trial"",""time""
""fullscreenenter"",""0"",""3195""
","
","
","""event"",""trial"",""time""
""fullscreenenter"",""0"",""3195""
","
","null","run_exp/static/images/Set 6_rs/186a.jpg","null","","","","","","learn","SR",""
"","html-keyboard-response","150","173365","0.0-150.0","""event"",""trial"",""time""
""fullscreenenter"",""0"",""3195""
","
","
","""event"",""trial"",""time""
""fullscreenenter"",""0"",""3195""
","
","null","<p></p>","null","","","","","","","",""
"","image","151","174961","0.0-151.0","""event"",""trial"",""time""
""fullscreenenter"",""0"",""3195""
","
","
","""event"",""trial"",""time""
""fullscreenenter"",""0"",""3195""
","
","1594.699999988079","run_exp/static/images/Set 6_rs/122a.jpg","86","","","","","","learn","SR",""
"","show_choice","152","175371","0.0-152.0","""event"",""trial"",""time""
""fullscreenenter"",""0"",""3195""
","
","
","""event"",""trial"",""time""
""fullscreenenter"",""0"",""3195""
","
","null","run_exp/static/images/Set 6_rs/122a.jpg","null","","","","","","learn","SR",""
"","html-keyboard-response","153","175882","0.0-153.0","""event"",""trial"",""time""
""fullscreenenter"",""0"",""3195""
","
","
","""event"",""trial"",""time""
""fullscreenenter"",""0"",""3195""
","
","null","<p></p>","null","","","","","","","",""
"","image","154","177168","0.0-154.0","""event"",""trial"",""time""
""fullscreenenter"",""0"",""3195""
","
","
","""event"",""trial"",""time""
""fullscreenenter"",""0"",""3195""
","
","1283.8999999761581","run_exp/static/images/Set 6_rs/112a.jpg","86","","","","","","learn","SR",""
"","show_choice","155","177886","0.0-155.0","""event"",""trial"",""time""
""fullscreenenter"",""0"",""3195""
","
","
","""event"",""trial"",""time""
""fullscreenenter"",""0"",""3195""
","
","null","run_exp/static/images/Set 6_rs/112a.jpg","null","","","","","","learn","SR",""
"","html-keyboard-response","156","178403","0.0-156.0","""event"",""trial"",""time""
""fullscreenenter"",""0"",""3195""
","
","
","""event"",""trial"",""time""
""fullscreenenter"",""0"",""3195""
","
","null","<p></p>","null","","","","","","","",""
"","image","157","179893","0.0-157.0","""event"",""trial"",""time""
""fullscreenenter"",""0"",""3195""
","
","
","""event"",""trial"",""time""
""fullscreenenter"",""0"",""3195""
","
","1488","run_exp/static/images/Set 6_rs/091a.jpg","78","","","","","","learn","SL",""
"","show_choice","158","180415","0.0-158.0","""event"",""trial"",""time""
""fullscreenenter"",""0"",""3195""
","
","
","""event"",""trial"",""time""
""fullscreenenter"",""0"",""3195""
","
","null","run_exp/static/images/Set 6_rs/091a.jpg","null","","","","","","learn","SL",""
"","html-keyboard-response","159","180931","0.0-159.0","""event"",""trial"",""time""
""fullscreenenter"",""0"",""3195""
","
","
","""event"",""trial"",""time""
""fullscreenenter"",""0"",""3195""
","
","null","<p></p>","null","","","","","","","",""
"","image","160","181929","0.0-160.0","""event"",""trial"",""time""
""fullscreenenter"",""0"",""3195""
","
","
","""event"",""trial"",""time""
""fullscreenenter"",""0"",""3195""
","
","995.7999999523163","run_exp/static/images/Set 6_rs/024a.jpg","86","","","","","","learn","SR",""
"","show_choice","161","182940","0.0-161.0","""event"",""trial"",""time""
""fullscreenenter"",""0"",""3195""
","
","
","""event"",""trial"",""time""
""fullscreenenter"",""0"",""3195""
","
","null","run_exp/static/images/Set 6_rs/024a.jpg","null","","","","","","learn","SR",""
"","html-keyboard-response","162","183455","0.0-162.0","""event"",""trial"",""time""
""fullscreenenter"",""0"",""3195""
","
","
","""event"",""trial"",""time""
""fullscreenenter"",""0"",""3195""
","
","null","<p></p>","null","","","","","","","",""
"","image","163","184431","0.0-163.0","""event"",""trial"",""time""
""fullscreenenter"",""0"",""3195""
","
","
","""event"",""trial"",""time""
""fullscreenenter"",""0"",""3195""
","
","973.6999999880791","run_exp/static/images/Set 6_rs/154a.jpg","86","","","","","","learn","SR",""
"","show_choice","164","185461","0.0-164.0","""event"",""trial"",""time""
""fullscreenenter"",""0"",""3195""
","
","
","""event"",""trial"",""time""
""fullscreenenter"",""0"",""3195""
","
","null","run_exp/static/images/Set 6_rs/154a.jpg","null","","","","","","learn","SR",""
"","html-keyboard-response","165","185972","0.0-165.0","""event"",""trial"",""time""
""fullscreenenter"",""0"",""3195""
","
","
","""event"",""trial"",""time""
""fullscreenenter"",""0"",""3195""
","
","null","<p></p>","null","","","","","","","",""
"","image","166","187151","0.0-166.0","""event"",""trial"",""time""
""fullscreenenter"",""0"",""3195""
","
","
","""event"",""trial"",""time""
""fullscreenenter"",""0"",""3195""
","
","1176.300000011921","run_exp/static/images/Set 6_rs/066a.jpg","78","","","","","","learn","SL",""
"","show_choice","167","187978","0.0-167.0","""event"",""trial"",""time""
""fullscreenenter"",""0"",""3195""
","
","
","""event"",""trial"",""time""
""fullscreenenter"",""0"",""3195""
","
","null","run_exp/static/images/Set 6_rs/066a.jpg","null","","","","","","learn","SL",""
"","html-keyboard-response","168","188492","0.0-168.0","""event"",""trial"",""time""
""fullscreenenter"",""0"",""3195""
","
","
","""event"",""trial"",""time""
""fullscreenenter"",""0"",""3195""
","
","null","<p></p>","null","","","","","","","",""
"","image","169","189320","0.0-169.0","""event"",""trial"",""time""
""fullscreenenter"",""0"",""3195""
","
","
","""event"",""trial"",""time""
""fullscreenenter"",""0"",""3195""
","
","824.9000000357628","run_exp/static/images/Set 6_rs/025a.jpg","86","","","","","","learn","SL",""
"","show_choice","170","190511","0.0-170.0","""event"",""trial"",""time""
""fullscreenenter"",""0"",""3195""
","
","
","""event"",""trial"",""time""
""fullscreenenter"",""0"",""3195""
","
","null","run_exp/static/images/Set 6_rs/025a.jpg","null","","","","","","learn","SL",""
"","html-keyboard-response","171","191012","0.0-171.0","""event"",""trial"",""time""
""fullscreenenter"",""0"",""3195""
","
","
","""event"",""trial"",""time""
""fullscreenenter"",""0"",""3195""
","
","null","<p></p>","null","","","","","","","",""
"","image","172","192380","0.0-172.0","""event"",""trial"",""time""
""fullscreenenter"",""0"",""3195""
","
","
","""event"",""trial"",""time""
""fullscreenenter"",""0"",""3195""
","
","1366","run_exp/static/images/Set 6_rs/055a.jpg","86","","","","","","learn","SL",""
"","show_choice","173","193018","0.0-173.0","""event"",""trial"",""time""
""fullscreenenter"",""0"",""3195""
","
","
","""event"",""trial"",""time""
""fullscreenenter"",""0"",""3195""
","
","null","run_exp/static/images/Set 6_rs/055a.jpg","null","","","","","","learn","SL",""
"","html-keyboard-response","174","193520","0.0-174.0","""event"",""trial"",""time""
""fullscreenenter"",""0"",""3195""
","
","
","""event"",""trial"",""time""
""fullscreenenter"",""0"",""3195""
","
","null","<p></p>","null","","","","","","","",""
"","image","175","195081","0.0-175.0","""event"",""trial"",""time""
""fullscreenenter"",""0"",""3195""
","
","
","""event"",""trial"",""time""
""fullscreenenter"",""0"",""3195""
","
","1559.800000011921","run_exp/static/images/Set 6_rs/129a.jpg","78","","","","","","learn","SL",""
"","show_choice","176","195532","0.0-176.0","""event"",""trial"",""time""
""fullscreenenter"",""0"",""3195""
","
","
","""event"",""trial"",""time""
""fullscreenenter"",""0"",""3195""
","
","null","run_exp/static/images/Set 6_rs/129a.jpg","null","","","","","","learn","SL",""
"","html-keyboard-response","177","196045","0.0-177.0","""event"",""trial"",""time""
""fullscreenenter"",""0"",""3195""
","
","
","""event"",""trial"",""time""
""fullscreenenter"",""0"",""3195""
","
","null","<p></p>","null","","","","","","","",""
"","image","178","197293","0.0-178.0","""event"",""trial"",""time""
""fullscreenenter"",""0"",""3195""
","
","
","""event"",""trial"",""time""
""fullscreenenter"",""0"",""3195""
","
","1245.800000011921","run_exp/static/images/Set 6_rs/062a.jpg","86","","","","","","learn","SL",""
"","show_choice","179","198049","0.0-179.0","""event"",""trial"",""time""
""fullscreenenter"",""0"",""3195""
","
","
","""event"",""trial"",""time""
""fullscreenenter"",""0"",""3195""
","
","null","run_exp/static/images/Set 6_rs/062a.jpg","null","","","","","","learn","SL",""
"","html-keyboard-response","180","198561","0.0-180.0","""event"",""trial"",""time""
""fullscreenenter"",""0"",""3195""
","
","
","""event"",""trial"",""time""
""fullscreenenter"",""0"",""3195""
","
","null","<p></p>","null","","","","","","","",""
"","image","181","199873","0.0-181.0","""event"",""trial"",""time""
""fullscreenenter"",""0"",""3195""
","
","
","""event"",""trial"",""time""
""fullscreenenter"",""0"",""3195""
","
","1309.800000011921","run_exp/static/images/Set 6_rs/050a.jpg","86","","","","","","learn","SL",""
"","show_choice","182","200570","0.0-182.0","""event"",""trial"",""time""
""fullscreenenter"",""0"",""3195""
","
","
","""event"",""trial"",""time""
""fullscreenenter"",""0"",""3195""
","
","null","run_exp/static/images/Set 6_rs/050a.jpg","null","","","","","","learn","SL",""
"","html-keyboard-response","183","201083","0.0-183.0","""event"",""trial"",""time""
""fullscreenenter"",""0"",""3195""
","
","
","""event"",""trial"",""time""
""fullscreenenter"",""0"",""3195""
","
","null","<p></p>","null","","","","","","","",""
"","image","184","202133","0.0-184.0","""event"",""trial"",""time""
""fullscreenenter"",""0"",""3195""
","
","
","""event"",""trial"",""time""
""fullscreenenter"",""0"",""3195""
","
","1047.5999999642372","run_exp/static/images/Set 6_rs/166a.jpg","78","","","","","","learn","SR",""
"","show_choice","185","203087","0.0-185.0","""event"",""trial"",""time""
""fullscreenenter"",""0"",""3195""
","
","
","""event"",""trial"",""time""
""fullscreenenter"",""0"",""3195""
","
","null","run_exp/static/images/Set 6_rs/166a.jpg","null","","","","","","learn","SR",""
"","html-keyboard-response","186","203592","0.0-186.0","""event"",""trial"",""time""
""fullscreenenter"",""0"",""3195""
","
","
","""event"",""trial"",""time""
""fullscreenenter"",""0"",""3195""
","
","null","<p></p>","null","","","","","","","",""
"","image","187","204586","0.0-187.0","""event"",""trial"",""time""
""fullscreenenter"",""0"",""3195""
","
","
","""event"",""trial"",""time""
""fullscreenenter"",""0"",""3195""
","
","991.2000000476837","run_exp/static/images/Set 6_rs/178a.jpg","86","","","","","","learn","SR",""
"","show_choice","188","205598","0.0-188.0","""event"",""trial"",""time""
""fullscreenenter"",""0"",""3195""
","
","
","""event"",""trial"",""time""
""fullscreenenter"",""0"",""3195""
","
","null","run_exp/static/images/Set 6_rs/178a.jpg","null","","","","","","learn","SR",""
"","html-keyboard-response","189","206101","0.0-189.0","""event"",""trial"",""time""
""fullscreenenter"",""0"",""3195""
","
","
","""event"",""trial"",""time""
""fullscreenenter"",""0"",""3195""
","
","null","<p></p>","null","","","","","","","",""
"","image","190","206864","0.0-190.0","""event"",""trial"",""time""
""fullscreenenter"",""0"",""3195""
","
","
","""event"",""trial"",""time""
""fullscreenenter"",""0"",""3195""
","
","762.5999999642372","run_exp/static/images/Set 6_rs/064a.jpg","78","","","","","","learn","SR",""
"","show_choice","191","208109","0.0-191.0","""event"",""trial"",""time""
""fullscreenenter"",""0"",""3195""
","
","
","""event"",""trial"",""time""
""fullscreenenter"",""0"",""3195""
","
","null","run_exp/static/images/Set 6_rs/064a.jpg","null","","","","","","learn","SR",""
"","html-keyboard-response","192","208626","0.0-192.0","""event"",""trial"",""time""
""fullscreenenter"",""0"",""3195""
","
","
","""event"",""trial"",""time""
""fullscreenenter"",""0"",""3195""
","
","null","<p></p>","null","","","","","","","",""
"","image","193","210263","0.0-193.0","""event"",""trial"",""time""
""fullscreenenter"",""0"",""3195""
","
","
","""event"",""trial"",""time""
""fullscreenenter"",""0"",""3195""
","
","1634.3999999761581","run_exp/static/images/Set 6_rs/075a.jpg","86","","","","","","learn","SR",""
"","show_choice","194","210632","0.0-194.0","""event"",""trial"",""time""
""fullscreenenter"",""0"",""3195""
","
","
","""event"",""trial"",""time""
""fullscreenenter"",""0"",""3195""
","
","null","run_exp/static/images/Set 6_rs/075a.jpg","null","","","","","","learn","SR",""
"","html-keyboard-response","195","211144","0.0-195.0","""event"",""trial"",""time""
""fullscreenenter"",""0"",""3195""
","
","
","""event"",""trial"",""time""
""fullscreenenter"",""0"",""3195""
","
","null","<p></p>","null","","","","","","","",""
"","test_intro","196","249542","0.0-196.0","""event"",""trial"",""time""
""fullscreenenter"",""0"",""3195""
","
","
","""event"",""trial"",""time""
""fullscreenenter"",""0"",""3195""
","
","null","run_exp/static/audio/clip_2_memory.m4a","null","","","","","<div class='center'><p>Now, lets see how much you remember about the items you just saw.  For each item, you need to indicate if it was <b>old</b> by pressing the <b>v</b> key, <b>similar</b> by pressing the <b>b</b> key, or <b>new</b> by pressing the <b>n</b> key.</p><p>Old refers to an item that you saw before in the indoor/outdoor game that you just played, new refers to an item you have <b>not</b> seen before within the indoor/outdoor game, and similar refers to an item that is similar to an item youve seen before but is not exactly the same. </p><p>Before we begin, lets go over some brief demonstrations to make sure you understand.</p></div>","","",""
"","html-keyboard-response","197","250306","0.0-197.0","""event"",""trial"",""time""
""fullscreenenter"",""0"",""3195""
","
","
","""event"",""trial"",""time""
""fullscreenenter"",""0"",""3195""
","
","760.5","<div class='center'><p>Now, lets see how much you remember about the items you just saw.  For each item, you need to indicate if it was <b>old</b> by pressing the <b>v</b> key, <b>similar</b> by pressing the <b>b</b> key, or <b>new</b> by pressing the <b>n</b> key.</p><p>Old refers to an item that you saw before in the indoor/outdoor game that you just played, new refers to an item you have <b>not</b> seen before within the indoor/outdoor game, and similar refers to an item that is similar to an item youve seen before but is not exactly the same. </p><p>Before we begin, lets go over some brief demonstrations to make sure you understand.</p><div><p><b>[Press the space bar to continue]</b></p></div>","32","","","","","","","",""
"","items","198","257813","0.0-198.0","""event"",""trial"",""time""
""fullscreenenter"",""0"",""3195""
","
","
","""event"",""trial"",""time""
""fullscreenenter"",""0"",""3195""
","
","null","run_exp/static/audio/clip_3_items.m4a","null","","","","","","","",""
"","mop","199","262330","0.0-199.0","""event"",""trial"",""time""
""fullscreenenter"",""0"",""3195""
","
","
","""event"",""trial"",""time""
""fullscreenenter"",""0"",""3195""
","
","null","run_exp/static/audio/clip_4_mop.m4a","null","","","","","","","",""
"","baseball","200","265840","0.0-200.0","""event"",""trial"",""time""
""fullscreenenter"",""0"",""3195""
","
","
","""event"",""trial"",""time""
""fullscreenenter"",""0"",""3195""
","
","null","run_exp/static/audio/clip_5_baseball.m4a","null","","","","","","","",""
"","trumpet","201","269358","0.0-201.0","""event"",""trial"",""time""
""fullscreenenter"",""0"",""3195""
","
","
","""event"",""trial"",""time""
""fullscreenenter"",""0"",""3195""
","
","null","run_exp/static/audio/clip_6_trumpet.m4a","null","","","","","","","",""
"","gummies","202","272866","0.0-202.0","""event"",""trial"",""time""
""fullscreenenter"",""0"",""3195""
","
","
","""event"",""trial"",""time""
""fullscreenenter"",""0"",""3195""
","
","null","run_exp/static/audio/clip_7_gummies.m4a","null","","","","","","","",""
"","osn","203","277371","0.0-203.0","""event"",""trial"",""time""
""fullscreenenter"",""0"",""3195""
","
","
","""event"",""trial"",""time""
""fullscreenenter"",""0"",""3195""
","
","null","run_exp/static/audio/clip_8_osn.m4a","null","","","","","","","",""
"","old_1","204","283885","0.0-204.0","""event"",""trial"",""time""
""fullscreenenter"",""0"",""3195""
","
","
","""event"",""trial"",""time""
""fullscreenenter"",""0"",""3195""
","
","null","run_exp/static/audio/clip_9_old_trumpet.m4a","null","","","","","","","",""
"","new_1","205","291397","0.0-205.0","""event"",""trial"",""time""
""fullscreenenter"",""0"",""3195""
","
","
","""event"",""trial"",""time""
""fullscreenenter"",""0"",""3195""
","
","null","run_exp/static/audio/clip_10_new_balloon.m4a","null","","","","","","","",""
"","similar_1a","206","295915","0.0-206.0","""event"",""trial"",""time""
""fullscreenenter"",""0"",""3195""
","
","
","""event"",""trial"",""time""
""fullscreenenter"",""0"",""3195""
","
","null","run_exp/static/audio/clip_11a_similar_mop.m4a","null","","","","","","","",""
"","similar_1b","207","302434","0.0-207.0","""event"",""trial"",""time""
""fullscreenenter"",""0"",""3195""
","
","
","""event"",""trial"",""time""
""fullscreenenter"",""0"",""3195""
","
","null","run_exp/static/audio/clip_11b_similar_mop.m4a","null","","","","","","","",""
"","new_2","208","305944","0.0-208.0","""event"",""trial"",""time""
""fullscreenenter"",""0"",""3195""
","
","
","""event"",""trial"",""time""
""fullscreenenter"",""0"",""3195""
","
","null","run_exp/static/audio/clip_12_new_stoplight.m4a","null","","","","","","","",""
"","old_2","209","309451","0.0-209.0","""event"",""trial"",""time""
""fullscreenenter"",""0"",""3195""
","
","
","""event"",""trial"",""time""
""fullscreenenter"",""0"",""3195""
","
","null","run_exp/static/audio/clip_13_old_baseball.m4a","null","","","","","","","",""
"","similar_2a","210","312962","0.0-210.0","""event"",""trial"",""time""
""fullscreenenter"",""0"",""3195""
","
","
","""event"",""trial"",""time""
""fullscreenenter"",""0"",""3195""
","
","null","run_exp/static/audio/clip_14a_similar_gummies.m4a","null","","","","","","","",""
"","similar_2b","211","320472","0.0-211.0","""event"",""trial"",""time""
""fullscreenenter"",""0"",""3195""
","
","
","""event"",""trial"",""time""
""fullscreenenter"",""0"",""3195""
","
","null","run_exp/static/audio/clip_14b_similar_gummies.m4a","null","","","","","","","",""
"","practice","212","362602","0.0-212.0","""event"",""trial"",""time""
""fullscreenenter"",""0"",""3195""
","
","
","""event"",""trial"",""time""
""fullscreenenter"",""0"",""3195""
","
","null","run_exp/static/audio/clip_15_practice.m4a","null","","","","","<div class='center'><p>Lets practice a little to make sure you understand the difference between new, similar, and old. Lets say you saw these three items in the indoor/outdoor game.</p><p> Try your best to remember these images because youll soon be tested on them in a practice game. In the practice game, youll be shown images and youll have to say if they are old (one of the three images belows), similar (similar to one of the images below but not exactly the same), or new (are not one of the images below nor similar to them).</p><p>Once you press the space bar youll be shown these images again but one at time. Then youll begin the practice game.</p><p><img src='run_exp/static/images/tutorial/test/three_indoor_outdoor.png' height='300'></p></div>","","",""
"","html-keyboard-response","213","363572","0.0-213.0","""event"",""trial"",""time""
""fullscreenenter"",""0"",""3195""
","
","
","""event"",""trial"",""time""
""fullscreenenter"",""0"",""3195""
","
","964.5","<div class='center'><p>Lets practice a little to make sure you understand the difference between new, similar, and old. Lets say you saw these three items in the indoor/outdoor game.</p><p> Try your best to remember these images because youll soon be tested on them in a practice game. In the practice game, youll be shown images and youll have to say if they are old (one of the three images belows), similar (similar to one of the images below but not exactly the same), or new (are not one of the images below nor similar to them).</p><p>Once you press the space bar youll be shown these images again but one at time. Then youll begin the practice game.</p><p><img src='run_exp/static/images/tutorial/test/three_indoor_outdoor.png' height='300'></p><div><p><b>[Press the space bar to continue]</b></p></div>","32","","","","","","","",""
"","planet","214","365593","0.0-214.0","""event"",""trial"",""time""
""fullscreenenter"",""0"",""3195""
","
","
","""event"",""trial"",""time""
""fullscreenenter"",""0"",""3195""
","
","null","run_exp/static/images/tutorial/test/008a.jpg","null","","","","","","","",""
"","boot","215","367607","0.0-215.0","""event"",""trial"",""time""
""fullscreenenter"",""0"",""3195""
","
","
","""event"",""trial"",""time""
""fullscreenenter"",""0"",""3195""
","
","null","run_exp/static/images/tutorial/test/011a.jpg","null","","","","","","","",""
"","lemon","216","369609","0.0-216.0","""event"",""trial"",""time""
""fullscreenenter"",""0"",""3195""
","
","
","""event"",""trial"",""time""
""fullscreenenter"",""0"",""3195""
","
","null","run_exp/static/images/tutorial/test/018a.jpg","null","","","","","","","",""
"","practice_q1","217","374342","0.0-217.0","""event"",""trial"",""time""
""fullscreenenter"",""0"",""3195""
","
","
","""event"",""trial"",""time""
""fullscreenenter"",""0"",""3195""
","
","4728.300000011921","run_exp/static/audio/clip_16_practice_question.m4a","78","","","","","","","",""
"","correct","218","376262","0.0-218.0-0.0","""event"",""trial"",""time""
""fullscreenenter"",""0"",""3195""
","
","
","""event"",""trial"",""time""
""fullscreenenter"",""0"",""3195""
","
","null","run_exp/static/audio/clip_17_correct.m4a","null","","","","","<div class='center'><p>That's correct!</p></div>","","",""
"","html-keyboard-response","219","376957","0.0-218.0-1.0","""event"",""trial"",""time""
""fullscreenenter"",""0"",""3195""
","
","
","""event"",""trial"",""time""
""fullscreenenter"",""0"",""3195""
","
","692.4000000357628","<div class='center'><p>That's correct!</p><div><p><b>[Press the space bar to continue]</b></p></div>","32","","","","","","","",""
"","practice_q2","220","382233","0.0-218.0-2.0","""event"",""trial"",""time""
""fullscreenenter"",""0"",""3195""
","
","
","""event"",""trial"",""time""
""fullscreenenter"",""0"",""3195""
","
","5271.800000011921","run_exp/static/audio/clip_16_practice_question.m4a","86","","","","","","","",""
"","correct","221","384142","0.0-219.0-0.0","""event"",""trial"",""time""
""fullscreenenter"",""0"",""3195""
","
","
","""event"",""trial"",""time""
""fullscreenenter"",""0"",""3195""
","
","null","run_exp/static/audio/clip_17_correct.m4a","null","","","","","<div class='center'><p>That's correct!</p></div>","","",""
"","html-keyboard-response","222","384725","0.0-219.0-1.0","""event"",""trial"",""time""
""fullscreenenter"",""0"",""3195""
","
","
","""event"",""trial"",""time""
""fullscreenenter"",""0"",""3195""
","
","581.5","<div class='center'><p>That's correct!</p><div><p><b>[Press the space bar to continue]</b></p></div>","32","","","","","","","",""
"","practice_q3","223","387943","0.0-219.0-2.0","""event"",""trial"",""time""
""fullscreenenter"",""0"",""3195""
","
","
","""event"",""trial"",""time""
""fullscreenenter"",""0"",""3195""
","
","3215.100000023842","run_exp/static/audio/clip_16_practice_question.m4a","66","","","","","","","",""
"","correct","224","390023","0.0-220.0-0.0","""event"",""trial"",""time""
""fullscreenenter"",""0"",""3195""
","
","
","""event"",""trial"",""time""
""fullscreenenter"",""0"",""3195""
","
","null","run_exp/static/audio/clip_17_correct.m4a","null","","","","","<div class='center'><p>That's correct!</p></div>","","",""
"","html-keyboard-response","225","390434","0.0-220.0-1.0","""event"",""trial"",""time""
""fullscreenenter"",""0"",""3195""
","
","
","""event"",""trial"",""time""
""fullscreenenter"",""0"",""3195""
","
","409.30000001192093","<div class='center'><p>That's correct!</p><div><p><b>[Press the space bar to continue]</b></p></div>","32","","","","","","","",""
"","begin_text","226","408923","0.0-221.0-0.0","""event"",""trial"",""time""
""fullscreenenter"",""0"",""3195""
","
","
","""event"",""trial"",""time""
""fullscreenenter"",""0"",""3195""
","
","null","run_exp/static/audio/clip_22_begin_test.m4a","null","","","","","<div class='center'><p>On to the real game where well test your memory of items from the indoor/outdoor game. For each item, you need to indicate if the item is <b>old</b> by pressing the <b>v</b> key, <b>similar</b> by pressing the <b>b</b> key, or <b>new</b> by pressing the <b>n</b> key. </p></div>","","",""
"","html-keyboard-response","227","410433","0.0-221.0-1.0","""event"",""trial"",""time""
""fullscreenenter"",""0"",""3195""
","
","
","""event"",""trial"",""time""
""fullscreenenter"",""0"",""3195""
","
","1507.5","<div class='center'><p>On to the real game where well test your memory of items from the indoor/outdoor game. For each item, you need to indicate if the item is <b>old</b> by pressing the <b>v</b> key, <b>similar</b> by pressing the <b>b</b> key, or <b>new</b> by pressing the <b>n</b> key. </p><div><p><b>[Press the space bar to continue]</b></p></div>","32","","","","","","","",""
"","image","228","413252","0.0-222.0-0.0","""event"",""trial"",""time""
""fullscreenenter"",""0"",""3195""
","
","
","""event"",""trial"",""time""
""fullscreenenter"",""0"",""3195""
","
","2816.399999976158","run_exp/static/images/Set 6_rs/111b.jpg","66","","","","","","test","TL","3"
"","show_choice","229","413758","0.0-222.0-1.0","""event"",""trial"",""time""
""fullscreenenter"",""0"",""3195""
","
","
","""event"",""trial"",""time""
""fullscreenenter"",""0"",""3195""
","
","null","run_exp/static/images/Set 6_rs/111b.jpg","null","","","","","","test","TL",""
"","html-keyboard-response","230","414272","0.0-222.0-2.0","""event"",""trial"",""time""
""fullscreenenter"",""0"",""3195""
","
","
","""event"",""trial"",""time""
""fullscreenenter"",""0"",""3195""
","
","null","<p></p>","null","","","","","","","",""
"","image","231","416365","0.0-223.0-0.0","""event"",""trial"",""time""
""fullscreenenter"",""0"",""3195""
","
","
","""event"",""trial"",""time""
""fullscreenenter"",""0"",""3195""
","
","2092","run_exp/static/images/Set 6_rs/007a.jpg","86","","","","","","test","TR","3"
"","show_choice","232","416871","0.0-223.0-1.0","""event"",""trial"",""time""
""fullscreenenter"",""0"",""3195""
","
","
","""event"",""trial"",""time""
""fullscreenenter"",""0"",""3195""
","
","null","run_exp/static/images/Set 6_rs/007a.jpg","null","","","","","","test","TR",""
"","html-keyboard-response","233","417384","0.0-223.0-2.0","""event"",""trial"",""time""
""fullscreenenter"",""0"",""3195""
","
","
","""event"",""trial"",""time""
""fullscreenenter"",""0"",""3195""
","
","null","<p></p>","null","","","","","","","",""
"","image","234","419695","0.0-224.0-0.0","""event"",""trial"",""time""
""fullscreenenter"",""0"",""3195""
","
","
","""event"",""trial"",""time""
""fullscreenenter"",""0"",""3195""
","
","2307.399999976158","run_exp/static/images/Set 6_rs/168b.jpg","78","","","","","","test","TL","3"
"","show_choice","235","420208","0.0-224.0-1.0","""event"",""trial"",""time""
""fullscreenenter"",""0"",""3195""
","
","
","""event"",""trial"",""time""
""fullscreenenter"",""0"",""3195""
","
","null","run_exp/static/images/Set 6_rs/168b.jpg","null","","","","","","test","TL",""
"","html-keyboard-response","236","420721","0.0-224.0-2.0","""event"",""trial"",""time""
""fullscreenenter"",""0"",""3195""
","
","
","""event"",""trial"",""time""
""fullscreenenter"",""0"",""3195""
","
","null","<p></p>","null","","","","","","","",""
"","image","237","423063","0.0-225.0-0.0","""event"",""trial"",""time""
""fullscreenenter"",""0"",""3195""
","
","
","""event"",""trial"",""time""
""fullscreenenter"",""0"",""3195""
","
","2340","run_exp/static/images/Set 6_rs/057b.jpg","86","","","","","","test","TL","1"
"","show_choice","238","423576","0.0-225.0-1.0","""event"",""trial"",""time""
""fullscreenenter"",""0"",""3195""
","
","
","""event"",""trial"",""time""
""fullscreenenter"",""0"",""3195""
","
","null","run_exp/static/images/Set 6_rs/057b.jpg","null","","","","","","test","TL",""
"","html-keyboard-response","239","424086","0.0-225.0-2.0","""event"",""trial"",""time""
""fullscreenenter"",""0"",""3195""
","
","
","""event"",""trial"",""time""
""fullscreenenter"",""0"",""3195""
","
","null","<p></p>","null","","","","","","","",""
"","image","240","426920","0.0-226.0-0.0","""event"",""trial"",""time""
""fullscreenenter"",""0"",""3195""
","
","
","""event"",""trial"",""time""
""fullscreenenter"",""0"",""3195""
","
","2832","run_exp/static/images/Set 6_rs/016b.jpg","66","","","","","","test","TL","1"
"","show_choice","241","427432","0.0-226.0-1.0","""event"",""trial"",""time""
""fullscreenenter"",""0"",""3195""
","
","
","""event"",""trial"",""time""
""fullscreenenter"",""0"",""3195""
","
","null","run_exp/static/images/Set 6_rs/016b.jpg","null","","","","","","test","TL",""
"","html-keyboard-response","242","427944","0.0-226.0-2.0","""event"",""trial"",""time""
""fullscreenenter"",""0"",""3195""
","
","
","""event"",""trial"",""time""
""fullscreenenter"",""0"",""3195""
","
","null","<p></p>","null","","","","","","","",""
"","image","243","430957","0.0-227.0-0.0","""event"",""trial"",""time""
""fullscreenenter"",""0"",""3195""
","
","
","""event"",""trial"",""time""
""fullscreenenter"",""0"",""3195""
","
","null","run_exp/static/images/Set 6_rs/024a.jpg","null","","","","","","test","TR","5"
"","show_choice","244","431468","0.0-227.0-1.0","""event"",""trial"",""time""
""fullscreenenter"",""0"",""3195""
","
","
","""event"",""trial"",""time""
""fullscreenenter"",""0"",""3195""
","
","null","run_exp/static/images/Set 6_rs/024a.jpg","null","","","","","","test","TR",""
"","html-keyboard-response","245","431983","0.0-227.0-2.0","""event"",""trial"",""time""
""fullscreenenter"",""0"",""3195""
","
","
","""event"",""trial"",""time""
""fullscreenenter"",""0"",""3195""
","
","null","<p></p>","null","","","","","","","",""
"","image","246","433722","0.0-228.0-0.0","""event"",""trial"",""time""
""fullscreenenter"",""0"",""3195""
","
","
","""event"",""trial"",""time""
""fullscreenenter"",""0"",""3195""
","
","1736.0999999642372","run_exp/static/images/Set 6_rs/015a.jpg","78","","","","","","test","TF","4"
"","show_choice","247","434235","0.0-228.0-1.0","""event"",""trial"",""time""
""fullscreenenter"",""0"",""3195""
","
","
","""event"",""trial"",""time""
""fullscreenenter"",""0"",""3195""
","
","null","run_exp/static/images/Set 6_rs/015a.jpg","null","","","","","","test","TF",""
"","html-keyboard-response","248","434747","0.0-228.0-2.0","""event"",""trial"",""time""
""fullscreenenter"",""0"",""3195""
","
","
","""event"",""trial"",""time""
""fullscreenenter"",""0"",""3195""
","
","null","<p></p>","null","","","","","","","",""
"","image","249","436286","0.0-229.0-0.0","""event"",""trial"",""time""
""fullscreenenter"",""0"",""3195""
","
","
","""event"",""trial"",""time""
""fullscreenenter"",""0"",""3195""
","
","1537.2999999523163","run_exp/static/images/Set 6_rs/066b.jpg","78","","","","","","test","TL","5"
"","show_choice","250","436798","0.0-229.0-1.0","""event"",""trial"",""time""
""fullscreenenter"",""0"",""3195""
","
","
","""event"",""trial"",""time""
""fullscreenenter"",""0"",""3195""
","
","null","run_exp/static/images/Set 6_rs/066b.jpg","null","","","","","","test","TL",""
"","html-keyboard-response","251","437312","0.0-229.0-2.0","""event"",""trial"",""time""
""fullscreenenter"",""0"",""3195""
","
","
","""event"",""trial"",""time""
""fullscreenenter"",""0"",""3195""
","
","null","<p></p>","null","","","","","","","",""
"","image","252","438952","0.0-230.0-0.0","""event"",""trial"",""time""
""fullscreenenter"",""0"",""3195""
","
","
","""event"",""trial"",""time""
""fullscreenenter"",""0"",""3195""
","
","1636.800000011921","run_exp/static/images/Set 6_rs/005a.jpg","78","","","","","","test","TF","5"
"","show_choice","253","439469","0.0-230.0-1.0","""event"",""trial"",""time""
""fullscreenenter"",""0"",""3195""
","
","
","""event"",""trial"",""time""
""fullscreenenter"",""0"",""3195""
","
","null","run_exp/static/images/Set 6_rs/005a.jpg","null","","","","","","test","TF",""
"","html-keyboard-response","254","439983","0.0-230.0-2.0","""event"",""trial"",""time""
""fullscreenenter"",""0"",""3195""
","
","
","""event"",""trial"",""time""
""fullscreenenter"",""0"",""3195""
","
","null","<p></p>","null","","","","","","","",""
"","image","255","441244","0.0-231.0-0.0","""event"",""trial"",""time""
""fullscreenenter"",""0"",""3195""
","
","
","""event"",""trial"",""time""
""fullscreenenter"",""0"",""3195""
","
","1259.0999999642372","run_exp/static/images/Set 6_rs/065a.jpg","78","","","","","","test","TF","3"
"","show_choice","256","441749","0.0-231.0-1.0","""event"",""trial"",""time""
""fullscreenenter"",""0"",""3195""
","
","
","""event"",""trial"",""time""
""fullscreenenter"",""0"",""3195""
","
","null","run_exp/static/images/Set 6_rs/065a.jpg","null","","","","","","test","TF",""
"","html-keyboard-response","257","442260","0.0-231.0-2.0","""event"",""trial"",""time""
""fullscreenenter"",""0"",""3195""
","
","
","""event"",""trial"",""time""
""fullscreenenter"",""0"",""3195""
","
","null","<p></p>","null","","","","","","","",""
"","image","258","443327","0.0-232.0-0.0","""event"",""trial"",""time""
""fullscreenenter"",""0"",""3195""
","
","
","""event"",""trial"",""time""
""fullscreenenter"",""0"",""3195""
","
","1064.199999988079","run_exp/static/images/Set 6_rs/140a.jpg","78","","","","","","test","TF","1"
"","show_choice","259","443841","0.0-232.0-1.0","""event"",""trial"",""time""
""fullscreenenter"",""0"",""3195""
","
","
","""event"",""trial"",""time""
""fullscreenenter"",""0"",""3195""
","
","null","run_exp/static/images/Set 6_rs/140a.jpg","null","","","","","","test","TF",""
"","html-keyboard-response","260","444352","0.0-232.0-2.0","""event"",""trial"",""time""
""fullscreenenter"",""0"",""3195""
","
","
","""event"",""trial"",""time""
""fullscreenenter"",""0"",""3195""
","
","null","<p></p>","null","","","","","","","",""
"","image","261","445231","0.0-233.0-0.0","""event"",""trial"",""time""
""fullscreenenter"",""0"",""3195""
","
","
","""event"",""trial"",""time""
""fullscreenenter"",""0"",""3195""
","
","876.6000000238419","run_exp/static/images/Set 6_rs/171a.jpg","78","","","","","","test","TF","1"
"","show_choice","262","445734","0.0-233.0-1.0","""event"",""trial"",""time""
""fullscreenenter"",""0"",""3195""
","
","
","""event"",""trial"",""time""
""fullscreenenter"",""0"",""3195""
","
","null","run_exp/static/images/Set 6_rs/171a.jpg","null","","","","","","test","TF",""
"","html-keyboard-response","263","446244","0.0-233.0-2.0","""event"",""trial"",""time""
""fullscreenenter"",""0"",""3195""
","
","
","""event"",""trial"",""time""
""fullscreenenter"",""0"",""3195""
","
","null","<p></p>","null","","","","","","","",""
"","image","264","447754","0.0-234.0-0.0","""event"",""trial"",""time""
""fullscreenenter"",""0"",""3195""
","
","
","""event"",""trial"",""time""
""fullscreenenter"",""0"",""3195""
","
","1507","run_exp/static/images/Set 6_rs/095b.jpg","86","","","","","","test","TL","5"
"","show_choice","265","448265","0.0-234.0-1.0","""event"",""trial"",""time""
""fullscreenenter"",""0"",""3195""
","
","
","""event"",""trial"",""time""
""fullscreenenter"",""0"",""3195""
","
","null","run_exp/static/images/Set 6_rs/095b.jpg","null","","","","","","test","TL",""
"","html-keyboard-response","266","448779","0.0-234.0-2.0","""event"",""trial"",""time""
""fullscreenenter"",""0"",""3195""
","
","
","""event"",""trial"",""time""
""fullscreenenter"",""0"",""3195""
","
","null","<p></p>","null","","","","","","","",""
"","image","267","450584","0.0-235.0-0.0","""event"",""trial"",""time""
""fullscreenenter"",""0"",""3195""
","
","
","""event"",""trial"",""time""
""fullscreenenter"",""0"",""3195""
","
","1802","run_exp/static/images/Set 6_rs/056a.jpg","78","","","","","","test","TF","3"
"","show_choice","268","451091","0.0-235.0-1.0","""event"",""trial"",""time""
""fullscreenenter"",""0"",""3195""
","
","
","""event"",""trial"",""time""
""fullscreenenter"",""0"",""3195""
","
","null","run_exp/static/images/Set 6_rs/056a.jpg","null","","","","","","test","TF",""
"","html-keyboard-response","269","451601","0.0-235.0-2.0","""event"",""trial"",""time""
""fullscreenenter"",""0"",""3195""
","
","
","""event"",""trial"",""time""
""fullscreenenter"",""0"",""3195""
","
","null","<p></p>","null","","","","","","","",""
"","image","270","453573","0.0-236.0-0.0","""event"",""trial"",""time""
""fullscreenenter"",""0"",""3195""
","
","
","""event"",""trial"",""time""
""fullscreenenter"",""0"",""3195""
","
","1970.1000000238419","run_exp/static/images/Set 6_rs/116b.jpg","86","","","","","","test","TL","2"
"","show_choice","271","454084","0.0-236.0-1.0","""event"",""trial"",""time""
""fullscreenenter"",""0"",""3195""
","
","
","""event"",""trial"",""time""
""fullscreenenter"",""0"",""3195""
","
","null","run_exp/static/images/Set 6_rs/116b.jpg","null","","","","","","test","TL",""
"","html-keyboard-response","272","454597","0.0-236.0-2.0","""event"",""trial"",""time""
""fullscreenenter"",""0"",""3195""
","
","
","""event"",""trial"",""time""
""fullscreenenter"",""0"",""3195""
","
","null","<p></p>","null","","","","","","","",""
"","image","273","456785","0.0-237.0-0.0","""event"",""trial"",""time""
""fullscreenenter"",""0"",""3195""
","
","
","""event"",""trial"",""time""
""fullscreenenter"",""0"",""3195""
","
","2185.899999976158","run_exp/static/images/Set 6_rs/167b.jpg","66","","","","","","test","TL","2"
"","show_choice","274","457300","0.0-237.0-1.0","""event"",""trial"",""time""
""fullscreenenter"",""0"",""3195""
","
","
","""event"",""trial"",""time""
""fullscreenenter"",""0"",""3195""
","
","null","run_exp/static/images/Set 6_rs/167b.jpg","null","","","","","","test","TL",""
"","html-keyboard-response","275","457814","0.0-237.0-2.0","""event"",""trial"",""time""
""fullscreenenter"",""0"",""3195""
","
","
","""event"",""trial"",""time""
""fullscreenenter"",""0"",""3195""
","
","null","<p></p>","null","","","","","","","",""
"","image","276","459725","0.0-238.0-0.0","""event"",""trial"",""time""
""fullscreenenter"",""0"",""3195""
","
","
","""event"",""trial"",""time""
""fullscreenenter"",""0"",""3195""
","
","1907.800000011921","run_exp/static/images/Set 6_rs/062b.jpg","66","","","","","","test","TL","1"
"","show_choice","277","460235","0.0-238.0-1.0","""event"",""trial"",""time""
""fullscreenenter"",""0"",""3195""
","
","
","""event"",""trial"",""time""
""fullscreenenter"",""0"",""3195""
","
","null","run_exp/static/images/Set 6_rs/062b.jpg","null","","","","","","test","TL",""
"","html-keyboard-response","278","460746","0.0-238.0-2.0","""event"",""trial"",""time""
""fullscreenenter"",""0"",""3195""
","
","
","""event"",""trial"",""time""
""fullscreenenter"",""0"",""3195""
","
","null","<p></p>","null","","","","","","","",""
"","image","279","462655","0.0-239.0-0.0","""event"",""trial"",""time""
""fullscreenenter"",""0"",""3195""
","
","
","""event"",""trial"",""time""
""fullscreenenter"",""0"",""3195""
","
","1907.5","run_exp/static/images/Set 6_rs/086a.jpg","78","","","","","","test","TF","1"
"","show_choice","280","463167","0.0-239.0-1.0","""event"",""trial"",""time""
""fullscreenenter"",""0"",""3195""
","
","
","""event"",""trial"",""time""
""fullscreenenter"",""0"",""3195""
","
","null","run_exp/static/images/Set 6_rs/086a.jpg","null","","","","","","test","TF",""
"","html-keyboard-response","281","463680","0.0-239.0-2.0","""event"",""trial"",""time""
""fullscreenenter"",""0"",""3195""
","
","
","""event"",""trial"",""time""
""fullscreenenter"",""0"",""3195""
","
","null","<p></p>","null","","","","","","","",""
"","image","282","465359","0.0-240.0-0.0","""event"",""trial"",""time""
""fullscreenenter"",""0"",""3195""
","
","
","""event"",""trial"",""time""
""fullscreenenter"",""0"",""3195""
","
","1678.300000011921","run_exp/static/images/Set 6_rs/126a.jpg","86","","","","","","test","TR","2"
"","show_choice","283","465869","0.0-240.0-1.0","""event"",""trial"",""time""
""fullscreenenter"",""0"",""3195""
","
","
","""event"",""trial"",""time""
""fullscreenenter"",""0"",""3195""
","
","null","run_exp/static/images/Set 6_rs/126a.jpg","null","","","","","","test","TR",""
"","html-keyboard-response","284","466382","0.0-240.0-2.0","""event"",""trial"",""time""
""fullscreenenter"",""0"",""3195""
","
","
","""event"",""trial"",""time""
""fullscreenenter"",""0"",""3195""
","
","null","<p></p>","null","","","","","","","",""
"","image","285","468001","0.0-241.0-0.0","""event"",""trial"",""time""
""fullscreenenter"",""0"",""3195""
","
","
","""event"",""trial"",""time""
""fullscreenenter"",""0"",""3195""
","
","1616.300000011921","run_exp/static/images/Set 6_rs/141a.jpg","86","","","","","","test","TR","2"
"","show_choice","286","468508","0.0-241.0-1.0","""event"",""trial"",""time""
""fullscreenenter"",""0"",""3195""
","
","
","""event"",""trial"",""time""
""fullscreenenter"",""0"",""3195""
","
","null","run_exp/static/images/Set 6_rs/141a.jpg","null","","","","","","test","TR",""
"","html-keyboard-response","287","469023","0.0-241.0-2.0","""event"",""trial"",""time""
""fullscreenenter"",""0"",""3195""
","
","
","""event"",""trial"",""time""
""fullscreenenter"",""0"",""3195""
","
","null","<p></p>","null","","","","","","","",""
"","image","288","470682","0.0-242.0-0.0","""event"",""trial"",""time""
""fullscreenenter"",""0"",""3195""
","
","
","""event"",""trial"",""time""
""fullscreenenter"",""0"",""3195""
","
","1657.800000011921","run_exp/static/images/Set 6_rs/121a.jpg","86","","","","","","test","TR","4"
"","show_choice","289","471198","0.0-242.0-1.0","""event"",""trial"",""time""
""fullscreenenter"",""0"",""3195""
","
","
","""event"",""trial"",""time""
""fullscreenenter"",""0"",""3195""
","
","null","run_exp/static/images/Set 6_rs/121a.jpg","null","","","","","","test","TR",""
"","html-keyboard-response","290","471710","0.0-242.0-2.0","""event"",""trial"",""time""
""fullscreenenter"",""0"",""3195""
","
","
","""event"",""trial"",""time""
""fullscreenenter"",""0"",""3195""
","
","null","<p></p>","null","","","","","","","",""
"","image","291","474601","0.0-243.0-0.0","""event"",""trial"",""time""
""fullscreenenter"",""0"",""3195""
","
","
","""event"",""trial"",""time""
""fullscreenenter"",""0"",""3195""
","
","2888.900000035763","run_exp/static/images/Set 6_rs/017b.jpg","66","","","","","","test","TL","3"
"","show_choice","292","475116","0.0-243.0-1.0","""event"",""trial"",""time""
""fullscreenenter"",""0"",""3195""
","
","
","""event"",""trial"",""time""
""fullscreenenter"",""0"",""3195""
","
","null","run_exp/static/images/Set 6_rs/017b.jpg","null","","","","","","test","TL",""
"","html-keyboard-response","293","475629","0.0-243.0-2.0","""event"",""trial"",""time""
""fullscreenenter"",""0"",""3195""
","
","
","""event"",""trial"",""time""
""fullscreenenter"",""0"",""3195""
","
","null","<p></p>","null","","","","","","","",""
"","image","294","478386","0.0-244.0-0.0","""event"",""trial"",""time""
""fullscreenenter"",""0"",""3195""
","
","
","""event"",""trial"",""time""
""fullscreenenter"",""0"",""3195""
","
","2753.600000023842","run_exp/static/images/Set 6_rs/071b.jpg","66","","","","","","test","TL","4"
"","show_choice","295","478900","0.0-244.0-1.0","""event"",""trial"",""time""
""fullscreenenter"",""0"",""3195""
","
","
","""event"",""trial"",""time""
""fullscreenenter"",""0"",""3195""
","
","null","run_exp/static/images/Set 6_rs/071b.jpg","null","","","","","","test","TL",""
"","html-keyboard-response","296","479413","0.0-244.0-2.0","""event"",""trial"",""time""
""fullscreenenter"",""0"",""3195""
","
","
","""event"",""trial"",""time""
""fullscreenenter"",""0"",""3195""
","
","null","<p></p>","null","","","","","","","",""
"","image","297","481451","0.0-245.0-0.0","""event"",""trial"",""time""
""fullscreenenter"",""0"",""3195""
","
","
","""event"",""trial"",""time""
""fullscreenenter"",""0"",""3195""
","
","2035.5999999642372","run_exp/static/images/Set 6_rs/075a.jpg","86","","","","","","test","TR","1"
"","show_choice","298","481956","0.0-245.0-1.0","""event"",""trial"",""time""
""fullscreenenter"",""0"",""3195""
","
","
","""event"",""trial"",""time""
""fullscreenenter"",""0"",""3195""
","
","null","run_exp/static/images/Set 6_rs/075a.jpg","null","","","","","","test","TR",""
"","html-keyboard-response","299","482457","0.0-245.0-2.0","""event"",""trial"",""time""
""fullscreenenter"",""0"",""3195""
","
","
","""event"",""trial"",""time""
""fullscreenenter"",""0"",""3195""
","
","null","<p></p>","null","","","","","","","",""
"","image","300","484790","0.0-246.0-0.0","""event"",""trial"",""time""
""fullscreenenter"",""0"",""3195""
","
","
","""event"",""trial"",""time""
""fullscreenenter"",""0"",""3195""
","
","2330.900000035763","run_exp/static/images/Set 6_rs/169a.jpg","86","","","","","","test","TR","4"
"","show_choice","301","485302","0.0-246.0-1.0","""event"",""trial"",""time""
""fullscreenenter"",""0"",""3195""
","
","
","""event"",""trial"",""time""
""fullscreenenter"",""0"",""3195""
","
","null","run_exp/static/images/Set 6_rs/169a.jpg","null","","","","","","test","TR",""
"","html-keyboard-response","302","485804","0.0-246.0-2.0","""event"",""trial"",""time""
""fullscreenenter"",""0"",""3195""
","
","
","""event"",""trial"",""time""
""fullscreenenter"",""0"",""3195""
","
","null","<p></p>","null","","","","","","","",""
"","image","303","487793","0.0-247.0-0.0","""event"",""trial"",""time""
""fullscreenenter"",""0"",""3195""
","
","
","""event"",""trial"",""time""
""fullscreenenter"",""0"",""3195""
","
","1986.699999988079","run_exp/static/images/Set 6_rs/097a.jpg","78","","","","","","test","TF","5"
"","show_choice","304","488297","0.0-247.0-1.0","""event"",""trial"",""time""
""fullscreenenter"",""0"",""3195""
","
","
","""event"",""trial"",""time""
""fullscreenenter"",""0"",""3195""
","
","null","run_exp/static/images/Set 6_rs/097a.jpg","null","","","","","","test","TF",""
"","html-keyboard-response","305","488811","0.0-247.0-2.0","""event"",""trial"",""time""
""fullscreenenter"",""0"",""3195""
","
","
","""event"",""trial"",""time""
""fullscreenenter"",""0"",""3195""
","
","null","<p></p>","null","","","","","","","",""
"","image","306","491826","0.0-248.0-0.0","""event"",""trial"",""time""
""fullscreenenter"",""0"",""3195""
","
","
","""event"",""trial"",""time""
""fullscreenenter"",""0"",""3195""
","
","null","run_exp/static/images/Set 6_rs/191b.jpg","null","","","","","","test","TL","2"
"","show_choice","307","492339","0.0-248.0-1.0","""event"",""trial"",""time""
""fullscreenenter"",""0"",""3195""
","
","
","""event"",""trial"",""time""
""fullscreenenter"",""0"",""3195""
","
","null","run_exp/static/images/Set 6_rs/191b.jpg","null","","","","","","test","TL",""
"","html-keyboard-response","308","492851","0.0-248.0-2.0","""event"",""trial"",""time""
""fullscreenenter"",""0"",""3195""
","
","
","""event"",""trial"",""time""
""fullscreenenter"",""0"",""3195""
","
","null","<p></p>","null","","","","","","","",""
"","image","309","494476","0.0-249.0-0.0","""event"",""trial"",""time""
""fullscreenenter"",""0"",""3195""
","
","
","""event"",""trial"",""time""
""fullscreenenter"",""0"",""3195""
","
","1620.0999999642372","run_exp/static/images/Set 6_rs/014b.jpg","66","","","","","","test","TL","5"
"","show_choice","310","494979","0.0-249.0-1.0","""event"",""trial"",""time""
""fullscreenenter"",""0"",""3195""
","
","
","""event"",""trial"",""time""
""fullscreenenter"",""0"",""3195""
","
","null","run_exp/static/images/Set 6_rs/014b.jpg","null","","","","","","test","TL",""
"","html-keyboard-response","311","495492","0.0-249.0-2.0","""event"",""trial"",""time""
""fullscreenenter"",""0"",""3195""
","
","
","""event"",""trial"",""time""
""fullscreenenter"",""0"",""3195""
","
","null","<p></p>","null","","","","","","","",""
"","image","312","496711","0.0-250.0-0.0","""event"",""trial"",""time""
""fullscreenenter"",""0"",""3195""
","
","
","""event"",""trial"",""time""
""fullscreenenter"",""0"",""3195""
","
","1216.8999999761581","run_exp/static/images/Set 6_rs/133a.jpg","78","","","","","","test","TF","4"
"","show_choice","313","497228","0.0-250.0-1.0","""event"",""trial"",""time""
""fullscreenenter"",""0"",""3195""
","
","
","""event"",""trial"",""time""
""fullscreenenter"",""0"",""3195""
","
","null","run_exp/static/images/Set 6_rs/133a.jpg","null","","","","","","test","TF",""
"","html-keyboard-response","314","497741","0.0-250.0-2.0","""event"",""trial"",""time""
""fullscreenenter"",""0"",""3195""
","
","
","""event"",""trial"",""time""
""fullscreenenter"",""0"",""3195""
","
","null","<p></p>","null","","","","","","","",""
"","image","315","500754","0.0-251.0-0.0","""event"",""trial"",""time""
""fullscreenenter"",""0"",""3195""
","
","
","""event"",""trial"",""time""
""fullscreenenter"",""0"",""3195""
","
","null","run_exp/static/images/Set 6_rs/118a.jpg","null","","","","","","test","TF","5"
"","show_choice","316","501268","0.0-251.0-1.0","""event"",""trial"",""time""
""fullscreenenter"",""0"",""3195""
","
","
","""event"",""trial"",""time""
""fullscreenenter"",""0"",""3195""
","
","null","run_exp/static/images/Set 6_rs/118a.jpg","null","","","","","","test","TF",""
"","html-keyboard-response","317","501779","0.0-251.0-2.0","""event"",""trial"",""time""
""fullscreenenter"",""0"",""3195""
","
","
","""event"",""trial"",""time""
""fullscreenenter"",""0"",""3195""
","
","null","<p></p>","null","","","","","","","",""
"","image","318","503070","0.0-252.0-0.0","""event"",""trial"",""time""
""fullscreenenter"",""0"",""3195""
","
","
","""event"",""trial"",""time""
""fullscreenenter"",""0"",""3195""
","
","1289.1000000238419","run_exp/static/images/Set 6_rs/166a.jpg","86","","","","","","test","TR","1"
"","show_choice","319","503581","0.0-252.0-1.0","""event"",""trial"",""time""
""fullscreenenter"",""0"",""3195""
","
","
","""event"",""trial"",""time""
""fullscreenenter"",""0"",""3195""
","
","null","run_exp/static/images/Set 6_rs/166a.jpg","null","","","","","","test","TR",""
"","html-keyboard-response","320","504092","0.0-252.0-2.0","""event"",""trial"",""time""
""fullscreenenter"",""0"",""3195""
","
","
","""event"",""trial"",""time""
""fullscreenenter"",""0"",""3195""
","
","null","<p></p>","null","","","","","","","",""
"","image","321","505349","0.0-253.0-0.0","""event"",""trial"",""time""
""fullscreenenter"",""0"",""3195""
","
","
","""event"",""trial"",""time""
""fullscreenenter"",""0"",""3195""
","
","1255.5","run_exp/static/images/Set 6_rs/050b.jpg","86","","","","","","test","TL","3"
"","show_choice","322","505862","0.0-253.0-1.0","""event"",""trial"",""time""
""fullscreenenter"",""0"",""3195""
","
","
","""event"",""trial"",""time""
""fullscreenenter"",""0"",""3195""
","
","null","run_exp/static/images/Set 6_rs/050b.jpg","null","","","","","","test","TL",""
"","html-keyboard-response","323","506376","0.0-253.0-2.0","""event"",""trial"",""time""
""fullscreenenter"",""0"",""3195""
","
","
","""event"",""trial"",""time""
""fullscreenenter"",""0"",""3195""
","
","null","<p></p>","null","","","","","","","",""
"","image","324","507498","0.0-254.0-0.0","""event"",""trial"",""time""
""fullscreenenter"",""0"",""3195""
","
","
","""event"",""trial"",""time""
""fullscreenenter"",""0"",""3195""
","
","1119.699999988079","run_exp/static/images/Set 6_rs/186a.jpg","86","","","","","","test","TR","5"
"","show_choice","325","508005","0.0-254.0-1.0","""event"",""trial"",""time""
""fullscreenenter"",""0"",""3195""
","
","
","""event"",""trial"",""time""
""fullscreenenter"",""0"",""3195""
","
","null","run_exp/static/images/Set 6_rs/186a.jpg","null","","","","","","test","TR",""
"","html-keyboard-response","326","508519","0.0-254.0-2.0","""event"",""trial"",""time""
""fullscreenenter"",""0"",""3195""
","
","
","""event"",""trial"",""time""
""fullscreenenter"",""0"",""3195""
","
","null","<p></p>","null","","","","","","","",""
"","image","327","509684","0.0-255.0-0.0","""event"",""trial"",""time""
""fullscreenenter"",""0"",""3195""
","
","
","""event"",""trial"",""time""
""fullscreenenter"",""0"",""3195""
","
","1162.8999999761581","run_exp/static/images/Set 6_rs/063a.jpg","86","","","","","","test","TR","2"
"","show_choice","328","510186","0.0-255.0-1.0","""event"",""trial"",""time""
""fullscreenenter"",""0"",""3195""
","
","
","""event"",""trial"",""time""
""fullscreenenter"",""0"",""3195""
","
","null","run_exp/static/images/Set 6_rs/063a.jpg","null","","","","","","test","TR",""
"","html-keyboard-response","329","510700","0.0-255.0-2.0","""event"",""trial"",""time""
""fullscreenenter"",""0"",""3195""
","
","
","""event"",""trial"",""time""
""fullscreenenter"",""0"",""3195""
","
","null","<p></p>","null","","","","","","","",""
"","image","330","511866","0.0-256.0-0.0","""event"",""trial"",""time""
""fullscreenenter"",""0"",""3195""
","
","
","""event"",""trial"",""time""
""fullscreenenter"",""0"",""3195""
","
","1163.9000000357628","run_exp/static/images/Set 6_rs/154a.jpg","86","","","","","","test","TR","3"
"","show_choice","331","512380","0.0-256.0-1.0","""event"",""trial"",""time""
""fullscreenenter"",""0"",""3195""
","
","
","""event"",""trial"",""time""
""fullscreenenter"",""0"",""3195""
","
","null","run_exp/static/images/Set 6_rs/154a.jpg","null","","","","","","test","TR",""
"","html-keyboard-response","332","512895","0.0-256.0-2.0","""event"",""trial"",""time""
""fullscreenenter"",""0"",""3195""
","
","
","""event"",""trial"",""time""
""fullscreenenter"",""0"",""3195""
","
","null","<p></p>","null","","","","","","","",""
"","image","333","514070","0.0-257.0-0.0","""event"",""trial"",""time""
""fullscreenenter"",""0"",""3195""
","
","
","""event"",""trial"",""time""
""fullscreenenter"",""0"",""3195""
","
","1172.9000000357628","run_exp/static/images/Set 6_rs/010a.jpg","86","","","","","","test","TR","5"
"","show_choice","334","514588","0.0-257.0-1.0","""event"",""trial"",""time""
""fullscreenenter"",""0"",""3195""
","
","
","""event"",""trial"",""time""
""fullscreenenter"",""0"",""3195""
","
","null","run_exp/static/images/Set 6_rs/010a.jpg","null","","","","","","test","TR",""
"","html-keyboard-response","335","515098","0.0-257.0-2.0","""event"",""trial"",""time""
""fullscreenenter"",""0"",""3195""
","
","
","""event"",""trial"",""time""
""fullscreenenter"",""0"",""3195""
","
","null","<p></p>","null","","","","","","","",""
"","image","336","516762","0.0-258.0-0.0","""event"",""trial"",""time""
""fullscreenenter"",""0"",""3195""
","
","
","""event"",""trial"",""time""
""fullscreenenter"",""0"",""3195""
","
","1662.0999999642372","run_exp/static/images/Set 6_rs/064a.jpg","86","","","","","","test","TR","5"
"","show_choice","337","517270","0.0-258.0-1.0","""event"",""trial"",""time""
""fullscreenenter"",""0"",""3195""
","
","
","""event"",""trial"",""time""
""fullscreenenter"",""0"",""3195""
","
","null","run_exp/static/images/Set 6_rs/064a.jpg","null","","","","","","test","TR",""
"","html-keyboard-response","338","517784","0.0-258.0-2.0","""event"",""trial"",""time""
""fullscreenenter"",""0"",""3195""
","
","
","""event"",""trial"",""time""
""fullscreenenter"",""0"",""3195""
","
","null","<p></p>","null","","","","","","","",""
"","image","339","519435","0.0-259.0-0.0","""event"",""trial"",""time""
""fullscreenenter"",""0"",""3195""
","
","
","""event"",""trial"",""time""
""fullscreenenter"",""0"",""3195""
","
","1649.1000000238419","run_exp/static/images/Set 6_rs/089b.jpg","66","","","","","","test","TL","4"
"","show_choice","340","519938","0.0-259.0-1.0","""event"",""trial"",""time""
""fullscreenenter"",""0"",""3195""
","
","
","""event"",""trial"",""time""
""fullscreenenter"",""0"",""3195""
","
","null","run_exp/static/images/Set 6_rs/089b.jpg","null","","","","","","test","TL",""
"","html-keyboard-response","341","520451","0.0-259.0-2.0","""event"",""trial"",""time""
""fullscreenenter"",""0"",""3195""
","
","
