"success","trial_type","trial_index","time_elapsed","internal_node_id","interactions","blur_events","focus_events","fullscreenenter_events","fullscreenexit_events","rt","stimulus","key_press","subject_id","participant_id","age","gender","prompt","phase","condition","lure_bin"
"true","fullscreen","0","4600","0.0-0.0","""event"",""trial"",""time""
""focus"",""0"",""0""
""fullscreenenter"",""0"",""3830""
","
","""event"",""trial"",""time""
""focus"",""0"",""0""
","""event"",""trial"",""time""
""fullscreenenter"",""0"",""3830""
","
","","","","","","","","","","",""
"","pavlovia","1","4612","0.0-1.0","""event"",""trial"",""time""
""focus"",""0"",""0""
""fullscreenenter"",""0"",""3830""
","
","""event"",""trial"",""time""
""focus"",""0"",""0""
","""event"",""trial"",""time""
""fullscreenenter"",""0"",""3830""
","
","","","","","","","","","","",""
"","welcome","2","39501","0.0-2.0","""event"",""trial"",""time""
""focus"",""0"",""0""
""fullscreenenter"",""0"",""3830""
","
","""event"",""trial"",""time""
""focus"",""0"",""0""
","""event"",""trial"",""time""
""fullscreenenter"",""0"",""3830""
","
","null","run_exp/static/audio/clip_1_welcome.m4a","null","585","472","24","Female","<div class='center'><p>Welcome to the third part of the study! First, you'll be shown pictures of items one at a time. For each picture, you have to decide if the item is typically found indoors or outdoors.</p><p>If you think it's usually found indoors, then press <b>v</b> key on your keyboard. If you think it's usually found outdoors, then press the <b>n</b> key.There will be reminders on the screen to help you remember which keys to press. </p><p>If you're not sure whether the item is an indoor item or an outdoor item, go ahead and take a guess but try your best not to skip that choice. </p></div>","","",""
"","html-keyboard-response","3","41982","0.0-3.0","""event"",""trial"",""time""
""focus"",""0"",""0""
""fullscreenenter"",""0"",""3830""
","
","""event"",""trial"",""time""
""focus"",""0"",""0""
","""event"",""trial"",""time""
""fullscreenenter"",""0"",""3830""
","
","2468","<div class='center'><p>Welcome to the third part of the study! First, you'll be shown pictures of items one at a time. For each picture, you have to decide if the item is typically found indoors or outdoors.</p><p>If you think it's usually found indoors, then press <b>v</b> key on your keyboard. If you think it's usually found outdoors, then press the <b>n</b> key.There will be reminders on the screen to help you remember which keys to press. </p><p>If you're not sure whether the item is an indoor item or an outdoor item, go ahead and take a guess but try your best not to skip that choice. </p><div><p><b>[Press the space bar to continue]</b></p></div>","32","","","","","","","",""
"","image","4","43991","0.0-4.0","""event"",""trial"",""time""
""focus"",""0"",""0""
""fullscreenenter"",""0"",""3830""
","
","""event"",""trial"",""time""
""focus"",""0"",""0""
","""event"",""trial"",""time""
""fullscreenenter"",""0"",""3830""
","
","null","run_exp/static/images/Set 6_rs/191a.jpg","null","","","","","","learn","SL",""
"","show_choice","5","45992","0.0-5.0","""event"",""trial"",""time""
""focus"",""0"",""0""
""fullscreenenter"",""0"",""3830""
","
","""event"",""trial"",""time""
""focus"",""0"",""0""
","""event"",""trial"",""time""
""fullscreenenter"",""0"",""3830""
","
","null","run_exp/static/images/blank.png","null","","","","","","learn","SL",""
"","html-keyboard-response","6","46494","0.0-6.0","""event"",""trial"",""time""
""focus"",""0"",""0""
""fullscreenenter"",""0"",""3830""
","
","""event"",""trial"",""time""
""focus"",""0"",""0""
","""event"",""trial"",""time""
""fullscreenenter"",""0"",""3830""
","
","null","<p></p>","null","","","","","","","",""
"","image","7","47414","0.0-7.0","""event"",""trial"",""time""
""focus"",""0"",""0""
""fullscreenenter"",""0"",""3830""
","
","""event"",""trial"",""time""
""focus"",""0"",""0""
","""event"",""trial"",""time""
""fullscreenenter"",""0"",""3830""
","
","919","run_exp/static/images/Set 6_rs/036a.jpg","86","","","","","","learn","SL",""
"","show_choice","8","48506","0.0-8.0","""event"",""trial"",""time""
""focus"",""0"",""0""
""fullscreenenter"",""0"",""3830""
","
","""event"",""trial"",""time""
""focus"",""0"",""0""
","""event"",""trial"",""time""
""fullscreenenter"",""0"",""3830""
","
","null","run_exp/static/images/Set 6_rs/036a.jpg","null","","","","","","learn","SL",""
"","html-keyboard-response","9","49023","0.0-9.0","""event"",""trial"",""time""
""focus"",""0"",""0""
""fullscreenenter"",""0"",""3830""
","
","""event"",""trial"",""time""
""focus"",""0"",""0""
","""event"",""trial"",""time""
""fullscreenenter"",""0"",""3830""
","
","null","<p></p>","null","","","","","","","",""
"","image","10","49896","0.0-10.0","""event"",""trial"",""time""
""focus"",""0"",""0""
""fullscreenenter"",""0"",""3830""
","
","""event"",""trial"",""time""
""focus"",""0"",""0""
","""event"",""trial"",""time""
""fullscreenenter"",""0"",""3830""
","
","871","run_exp/static/images/Set 6_rs/122a.jpg","86","","","","","","learn","SR",""
"","show_choice","11","51039","0.0-11.0","""event"",""trial"",""time""
""focus"",""0"",""0""
""fullscreenenter"",""0"",""3830""
","
","""event"",""trial"",""time""
""focus"",""0"",""0""
","""event"",""trial"",""time""
""fullscreenenter"",""0"",""3830""
","
","null","run_exp/static/images/Set 6_rs/122a.jpg","null","","","","","","learn","SR",""
"","html-keyboard-response","12","51546","0.0-12.0","""event"",""trial"",""time""
""focus"",""0"",""0""
""fullscreenenter"",""0"",""3830""
","
","""event"",""trial"",""time""
""focus"",""0"",""0""
","""event"",""trial"",""time""
""fullscreenenter"",""0"",""3830""
","
","null","<p></p>","null","","","","","","","",""
"","image","13","52224","0.0-13.0","""event"",""trial"",""time""
""focus"",""0"",""0""
""fullscreenenter"",""0"",""3830""
","
","""event"",""trial"",""time""
""focus"",""0"",""0""
","""event"",""trial"",""time""
""fullscreenenter"",""0"",""3830""
","
","676","run_exp/static/images/Set 6_rs/111a.jpg","86","","","","","","learn","SL",""
"","show_choice","14","53551","0.0-14.0","""event"",""trial"",""time""
""focus"",""0"",""0""
""fullscreenenter"",""0"",""3830""
","
","""event"",""trial"",""time""
""focus"",""0"",""0""
","""event"",""trial"",""time""
""fullscreenenter"",""0"",""3830""
","
","null","run_exp/static/images/Set 6_rs/111a.jpg","null","","","","","","learn","SL",""
"","html-keyboard-response","15","54065","0.0-15.0","""event"",""trial"",""time""
""focus"",""0"",""0""
""fullscreenenter"",""0"",""3830""
","
","""event"",""trial"",""time""
""focus"",""0"",""0""
","""event"",""trial"",""time""
""fullscreenenter"",""0"",""3830""
","
","null","<p></p>","null","","","","","","","",""
"","image","16","54665","0.0-16.0","""event"",""trial"",""time""
""focus"",""0"",""0""
""fullscreenenter"",""0"",""3830""
","
","""event"",""trial"",""time""
""focus"",""0"",""0""
","""event"",""trial"",""time""
""fullscreenenter"",""0"",""3830""
","
","598","run_exp/static/images/Set 6_rs/025a.jpg","78","","","","","","learn","SL",""
"","show_choice","17","56068","0.0-17.0","""event"",""trial"",""time""
""focus"",""0"",""0""
""fullscreenenter"",""0"",""3830""
","
","""event"",""trial"",""time""
""focus"",""0"",""0""
","""event"",""trial"",""time""
""fullscreenenter"",""0"",""3830""
","
","null","run_exp/static/images/Set 6_rs/025a.jpg","null","","","","","","learn","SL",""
"","html-keyboard-response","18","56581","0.0-18.0","""event"",""trial"",""time""
""focus"",""0"",""0""
""fullscreenenter"",""0"",""3830""
","
","""event"",""trial"",""time""
""focus"",""0"",""0""
","""event"",""trial"",""time""
""fullscreenenter"",""0"",""3830""
","
","null","<p></p>","null","","","","","","","",""
"","image","19","57381","0.0-19.0","""event"",""trial"",""time""
""focus"",""0"",""0""
""fullscreenenter"",""0"",""3830""
","
","""event"",""trial"",""time""
""focus"",""0"",""0""
","""event"",""trial"",""time""
""fullscreenenter"",""0"",""3830""
","
","799","run_exp/static/images/Set 6_rs/141a.jpg","78","","","","","","learn","SR",""
"","show_choice","20","58596","0.0-20.0","""event"",""trial"",""time""
""focus"",""0"",""0""
""fullscreenenter"",""0"",""3830""
","
","""event"",""trial"",""time""
""focus"",""0"",""0""
","""event"",""trial"",""time""
""fullscreenenter"",""0"",""3830""
","
","null","run_exp/static/images/Set 6_rs/141a.jpg","null","","","","","","learn","SR",""
"","html-keyboard-response","21","59105","0.0-21.0","""event"",""trial"",""time""
""focus"",""0"",""0""
""fullscreenenter"",""0"",""3830""
","
","""event"",""trial"",""time""
""focus"",""0"",""0""
","""event"",""trial"",""time""
""fullscreenenter"",""0"",""3830""
","
","null","<p></p>","null","","","","","","","",""
"","image","22","59678","0.0-22.0","""event"",""trial"",""time""
""focus"",""0"",""0""
""fullscreenenter"",""0"",""3830""
","
","""event"",""trial"",""time""
""focus"",""0"",""0""
","""event"",""trial"",""time""
""fullscreenenter"",""0"",""3830""
","
","573","run_exp/static/images/Set 6_rs/138a.jpg","78","","","","","","learn","SL",""
"","show_choice","23","61113","0.0-23.0","""event"",""trial"",""time""
""focus"",""0"",""0""
""fullscreenenter"",""0"",""3830""
","
","""event"",""trial"",""time""
""focus"",""0"",""0""
","""event"",""trial"",""time""
""fullscreenenter"",""0"",""3830""
","
","null","run_exp/static/images/Set 6_rs/138a.jpg","null","","","","","","learn","SL",""
"","html-keyboard-response","24","61622","0.0-24.0","""event"",""trial"",""time""
""focus"",""0"",""0""
""fullscreenenter"",""0"",""3830""
","
","""event"",""trial"",""time""
""focus"",""0"",""0""
","""event"",""trial"",""time""
""fullscreenenter"",""0"",""3830""
","
","null","<p></p>","null","","","","","","","",""
"","image","25","62311","0.0-25.0","""event"",""trial"",""time""
""focus"",""0"",""0""
""fullscreenenter"",""0"",""3830""
","
","""event"",""trial"",""time""
""focus"",""0"",""0""
","""event"",""trial"",""time""
""fullscreenenter"",""0"",""3830""
","
","687","run_exp/static/images/Set 6_rs/123a.jpg","78","","","","","","learn","SL",""
"","show_choice","26","63637","0.0-26.0","""event"",""trial"",""time""
""focus"",""0"",""0""
""fullscreenenter"",""0"",""3830""
","
","""event"",""trial"",""time""
""focus"",""0"",""0""
","""event"",""trial"",""time""
""fullscreenenter"",""0"",""3830""
","
","null","run_exp/static/images/Set 6_rs/123a.jpg","null","","","","","","learn","SL",""
"","html-keyboard-response","27","64151","0.0-27.0","""event"",""trial"",""time""
""focus"",""0"",""0""
""fullscreenenter"",""0"",""3830""
","
","""event"",""trial"",""time""
""focus"",""0"",""0""
","""event"",""trial"",""time""
""fullscreenenter"",""0"",""3830""
","
","null","<p></p>","null","","","","","","","",""
"","image","28","64930","0.0-28.0","""event"",""trial"",""time""
""focus"",""0"",""0""
""fullscreenenter"",""0"",""3830""
","
","""event"",""trial"",""time""
""focus"",""0"",""0""
","""event"",""trial"",""time""
""fullscreenenter"",""0"",""3830""
","
","777","run_exp/static/images/Set 6_rs/167a.jpg","86","","","","","","learn","SL",""
"","show_choice","29","66157","0.0-29.0","""event"",""trial"",""time""
""focus"",""0"",""0""
""fullscreenenter"",""0"",""3830""
","
","""event"",""trial"",""time""
""focus"",""0"",""0""
","""event"",""trial"",""time""
""fullscreenenter"",""0"",""3830""
","
","null","run_exp/static/images/Set 6_rs/167a.jpg","null","","","","","","learn","SL",""
"","html-keyboard-response","30","66666","0.0-30.0","""event"",""trial"",""time""
""focus"",""0"",""0""
""fullscreenenter"",""0"",""3830""
","
","""event"",""trial"",""time""
""focus"",""0"",""0""
","""event"",""trial"",""time""
""fullscreenenter"",""0"",""3830""
","
","null","<p></p>","null","","","","","","","",""
"","image","31","67571","0.0-31.0","""event"",""trial"",""time""
""focus"",""0"",""0""
""fullscreenenter"",""0"",""3830""
","
","""event"",""trial"",""time""
""focus"",""0"",""0""
","""event"",""trial"",""time""
""fullscreenenter"",""0"",""3830""
","
","900","run_exp/static/images/Set 6_rs/066a.jpg","86","","","","","","learn","SL",""
"","show_choice","32","68673","0.0-32.0","""event"",""trial"",""time""
""focus"",""0"",""0""
""fullscreenenter"",""0"",""3830""
","
","""event"",""trial"",""time""
""focus"",""0"",""0""
","""event"",""trial"",""time""
""fullscreenenter"",""0"",""3830""
","
","null","run_exp/static/images/Set 6_rs/066a.jpg","null","","","","","","learn","SL",""
"","html-keyboard-response","33","69186","0.0-33.0","""event"",""trial"",""time""
""focus"",""0"",""0""
""fullscreenenter"",""0"",""3830""
","
","""event"",""trial"",""time""
""focus"",""0"",""0""
","""event"",""trial"",""time""
""fullscreenenter"",""0"",""3830""
","
","null","<p></p>","null","","","","","","","",""
"","image","34","69804","0.0-34.0","""event"",""trial"",""time""
""focus"",""0"",""0""
""fullscreenenter"",""0"",""3830""
","
","""event"",""trial"",""time""
""focus"",""0"",""0""
","""event"",""trial"",""time""
""fullscreenenter"",""0"",""3830""
","
","611","run_exp/static/images/Set 6_rs/055a.jpg","86","","","","","","learn","SL",""
"","show_choice","35","71203","0.0-35.0","""event"",""trial"",""time""
""focus"",""0"",""0""
""fullscreenenter"",""0"",""3830""
","
","""event"",""trial"",""time""
""focus"",""0"",""0""
","""event"",""trial"",""time""
""fullscreenenter"",""0"",""3830""
","
","null","run_exp/static/images/Set 6_rs/055a.jpg","null","","","","","","learn","SL",""
"","html-keyboard-response","36","71718","0.0-36.0","""event"",""trial"",""time""
""focus"",""0"",""0""
""fullscreenenter"",""0"",""3830""
","
","""event"",""trial"",""time""
""focus"",""0"",""0""
","""event"",""trial"",""time""
""fullscreenenter"",""0"",""3830""
","
","null","<p></p>","null","","","","","","","",""
"","image","37","73674","0.0-37.0","""event"",""trial"",""time""
""focus"",""0"",""0""
""fullscreenenter"",""0"",""3830""
","
","""event"",""trial"",""time""
""focus"",""0"",""0""
","""event"",""trial"",""time""
""fullscreenenter"",""0"",""3830""
","
","1954","run_exp/static/images/Set 6_rs/144a.jpg","86","","","","","","learn","SL",""
"","show_choice","38","73739","0.0-38.0","""event"",""trial"",""time""
""focus"",""0"",""0""
""fullscreenenter"",""0"",""3830""
","
","""event"",""trial"",""time""
""focus"",""0"",""0""
","""event"",""trial"",""time""
""fullscreenenter"",""0"",""3830""
","
","null","run_exp/static/images/Set 6_rs/144a.jpg","null","","","","","","learn","SL",""
"","html-keyboard-response","39","74259","0.0-39.0","""event"",""trial"",""time""
""focus"",""0"",""0""
""fullscreenenter"",""0"",""3830""
","
","""event"",""trial"",""time""
""focus"",""0"",""0""
","""event"",""trial"",""time""
""fullscreenenter"",""0"",""3830""
","
","null","<p></p>","null","","","","","","","",""
"","image","40","75160","0.0-40.0","""event"",""trial"",""time""
""focus"",""0"",""0""
""fullscreenenter"",""0"",""3830""
","
","""event"",""trial"",""time""
""focus"",""0"",""0""
","""event"",""trial"",""time""
""fullscreenenter"",""0"",""3830""
","
","896","run_exp/static/images/Set 6_rs/172a.jpg","78","","","","","","learn","SR",""
"","show_choice","41","76279","0.0-41.0","""event"",""trial"",""time""
""focus"",""0"",""0""
""fullscreenenter"",""0"",""3830""
","
","""event"",""trial"",""time""
""focus"",""0"",""0""
","""event"",""trial"",""time""
""fullscreenenter"",""0"",""3830""
","
","null","run_exp/static/images/Set 6_rs/172a.jpg","null","","","","","","learn","SR",""
"","html-keyboard-response","42","76799","0.0-42.0","""event"",""trial"",""time""
""focus"",""0"",""0""
""fullscreenenter"",""0"",""3830""
","
","""event"",""trial"",""time""
""focus"",""0"",""0""
","""event"",""trial"",""time""
""fullscreenenter"",""0"",""3830""
","
","null","<p></p>","null","","","","","","","",""
"","image","43","78084","0.0-43.0","""event"",""trial"",""time""
""focus"",""0"",""0""
""fullscreenenter"",""0"",""3830""
","
","""event"",""trial"",""time""
""focus"",""0"",""0""
","""event"",""trial"",""time""
""fullscreenenter"",""0"",""3830""
","
","1282","run_exp/static/images/Set 6_rs/129a.jpg","86","","","","","","learn","SL",""
"","show_choice","44","78809","0.0-44.0","""event"",""trial"",""time""
""focus"",""0"",""0""
""fullscreenenter"",""0"",""3830""
","
","""event"",""trial"",""time""
""focus"",""0"",""0""
","""event"",""trial"",""time""
""fullscreenenter"",""0"",""3830""
","
","null","run_exp/static/images/Set 6_rs/129a.jpg","null","","","","","","learn","SL",""
"","html-keyboard-response","45","79328","0.0-45.0","""event"",""trial"",""time""
""focus"",""0"",""0""
""fullscreenenter"",""0"",""3830""
","
","""event"",""trial"",""time""
""focus"",""0"",""0""
","""event"",""trial"",""time""
""fullscreenenter"",""0"",""3830""
","
","null","<p></p>","null","","","","","","","",""
"","image","46","80570","0.0-46.0","""event"",""trial"",""time""
""focus"",""0"",""0""
""fullscreenenter"",""0"",""3830""
","
","""event"",""trial"",""time""
""focus"",""0"",""0""
","""event"",""trial"",""time""
""fullscreenenter"",""0"",""3830""
","
","1238","run_exp/static/images/Set 6_rs/064a.jpg","78","","","","","","learn","SR",""
"","show_choice","47","81349","0.0-47.0","""event"",""trial"",""time""
""focus"",""0"",""0""
""fullscreenenter"",""0"",""3830""
","
","""event"",""trial"",""time""
""focus"",""0"",""0""
","""event"",""trial"",""time""
""fullscreenenter"",""0"",""3830""
","
","null","run_exp/static/images/Set 6_rs/064a.jpg","null","","","","","","learn","SR",""
"","html-keyboard-response","48","81856","0.0-48.0","""event"",""trial"",""time""
""focus"",""0"",""0""
""fullscreenenter"",""0"",""3830""
","
","""event"",""trial"",""time""
""focus"",""0"",""0""
","""event"",""trial"",""time""
""fullscreenenter"",""0"",""3830""
","
","null","<p></p>","null","","","","","","","",""
"","image","49","82881","0.0-49.0","""event"",""trial"",""time""
""focus"",""0"",""0""
""fullscreenenter"",""0"",""3830""
","
","""event"",""trial"",""time""
""focus"",""0"",""0""
","""event"",""trial"",""time""
""fullscreenenter"",""0"",""3830""
","
","1023","run_exp/static/images/Set 6_rs/116a.jpg","86","","","","","","learn","SL",""
"","show_choice","50","83862","0.0-50.0","""event"",""trial"",""time""
""focus"",""0"",""0""
""fullscreenenter"",""0"",""3830""
","
","""event"",""trial"",""time""
""focus"",""0"",""0""
","""event"",""trial"",""time""
""fullscreenenter"",""0"",""3830""
","
","null","run_exp/static/images/Set 6_rs/116a.jpg","null","","","","","","learn","SL",""
"","html-keyboard-response","51","84363","0.0-51.0","""event"",""trial"",""time""
""focus"",""0"",""0""
""fullscreenenter"",""0"",""3830""
","
","""event"",""trial"",""time""
""focus"",""0"",""0""
","""event"",""trial"",""time""
""fullscreenenter"",""0"",""3830""
","
","null","<p></p>","null","","","","","","","",""
"","image","52","85504","0.0-52.0","""event"",""trial"",""time""
""focus"",""0"",""0""
""fullscreenenter"",""0"",""3830""
","
","""event"",""trial"",""time""
""focus"",""0"",""0""
","""event"",""trial"",""time""
""fullscreenenter"",""0"",""3830""
","
","1139","run_exp/static/images/Set 6_rs/024a.jpg","86","","","","","","learn","SR",""
"","show_choice","53","86381","0.0-53.0","""event"",""trial"",""time""
""focus"",""0"",""0""
""fullscreenenter"",""0"",""3830""
","
","""event"",""trial"",""time""
""focus"",""0"",""0""
","""event"",""trial"",""time""
""fullscreenenter"",""0"",""3830""
","
","null","run_exp/static/images/Set 6_rs/024a.jpg","null","","","","","","learn","SR",""
"","html-keyboard-response","54","86894","0.0-54.0","""event"",""trial"",""time""
""focus"",""0"",""0""
""fullscreenenter"",""0"",""3830""
","
","""event"",""trial"",""time""
""focus"",""0"",""0""
","""event"",""trial"",""time""
""fullscreenenter"",""0"",""3830""
","
","null","<p></p>","null","","","","","","","",""
"","image","55","87928","0.0-55.0","""event"",""trial"",""time""
""focus"",""0"",""0""
""fullscreenenter"",""0"",""3830""
","
","""event"",""trial"",""time""
""focus"",""0"",""0""
","""event"",""trial"",""time""
""fullscreenenter"",""0"",""3830""
","
","1032","run_exp/static/images/Set 6_rs/117a.jpg","86","","","","","","learn","SL",""
"","show_choice","56","88908","0.0-56.0","""event"",""trial"",""time""
""focus"",""0"",""0""
""fullscreenenter"",""0"",""3830""
","
","""event"",""trial"",""time""
""focus"",""0"",""0""
","""event"",""trial"",""time""
""fullscreenenter"",""0"",""3830""
","
","null","run_exp/static/images/Set 6_rs/117a.jpg","null","","","","","","learn","SL",""
"","html-keyboard-response","57","89423","0.0-57.0","""event"",""trial"",""time""
""focus"",""0"",""0""
""fullscreenenter"",""0"",""3830""
","
","""event"",""trial"",""time""
""focus"",""0"",""0""
","""event"",""trial"",""time""
""fullscreenenter"",""0"",""3830""
","
","null","<p></p>","null","","","","","","","",""
"","image","58","90252","0.0-58.0","""event"",""trial"",""time""
""focus"",""0"",""0""
""fullscreenenter"",""0"",""3830""
","
","""event"",""trial"",""time""
""focus"",""0"",""0""
","""event"",""trial"",""time""
""fullscreenenter"",""0"",""3830""
","
","826","run_exp/static/images/Set 6_rs/079a.jpg","86","","","","","","learn","SL",""
"","show_choice","59","91435","0.0-59.0","""event"",""trial"",""time""
""focus"",""0"",""0""
""fullscreenenter"",""0"",""3830""
","
","""event"",""trial"",""time""
""focus"",""0"",""0""
","""event"",""trial"",""time""
""fullscreenenter"",""0"",""3830""
","
","null","run_exp/static/images/Set 6_rs/079a.jpg","null","","","","","","learn","SL",""
"","html-keyboard-response","60","91950","0.0-60.0","""event"",""trial"",""time""
""focus"",""0"",""0""
""fullscreenenter"",""0"",""3830""
","
","""event"",""trial"",""time""
""focus"",""0"",""0""
","""event"",""trial"",""time""
""fullscreenenter"",""0"",""3830""
","
","null","<p></p>","null","","","","","","","",""
"","image","61","92908","0.0-61.0","""event"",""trial"",""time""
""focus"",""0"",""0""
""fullscreenenter"",""0"",""3830""
","
","""event"",""trial"",""time""
""focus"",""0"",""0""
","""event"",""trial"",""time""
""fullscreenenter"",""0"",""3830""
","
","954","run_exp/static/images/Set 6_rs/089a.jpg","86","","","","","","learn","SL",""
"","show_choice","62","93962","0.0-62.0","""event"",""trial"",""time""
""focus"",""0"",""0""
""fullscreenenter"",""0"",""3830""
","
","""event"",""trial"",""time""
""focus"",""0"",""0""
","""event"",""trial"",""time""
""fullscreenenter"",""0"",""3830""
","
","null","run_exp/static/images/Set 6_rs/089a.jpg","null","","","","","","learn","SL",""
"","html-keyboard-response","63","94469","0.0-63.0","""event"",""trial"",""time""
""focus"",""0"",""0""
""fullscreenenter"",""0"",""3830""
","
","""event"",""trial"",""time""
""focus"",""0"",""0""
","""event"",""trial"",""time""
""fullscreenenter"",""0"",""3830""
","
","null","<p></p>","null","","","","","","","",""
"","image","64","95337","0.0-64.0","""event"",""trial"",""time""
""focus"",""0"",""0""
""fullscreenenter"",""0"",""3830""
","
","""event"",""trial"",""time""
""focus"",""0"",""0""
","""event"",""trial"",""time""
""fullscreenenter"",""0"",""3830""
","
","867","run_exp/static/images/Set 6_rs/181a.jpg","78","","","","","","learn","SL",""
"","show_choice","65","96488","0.0-65.0","""event"",""trial"",""time""
""focus"",""0"",""0""
""fullscreenenter"",""0"",""3830""
","
","""event"",""trial"",""time""
""focus"",""0"",""0""
","""event"",""trial"",""time""
""fullscreenenter"",""0"",""3830""
","
","null","run_exp/static/images/Set 6_rs/181a.jpg","null","","","","","","learn","SL",""
"","html-keyboard-response","66","97002","0.0-66.0","""event"",""trial"",""time""
""focus"",""0"",""0""
""fullscreenenter"",""0"",""3830""
","
","""event"",""trial"",""time""
""focus"",""0"",""0""
","""event"",""trial"",""time""
""fullscreenenter"",""0"",""3830""
","
","null","<p></p>","null","","","","","","","",""
"","image","67","97843","0.0-67.0","""event"",""trial"",""time""
""focus"",""0"",""0""
""fullscreenenter"",""0"",""3830""
","
","""event"",""trial"",""time""
""focus"",""0"",""0""
","""event"",""trial"",""time""
""fullscreenenter"",""0"",""3830""
","
","839","run_exp/static/images/Set 6_rs/016a.jpg","86","","","","","","learn","SL",""
"","show_choice","68","99016","0.0-68.0","""event"",""trial"",""time""
""focus"",""0"",""0""
""fullscreenenter"",""0"",""3830""
","
","""event"",""trial"",""time""
""focus"",""0"",""0""
","""event"",""trial"",""time""
""fullscreenenter"",""0"",""3830""
","
","null","run_exp/static/images/Set 6_rs/016a.jpg","null","","","","","","learn","SL",""
"","html-keyboard-response","69","99519","0.0-69.0","""event"",""trial"",""time""
""focus"",""0"",""0""
""fullscreenenter"",""0"",""3830""
","
","""event"",""trial"",""time""
""focus"",""0"",""0""
","""event"",""trial"",""time""
""fullscreenenter"",""0"",""3830""
","
","null","<p></p>","null","","","","","","","",""
"","image","70","100375","0.0-70.0","""event"",""trial"",""time""
""focus"",""0"",""0""
""fullscreenenter"",""0"",""3830""
","
","""event"",""trial"",""time""
""focus"",""0"",""0""
","""event"",""trial"",""time""
""fullscreenenter"",""0"",""3830""
","
","854","run_exp/static/images/Set 6_rs/014a.jpg","86","","","","","","learn","SL",""
"","show_choice","71","101537","0.0-71.0","""event"",""trial"",""time""
""focus"",""0"",""0""
""fullscreenenter"",""0"",""3830""
","
","""event"",""trial"",""time""
""focus"",""0"",""0""
","""event"",""trial"",""time""
""fullscreenenter"",""0"",""3830""
","
","null","run_exp/static/images/Set 6_rs/014a.jpg","null","","","","","","learn","SL",""
"","html-keyboard-response","72","102042","0.0-72.0","""event"",""trial"",""time""
""focus"",""0"",""0""
""fullscreenenter"",""0"",""3830""
","
","""event"",""trial"",""time""
""focus"",""0"",""0""
","""event"",""trial"",""time""
""fullscreenenter"",""0"",""3830""
","
","null","<p></p>","null","","","","","","","",""
"","image","73","102875","0.0-73.0","""event"",""trial"",""time""
""focus"",""0"",""0""
""fullscreenenter"",""0"",""3830""
","
","""event"",""trial"",""time""
""focus"",""0"",""0""
","""event"",""trial"",""time""
""fullscreenenter"",""0"",""3830""
","
","832","run_exp/static/images/Set 6_rs/061a.jpg","78","","","","","","learn","SR",""
"","show_choice","74","104049","0.0-74.0","""event"",""trial"",""time""
""focus"",""0"",""0""
""fullscreenenter"",""0"",""3830""
","
","""event"",""trial"",""time""
""focus"",""0"",""0""
","""event"",""trial"",""time""
""fullscreenenter"",""0"",""3830""
","
","null","run_exp/static/images/Set 6_rs/061a.jpg","null","","","","","","learn","SR",""
"","html-keyboard-response","75","104551","0.0-75.0","""event"",""trial"",""time""
""focus"",""0"",""0""
""fullscreenenter"",""0"",""3830""
","
","""event"",""trial"",""time""
""focus"",""0"",""0""
","""event"",""trial"",""time""
""fullscreenenter"",""0"",""3830""
","
","null","<p></p>","null","","","","","","","",""
"","image","76","105233","0.0-76.0","""event"",""trial"",""time""
""focus"",""0"",""0""
""fullscreenenter"",""0"",""3830""
","
","""event"",""trial"",""time""
""focus"",""0"",""0""
","""event"",""trial"",""time""
""fullscreenenter"",""0"",""3830""
","
","678","run_exp/static/images/Set 6_rs/073a.jpg","86","","","","","","learn","SL",""
"","show_choice","77","106562","0.0-77.0","""event"",""trial"",""time""
""focus"",""0"",""0""
""fullscreenenter"",""0"",""3830""
","
","""event"",""trial"",""time""
""focus"",""0"",""0""
","""event"",""trial"",""time""
""fullscreenenter"",""0"",""3830""
","
","null","run_exp/static/images/Set 6_rs/073a.jpg","null","","","","","","learn","SL",""
"","html-keyboard-response","78","107068","0.0-78.0","""event"",""trial"",""time""
""focus"",""0"",""0""
""fullscreenenter"",""0"",""3830""
","
","""event"",""trial"",""time""
""focus"",""0"",""0""
","""event"",""trial"",""time""
""fullscreenenter"",""0"",""3830""
","
","null","<p></p>","null","","","","","","","",""
"","image","79","107827","0.0-79.0","""event"",""trial"",""time""
""focus"",""0"",""0""
""fullscreenenter"",""0"",""3830""
","
","""event"",""trial"",""time""
""focus"",""0"",""0""
","""event"",""trial"",""time""
""fullscreenenter"",""0"",""3830""
","
","758","run_exp/static/images/Set 6_rs/091a.jpg","78","","","","","","learn","SL",""
"","show_choice","80","109077","0.0-80.0","""event"",""trial"",""time""
""focus"",""0"",""0""
""fullscreenenter"",""0"",""3830""
","
","""event"",""trial"",""time""
""focus"",""0"",""0""
","""event"",""trial"",""time""
""fullscreenenter"",""0"",""3830""
","
","null","run_exp/static/images/Set 6_rs/091a.jpg","null","","","","","","learn","SL",""
"","html-keyboard-response","81","109590","0.0-81.0","""event"",""trial"",""time""
""focus"",""0"",""0""
""fullscreenenter"",""0"",""3830""
","
","""event"",""trial"",""time""
""focus"",""0"",""0""
","""event"",""trial"",""time""
""fullscreenenter"",""0"",""3830""
","
","null","<p></p>","null","","","","","","","",""
"","image","82","110284","0.0-82.0","""event"",""trial"",""time""
""focus"",""0"",""0""
""fullscreenenter"",""0"",""3830""
","
","""event"",""trial"",""time""
""focus"",""0"",""0""
","""event"",""trial"",""time""
""fullscreenenter"",""0"",""3830""
","
","693","run_exp/static/images/Set 6_rs/010a.jpg","86","","","","","","learn","SR",""
"","show_choice","83","111600","0.0-83.0","""event"",""trial"",""time""
""focus"",""0"",""0""
""fullscreenenter"",""0"",""3830""
","
","""event"",""trial"",""time""
""focus"",""0"",""0""
","""event"",""trial"",""time""
""fullscreenenter"",""0"",""3830""
","
","null","run_exp/static/images/Set 6_rs/010a.jpg","null","","","","","","learn","SR",""
"","html-keyboard-response","84","112114","0.0-84.0","""event"",""trial"",""time""
""focus"",""0"",""0""
""fullscreenenter"",""0"",""3830""
","
","""event"",""trial"",""time""
""focus"",""0"",""0""
","""event"",""trial"",""time""
""fullscreenenter"",""0"",""3830""
","
","null","<p></p>","null","","","","","","","",""
"","image","85","113441","0.0-85.0","""event"",""trial"",""time""
""focus"",""0"",""0""
""fullscreenenter"",""0"",""3830""
","
","""event"",""trial"",""time""
""focus"",""0"",""0""
","""event"",""trial"",""time""
""fullscreenenter"",""0"",""3830""
","
","1325","run_exp/static/images/Set 6_rs/121a.jpg","86","","","","","","learn","SR",""
"","show_choice","86","114121","0.0-86.0","""event"",""trial"",""time""
""focus"",""0"",""0""
""fullscreenenter"",""0"",""3830""
","
","""event"",""trial"",""time""
""focus"",""0"",""0""
","""event"",""trial"",""time""
""fullscreenenter"",""0"",""3830""
","
","null","run_exp/static/images/Set 6_rs/121a.jpg","null","","","","","","learn","SR",""
"","html-keyboard-response","87","114636","0.0-87.0","""event"",""trial"",""time""
""focus"",""0"",""0""
""fullscreenenter"",""0"",""3830""
","
","""event"",""trial"",""time""
""focus"",""0"",""0""
","""event"",""trial"",""time""
""fullscreenenter"",""0"",""3830""
","
","null","<p></p>","null","","","","","","","",""
"","image","88","115612","0.0-88.0","""event"",""trial"",""time""
""focus"",""0"",""0""
""fullscreenenter"",""0"",""3830""
","
","""event"",""trial"",""time""
""focus"",""0"",""0""
","""event"",""trial"",""time""
""fullscreenenter"",""0"",""3830""
","
","974","run_exp/static/images/Set 6_rs/168a.jpg","86","","","","","","learn","SL",""
"","show_choice","89","116645","0.0-89.0","""event"",""trial"",""time""
""focus"",""0"",""0""
""fullscreenenter"",""0"",""3830""
","
","""event"",""trial"",""time""
""focus"",""0"",""0""
","""event"",""trial"",""time""
""fullscreenenter"",""0"",""3830""
","
","null","run_exp/static/images/Set 6_rs/168a.jpg","null","","","","","","learn","SL",""
"","html-keyboard-response","90","117154","0.0-90.0","""event"",""trial"",""time""
""focus"",""0"",""0""
""fullscreenenter"",""0"",""3830""
","
","""event"",""trial"",""time""
""focus"",""0"",""0""
","""event"",""trial"",""time""
""fullscreenenter"",""0"",""3830""
","
","null","<p></p>","null","","","","","","","",""
"","image","91","117931","0.0-91.0","""event"",""trial"",""time""
""focus"",""0"",""0""
""fullscreenenter"",""0"",""3830""
","
","""event"",""trial"",""time""
""focus"",""0"",""0""
","""event"",""trial"",""time""
""fullscreenenter"",""0"",""3830""
","
","774","run_exp/static/images/Set 6_rs/019a.jpg","86","","","","","","learn","SL",""
"","show_choice","92","119163","0.0-92.0","""event"",""trial"",""time""
""focus"",""0"",""0""
""fullscreenenter"",""0"",""3830""
","
","""event"",""trial"",""time""
""focus"",""0"",""0""
","""event"",""trial"",""time""
""fullscreenenter"",""0"",""3830""
","
","null","run_exp/static/images/Set 6_rs/019a.jpg","null","","","","","","learn","SL",""
"","html-keyboard-response","93","119672","0.0-93.0","""event"",""trial"",""time""
""focus"",""0"",""0""
""fullscreenenter"",""0"",""3830""
","
","""event"",""trial"",""time""
""focus"",""0"",""0""
","""event"",""trial"",""time""
""fullscreenenter"",""0"",""3830""
","
","null","<p></p>","null","","","","","","","",""
"","image","94","120272","0.0-94.0","""event"",""trial"",""time""
""focus"",""0"",""0""
""fullscreenenter"",""0"",""3830""
","
","""event"",""trial"",""time""
""focus"",""0"",""0""
","""event"",""trial"",""time""
""fullscreenenter"",""0"",""3830""
","
","597","run_exp/static/images/Set 6_rs/154a.jpg","86","","","","","","learn","SR",""
"","show_choice","95","121678","0.0-95.0","""event"",""trial"",""time""
""focus"",""0"",""0""
""fullscreenenter"",""0"",""3830""
","
","""event"",""trial"",""time""
""focus"",""0"",""0""
","""event"",""trial"",""time""
""fullscreenenter"",""0"",""3830""
","
","null","run_exp/static/images/Set 6_rs/154a.jpg","null","","","","","","learn","SR",""
"","html-keyboard-response","96","122190","0.0-96.0","""event"",""trial"",""time""
""focus"",""0"",""0""
""fullscreenenter"",""0"",""3830""
","
","""event"",""trial"",""time""
""focus"",""0"",""0""
","""event"",""trial"",""time""
""fullscreenenter"",""0"",""3830""
","
","null","<p></p>","null","","","","","","","",""
"","image","97","122827","0.0-97.0","""event"",""trial"",""time""
""focus"",""0"",""0""
""fullscreenenter"",""0"",""3830""
","
","""event"",""trial"",""time""
""focus"",""0"",""0""
","""event"",""trial"",""time""
""fullscreenenter"",""0"",""3830""
","
","634","run_exp/static/images/Set 6_rs/070a.jpg","86","","","","","","learn","SR",""
"","show_choice","98","124198","0.0-98.0","""event"",""trial"",""time""
""focus"",""0"",""0""
""fullscreenenter"",""0"",""3830""
","
","""event"",""trial"",""time""
""focus"",""0"",""0""
","""event"",""trial"",""time""
""fullscreenenter"",""0"",""3830""
","
","null","run_exp/static/images/Set 6_rs/070a.jpg","null","","","","","","learn","SR",""
"","html-keyboard-response","99","124711","0.0-99.0","""event"",""trial"",""time""
""focus"",""0"",""0""
""fullscreenenter"",""0"",""3830""
","
","""event"",""trial"",""time""
""focus"",""0"",""0""
","""event"",""trial"",""time""
""fullscreenenter"",""0"",""3830""
","
","null","<p></p>","null","","","","","","","",""
"","image","100","125656","0.0-100.0","""event"",""trial"",""time""
""focus"",""0"",""0""
""fullscreenenter"",""0"",""3830""
","
","""event"",""trial"",""time""
""focus"",""0"",""0""
","""event"",""trial"",""time""
""fullscreenenter"",""0"",""3830""
","
","942","run_exp/static/images/Set 6_rs/152a.jpg","78","","","","","","learn","SR",""
"","show_choice","101","126728","0.0-101.0","""event"",""trial"",""time""
""focus"",""0"",""0""
""fullscreenenter"",""0"",""3830""
","
","""event"",""trial"",""time""
""focus"",""0"",""0""
","""event"",""trial"",""time""
""fullscreenenter"",""0"",""3830""
","
","null","run_exp/static/images/Set 6_rs/152a.jpg","null","","","","","","learn","SR",""
"","html-keyboard-response","102","127241","0.0-102.0","""event"",""trial"",""time""
""focus"",""0"",""0""
""fullscreenenter"",""0"",""3830""
","
","""event"",""trial"",""time""
""focus"",""0"",""0""
","""event"",""trial"",""time""
""fullscreenenter"",""0"",""3830""
","
","null","<p></p>","null","","","","","","","",""
"","image","103","128477","0.0-103.0","""event"",""trial"",""time""
""focus"",""0"",""0""
""fullscreenenter"",""0"",""3830""
","
","""event"",""trial"",""time""
""focus"",""0"",""0""
","""event"",""trial"",""time""
""fullscreenenter"",""0"",""3830""
","
","1233","run_exp/static/images/Set 6_rs/187a.jpg","78","","","","","","learn","SR",""
"","show_choice","104","129259","0.0-104.0","""event"",""trial"",""time""
""focus"",""0"",""0""
""fullscreenenter"",""0"",""3830""
","
","""event"",""trial"",""time""
""focus"",""0"",""0""
","""event"",""trial"",""time""
""fullscreenenter"",""0"",""3830""
","
","null","run_exp/static/images/Set 6_rs/187a.jpg","null","","","","","","learn","SR",""
"","html-keyboard-response","105","129769","0.0-105.0","""event"",""trial"",""time""
""focus"",""0"",""0""
""fullscreenenter"",""0"",""3830""
","
","""event"",""trial"",""time""
""focus"",""0"",""0""
","""event"",""trial"",""time""
""fullscreenenter"",""0"",""3830""
","
","null","<p></p>","null","","","","","","","",""
"","image","106","130403","0.0-106.0","""event"",""trial"",""time""
""focus"",""0"",""0""
""fullscreenenter"",""0"",""3830""
","
","""event"",""trial"",""time""
""focus"",""0"",""0""
","""event"",""trial"",""time""
""fullscreenenter"",""0"",""3830""
","
","632","run_exp/static/images/Set 6_rs/088a.jpg","86","","","","","","learn","SR",""
"","show_choice","107","131778","0.0-107.0","""event"",""trial"",""time""
""focus"",""0"",""0""
""fullscreenenter"",""0"",""3830""
","
","""event"",""trial"",""time""
""focus"",""0"",""0""
","""event"",""trial"",""time""
""fullscreenenter"",""0"",""3830""
","
","null","run_exp/static/images/Set 6_rs/088a.jpg","null","","","","","","learn","SR",""
"","html-keyboard-response","108","132289","0.0-108.0","""event"",""trial"",""time""
""focus"",""0"",""0""
""fullscreenenter"",""0"",""3830""
","
","""event"",""trial"",""time""
""focus"",""0"",""0""
","""event"",""trial"",""time""
""fullscreenenter"",""0"",""3830""
","
","null","<p></p>","null","","","","","","","",""
"","image","109","132868","0.0-109.0","""event"",""trial"",""time""
""focus"",""0"",""0""
""fullscreenenter"",""0"",""3830""
","
","""event"",""trial"",""time""
""focus"",""0"",""0""
","""event"",""trial"",""time""
""fullscreenenter"",""0"",""3830""
","
","576","run_exp/static/images/Set 6_rs/057a.jpg","86","","","","","","learn","SL",""
"","show_choice","110","134307","0.0-110.0","""event"",""trial"",""time""
""focus"",""0"",""0""
""fullscreenenter"",""0"",""3830""
","
","""event"",""trial"",""time""
""focus"",""0"",""0""
","""event"",""trial"",""time""
""fullscreenenter"",""0"",""3830""
","
","null","run_exp/static/images/Set 6_rs/057a.jpg","null","","","","","","learn","SL",""
"","html-keyboard-response","111","134819","0.0-111.0","""event"",""trial"",""time""
""focus"",""0"",""0""
""fullscreenenter"",""0"",""3830""
","
","""event"",""trial"",""time""
""focus"",""0"",""0""
","""event"",""trial"",""time""
""fullscreenenter"",""0"",""3830""
","
","null","<p></p>","null","","","","","","","",""
"","image","112","135542","0.0-112.0","""event"",""trial"",""time""
""focus"",""0"",""0""
""fullscreenenter"",""0"",""3830""
","
","""event"",""trial"",""time""
""focus"",""0"",""0""
","""event"",""trial"",""time""
""fullscreenenter"",""0"",""3830""
","
","720","run_exp/static/images/Set 6_rs/108a.jpg","86","","","","","","learn","SR",""
"","show_choice","113","136837","0.0-113.0","""event"",""trial"",""time""
""focus"",""0"",""0""
""fullscreenenter"",""0"",""3830""
","
","""event"",""trial"",""time""
""focus"",""0"",""0""
","""event"",""trial"",""time""
""fullscreenenter"",""0"",""3830""
","
","null","run_exp/static/images/Set 6_rs/108a.jpg","null","","","","","","learn","SR",""
"","html-keyboard-response","114","137352","0.0-114.0","""event"",""trial"",""time""
""focus"",""0"",""0""
""fullscreenenter"",""0"",""3830""
","
","""event"",""trial"",""time""
""focus"",""0"",""0""
","""event"",""trial"",""time""
""fullscreenenter"",""0"",""3830""
","
","null","<p></p>","null","","","","","","","",""
"","image","115","138052","0.0-115.0","""event"",""trial"",""time""
""focus"",""0"",""0""
""fullscreenenter"",""0"",""3830""
","
","""event"",""trial"",""time""
""focus"",""0"",""0""
","""event"",""trial"",""time""
""fullscreenenter"",""0"",""3830""
","
","698","run_exp/static/images/Set 6_rs/071a.jpg","86","","","","","","learn","SL",""
"","show_choice","116","139370","0.0-116.0","""event"",""trial"",""time""
""focus"",""0"",""0""
""fullscreenenter"",""0"",""3830""
","
","""event"",""trial"",""time""
""focus"",""0"",""0""
","""event"",""trial"",""time""
""fullscreenenter"",""0"",""3830""
","
","null","run_exp/static/images/Set 6_rs/071a.jpg","null","","","","","","learn","SL",""
"","html-keyboard-response","117","139884","0.0-117.0","""event"",""trial"",""time""
""focus"",""0"",""0""
""fullscreenenter"",""0"",""3830""
","
","""event"",""trial"",""time""
""focus"",""0"",""0""
","""event"",""trial"",""time""
""fullscreenenter"",""0"",""3830""
","
","null","<p></p>","null","","","","","","","",""
"","image","118","140475","0.0-118.0","""event"",""trial"",""time""
""focus"",""0"",""0""
""fullscreenenter"",""0"",""3830""
","
","""event"",""trial"",""time""
""focus"",""0"",""0""
","""event"",""trial"",""time""
""fullscreenenter"",""0"",""3830""
","
","588","run_exp/static/images/Set 6_rs/063a.jpg","86","","","","","","learn","SR",""
"","show_choice","119","141903","0.0-119.0","""event"",""trial"",""time""
""focus"",""0"",""0""
""fullscreenenter"",""0"",""3830""
","
","""event"",""trial"",""time""
""focus"",""0"",""0""
","""event"",""trial"",""time""
""fullscreenenter"",""0"",""3830""
","
","null","run_exp/static/images/Set 6_rs/063a.jpg","null","","","","","","learn","SR",""
"","html-keyboard-response","120","142415","0.0-120.0","""event"",""trial"",""time""
""focus"",""0"",""0""
""fullscreenenter"",""0"",""3830""
","
","""event"",""trial"",""time""
""focus"",""0"",""0""
","""event"",""trial"",""time""
""fullscreenenter"",""0"",""3830""
","
","null","<p></p>","null","","","","","","","",""
"","image","121","143149","0.0-121.0","""event"",""trial"",""time""
""focus"",""0"",""0""
""fullscreenenter"",""0"",""3830""
","
","""event"",""trial"",""time""
""focus"",""0"",""0""
","""event"",""trial"",""time""
""fullscreenenter"",""0"",""3830""
","
","732","run_exp/static/images/Set 6_rs/012a.jpg","86","","","","","","learn","SR",""
"","show_choice","122","144433","0.0-122.0","""event"",""trial"",""time""
""focus"",""0"",""0""
""fullscreenenter"",""0"",""3830""
","
","""event"",""trial"",""time""
""focus"",""0"",""0""
","""event"",""trial"",""time""
""fullscreenenter"",""0"",""3830""
","
","null","run_exp/static/images/Set 6_rs/012a.jpg","null","","","","","","learn","SR",""
"","html-keyboard-response","123","144944","0.0-123.0","""event"",""trial"",""time""
""focus"",""0"",""0""
""fullscreenenter"",""0"",""3830""
","
","""event"",""trial"",""time""
""focus"",""0"",""0""
","""event"",""trial"",""time""
""fullscreenenter"",""0"",""3830""
","
","null","<p></p>","null","","","","","","","",""
"","image","124","145545","0.0-124.0","""event"",""trial"",""time""
""focus"",""0"",""0""
""fullscreenenter"",""0"",""3830""
","
","""event"",""trial"",""time""
""focus"",""0"",""0""
","""event"",""trial"",""time""
""fullscreenenter"",""0"",""3830""
","
","598","run_exp/static/images/Set 6_rs/186a.jpg","86","","","","","","learn","SR",""
"","show_choice","125","146964","0.0-125.0","""event"",""trial"",""time""
""focus"",""0"",""0""
""fullscreenenter"",""0"",""3830""
","
","""event"",""trial"",""time""
""focus"",""0"",""0""
","""event"",""trial"",""time""
""fullscreenenter"",""0"",""3830""
","
","null","run_exp/static/images/Set 6_rs/186a.jpg","null","","","","","","learn","SR",""
"","html-keyboard-response","126","147478","0.0-126.0","""event"",""trial"",""time""
""focus"",""0"",""0""
""fullscreenenter"",""0"",""3830""
","
","""event"",""trial"",""time""
""focus"",""0"",""0""
","""event"",""trial"",""time""
""fullscreenenter"",""0"",""3830""
","
","null","<p></p>","null","","","","","","","",""
"","image","127","148452","0.0-127.0","""event"",""trial"",""time""
""focus"",""0"",""0""
""fullscreenenter"",""0"",""3830""
","
","""event"",""trial"",""time""
""focus"",""0"",""0""
","""event"",""trial"",""time""
""fullscreenenter"",""0"",""3830""
","
","970","run_exp/static/images/Set 6_rs/085a.jpg","78","","","","","","learn","SL",""
"","show_choice","128","149496","0.0-128.0","""event"",""trial"",""time""
""focus"",""0"",""0""
""fullscreenenter"",""0"",""3830""
","
","""event"",""trial"",""time""
""focus"",""0"",""0""
","""event"",""trial"",""time""
""fullscreenenter"",""0"",""3830""
","
","null","run_exp/static/images/Set 6_rs/085a.jpg","null","","","","","","learn","SL",""
"","html-keyboard-response","129","150007","0.0-129.0","""event"",""trial"",""time""
""focus"",""0"",""0""
""fullscreenenter"",""0"",""3830""
","
","""event"",""trial"",""time""
""focus"",""0"",""0""
","""event"",""trial"",""time""
""fullscreenenter"",""0"",""3830""
","
","null","<p></p>","null","","","","","","","",""
"","image","130","151199","0.0-130.0","""event"",""trial"",""time""
""focus"",""0"",""0""
""fullscreenenter"",""0"",""3830""
","
","""event"",""trial"",""time""
""focus"",""0"",""0""
","""event"",""trial"",""time""
""fullscreenenter"",""0"",""3830""
","
","1190","run_exp/static/images/Set 6_rs/169a.jpg","86","","","","","","learn","SR",""
"","show_choice","131","152024","0.0-131.0","""event"",""trial"",""time""
""focus"",""0"",""0""
""fullscreenenter"",""0"",""3830""
","
","""event"",""trial"",""time""
""focus"",""0"",""0""
","""event"",""trial"",""time""
""fullscreenenter"",""0"",""3830""
","
","null","run_exp/static/images/Set 6_rs/169a.jpg","null","","","","","","learn","SR",""
"","html-keyboard-response","132","152535","0.0-132.0","""event"",""trial"",""time""
""focus"",""0"",""0""
""fullscreenenter"",""0"",""3830""
","
","""event"",""trial"",""time""
""focus"",""0"",""0""
","""event"",""trial"",""time""
""fullscreenenter"",""0"",""3830""
","
","null","<p></p>","null","","","","","","","",""
"","image","133","153354","0.0-133.0","""event"",""trial"",""time""
""focus"",""0"",""0""
""fullscreenenter"",""0"",""3830""
","
","""event"",""trial"",""time""
""focus"",""0"",""0""
","""event"",""trial"",""time""
""fullscreenenter"",""0"",""3830""
","
","816","run_exp/static/images/Set 6_rs/131a.jpg","86","","","","","","learn","SR",""
"","show_choice","134","154555","0.0-134.0","""event"",""trial"",""time""
""focus"",""0"",""0""
""fullscreenenter"",""0"",""3830""
","
","""event"",""trial"",""time""
""focus"",""0"",""0""
","""event"",""trial"",""time""
""fullscreenenter"",""0"",""3830""
","
","null","run_exp/static/images/Set 6_rs/131a.jpg","null","","","","","","learn","SR",""
"","html-keyboard-response","135","155070","0.0-135.0","""event"",""trial"",""time""
""focus"",""0"",""0""
""fullscreenenter"",""0"",""3830""
","
","""event"",""trial"",""time""
""focus"",""0"",""0""
","""event"",""trial"",""time""
""fullscreenenter"",""0"",""3830""
","
","null","<p></p>","null","","","","","","","",""
"","image","136","155827","0.0-136.0","""event"",""trial"",""time""
""focus"",""0"",""0""
""fullscreenenter"",""0"",""3830""
","
","""event"",""trial"",""time""
""focus"",""0"",""0""
","""event"",""trial"",""time""
""fullscreenenter"",""0"",""3830""
","
","756","run_exp/static/images/Set 6_rs/166a.jpg","78","","","","","","learn","SR",""
"","show_choice","137","157080","0.0-137.0","""event"",""trial"",""time""
""focus"",""0"",""0""
""fullscreenenter"",""0"",""3830""
","
","""event"",""trial"",""time""
""focus"",""0"",""0""
","""event"",""trial"",""time""
""fullscreenenter"",""0"",""3830""
","
","null","run_exp/static/images/Set 6_rs/166a.jpg","null","","","","","","learn","SR",""
"","html-keyboard-response","138","157591","0.0-138.0","""event"",""trial"",""time""
""focus"",""0"",""0""
""fullscreenenter"",""0"",""3830""
","
","""event"",""trial"",""time""
""focus"",""0"",""0""
","""event"",""trial"",""time""
""fullscreenenter"",""0"",""3830""
","
","null","<p></p>","null","","","","","","","",""
"","image","139","158296","0.0-139.0","""event"",""trial"",""time""
""focus"",""0"",""0""
""fullscreenenter"",""0"",""3830""
","
","""event"",""trial"",""time""
""focus"",""0"",""0""
","""event"",""trial"",""time""
""fullscreenenter"",""0"",""3830""
","
","702","run_exp/static/images/Set 6_rs/045a.jpg","86","","","","","","learn","SR",""
"","show_choice","140","159607","0.0-140.0","""event"",""trial"",""time""
""focus"",""0"",""0""
""fullscreenenter"",""0"",""3830""
","
","""event"",""trial"",""time""
""focus"",""0"",""0""
","""event"",""trial"",""time""
""fullscreenenter"",""0"",""3830""
","
","null","run_exp/static/images/Set 6_rs/045a.jpg","null","","","","","","learn","SR",""
"","html-keyboard-response","141","160120","0.0-141.0","""event"",""trial"",""time""
""focus"",""0"",""0""
""fullscreenenter"",""0"",""3830""
","
","""event"",""trial"",""time""
""focus"",""0"",""0""
","""event"",""trial"",""time""
""fullscreenenter"",""0"",""3830""
","
","null","<p></p>","null","","","","","","","",""
"","image","142","161287","0.0-142.0","""event"",""trial"",""time""
""focus"",""0"",""0""
""fullscreenenter"",""0"",""3830""
","
","""event"",""trial"",""time""
""focus"",""0"",""0""
","""event"",""trial"",""time""
""fullscreenenter"",""0"",""3830""
","
","1165","run_exp/static/images/Set 6_rs/017a.jpg","86","","","","","","learn","SL",""
"","show_choice","143","162138","0.0-143.0","""event"",""trial"",""time""
""focus"",""0"",""0""
""fullscreenenter"",""0"",""3830""
","
","""event"",""trial"",""time""
""focus"",""0"",""0""
","""event"",""trial"",""time""
""fullscreenenter"",""0"",""3830""
","
","null","run_exp/static/images/Set 6_rs/017a.jpg","null","","","","","","learn","SL",""
"","html-keyboard-response","144","162650","0.0-144.0","""event"",""trial"",""time""
""focus"",""0"",""0""
""fullscreenenter"",""0"",""3830""
","
","""event"",""trial"",""time""
""focus"",""0"",""0""
","""event"",""trial"",""time""
""fullscreenenter"",""0"",""3830""
","
","null","<p></p>","null","","","","","","","",""
"","image","145","163455","0.0-145.0","""event"",""trial"",""time""
""focus"",""0"",""0""
""fullscreenenter"",""0"",""3830""
","
","""event"",""trial"",""time""
""focus"",""0"",""0""
","""event"",""trial"",""time""
""fullscreenenter"",""0"",""3830""
","
","802","run_exp/static/images/Set 6_rs/150a.jpg","86","","","","","","learn","SR",""
"","show_choice","146","164667","0.0-146.0","""event"",""trial"",""time""
""focus"",""0"",""0""
""fullscreenenter"",""0"",""3830""
","
","""event"",""trial"",""time""
""focus"",""0"",""0""
","""event"",""trial"",""time""
""fullscreenenter"",""0"",""3830""
","
","null","run_exp/static/images/Set 6_rs/150a.jpg","null","","","","","","learn","SR",""
"","html-keyboard-response","147","165180","0.0-147.0","""event"",""trial"",""time""
""focus"",""0"",""0""
""fullscreenenter"",""0"",""3830""
","
","""event"",""trial"",""time""
""focus"",""0"",""0""
","""event"",""trial"",""time""
""fullscreenenter"",""0"",""3830""
","
","null","<p></p>","null","","","","","","","",""
"","image","148","166077","0.0-148.0","""event"",""trial"",""time""
""focus"",""0"",""0""
""fullscreenenter"",""0"",""3830""
","
","""event"",""trial"",""time""
""focus"",""0"",""0""
","""event"",""trial"",""time""
""fullscreenenter"",""0"",""3830""
","
","894","run_exp/static/images/Set 6_rs/023a.jpg","86","","","","","","learn","SR",""
"","show_choice","149","167199","0.0-149.0","""event"",""trial"",""time""
""focus"",""0"",""0""
""fullscreenenter"",""0"",""3830""
","
","""event"",""trial"",""time""
""focus"",""0"",""0""
","""event"",""trial"",""time""
""fullscreenenter"",""0"",""3830""
","
","null","run_exp/static/images/Set 6_rs/023a.jpg","null","","","","","","learn","SR",""
"","html-keyboard-response","150","167711","0.0-150.0","""event"",""trial"",""time""
""focus"",""0"",""0""
""fullscreenenter"",""0"",""3830""
","
","""event"",""trial"",""time""
""focus"",""0"",""0""
","""event"",""trial"",""time""
""fullscreenenter"",""0"",""3830""
","
","null","<p></p>","null","","","","","","","",""
"","image","151","168456","0.0-151.0","""event"",""trial"",""time""
""focus"",""0"",""0""
""fullscreenenter"",""0"",""3830""
","
","""event"",""trial"",""time""
""focus"",""0"",""0""
","""event"",""trial"",""time""
""fullscreenenter"",""0"",""3830""
","
","742","run_exp/static/images/Set 6_rs/007a.jpg","86","","","","","","learn","SR",""
"","show_choice","152","169716","0.0-152.0","""event"",""trial"",""time""
""focus"",""0"",""0""
""fullscreenenter"",""0"",""3830""
","
","""event"",""trial"",""time""
""focus"",""0"",""0""
","""event"",""trial"",""time""
""fullscreenenter"",""0"",""3830""
","
","null","run_exp/static/images/Set 6_rs/007a.jpg","null","","","","","","learn","SR",""
"","html-keyboard-response","153","170228","0.0-153.0","""event"",""trial"",""time""
""focus"",""0"",""0""
""fullscreenenter"",""0"",""3830""
","
","""event"",""trial"",""time""
""focus"",""0"",""0""
","""event"",""trial"",""time""
""fullscreenenter"",""0"",""3830""
","
","null","<p></p>","null","","","","","","","",""
"","image","154","171230","0.0-154.0","""event"",""trial"",""time""
""focus"",""0"",""0""
""fullscreenenter"",""0"",""3830""
","
","""event"",""trial"",""time""
""focus"",""0"",""0""
","""event"",""trial"",""time""
""fullscreenenter"",""0"",""3830""
","
","998","run_exp/static/images/Set 6_rs/075a.jpg","78","","","","","","learn","SR",""
"","show_choice","155","172248","0.0-155.0","""event"",""trial"",""time""
""focus"",""0"",""0""
""fullscreenenter"",""0"",""3830""
","
","""event"",""trial"",""time""
""focus"",""0"",""0""
","""event"",""trial"",""time""
""fullscreenenter"",""0"",""3830""
","
","null","run_exp/static/images/Set 6_rs/075a.jpg","null","","","","","","learn","SR",""
"","html-keyboard-response","156","172761","0.0-156.0","""event"",""trial"",""time""
""focus"",""0"",""0""
""fullscreenenter"",""0"",""3830""
","
","""event"",""trial"",""time""
""focus"",""0"",""0""
","""event"",""trial"",""time""
""fullscreenenter"",""0"",""3830""
","
","null","<p></p>","null","","","","","","","",""
"","image","157","173583","0.0-157.0","""event"",""trial"",""time""
""focus"",""0"",""0""
""fullscreenenter"",""0"",""3830""
","
","""event"",""trial"",""time""
""focus"",""0"",""0""
","""event"",""trial"",""time""
""fullscreenenter"",""0"",""3830""
","
","820","run_exp/static/images/Set 6_rs/095a.jpg","86","","","","","","learn","SL",""
"","show_choice","158","174766","0.0-158.0","""event"",""trial"",""time""
""focus"",""0"",""0""
""fullscreenenter"",""0"",""3830""
","
","""event"",""trial"",""time""
""focus"",""0"",""0""
","""event"",""trial"",""time""
""fullscreenenter"",""0"",""3830""
","
","null","run_exp/static/images/Set 6_rs/095a.jpg","null","","","","","","learn","SL",""
"","html-keyboard-response","159","175281","0.0-159.0","""event"",""trial"",""time""
""focus"",""0"",""0""
""fullscreenenter"",""0"",""3830""
","
","""event"",""trial"",""time""
""focus"",""0"",""0""
","""event"",""trial"",""time""
""fullscreenenter"",""0"",""3830""
","
","null","<p></p>","null","","","","","","","",""
"","image","160","176271","0.0-160.0","""event"",""trial"",""time""
""focus"",""0"",""0""
""fullscreenenter"",""0"",""3830""
","
","""event"",""trial"",""time""
""focus"",""0"",""0""
","""event"",""trial"",""time""
""fullscreenenter"",""0"",""3830""
","
","988","run_exp/static/images/Set 6_rs/008a.jpg","78","","","","","","learn","SL",""
"","show_choice","161","177299","0.0-161.0","""event"",""trial"",""time""
""focus"",""0"",""0""
""fullscreenenter"",""0"",""3830""
","
","""event"",""trial"",""time""
""focus"",""0"",""0""
","""event"",""trial"",""time""
""fullscreenenter"",""0"",""3830""
","
","null","run_exp/static/images/Set 6_rs/008a.jpg","null","","","","","","learn","SL",""
"","html-keyboard-response","162","177812","0.0-162.0","""event"",""trial"",""time""
""focus"",""0"",""0""
""fullscreenenter"",""0"",""3830""
","
","""event"",""trial"",""time""
""focus"",""0"",""0""
","""event"",""trial"",""time""
""fullscreenenter"",""0"",""3830""
","
","null","<p></p>","null","","","","","","","",""
"","image","163","178506","0.0-163.0","""event"",""trial"",""time""
""focus"",""0"",""0""
""fullscreenenter"",""0"",""3830""
","
","""event"",""trial"",""time""
""focus"",""0"",""0""
","""event"",""trial"",""time""
""fullscreenenter"",""0"",""3830""
","
","692","run_exp/static/images/Set 6_rs/134a.jpg","86","","","","","","learn","SR",""
"","show_choice","164","179820","0.0-164.0","""event"",""trial"",""time""
""focus"",""0"",""0""
""fullscreenenter"",""0"",""3830""
","
","""event"",""trial"",""time""
""focus"",""0"",""0""
","""event"",""trial"",""time""
""fullscreenenter"",""0"",""3830""
","
","null","run_exp/static/images/Set 6_rs/134a.jpg","null","","","","","","learn","SR",""
"","html-keyboard-response","165","180333","0.0-165.0","""event"",""trial"",""time""
""focus"",""0"",""0""
""fullscreenenter"",""0"",""3830""
","
","""event"",""trial"",""time""
""focus"",""0"",""0""
","""event"",""trial"",""time""
""fullscreenenter"",""0"",""3830""
","
","null","<p></p>","null","","","","","","","",""
"","image","166","181023","0.0-166.0","""event"",""trial"",""time""
""focus"",""0"",""0""
""fullscreenenter"",""0"",""3830""
","
","""event"",""trial"",""time""
""focus"",""0"",""0""
","""event"",""trial"",""time""
""fullscreenenter"",""0"",""3830""
","
","688","run_exp/static/images/Set 6_rs/062a.jpg","86","","","","","","learn","SL",""
"","show_choice","167","182343","0.0-167.0","""event"",""trial"",""time""
""focus"",""0"",""0""
""fullscreenenter"",""0"",""3830""
","
","""event"",""trial"",""time""
""focus"",""0"",""0""
","""event"",""trial"",""time""
""fullscreenenter"",""0"",""3830""
","
","null","run_exp/static/images/Set 6_rs/062a.jpg","null","","","","","","learn","SL",""
"","html-keyboard-response","168","182854","0.0-168.0","""event"",""trial"",""time""
""focus"",""0"",""0""
""fullscreenenter"",""0"",""3830""
","
","""event"",""trial"",""time""
""focus"",""0"",""0""
","""event"",""trial"",""time""
""fullscreenenter"",""0"",""3830""
","
","null","<p></p>","null","","","","","","","",""
"","image","169","183561","0.0-169.0","""event"",""trial"",""time""
""focus"",""0"",""0""
""fullscreenenter"",""0"",""3830""
","
","""event"",""trial"",""time""
""focus"",""0"",""0""
","""event"",""trial"",""time""
""fullscreenenter"",""0"",""3830""
","
","704","run_exp/static/images/Set 6_rs/177a.jpg","78","","","","","","learn","SR",""
"","show_choice","170","184865","0.0-170.0","""event"",""trial"",""time""
""focus"",""0"",""0""
""fullscreenenter"",""0"",""3830""
","
","""event"",""trial"",""time""
""focus"",""0"",""0""
","""event"",""trial"",""time""
""fullscreenenter"",""0"",""3830""
","
","null","run_exp/static/images/Set 6_rs/177a.jpg","null","","","","","","learn","SR",""
"","html-keyboard-response","171","185377","0.0-171.0","""event"",""trial"",""time""
""focus"",""0"",""0""
""fullscreenenter"",""0"",""3830""
","
","""event"",""trial"",""time""
""focus"",""0"",""0""
","""event"",""trial"",""time""
""fullscreenenter"",""0"",""3830""
","
","null","<p></p>","null","","","","","","","",""
"","image","172","186029","0.0-172.0","""event"",""trial"",""time""
""focus"",""0"",""0""
""fullscreenenter"",""0"",""3830""
","
","""event"",""trial"",""time""
""focus"",""0"",""0""
","""event"",""trial"",""time""
""fullscreenenter"",""0"",""3830""
","
","648","run_exp/static/images/Set 6_rs/112a.jpg","86","","","","","","learn","SR",""
"","show_choice","173","187398","0.0-173.0","""event"",""trial"",""time""
""focus"",""0"",""0""
""fullscreenenter"",""0"",""3830""
","
","""event"",""trial"",""time""
""focus"",""0"",""0""
","""event"",""trial"",""time""
""fullscreenenter"",""0"",""3830""
","
","null","run_exp/static/images/Set 6_rs/112a.jpg","null","","","","","","learn","SR",""
"","html-keyboard-response","174","187910","0.0-174.0","""event"",""trial"",""time""
""focus"",""0"",""0""
""fullscreenenter"",""0"",""3830""
","
","""event"",""trial"",""time""
""focus"",""0"",""0""
","""event"",""trial"",""time""
""fullscreenenter"",""0"",""3830""
","
","null","<p></p>","null","","","","","","","",""
"","image","175","189056","0.0-175.0","""event"",""trial"",""time""
""focus"",""0"",""0""
""fullscreenenter"",""0"",""3830""
","
","""event"",""trial"",""time""
""focus"",""0"",""0""
","""event"",""trial"",""time""
""fullscreenenter"",""0"",""3830""
","
","1143","run_exp/static/images/Set 6_rs/074a.jpg","78","","","","","","learn","SL",""
"","show_choice","176","189926","0.0-176.0","""event"",""trial"",""time""
""focus"",""0"",""0""
""fullscreenenter"",""0"",""3830""
","
","""event"",""trial"",""time""
""focus"",""0"",""0""
","""event"",""trial"",""time""
""fullscreenenter"",""0"",""3830""
","
","null","run_exp/static/images/Set 6_rs/074a.jpg","null","","","","","","learn","SL",""
"","html-keyboard-response","177","190441","0.0-177.0","""event"",""trial"",""time""
""focus"",""0"",""0""
""fullscreenenter"",""0"",""3830""
","
","""event"",""trial"",""time""
""focus"",""0"",""0""
","""event"",""trial"",""time""
""fullscreenenter"",""0"",""3830""
","
","null","<p></p>","null","","","","","","","",""
"","image","178","192450","0.0-178.0","""event"",""trial"",""time""
""focus"",""0"",""0""
""fullscreenenter"",""0"",""3830""
","
","""event"",""trial"",""time""
""focus"",""0"",""0""
","""event"",""trial"",""time""
""fullscreenenter"",""0"",""3830""
","
","null","run_exp/static/images/Set 6_rs/126a.jpg","null","","","","","","learn","SR",""
"","show_choice","179","194458","0.0-179.0","""event"",""trial"",""time""
""focus"",""0"",""0""
""fullscreenenter"",""0"",""3830""
","
","""event"",""trial"",""time""
""focus"",""0"",""0""
","""event"",""trial"",""time""
""fullscreenenter"",""0"",""3830""
","
","null","run_exp/static/images/blank.png","null","","","","","","learn","SR",""
"","html-keyboard-response","180","194974","0.0-180.0","""event"",""trial"",""time""
""focus"",""0"",""0""
""fullscreenenter"",""0"",""3830""
","
","""event"",""trial"",""time""
""focus"",""0"",""0""
","""event"",""trial"",""time""
""fullscreenenter"",""0"",""3830""
","
","null","<p></p>","null","","","","","","","",""
"","image","181","196582","0.0-181.0","""event"",""trial"",""time""
""focus"",""0"",""0""
""fullscreenenter"",""0"",""3830""
","
","""event"",""trial"",""time""
""focus"",""0"",""0""
","""event"",""trial"",""time""
""fullscreenenter"",""0"",""3830""
","
","1606","run_exp/static/images/Set 6_rs/132a.jpg","78","","","","","","learn","SR",""
"","show_choice","182","196977","0.0-182.0","""event"",""trial"",""time""
""focus"",""0"",""0""
""fullscreenenter"",""0"",""3830""
","
","""event"",""trial"",""time""
""focus"",""0"",""0""
","""event"",""trial"",""time""
""fullscreenenter"",""0"",""3830""
","
","null","run_exp/static/images/Set 6_rs/132a.jpg","null","","","","","","learn","SR",""
"","html-keyboard-response","183","197489","0.0-183.0","""event"",""trial"",""time""
""focus"",""0"",""0""
""fullscreenenter"",""0"",""3830""
","
","""event"",""trial"",""time""
""focus"",""0"",""0""
","""event"",""trial"",""time""
""fullscreenenter"",""0"",""3830""
","
","null","<p></p>","null","","","","","","","",""
"","image","184","198247","0.0-184.0","""event"",""trial"",""time""
""focus"",""0"",""0""
""fullscreenenter"",""0"",""3830""
","
","""event"",""trial"",""time""
""focus"",""0"",""0""
","""event"",""trial"",""time""
""fullscreenenter"",""0"",""3830""
","
","754","run_exp/static/images/Set 6_rs/050a.jpg","86","","","","","","learn","SL",""
"","show_choice","185","199507","0.0-185.0","""event"",""trial"",""time""
""focus"",""0"",""0""
""fullscreenenter"",""0"",""3830""
","
","""event"",""trial"",""time""
""focus"",""0"",""0""
","""event"",""trial"",""time""
""fullscreenenter"",""0"",""3830""
","
","null","run_exp/static/images/Set 6_rs/050a.jpg","null","","","","","","learn","SL",""
"","html-keyboard-response","186","200021","0.0-186.0","""event"",""trial"",""time""
""focus"",""0"",""0""
""fullscreenenter"",""0"",""3830""
","
","""event"",""trial"",""time""
""focus"",""0"",""0""
","""event"",""trial"",""time""
""fullscreenenter"",""0"",""3830""
","
","null","<p></p>","null","","","","","","","",""
"","image","187","201939","0.0-187.0","""event"",""trial"",""time""
""focus"",""0"",""0""
""fullscreenenter"",""0"",""3830""
","
","""event"",""trial"",""time""
""focus"",""0"",""0""
","""event"",""trial"",""time""
""fullscreenenter"",""0"",""3830""
","
","1917","run_exp/static/images/Set 6_rs/178a.jpg","78","","","","","","learn","SR",""
"","show_choice","188","202037","0.0-188.0","""event"",""trial"",""time""
""focus"",""0"",""0""
""fullscreenenter"",""0"",""3830""
","
","""event"",""trial"",""time""
""focus"",""0"",""0""
","""event"",""trial"",""time""
""fullscreenenter"",""0"",""3830""
","
","null","run_exp/static/images/Set 6_rs/178a.jpg","null","","","","","","learn","SR",""
"","html-keyboard-response","189","202547","0.0-189.0","""event"",""trial"",""time""
""focus"",""0"",""0""
""fullscreenenter"",""0"",""3830""
","
","""event"",""trial"",""time""
""focus"",""0"",""0""
","""event"",""trial"",""time""
""fullscreenenter"",""0"",""3830""
","
","null","<p></p>","null","","","","","","","",""
"","image","190","203412","0.0-190.0","""event"",""trial"",""time""
""focus"",""0"",""0""
""fullscreenenter"",""0"",""3830""
","
","""event"",""trial"",""time""
""focus"",""0"",""0""
","""event"",""trial"",""time""
""fullscreenenter"",""0"",""3830""
","
","863","run_exp/static/images/Set 6_rs/006a.jpg","78","","","","","","learn","SL",""
"","show_choice","191","204553","0.0-191.0","""event"",""trial"",""time""
""focus"",""0"",""0""
""fullscreenenter"",""0"",""3830""
","
","""event"",""trial"",""time""
""focus"",""0"",""0""
","""event"",""trial"",""time""
""fullscreenenter"",""0"",""3830""
","
","null","run_exp/static/images/Set 6_rs/006a.jpg","null","","","","","","learn","SL",""
"","html-keyboard-response","192","205065","0.0-192.0","""event"",""trial"",""time""
""focus"",""0"",""0""
""fullscreenenter"",""0"",""3830""
","
","""event"",""trial"",""time""
""focus"",""0"",""0""
","""event"",""trial"",""time""
""fullscreenenter"",""0"",""3830""
","
","null","<p></p>","null","","","","","","","",""
"","image","193","205678","0.0-193.0","""event"",""trial"",""time""
""focus"",""0"",""0""
""fullscreenenter"",""0"",""3830""
","
","""event"",""trial"",""time""
""focus"",""0"",""0""
","""event"",""trial"",""time""
""fullscreenenter"",""0"",""3830""
","
","611","run_exp/static/images/Set 6_rs/076a.jpg","78","","","","","","learn","SR",""
"","show_choice","194","207071","0.0-194.0","""event"",""trial"",""time""
""focus"",""0"",""0""
""fullscreenenter"",""0"",""3830""
","
","""event"",""trial"",""time""
""focus"",""0"",""0""
","""event"",""trial"",""time""
""fullscreenenter"",""0"",""3830""
","
","null","run_exp/static/images/Set 6_rs/076a.jpg","null","","","","","","learn","SR",""
"","html-keyboard-response","195","207580","0.0-195.0","""event"",""trial"",""time""
""focus"",""0"",""0""
""fullscreenenter"",""0"",""3830""
","
","""event"",""trial"",""time""
""focus"",""0"",""0""
","""event"",""trial"",""time""
""fullscreenenter"",""0"",""3830""
","
","null","<p></p>","null","","","","","","","",""
"","test_intro","196","244479","0.0-196.0","""event"",""trial"",""time""
""focus"",""0"",""0""
""fullscreenenter"",""0"",""3830""
","
","""event"",""trial"",""time""
""focus"",""0"",""0""
","""event"",""trial"",""time""
""fullscreenenter"",""0"",""3830""
","
","null","run_exp/static/audio/clip_2_memory.m4a","null","","","","","<div class='center'><p>Now, lets see how much you remember about the items you just saw.  For each item, you need to indicate if it was <b>old</b> by pressing the <b>v</b> key, <b>similar</b> by pressing the <b>b</b> key, or <b>new</b> by pressing the <b>n</b> key.</p><p>Old refers to an item that you saw before in the indoor/outdoor game that you just played, new refers to an item you have <b>not</b> seen before within the indoor/outdoor game, and similar refers to an item that is similar to an item youve seen before but is not exactly the same. </p><p>Before we begin, lets go over some brief demonstrations to make sure you understand.</p></div>","","",""
"","html-keyboard-response","197","245338","0.0-197.0","""event"",""trial"",""time""
""focus"",""0"",""0""
""fullscreenenter"",""0"",""3830""
","
","""event"",""trial"",""time""
""focus"",""0"",""0""
","""event"",""trial"",""time""
""fullscreenenter"",""0"",""3830""
","
","852","<div class='center'><p>Now, lets see how much you remember about the items you just saw.  For each item, you need to indicate if it was <b>old</b> by pressing the <b>v</b> key, <b>similar</b> by pressing the <b>b</b> key, or <b>new</b> by pressing the <b>n</b> key.</p><p>Old refers to an item that you saw before in the indoor/outdoor game that you just played, new refers to an item you have <b>not</b> seen before within the indoor/outdoor game, and similar refers to an item that is similar to an item youve seen before but is not exactly the same. </p><p>Before we begin, lets go over some brief demonstrations to make sure you understand.</p><div><p><b>[Press the space bar to continue]</b></p></div>","32","","","","","","","",""
"","items","198","252851","0.0-198.0","""event"",""trial"",""time""
""focus"",""0"",""0""
""fullscreenenter"",""0"",""3830""
","
","""event"",""trial"",""time""
""focus"",""0"",""0""
","""event"",""trial"",""time""
""fullscreenenter"",""0"",""3830""
","
","null","run_exp/static/audio/clip_3_items.m4a","null","","","","","","","",""
"","mop","199","257357","0.0-199.0","""event"",""trial"",""time""
""focus"",""0"",""0""
""fullscreenenter"",""0"",""3830""
","
","""event"",""trial"",""time""
""focus"",""0"",""0""
","""event"",""trial"",""time""
""fullscreenenter"",""0"",""3830""
","
","null","run_exp/static/audio/clip_4_mop.m4a","null","","","","","","","",""
"","baseball","200","260861","0.0-200.0","""event"",""trial"",""time""
""focus"",""0"",""0""
""fullscreenenter"",""0"",""3830""
","
","""event"",""trial"",""time""
""focus"",""0"",""0""
","""event"",""trial"",""time""
""fullscreenenter"",""0"",""3830""
","
","null","run_exp/static/audio/clip_5_baseball.m4a","null","","","","","","","",""
"","trumpet","201","264372","0.0-201.0","""event"",""trial"",""time""
""focus"",""0"",""0""
""fullscreenenter"",""0"",""3830""
","
","""event"",""trial"",""time""
""focus"",""0"",""0""
","""event"",""trial"",""time""
""fullscreenenter"",""0"",""3830""
","
","null","run_exp/static/audio/clip_6_trumpet.m4a","null","","","","","","","",""
"","gummies","202","267880","0.0-202.0","""event"",""trial"",""time""
""focus"",""0"",""0""
""fullscreenenter"",""0"",""3830""
","
","""event"",""trial"",""time""
""focus"",""0"",""0""
","""event"",""trial"",""time""
""fullscreenenter"",""0"",""3830""
","
","null","run_exp/static/audio/clip_7_gummies.m4a","null","","","","","","","",""
"","osn","203","272390","0.0-203.0","""event"",""trial"",""time""
""focus"",""0"",""0""
""fullscreenenter"",""0"",""3830""
","
","""event"",""trial"",""time""
""focus"",""0"",""0""
","""event"",""trial"",""time""
""fullscreenenter"",""0"",""3830""
","
","null","run_exp/static/audio/clip_8_osn.m4a","null","","","","","","","",""
"","old_1","204","278896","0.0-204.0","""event"",""trial"",""time""
""focus"",""0"",""0""
""fullscreenenter"",""0"",""3830""
","
","""event"",""trial"",""time""
""focus"",""0"",""0""
","""event"",""trial"",""time""
""fullscreenenter"",""0"",""3830""
","
","null","run_exp/static/audio/clip_9_old_trumpet.m4a","null","","","","","","","",""
"","new_1","205","286397","0.0-205.0","""event"",""trial"",""time""
""focus"",""0"",""0""
""fullscreenenter"",""0"",""3830""
","
","""event"",""trial"",""time""
""focus"",""0"",""0""
","""event"",""trial"",""time""
""fullscreenenter"",""0"",""3830""
","
","null","run_exp/static/audio/clip_10_new_balloon.m4a","null","","","","","","","",""
"","similar_1a","206","290905","0.0-206.0","""event"",""trial"",""time""
""focus"",""0"",""0""
""fullscreenenter"",""0"",""3830""
","
","""event"",""trial"",""time""
""focus"",""0"",""0""
","""event"",""trial"",""time""
""fullscreenenter"",""0"",""3830""
","
","null","run_exp/static/audio/clip_11a_similar_mop.m4a","null","","","","","","","",""
"","similar_1b","207","297411","0.0-207.0","""event"",""trial"",""time""
""focus"",""0"",""0""
""fullscreenenter"",""0"",""3830""
","
","""event"",""trial"",""time""
""focus"",""0"",""0""
","""event"",""trial"",""time""
""fullscreenenter"",""0"",""3830""
","
","null","run_exp/static/audio/clip_11b_similar_mop.m4a","null","","","","","","","",""
"","new_2","208","300927","0.0-208.0","""event"",""trial"",""time""
""focus"",""0"",""0""
""fullscreenenter"",""0"",""3830""
","
","""event"",""trial"",""time""
""focus"",""0"",""0""
","""event"",""trial"",""time""
""fullscreenenter"",""0"",""3830""
","
","null","run_exp/static/audio/clip_12_new_stoplight.m4a","null","","","","","","","",""
"","old_2","209","304430","0.0-209.0","""event"",""trial"",""time""
""focus"",""0"",""0""
""fullscreenenter"",""0"",""3830""
","
","""event"",""trial"",""time""
""focus"",""0"",""0""
","""event"",""trial"",""time""
""fullscreenenter"",""0"",""3830""
","
","null","run_exp/static/audio/clip_13_old_baseball.m4a","null","","","","","","","",""
"","similar_2a","210","307936","0.0-210.0","""event"",""trial"",""time""
""focus"",""0"",""0""
""fullscreenenter"",""0"",""3830""
","
","""event"",""trial"",""time""
""focus"",""0"",""0""
","""event"",""trial"",""time""
""fullscreenenter"",""0"",""3830""
","
","null","run_exp/static/audio/clip_14a_similar_gummies.m4a","null","","","","","","","",""
"","similar_2b","211","315449","0.0-211.0","""event"",""trial"",""time""
""focus"",""0"",""0""
""fullscreenenter"",""0"",""3830""
","
","""event"",""trial"",""time""
""focus"",""0"",""0""
","""event"",""trial"",""time""
""fullscreenenter"",""0"",""3830""
","
","null","run_exp/static/audio/clip_14b_similar_gummies.m4a","null","","","","","","","",""
"","practice","212","357553","0.0-212.0","""event"",""trial"",""time""
""focus"",""0"",""0""
""fullscreenenter"",""0"",""3830""
","
","""event"",""trial"",""time""
""focus"",""0"",""0""
","""event"",""trial"",""time""
""fullscreenenter"",""0"",""3830""
","
","null","run_exp/static/audio/clip_15_practice.m4a","null","","","","","<div class='center'><p>Lets practice a little to make sure you understand the difference between new, similar, and old. Lets say you saw these three items in the indoor/outdoor game.</p><p> Try your best to remember these images because youll soon be tested on them in a practice game. In the practice game, youll be shown images and youll have to say if they are old (one of the three images belows), similar (similar to one of the images below but not exactly the same), or new (are not one of the images below nor similar to them).</p><p>Once you press the space bar youll be shown these images again but one at time. Then youll begin the practice game.</p><p><img src='run_exp/static/images/tutorial/test/three_indoor_outdoor.png' height='300'></p></div>","","",""
"","html-keyboard-response","213","358669","0.0-213.0","""event"",""trial"",""time""
""focus"",""0"",""0""
""fullscreenenter"",""0"",""3830""
","
","""event"",""trial"",""time""
""focus"",""0"",""0""
","""event"",""trial"",""time""
""fullscreenenter"",""0"",""3830""
","
","1112","<div class='center'><p>Lets practice a little to make sure you understand the difference between new, similar, and old. Lets say you saw these three items in the indoor/outdoor game.</p><p> Try your best to remember these images because youll soon be tested on them in a practice game. In the practice game, youll be shown images and youll have to say if they are old (one of the three images belows), similar (similar to one of the images below but not exactly the same), or new (are not one of the images below nor similar to them).</p><p>Once you press the space bar youll be shown these images again but one at time. Then youll begin the practice game.</p><p><img src='run_exp/static/images/tutorial/test/three_indoor_outdoor.png' height='300'></p><div><p><b>[Press the space bar to continue]</b></p></div>","32","","","","","","","",""
"","planet","214","360675","0.0-214.0","""event"",""trial"",""time""
""focus"",""0"",""0""
""fullscreenenter"",""0"",""3830""
","
","""event"",""trial"",""time""
""focus"",""0"",""0""
","""event"",""trial"",""time""
""fullscreenenter"",""0"",""3830""
","
","null","run_exp/static/images/tutorial/test/008a.jpg","null","","","","","","","",""
"","boot","215","362678","0.0-215.0","""event"",""trial"",""time""
""focus"",""0"",""0""
""fullscreenenter"",""0"",""3830""
","
","""event"",""trial"",""time""
""focus"",""0"",""0""
","""event"",""trial"",""time""
""fullscreenenter"",""0"",""3830""
","
","null","run_exp/static/images/tutorial/test/011a.jpg","null","","","","","","","",""
"","lemon","216","364691","0.0-216.0","""event"",""trial"",""time""
""focus"",""0"",""0""
""fullscreenenter"",""0"",""3830""
","
","""event"",""trial"",""time""
""focus"",""0"",""0""
","""event"",""trial"",""time""
""fullscreenenter"",""0"",""3830""
","
","null","run_exp/static/images/tutorial/test/018a.jpg","null","","","","","","","",""
"","practice_q1","217","366419","0.0-217.0","""event"",""trial"",""time""
""focus"",""0"",""0""
""fullscreenenter"",""0"",""3830""
","
","""event"",""trial"",""time""
""focus"",""0"",""0""
","""event"",""trial"",""time""
""fullscreenenter"",""0"",""3830""
","
","1725","run_exp/static/audio/clip_16_practice_question.m4a","78","","","","","","","",""
"","correct","218","368399","0.0-218.0-0.0","""event"",""trial"",""time""
""focus"",""0"",""0""
""fullscreenenter"",""0"",""3830""
","
","""event"",""trial"",""time""
""focus"",""0"",""0""
","""event"",""trial"",""time""
""fullscreenenter"",""0"",""3830""
","
","null","run_exp/static/audio/clip_17_correct.m4a","null","","","","","<div class='center'><p>That's correct!</p></div>","","",""
"","html-keyboard-response","219","369141","0.0-218.0-1.0","""event"",""trial"",""time""
""focus"",""0"",""0""
""fullscreenenter"",""0"",""3830""
","
","""event"",""trial"",""time""
""focus"",""0"",""0""
","""event"",""trial"",""time""
""fullscreenenter"",""0"",""3830""
","
","739","<div class='center'><p>That's correct!</p><div><p><b>[Press the space bar to continue]</b></p></div>","32","","","","","","","",""
"","practice_q2","220","370228","0.0-218.0-2.0","""event"",""trial"",""time""
""focus"",""0"",""0""
""fullscreenenter"",""0"",""3830""
","
","""event"",""trial"",""time""
""focus"",""0"",""0""
","""event"",""trial"",""time""
""fullscreenenter"",""0"",""3830""
","
","1085","run_exp/static/audio/clip_16_practice_question.m4a","86","","","","","","","",""
"","correct","221","372219","0.0-219.0-0.0","""event"",""trial"",""time""
""focus"",""0"",""0""
""fullscreenenter"",""0"",""3830""
","
","""event"",""trial"",""time""
""focus"",""0"",""0""
","""event"",""trial"",""time""
""fullscreenenter"",""0"",""3830""
","
","null","run_exp/static/audio/clip_17_correct.m4a","null","","","","","<div class='center'><p>That's correct!</p></div>","","",""
"","html-keyboard-response","222","372733","0.0-219.0-1.0","""event"",""trial"",""time""
""focus"",""0"",""0""
""fullscreenenter"",""0"",""3830""
","
","""event"",""trial"",""time""
""focus"",""0"",""0""
","""event"",""trial"",""time""
""fullscreenenter"",""0"",""3830""
","
","512","<div class='center'><p>That's correct!</p><div><p><b>[Press the space bar to continue]</b></p></div>","32","","","","","","","",""
"","practice_q3","223","373612","0.0-219.0-2.0","""event"",""trial"",""time""
""focus"",""0"",""0""
""fullscreenenter"",""0"",""3830""
","
","""event"",""trial"",""time""
""focus"",""0"",""0""
","""event"",""trial"",""time""
""fullscreenenter"",""0"",""3830""
","
","877","run_exp/static/audio/clip_16_practice_question.m4a","66","","","","","","","",""
"","correct","224","376551","0.0-220.0-0.0","""event"",""trial"",""time""
""focus"",""0"",""0""
""fullscreenenter"",""0"",""3830""
","
","""event"",""trial"",""time""
""focus"",""0"",""0""
","""event"",""trial"",""time""
""fullscreenenter"",""0"",""3830""
","
","null","run_exp/static/audio/clip_17_correct.m4a","null","","","","","<div class='center'><p>That's correct!</p></div>","","",""
"","html-keyboard-response","225","377041","0.0-220.0-1.0","""event"",""trial"",""time""
""focus"",""0"",""0""
""fullscreenenter"",""0"",""3830""
","
","""event"",""trial"",""time""
""focus"",""0"",""0""
","""event"",""trial"",""time""
""fullscreenenter"",""0"",""3830""
","
","488","<div class='center'><p>That's correct!</p><div><p><b>[Press the space bar to continue]</b></p></div>","32","","","","","","","",""
"","begin_text","226","395590","0.0-221.0-0.0","""event"",""trial"",""time""
""focus"",""0"",""0""
""fullscreenenter"",""0"",""3830""
","
","""event"",""trial"",""time""
""focus"",""0"",""0""
","""event"",""trial"",""time""
""fullscreenenter"",""0"",""3830""
","
","null","run_exp/static/audio/clip_22_begin_test.m4a","null","","","","","<div class='center'><p>On to the real game where well test your memory of items from the indoor/outdoor game. For each item, you need to indicate if the item is <b>old</b> by pressing the <b>v</b> key, <b>similar</b> by pressing the <b>b</b> key, or <b>new</b> by pressing the <b>n</b> key. </p></div>","","",""
"","html-keyboard-response","227","399593","0.0-221.0-1.0","""event"",""trial"",""time""
""focus"",""0"",""0""
""fullscreenenter"",""0"",""3830""
","
","""event"",""trial"",""time""
""focus"",""0"",""0""
","""event"",""trial"",""time""
""fullscreenenter"",""0"",""3830""
","
","3999","<div class='center'><p>On to the real game where well test your memory of items from the indoor/outdoor game. For each item, you need to indicate if the item is <b>old</b> by pressing the <b>v</b> key, <b>similar</b> by pressing the <b>b</b> key, or <b>new</b> by pressing the <b>n</b> key. </p><div><p><b>[Press the space bar to continue]</b></p></div>","32","","","","","","","",""
"","image","228","400971","0.0-222.0-0.0","""event"",""trial"",""time""
""focus"",""0"",""0""
""fullscreenenter"",""0"",""3830""
","
","""event"",""trial"",""time""
""focus"",""0"",""0""
","""event"",""trial"",""time""
""fullscreenenter"",""0"",""3830""
","
","1374","run_exp/static/images/Set 6_rs/012a.jpg","86","","","","","","test","TR","1"
"","show_choice","229","401479","0.0-222.0-1.0","""event"",""trial"",""time""
""focus"",""0"",""0""
""fullscreenenter"",""0"",""3830""
","
","""event"",""trial"",""time""
""focus"",""0"",""0""
","""event"",""trial"",""time""
""fullscreenenter"",""0"",""3830""
","
","null","run_exp/static/images/Set 6_rs/012a.jpg","null","","","","","","test","TR",""
"","html-keyboard-response","230","401991","0.0-222.0-2.0","""event"",""trial"",""time""
""focus"",""0"",""0""
""fullscreenenter"",""0"",""3830""
","
","""event"",""trial"",""time""
""focus"",""0"",""0""
","""event"",""trial"",""time""
""fullscreenenter"",""0"",""3830""
","
","null","<p></p>","null","","","","","","","",""
"","image","231","402918","0.0-223.0-0.0","""event"",""trial"",""time""
""focus"",""0"",""0""
""fullscreenenter"",""0"",""3830""
","
","""event"",""trial"",""time""
""focus"",""0"",""0""
","""event"",""trial"",""time""
""fullscreenenter"",""0"",""3830""
","
","923","run_exp/static/images/Set 6_rs/016b.jpg","86","","","","","","test","TL","1"
"","show_choice","232","403429","0.0-223.0-1.0","""event"",""trial"",""time""
""focus"",""0"",""0""
""fullscreenenter"",""0"",""3830""
","
","""event"",""trial"",""time""
""focus"",""0"",""0""
","""event"",""trial"",""time""
""fullscreenenter"",""0"",""3830""
","
","null","run_exp/static/images/Set 6_rs/016b.jpg","null","","","","","","test","TL",""
"","html-keyboard-response","233","403944","0.0-223.0-2.0","""event"",""trial"",""time""
""focus"",""0"",""0""
""fullscreenenter"",""0"",""3830""
","
","""event"",""trial"",""time""
""focus"",""0"",""0""
","""event"",""trial"",""time""
""fullscreenenter"",""0"",""3830""
","
","null","<p></p>","null","","","","","","","",""
"","image","234","405140","0.0-224.0-0.0","""event"",""trial"",""time""
""focus"",""0"",""0""
""fullscreenenter"",""0"",""3830""
","
","""event"",""trial"",""time""
""focus"",""0"",""0""
","""event"",""trial"",""time""
""fullscreenenter"",""0"",""3830""
","
","1193","run_exp/static/images/Set 6_rs/086a.jpg","78","","","","","","test","TF","1"
"","show_choice","235","405652","0.0-224.0-1.0","""event"",""trial"",""time""
""focus"",""0"",""0""
""fullscreenenter"",""0"",""3830""
","
","""event"",""trial"",""time""
""focus"",""0"",""0""
","""event"",""trial"",""time""
""fullscreenenter"",""0"",""3830""
","
","null","run_exp/static/images/Set 6_rs/086a.jpg","null","","","","","","test","TF",""
"","html-keyboard-response","236","406165","0.0-224.0-2.0","""event"",""trial"",""time""
""focus"",""0"",""0""
""fullscreenenter"",""0"",""3830""
","
","""event"",""trial"",""time""
""focus"",""0"",""0""
","""event"",""trial"",""time""
""fullscreenenter"",""0"",""3830""
","
","null","<p></p>","null","","","","","","","",""
"","image","237","407082","0.0-225.0-0.0","""event"",""trial"",""time""
""focus"",""0"",""0""
""fullscreenenter"",""0"",""3830""
","
","""event"",""trial"",""time""
""focus"",""0"",""0""
","""event"",""trial"",""time""
""fullscreenenter"",""0"",""3830""
","
","914","run_exp/static/images/Set 6_rs/070a.jpg","86","","","","","","test","TR","2"
"","show_choice","238","407595","0.0-225.0-1.0","""event"",""trial"",""time""
""focus"",""0"",""0""
""fullscreenenter"",""0"",""3830""
","
","""event"",""trial"",""time""
""focus"",""0"",""0""
","""event"",""trial"",""time""
""fullscreenenter"",""0"",""3830""
","
","null","run_exp/static/images/Set 6_rs/070a.jpg","null","","","","","","test","TR",""
"","html-keyboard-response","239","408107","0.0-225.0-2.0","""event"",""trial"",""time""
""focus"",""0"",""0""
""fullscreenenter"",""0"",""3830""
","
","""event"",""trial"",""time""
""focus"",""0"",""0""
","""event"",""trial"",""time""
""fullscreenenter"",""0"",""3830""
","
","null","<p></p>","null","","","","","","","",""
"","image","240","409002","0.0-226.0-0.0","""event"",""trial"",""time""
""focus"",""0"",""0""
""fullscreenenter"",""0"",""3830""
","
","""event"",""trial"",""time""
""focus"",""0"",""0""
","""event"",""trial"",""time""
""fullscreenenter"",""0"",""3830""
","
","891","run_exp/static/images/Set 6_rs/176a.jpg","78","","","","","","test","TF","4"
"","show_choice","241","409520","0.0-226.0-1.0","""event"",""trial"",""time""
""focus"",""0"",""0""
""fullscreenenter"",""0"",""3830""
","
","""event"",""trial"",""time""
""focus"",""0"",""0""
","""event"",""trial"",""time""
""fullscreenenter"",""0"",""3830""
","
","null","run_exp/static/images/Set 6_rs/176a.jpg","null","","","","","","test","TF",""
"","html-keyboard-response","242","410032","0.0-226.0-2.0","""event"",""trial"",""time""
""focus"",""0"",""0""
""fullscreenenter"",""0"",""3830""
","
","""event"",""trial"",""time""
""focus"",""0"",""0""
","""event"",""trial"",""time""
""fullscreenenter"",""0"",""3830""
","
","null","<p></p>","null","","","","","","","",""
"","image","243","410771","0.0-227.0-0.0","""event"",""trial"",""time""
""focus"",""0"",""0""
""fullscreenenter"",""0"",""3830""
","
","""event"",""trial"",""time""
""focus"",""0"",""0""
","""event"",""trial"",""time""
""fullscreenenter"",""0"",""3830""
","
","736","run_exp/static/images/Set 6_rs/048a.jpg","78","","","","","","test","TF","4"
"","show_choice","244","411288","0.0-227.0-1.0","""event"",""trial"",""time""
""focus"",""0"",""0""
""fullscreenenter"",""0"",""3830""
","
","""event"",""trial"",""time""
""focus"",""0"",""0""
","""event"",""trial"",""time""
""fullscreenenter"",""0"",""3830""
","
","null","run_exp/static/images/Set 6_rs/048a.jpg","null","","","","","","test","TF",""
"","html-keyboard-response","245","411800","0.0-227.0-2.0","""event"",""trial"",""time""
""focus"",""0"",""0""
""fullscreenenter"",""0"",""3830""
","
","""event"",""trial"",""time""
""focus"",""0"",""0""
","""event"",""trial"",""time""
""fullscreenenter"",""0"",""3830""
","
","null","<p></p>","null","","","","","","","",""
"","image","246","412510","0.0-228.0-0.0","""event"",""trial"",""time""
""focus"",""0"",""0""
""fullscreenenter"",""0"",""3830""
","
","""event"",""trial"",""time""
""focus"",""0"",""0""
","""event"",""trial"",""time""
""fullscreenenter"",""0"",""3830""
","
","707","run_exp/static/images/Set 6_rs/021a.jpg","78","","","","","","test","TF","2"
"","show_choice","247","413013","0.0-228.0-1.0","""event"",""trial"",""time""
""focus"",""0"",""0""
""fullscreenenter"",""0"",""3830""
","
","""event"",""trial"",""time""
""focus"",""0"",""0""
","""event"",""trial"",""time""
""fullscreenenter"",""0"",""3830""
","
","null","run_exp/static/images/Set 6_rs/021a.jpg","null","","","","","","test","TF",""
"","html-keyboard-response","248","413526","0.0-228.0-2.0","""event"",""trial"",""time""
""focus"",""0"",""0""
""fullscreenenter"",""0"",""3830""
","
","""event"",""trial"",""time""
""focus"",""0"",""0""
","""event"",""trial"",""time""
""fullscreenenter"",""0"",""3830""
","
","null","<p></p>","null","","","","","","","",""
"","image","249","414520","0.0-229.0-0.0","""event"",""trial"",""time""
""focus"",""0"",""0""
""fullscreenenter"",""0"",""3830""
","
","""event"",""trial"",""time""
""focus"",""0"",""0""
","""event"",""trial"",""time""
""fullscreenenter"",""0"",""3830""
","
","991","run_exp/static/images/Set 6_rs/014b.jpg","66","","","","","","test","TL","5"
"","show_choice","250","415036","0.0-229.0-1.0","""event"",""trial"",""time""
""focus"",""0"",""0""
""fullscreenenter"",""0"",""3830""
","
","""event"",""trial"",""time""
""focus"",""0"",""0""
","""event"",""trial"",""time""
""fullscreenenter"",""0"",""3830""
","
","null","run_exp/static/images/Set 6_rs/014b.jpg","null","","","","","","test","TL",""
"","html-keyboard-response","251","415551","0.0-229.0-2.0","""event"",""trial"",""time""
""focus"",""0"",""0""
""fullscreenenter"",""0"",""3830""
","
","""event"",""trial"",""time""
""focus"",""0"",""0""
","""event"",""trial"",""time""
""fullscreenenter"",""0"",""3830""
","
","null","<p></p>","null","","","","","","","",""
"","image","252","416357","0.0-230.0-0.0","""event"",""trial"",""time""
""focus"",""0"",""0""
""fullscreenenter"",""0"",""3830""
","
","""event"",""trial"",""time""
""focus"",""0"",""0""
","""event"",""trial"",""time""
""fullscreenenter"",""0"",""3830""
","
","804","run_exp/static/images/Set 6_rs/188a.jpg","78","","","","","","test","TF","3"
"","show_choice","253","416871","0.0-230.0-1.0","""event"",""trial"",""time""
""focus"",""0"",""0""
""fullscreenenter"",""0"",""3830""
","
","""event"",""trial"",""time""
""focus"",""0"",""0""
","""event"",""trial"",""time""
""fullscreenenter"",""0"",""3830""
","
","null","run_exp/static/images/Set 6_rs/188a.jpg","null","","","","","","test","TF",""
"","html-keyboard-response","254","417384","0.0-230.0-2.0","""event"",""trial"",""time""
""focus"",""0"",""0""
""fullscreenenter"",""0"",""3830""
","
","""event"",""trial"",""time""
""focus"",""0"",""0""
","""event"",""trial"",""time""
""fullscreenenter"",""0"",""3830""
","
","null","<p></p>","null","","","","","","","",""
"","image","255","418146","0.0-231.0-0.0","""event"",""trial"",""time""
""focus"",""0"",""0""
""fullscreenenter"",""0"",""3830""
","
","""event"",""trial"",""time""
""focus"",""0"",""0""
","""event"",""trial"",""time""
""fullscreenenter"",""0"",""3830""
","
","759","run_exp/static/images/Set 6_rs/028a.jpg","78","","","","","","test","TF","1"
"","show_choice","256","418657","0.0-231.0-1.0","""event"",""trial"",""time""
""focus"",""0"",""0""
""fullscreenenter"",""0"",""3830""
","
","""event"",""trial"",""time""
""focus"",""0"",""0""
","""event"",""trial"",""time""
""fullscreenenter"",""0"",""3830""
","
","null","run_exp/static/images/Set 6_rs/028a.jpg","null","","","","","","test","TF",""
"","html-keyboard-response","257","419169","0.0-231.0-2.0","""event"",""trial"",""time""
""focus"",""0"",""0""
""fullscreenenter"",""0"",""3830""
","
","""event"",""trial"",""time""
""focus"",""0"",""0""
","""event"",""trial"",""time""
""fullscreenenter"",""0"",""3830""
","
","null","<p></p>","null","","","","","","","",""
"","image","258","420177","0.0-232.0-0.0","""event"",""trial"",""time""
""focus"",""0"",""0""
""fullscreenenter"",""0"",""3830""
","
","""event"",""trial"",""time""
""focus"",""0"",""0""
","""event"",""trial"",""time""
""fullscreenenter"",""0"",""3830""
","
","1006","run_exp/static/images/Set 6_rs/050b.jpg","86","","","","","","test","TL","3"
"","show_choice","259","420695","0.0-232.0-1.0","""event"",""trial"",""time""
""focus"",""0"",""0""
""fullscreenenter"",""0"",""3830""
","
","""event"",""trial"",""time""
""focus"",""0"",""0""
","""event"",""trial"",""time""
""fullscreenenter"",""0"",""3830""
","
","null","run_exp/static/images/Set 6_rs/050b.jpg","null","","","","","","test","TL",""
"","html-keyboard-response","260","421208","0.0-232.0-2.0","""event"",""trial"",""time""
""focus"",""0"",""0""
""fullscreenenter"",""0"",""3830""
","
","""event"",""trial"",""time""
""focus"",""0"",""0""
","""event"",""trial"",""time""
""fullscreenenter"",""0"",""3830""
","
","null","<p></p>","null","","","","","","","",""
"","image","261","422442","0.0-233.0-0.0","""event"",""trial"",""time""
""focus"",""0"",""0""
""fullscreenenter"",""0"",""3830""
","
","""event"",""trial"",""time""
""focus"",""0"",""0""
","""event"",""trial"",""time""
""fullscreenenter"",""0"",""3830""
","
","1231","run_exp/static/images/Set 6_rs/091b.jpg","78","","","","","","test","TL","3"
"","show_choice","262","422945","0.0-233.0-1.0","""event"",""trial"",""time""
""focus"",""0"",""0""
""fullscreenenter"",""0"",""3830""
","
","""event"",""trial"",""time""
""focus"",""0"",""0""
","""event"",""trial"",""time""
""fullscreenenter"",""0"",""3830""
","
","null","run_exp/static/images/Set 6_rs/091b.jpg","null","","","","","","test","TL",""
"","html-keyboard-response","263","423455","0.0-233.0-2.0","""event"",""trial"",""time""
""focus"",""0"",""0""
""fullscreenenter"",""0"",""3830""
","
","""event"",""trial"",""time""
""focus"",""0"",""0""
","""event"",""trial"",""time""
""fullscreenenter"",""0"",""3830""
","
","null","<p></p>","null","","","","","","","",""
"","image","264","424605","0.0-234.0-0.0","""event"",""trial"",""time""
""focus"",""0"",""0""
""fullscreenenter"",""0"",""3830""
","
","""event"",""trial"",""time""
""focus"",""0"",""0""
","""event"",""trial"",""time""
""fullscreenenter"",""0"",""3830""
","
","1147","run_exp/static/images/Set 6_rs/066b.jpg","66","","","","","","test","TL","5"
"","show_choice","265","425115","0.0-234.0-1.0","""event"",""trial"",""time""
""focus"",""0"",""0""
""fullscreenenter"",""0"",""3830""
","
","""event"",""trial"",""time""
""focus"",""0"",""0""
","""event"",""trial"",""time""
""fullscreenenter"",""0"",""3830""
","
","null","run_exp/static/images/Set 6_rs/066b.jpg","null","","","","","","test","TL",""
"","html-keyboard-response","266","425628","0.0-234.0-2.0","""event"",""trial"",""time""
""focus"",""0"",""0""
""fullscreenenter"",""0"",""3830""
","
","""event"",""trial"",""time""
""focus"",""0"",""0""
","""event"",""trial"",""time""
""fullscreenenter"",""0"",""3830""
","
","null","<p></p>","null","","","","","","","",""
"","image","267","426666","0.0-235.0-0.0","""event"",""trial"",""time""
""focus"",""0"",""0""
""fullscreenenter"",""0"",""3830""
","
","""event"",""trial"",""time""
""focus"",""0"",""0""
","""event"",""trial"",""time""
""fullscreenenter"",""0"",""3830""
","
","1035","run_exp/static/images/Set 6_rs/100a.jpg","66","","","","","","test","TF","2"
"","show_choice","268","427177","0.0-235.0-1.0","""event"",""trial"",""time""
""focus"",""0"",""0""
""fullscreenenter"",""0"",""3830""
","
","""event"",""trial"",""time""
""focus"",""0"",""0""
","""event"",""trial"",""time""
""fullscreenenter"",""0"",""3830""
","
","null","run_exp/static/images/Set 6_rs/100a.jpg","null","","","","","","test","TF",""
"","html-keyboard-response","269","427688","0.0-235.0-2.0","""event"",""trial"",""time""
""focus"",""0"",""0""
""fullscreenenter"",""0"",""3830""
","
","""event"",""trial"",""time""
""focus"",""0"",""0""
","""event"",""trial"",""time""
""fullscreenenter"",""0"",""3830""
","
","null","<p></p>","null","","","","","","","",""
"","image","270","428542","0.0-236.0-0.0","""event"",""trial"",""time""
""focus"",""0"",""0""
""fullscreenenter"",""0"",""3830""
","
","""event"",""trial"",""time""
""focus"",""0"",""0""
","""event"",""trial"",""time""
""fullscreenenter"",""0"",""3830""
","
","852","run_exp/static/images/Set 6_rs/036b.jpg","66","","","","","","test","TL","4"
"","show_choice","271","429055","0.0-236.0-1.0","""event"",""trial"",""time""
""focus"",""0"",""0""
""fullscreenenter"",""0"",""3830""
","
","""event"",""trial"",""time""
""focus"",""0"",""0""
","""event"",""trial"",""time""
""fullscreenenter"",""0"",""3830""
","
","null","run_exp/static/images/Set 6_rs/036b.jpg","null","","","","","","test","TL",""
"","html-keyboard-response","272","429568","0.0-236.0-2.0","""event"",""trial"",""time""
""focus"",""0"",""0""
""fullscreenenter"",""0"",""3830""
","
","""event"",""trial"",""time""
""focus"",""0"",""0""
","""event"",""trial"",""time""
""fullscreenenter"",""0"",""3830""
","
