"success","trial_type","trial_index","time_elapsed","internal_node_id","interactions","blur_events","focus_events","fullscreenenter_events","fullscreenexit_events","rt","stimulus","key_press","subject_id","participant_id","age","gender","prompt","phase","condition","lure_bin"
"true","fullscreen","0","5090","0.0-0.0","""event"",""trial"",""time""
""focus"",""0"",""0""
""fullscreenenter"",""0"",""4433""
","
","""event"",""trial"",""time""
""focus"",""0"",""0""
","""event"",""trial"",""time""
""fullscreenenter"",""0"",""4433""
","
","","","","","","","","","","",""
"","pavlovia","1","5105","0.0-1.0","""event"",""trial"",""time""
""focus"",""0"",""0""
""fullscreenenter"",""0"",""4433""
","
","""event"",""trial"",""time""
""focus"",""0"",""0""
","""event"",""trial"",""time""
""fullscreenenter"",""0"",""4433""
","
","","","","","","","","","","",""
"","welcome","2","41090","0.0-2.0","""event"",""trial"",""time""
""focus"",""0"",""0""
""fullscreenenter"",""0"",""4433""
","
","""event"",""trial"",""time""
""focus"",""0"",""0""
","""event"",""trial"",""time""
""fullscreenenter"",""0"",""4433""
","
","null","run_exp/static/audio/clip_1_welcome.m4a","null","1488","1463","8","Female","<div class='center'><p>Welcome to the third part of the study! First, you'll be shown pictures of items one at a time. For each picture, you have to decide if the item is typically found indoors or outdoors.</p><p>If you think it's usually found indoors, then press <b>v</b> key on your keyboard. If you think it's usually found outdoors, then press the <b>n</b> key.There will be reminders on the screen to help you remember which keys to press. </p><p>If you're not sure whether the item is an indoor item or an outdoor item, go ahead and take a guess but try your best not to skip that choice. </p></div>","","",""
"","html-keyboard-response","3","69119","0.0-3.0","""event"",""trial"",""time""
""focus"",""0"",""0""
""fullscreenenter"",""0"",""4433""
","
","""event"",""trial"",""time""
""focus"",""0"",""0""
","""event"",""trial"",""time""
""fullscreenenter"",""0"",""4433""
","
","28013","<div class='center'><p>Welcome to the third part of the study! First, you'll be shown pictures of items one at a time. For each picture, you have to decide if the item is typically found indoors or outdoors.</p><p>If you think it's usually found indoors, then press <b>v</b> key on your keyboard. If you think it's usually found outdoors, then press the <b>n</b> key.There will be reminders on the screen to help you remember which keys to press. </p><p>If you're not sure whether the item is an indoor item or an outdoor item, go ahead and take a guess but try your best not to skip that choice. </p><div><p><b>[Press the space bar to continue]</b></p></div>","32","","","","","","","",""
"","image","4","71130","0.0-4.0","""event"",""trial"",""time""
""focus"",""0"",""0""
""fullscreenenter"",""0"",""4433""
","
","""event"",""trial"",""time""
""focus"",""0"",""0""
","""event"",""trial"",""time""
""fullscreenenter"",""0"",""4433""
","
","null","run_exp/static/images/Set 6_rs/141a.jpg","null","","","","","","learn","SR",""
"","show_choice","5","73137","0.0-5.0","""event"",""trial"",""time""
""focus"",""0"",""0""
""fullscreenenter"",""0"",""4433""
","
","""event"",""trial"",""time""
""focus"",""0"",""0""
","""event"",""trial"",""time""
""fullscreenenter"",""0"",""4433""
","
","null","run_exp/static/images/blank.png","null","","","","","","learn","SR",""
"","html-keyboard-response","6","73645","0.0-6.0","""event"",""trial"",""time""
""focus"",""0"",""0""
""fullscreenenter"",""0"",""4433""
","
","""event"",""trial"",""time""
""focus"",""0"",""0""
","""event"",""trial"",""time""
""fullscreenenter"",""0"",""4433""
","
","null","<p></p>","null","","","","","","","",""
"","image","7","75660","0.0-7.0","""event"",""trial"",""time""
""focus"",""0"",""0""
""fullscreenenter"",""0"",""4433""
","
","""event"",""trial"",""time""
""focus"",""0"",""0""
","""event"",""trial"",""time""
""fullscreenenter"",""0"",""4433""
","
","null","run_exp/static/images/Set 6_rs/012a.jpg","null","","","","","","learn","SR",""
"","show_choice","8","77673","0.0-8.0","""event"",""trial"",""time""
""focus"",""0"",""0""
""fullscreenenter"",""0"",""4433""
","
","""event"",""trial"",""time""
""focus"",""0"",""0""
","""event"",""trial"",""time""
""fullscreenenter"",""0"",""4433""
","
","null","run_exp/static/images/blank.png","null","","","","","","learn","SR",""
"","html-keyboard-response","9","78175","0.0-9.0","""event"",""trial"",""time""
""focus"",""0"",""0""
""fullscreenenter"",""0"",""4433""
","
","""event"",""trial"",""time""
""focus"",""0"",""0""
","""event"",""trial"",""time""
""fullscreenenter"",""0"",""4433""
","
","null","<p></p>","null","","","","","","","",""
"","image","10","80156","0.0-10.0","""event"",""trial"",""time""
""focus"",""0"",""0""
""fullscreenenter"",""0"",""4433""
","
","""event"",""trial"",""time""
""focus"",""0"",""0""
","""event"",""trial"",""time""
""fullscreenenter"",""0"",""4433""
","
","1978","run_exp/static/images/Set 6_rs/045a.jpg","78","","","","","","learn","SR",""
"","show_choice","11","80191","0.0-11.0","""event"",""trial"",""time""
""focus"",""0"",""0""
""fullscreenenter"",""0"",""4433""
","
","""event"",""trial"",""time""
""focus"",""0"",""0""
","""event"",""trial"",""time""
""fullscreenenter"",""0"",""4433""
","
","null","run_exp/static/images/Set 6_rs/045a.jpg","null","","","","","","learn","SR",""
"","html-keyboard-response","12","80707","0.0-12.0","""event"",""trial"",""time""
""focus"",""0"",""0""
""fullscreenenter"",""0"",""4433""
","
","""event"",""trial"",""time""
""focus"",""0"",""0""
","""event"",""trial"",""time""
""fullscreenenter"",""0"",""4433""
","
","null","<p></p>","null","","","","","","","",""
"","image","13","82723","0.0-13.0","""event"",""trial"",""time""
""focus"",""0"",""0""
""fullscreenenter"",""0"",""4433""
","
","""event"",""trial"",""time""
""focus"",""0"",""0""
","""event"",""trial"",""time""
""fullscreenenter"",""0"",""4433""
","
","null","run_exp/static/images/Set 6_rs/036a.jpg","null","","","","","","learn","SL",""
"","show_choice","14","84731","0.0-14.0","""event"",""trial"",""time""
""focus"",""0"",""0""
""fullscreenenter"",""0"",""4433""
","
","""event"",""trial"",""time""
""focus"",""0"",""0""
","""event"",""trial"",""time""
""fullscreenenter"",""0"",""4433""
","
","null","run_exp/static/images/blank.png","null","","","","","","learn","SL",""
"","html-keyboard-response","15","85239","0.0-15.0","""event"",""trial"",""time""
""focus"",""0"",""0""
""fullscreenenter"",""0"",""4433""
","
","""event"",""trial"",""time""
""focus"",""0"",""0""
","""event"",""trial"",""time""
""fullscreenenter"",""0"",""4433""
","
","null","<p></p>","null","","","","","","","",""
"","image","16","86925","0.0-16.0","""event"",""trial"",""time""
""focus"",""0"",""0""
""fullscreenenter"",""0"",""4433""
","
","""event"",""trial"",""time""
""focus"",""0"",""0""
","""event"",""trial"",""time""
""fullscreenenter"",""0"",""4433""
","
","1684","run_exp/static/images/Set 6_rs/079a.jpg","78","","","","","","learn","SL",""
"","show_choice","17","87255","0.0-17.0","""event"",""trial"",""time""
""focus"",""0"",""0""
""fullscreenenter"",""0"",""4433""
","
","""event"",""trial"",""time""
""focus"",""0"",""0""
","""event"",""trial"",""time""
""fullscreenenter"",""0"",""4433""
","
","null","run_exp/static/images/Set 6_rs/079a.jpg","null","","","","","","learn","SL",""
"","html-keyboard-response","18","87771","0.0-18.0","""event"",""trial"",""time""
""focus"",""0"",""0""
""fullscreenenter"",""0"",""4433""
","
","""event"",""trial"",""time""
""focus"",""0"",""0""
","""event"",""trial"",""time""
""fullscreenenter"",""0"",""4433""
","
","null","<p></p>","null","","","","","","","",""
"","image","19","89351","0.0-19.0","""event"",""trial"",""time""
""focus"",""0"",""0""
""fullscreenenter"",""0"",""4433""
","
","""event"",""trial"",""time""
""focus"",""0"",""0""
","""event"",""trial"",""time""
""fullscreenenter"",""0"",""4433""
","
","1575","run_exp/static/images/Set 6_rs/055a.jpg","86","","","","","","learn","SL",""
"","show_choice","20","89786","0.0-20.0","""event"",""trial"",""time""
""focus"",""0"",""0""
""fullscreenenter"",""0"",""4433""
","
","""event"",""trial"",""time""
""focus"",""0"",""0""
","""event"",""trial"",""time""
""fullscreenenter"",""0"",""4433""
","
","null","run_exp/static/images/Set 6_rs/055a.jpg","null","","","","","","learn","SL",""
"","html-keyboard-response","21","90303","0.0-21.0","""event"",""trial"",""time""
""focus"",""0"",""0""
""fullscreenenter"",""0"",""4433""
","
","""event"",""trial"",""time""
""focus"",""0"",""0""
","""event"",""trial"",""time""
""fullscreenenter"",""0"",""4433""
","
","null","<p></p>","null","","","","","","","",""
"","image","22","92156","0.0-22.0","""event"",""trial"",""time""
""focus"",""0"",""0""
""fullscreenenter"",""0"",""4433""
","
","""event"",""trial"",""time""
""focus"",""0"",""0""
","""event"",""trial"",""time""
""fullscreenenter"",""0"",""4433""
","
","1851","run_exp/static/images/Set 6_rs/126a.jpg","78","","","","","","learn","SR",""
"","show_choice","23","92316","0.0-23.0","""event"",""trial"",""time""
""focus"",""0"",""0""
""fullscreenenter"",""0"",""4433""
","
","""event"",""trial"",""time""
""focus"",""0"",""0""
","""event"",""trial"",""time""
""fullscreenenter"",""0"",""4433""
","
","null","run_exp/static/images/Set 6_rs/126a.jpg","null","","","","","","learn","SR",""
"","html-keyboard-response","24","92818","0.0-24.0","""event"",""trial"",""time""
""focus"",""0"",""0""
""fullscreenenter"",""0"",""4433""
","
","""event"",""trial"",""time""
""focus"",""0"",""0""
","""event"",""trial"",""time""
""fullscreenenter"",""0"",""4433""
","
","null","<p></p>","null","","","","","","","",""
"","image","25","94454","0.0-25.0","""event"",""trial"",""time""
""focus"",""0"",""0""
""fullscreenenter"",""0"",""4433""
","
","""event"",""trial"",""time""
""focus"",""0"",""0""
","""event"",""trial"",""time""
""fullscreenenter"",""0"",""4433""
","
","1634","run_exp/static/images/Set 6_rs/025a.jpg","78","","","","","","learn","SL",""
"","show_choice","26","94831","0.0-26.0","""event"",""trial"",""time""
""focus"",""0"",""0""
""fullscreenenter"",""0"",""4433""
","
","""event"",""trial"",""time""
""focus"",""0"",""0""
","""event"",""trial"",""time""
""fullscreenenter"",""0"",""4433""
","
","null","run_exp/static/images/Set 6_rs/025a.jpg","null","","","","","","learn","SL",""
"","html-keyboard-response","27","95348","0.0-27.0","""event"",""trial"",""time""
""focus"",""0"",""0""
""fullscreenenter"",""0"",""4433""
","
","""event"",""trial"",""time""
""focus"",""0"",""0""
","""event"",""trial"",""time""
""fullscreenenter"",""0"",""4433""
","
","null","<p></p>","null","","","","","","","",""
"","image","28","96436","0.0-28.0","""event"",""trial"",""time""
""focus"",""0"",""0""
""fullscreenenter"",""0"",""4433""
","
","""event"",""trial"",""time""
""focus"",""0"",""0""
","""event"",""trial"",""time""
""fullscreenenter"",""0"",""4433""
","
","1086","run_exp/static/images/Set 6_rs/007a.jpg","86","","","","","","learn","SR",""
"","show_choice","29","97366","0.0-29.0","""event"",""trial"",""time""
""focus"",""0"",""0""
""fullscreenenter"",""0"",""4433""
","
","""event"",""trial"",""time""
""focus"",""0"",""0""
","""event"",""trial"",""time""
""fullscreenenter"",""0"",""4433""
","
","null","run_exp/static/images/Set 6_rs/007a.jpg","null","","","","","","learn","SR",""
"","html-keyboard-response","30","97883","0.0-30.0","""event"",""trial"",""time""
""focus"",""0"",""0""
""fullscreenenter"",""0"",""4433""
","
","""event"",""trial"",""time""
""focus"",""0"",""0""
","""event"",""trial"",""time""
""fullscreenenter"",""0"",""4433""
","
","null","<p></p>","null","","","","","","","",""
"","image","31","99479","0.0-31.0","""event"",""trial"",""time""
""focus"",""0"",""0""
""fullscreenenter"",""0"",""4433""
","
","""event"",""trial"",""time""
""focus"",""0"",""0""
","""event"",""trial"",""time""
""fullscreenenter"",""0"",""4433""
","
","1593","run_exp/static/images/Set 6_rs/062a.jpg","86","","","","","","learn","SL",""
"","show_choice","32","99899","0.0-32.0","""event"",""trial"",""time""
""focus"",""0"",""0""
""fullscreenenter"",""0"",""4433""
","
","""event"",""trial"",""time""
""focus"",""0"",""0""
","""event"",""trial"",""time""
""fullscreenenter"",""0"",""4433""
","
","null","run_exp/static/images/Set 6_rs/062a.jpg","null","","","","","","learn","SL",""
"","html-keyboard-response","33","100414","0.0-33.0","""event"",""trial"",""time""
""focus"",""0"",""0""
""fullscreenenter"",""0"",""4433""
","
","""event"",""trial"",""time""
""focus"",""0"",""0""
","""event"",""trial"",""time""
""fullscreenenter"",""0"",""4433""
","
","null","<p></p>","null","","","","","","","",""
"","image","34","101372","0.0-34.0","""event"",""trial"",""time""
""focus"",""0"",""0""
""fullscreenenter"",""0"",""4433""
","
","""event"",""trial"",""time""
""focus"",""0"",""0""
","""event"",""trial"",""time""
""fullscreenenter"",""0"",""4433""
","
","954","run_exp/static/images/Set 6_rs/123a.jpg","78","","","","","","learn","SL",""
"","show_choice","35","102431","0.0-35.0","""event"",""trial"",""time""
""focus"",""0"",""0""
""fullscreenenter"",""0"",""4433""
","
","""event"",""trial"",""time""
""focus"",""0"",""0""
","""event"",""trial"",""time""
""fullscreenenter"",""0"",""4433""
","
","null","run_exp/static/images/Set 6_rs/123a.jpg","null","","","","","","learn","SL",""
"","html-keyboard-response","36","102937","0.0-36.0","""event"",""trial"",""time""
""focus"",""0"",""0""
""fullscreenenter"",""0"",""4433""
","
","""event"",""trial"",""time""
""focus"",""0"",""0""
","""event"",""trial"",""time""
""fullscreenenter"",""0"",""4433""
","
","null","<p></p>","null","","","","","","","",""
"","image","37","103877","0.0-37.0","""event"",""trial"",""time""
""focus"",""0"",""0""
""fullscreenenter"",""0"",""4433""
","
","""event"",""trial"",""time""
""focus"",""0"",""0""
","""event"",""trial"",""time""
""fullscreenenter"",""0"",""4433""
","
","937","run_exp/static/images/Set 6_rs/167a.jpg","86","","","","","","learn","SL",""
"","show_choice","38","104946","0.0-38.0","""event"",""trial"",""time""
""focus"",""0"",""0""
""fullscreenenter"",""0"",""4433""
","
","""event"",""trial"",""time""
""focus"",""0"",""0""
","""event"",""trial"",""time""
""fullscreenenter"",""0"",""4433""
","
","null","run_exp/static/images/Set 6_rs/167a.jpg","null","","","","","","learn","SL",""
"","html-keyboard-response","39","105462","0.0-39.0","""event"",""trial"",""time""
""focus"",""0"",""0""
""fullscreenenter"",""0"",""4433""
","
","""event"",""trial"",""time""
""focus"",""0"",""0""
","""event"",""trial"",""time""
""fullscreenenter"",""0"",""4433""
","
","null","<p></p>","null","","","","","","","",""
"","image","40","106719","0.0-40.0","""event"",""trial"",""time""
""focus"",""0"",""0""
""fullscreenenter"",""0"",""4433""
","
","""event"",""trial"",""time""
""focus"",""0"",""0""
","""event"",""trial"",""time""
""fullscreenenter"",""0"",""4433""
","
","1254","run_exp/static/images/Set 6_rs/066a.jpg","86","","","","","","learn","SL",""
"","show_choice","41","107478","0.0-41.0","""event"",""trial"",""time""
""focus"",""0"",""0""
""fullscreenenter"",""0"",""4433""
","
","""event"",""trial"",""time""
""focus"",""0"",""0""
","""event"",""trial"",""time""
""fullscreenenter"",""0"",""4433""
","
","null","run_exp/static/images/Set 6_rs/066a.jpg","null","","","","","","learn","SL",""
"","html-keyboard-response","42","107995","0.0-42.0","""event"",""trial"",""time""
""focus"",""0"",""0""
""fullscreenenter"",""0"",""4433""
","
","""event"",""trial"",""time""
""focus"",""0"",""0""
","""event"",""trial"",""time""
""fullscreenenter"",""0"",""4433""
","
","null","<p></p>","null","","","","","","","",""
"","image","43","109495","0.0-43.0","""event"",""trial"",""time""
""focus"",""0"",""0""
""fullscreenenter"",""0"",""4433""
","
","""event"",""trial"",""time""
""focus"",""0"",""0""
","""event"",""trial"",""time""
""fullscreenenter"",""0"",""4433""
","
","1497","run_exp/static/images/Set 6_rs/008a.jpg","78","","","","","","learn","SL",""
"","show_choice","44","110011","0.0-44.0","""event"",""trial"",""time""
""focus"",""0"",""0""
""fullscreenenter"",""0"",""4433""
","
","""event"",""trial"",""time""
""focus"",""0"",""0""
","""event"",""trial"",""time""
""fullscreenenter"",""0"",""4433""
","
","null","run_exp/static/images/Set 6_rs/008a.jpg","null","","","","","","learn","SL",""
"","html-keyboard-response","45","110522","0.0-45.0","""event"",""trial"",""time""
""focus"",""0"",""0""
""fullscreenenter"",""0"",""4433""
","
","""event"",""trial"",""time""
""focus"",""0"",""0""
","""event"",""trial"",""time""
""fullscreenenter"",""0"",""4433""
","
","null","<p></p>","null","","","","","","","",""
"","image","46","111652","0.0-46.0","""event"",""trial"",""time""
""focus"",""0"",""0""
""fullscreenenter"",""0"",""4433""
","
","""event"",""trial"",""time""
""focus"",""0"",""0""
","""event"",""trial"",""time""
""fullscreenenter"",""0"",""4433""
","
","1128","run_exp/static/images/Set 6_rs/168a.jpg","86","","","","","","learn","SL",""
"","show_choice","47","112540","0.0-47.0","""event"",""trial"",""time""
""focus"",""0"",""0""
""fullscreenenter"",""0"",""4433""
","
","""event"",""trial"",""time""
""focus"",""0"",""0""
","""event"",""trial"",""time""
""fullscreenenter"",""0"",""4433""
","
","null","run_exp/static/images/Set 6_rs/168a.jpg","null","","","","","","learn","SL",""
"","html-keyboard-response","48","113042","0.0-48.0","""event"",""trial"",""time""
""focus"",""0"",""0""
""fullscreenenter"",""0"",""4433""
","
","""event"",""trial"",""time""
""focus"",""0"",""0""
","""event"",""trial"",""time""
""fullscreenenter"",""0"",""4433""
","
","null","<p></p>","null","","","","","","","",""
"","image","49","114834","0.0-49.0","""event"",""trial"",""time""
""focus"",""0"",""0""
""fullscreenenter"",""0"",""4433""
","
","""event"",""trial"",""time""
""focus"",""0"",""0""
","""event"",""trial"",""time""
""fullscreenenter"",""0"",""4433""
","
","1790","run_exp/static/images/Set 6_rs/061a.jpg","86","","","","","","learn","SR",""
"","show_choice","50","115057","0.0-50.0","""event"",""trial"",""time""
""focus"",""0"",""0""
""fullscreenenter"",""0"",""4433""
","
","""event"",""trial"",""time""
""focus"",""0"",""0""
","""event"",""trial"",""time""
""fullscreenenter"",""0"",""4433""
","
","null","run_exp/static/images/Set 6_rs/061a.jpg","null","","","","","","learn","SR",""
"","html-keyboard-response","51","115574","0.0-51.0","""event"",""trial"",""time""
""focus"",""0"",""0""
""fullscreenenter"",""0"",""4433""
","
","""event"",""trial"",""time""
""focus"",""0"",""0""
","""event"",""trial"",""time""
""fullscreenenter"",""0"",""4433""
","
","null","<p></p>","null","","","","","","","",""
"","image","52","116764","0.0-52.0","""event"",""trial"",""time""
""focus"",""0"",""0""
""fullscreenenter"",""0"",""4433""
","
","""event"",""trial"",""time""
""focus"",""0"",""0""
","""event"",""trial"",""time""
""fullscreenenter"",""0"",""4433""
","
","1188","run_exp/static/images/Set 6_rs/017a.jpg","78","","","","","","learn","SL",""
"","show_choice","53","117590","0.0-53.0","""event"",""trial"",""time""
""focus"",""0"",""0""
""fullscreenenter"",""0"",""4433""
","
","""event"",""trial"",""time""
""focus"",""0"",""0""
","""event"",""trial"",""time""
""fullscreenenter"",""0"",""4433""
","
","null","run_exp/static/images/Set 6_rs/017a.jpg","null","","","","","","learn","SL",""
"","html-keyboard-response","54","118106","0.0-54.0","""event"",""trial"",""time""
""focus"",""0"",""0""
""fullscreenenter"",""0"",""4433""
","
","""event"",""trial"",""time""
""focus"",""0"",""0""
","""event"",""trial"",""time""
""fullscreenenter"",""0"",""4433""
","
","null","<p></p>","null","","","","","","","",""
"","image","55","119325","0.0-55.0","""event"",""trial"",""time""
""focus"",""0"",""0""
""fullscreenenter"",""0"",""4433""
","
","""event"",""trial"",""time""
""focus"",""0"",""0""
","""event"",""trial"",""time""
""fullscreenenter"",""0"",""4433""
","
","1217","run_exp/static/images/Set 6_rs/150a.jpg","86","","","","","","learn","SR",""
"","show_choice","56","120122","0.0-56.0","""event"",""trial"",""time""
""focus"",""0"",""0""
""fullscreenenter"",""0"",""4433""
","
","""event"",""trial"",""time""
""focus"",""0"",""0""
","""event"",""trial"",""time""
""fullscreenenter"",""0"",""4433""
","
","null","run_exp/static/images/Set 6_rs/150a.jpg","null","","","","","","learn","SR",""
"","html-keyboard-response","57","120639","0.0-57.0","""event"",""trial"",""time""
""focus"",""0"",""0""
""fullscreenenter"",""0"",""4433""
","
","""event"",""trial"",""time""
""focus"",""0"",""0""
","""event"",""trial"",""time""
""fullscreenenter"",""0"",""4433""
","
","null","<p></p>","null","","","","","","","",""
"","image","58","122125","0.0-58.0","""event"",""trial"",""time""
""focus"",""0"",""0""
""fullscreenenter"",""0"",""4433""
","
","""event"",""trial"",""time""
""focus"",""0"",""0""
","""event"",""trial"",""time""
""fullscreenenter"",""0"",""4433""
","
","1483","run_exp/static/images/Set 6_rs/122a.jpg","78","","","","","","learn","SR",""
"","show_choice","59","122654","0.0-59.0","""event"",""trial"",""time""
""focus"",""0"",""0""
""fullscreenenter"",""0"",""4433""
","
","""event"",""trial"",""time""
""focus"",""0"",""0""
","""event"",""trial"",""time""
""fullscreenenter"",""0"",""4433""
","
","null","run_exp/static/images/Set 6_rs/122a.jpg","null","","","","","","learn","SR",""
"","html-keyboard-response","60","123172","0.0-60.0","""event"",""trial"",""time""
""focus"",""0"",""0""
""fullscreenenter"",""0"",""4433""
","
","""event"",""trial"",""time""
""focus"",""0"",""0""
","""event"",""trial"",""time""
""fullscreenenter"",""0"",""4433""
","
","null","<p></p>","null","","","","","","","",""
"","image","61","124100","0.0-61.0","""event"",""trial"",""time""
""focus"",""0"",""0""
""fullscreenenter"",""0"",""4433""
","
","""event"",""trial"",""time""
""focus"",""0"",""0""
","""event"",""trial"",""time""
""fullscreenenter"",""0"",""4433""
","
","924","run_exp/static/images/Set 6_rs/085a.jpg","86","","","","","","learn","SL",""
"","show_choice","62","125187","0.0-62.0","""event"",""trial"",""time""
""focus"",""0"",""0""
""fullscreenenter"",""0"",""4433""
","
","""event"",""trial"",""time""
""focus"",""0"",""0""
","""event"",""trial"",""time""
""fullscreenenter"",""0"",""4433""
","
","null","run_exp/static/images/Set 6_rs/085a.jpg","null","","","","","","learn","SL",""
"","html-keyboard-response","63","125705","0.0-63.0","""event"",""trial"",""time""
""focus"",""0"",""0""
""fullscreenenter"",""0"",""4433""
","
","""event"",""trial"",""time""
""focus"",""0"",""0""
","""event"",""trial"",""time""
""fullscreenenter"",""0"",""4433""
","
","null","<p></p>","null","","","","","","","",""
"","image","64","127006","0.0-64.0","""event"",""trial"",""time""
""focus"",""0"",""0""
""fullscreenenter"",""0"",""4433""
","
","""event"",""trial"",""time""
""focus"",""0"",""0""
","""event"",""trial"",""time""
""fullscreenenter"",""0"",""4433""
","
","1298","run_exp/static/images/Set 6_rs/169a.jpg","78","","","","","","learn","SR",""
"","show_choice","65","127720","0.0-65.0","""event"",""trial"",""time""
""focus"",""0"",""0""
""fullscreenenter"",""0"",""4433""
","
","""event"",""trial"",""time""
""focus"",""0"",""0""
","""event"",""trial"",""time""
""fullscreenenter"",""0"",""4433""
","
","null","run_exp/static/images/Set 6_rs/169a.jpg","null","","","","","","learn","SR",""
"","html-keyboard-response","66","128235","0.0-66.0","""event"",""trial"",""time""
""focus"",""0"",""0""
""fullscreenenter"",""0"",""4433""
","
","""event"",""trial"",""time""
""focus"",""0"",""0""
","""event"",""trial"",""time""
""fullscreenenter"",""0"",""4433""
","
","null","<p></p>","null","","","","","","","",""
"","image","67","129305","0.0-67.0","""event"",""trial"",""time""
""focus"",""0"",""0""
""fullscreenenter"",""0"",""4433""
","
","""event"",""trial"",""time""
""focus"",""0"",""0""
","""event"",""trial"",""time""
""fullscreenenter"",""0"",""4433""
","
","1067","run_exp/static/images/Set 6_rs/181a.jpg","78","","","","","","learn","SL",""
"","show_choice","68","130249","0.0-68.0","""event"",""trial"",""time""
""focus"",""0"",""0""
""fullscreenenter"",""0"",""4433""
","
","""event"",""trial"",""time""
""focus"",""0"",""0""
","""event"",""trial"",""time""
""fullscreenenter"",""0"",""4433""
","
","null","run_exp/static/images/Set 6_rs/181a.jpg","null","","","","","","learn","SL",""
"","html-keyboard-response","69","130751","0.0-69.0","""event"",""trial"",""time""
""focus"",""0"",""0""
""fullscreenenter"",""0"",""4433""
","
","""event"",""trial"",""time""
""focus"",""0"",""0""
","""event"",""trial"",""time""
""fullscreenenter"",""0"",""4433""
","
","null","<p></p>","null","","","","","","","",""
"","image","70","131826","0.0-70.0","""event"",""trial"",""time""
""focus"",""0"",""0""
""fullscreenenter"",""0"",""4433""
","
","""event"",""trial"",""time""
""focus"",""0"",""0""
","""event"",""trial"",""time""
""fullscreenenter"",""0"",""4433""
","
","1072","run_exp/static/images/Set 6_rs/178a.jpg","78","","","","","","learn","SR",""
"","show_choice","71","132764","0.0-71.0","""event"",""trial"",""time""
""focus"",""0"",""0""
""fullscreenenter"",""0"",""4433""
","
","""event"",""trial"",""time""
""focus"",""0"",""0""
","""event"",""trial"",""time""
""fullscreenenter"",""0"",""4433""
","
","null","run_exp/static/images/Set 6_rs/178a.jpg","null","","","","","","learn","SR",""
"","html-keyboard-response","72","133266","0.0-72.0","""event"",""trial"",""time""
""focus"",""0"",""0""
""fullscreenenter"",""0"",""4433""
","
","""event"",""trial"",""time""
""focus"",""0"",""0""
","""event"",""trial"",""time""
""fullscreenenter"",""0"",""4433""
","
","null","<p></p>","null","","","","","","","",""
"","image","73","134240","0.0-73.0","""event"",""trial"",""time""
""focus"",""0"",""0""
""fullscreenenter"",""0"",""4433""
","
","""event"",""trial"",""time""
""focus"",""0"",""0""
","""event"",""trial"",""time""
""fullscreenenter"",""0"",""4433""
","
","971","run_exp/static/images/Set 6_rs/129a.jpg","86","","","","","","learn","SL",""
"","show_choice","74","135282","0.0-74.0","""event"",""trial"",""time""
""focus"",""0"",""0""
""fullscreenenter"",""0"",""4433""
","
","""event"",""trial"",""time""
""focus"",""0"",""0""
","""event"",""trial"",""time""
""fullscreenenter"",""0"",""4433""
","
","null","run_exp/static/images/Set 6_rs/129a.jpg","null","","","","","","learn","SL",""
"","html-keyboard-response","75","135798","0.0-75.0","""event"",""trial"",""time""
""focus"",""0"",""0""
""fullscreenenter"",""0"",""4433""
","
","""event"",""trial"",""time""
""focus"",""0"",""0""
","""event"",""trial"",""time""
""fullscreenenter"",""0"",""4433""
","
","null","<p></p>","null","","","","","","","",""
"","image","76","136695","0.0-76.0","""event"",""trial"",""time""
""focus"",""0"",""0""
""fullscreenenter"",""0"",""4433""
","
","""event"",""trial"",""time""
""focus"",""0"",""0""
","""event"",""trial"",""time""
""fullscreenenter"",""0"",""4433""
","
","894","run_exp/static/images/Set 6_rs/111a.jpg","86","","","","","","learn","SL",""
"","show_choice","77","137813","0.0-77.0","""event"",""trial"",""time""
""focus"",""0"",""0""
""fullscreenenter"",""0"",""4433""
","
","""event"",""trial"",""time""
""focus"",""0"",""0""
","""event"",""trial"",""time""
""fullscreenenter"",""0"",""4433""
","
","null","run_exp/static/images/Set 6_rs/111a.jpg","null","","","","","","learn","SL",""
"","html-keyboard-response","78","138315","0.0-78.0","""event"",""trial"",""time""
""focus"",""0"",""0""
""fullscreenenter"",""0"",""4433""
","
","""event"",""trial"",""time""
""focus"",""0"",""0""
","""event"",""trial"",""time""
""fullscreenenter"",""0"",""4433""
","
","null","<p></p>","null","","","","","","","",""
"","image","79","139886","0.0-79.0","""event"",""trial"",""time""
""focus"",""0"",""0""
""fullscreenenter"",""0"",""4433""
","
","""event"",""trial"",""time""
""focus"",""0"",""0""
","""event"",""trial"",""time""
""fullscreenenter"",""0"",""4433""
","
","1568","run_exp/static/images/Set 6_rs/117a.jpg","78","","","","","","learn","SL",""
"","show_choice","80","140331","0.0-80.0","""event"",""trial"",""time""
""focus"",""0"",""0""
""fullscreenenter"",""0"",""4433""
","
","""event"",""trial"",""time""
""focus"",""0"",""0""
","""event"",""trial"",""time""
""fullscreenenter"",""0"",""4433""
","
","null","run_exp/static/images/Set 6_rs/117a.jpg","null","","","","","","learn","SL",""
"","html-keyboard-response","81","140847","0.0-81.0","""event"",""trial"",""time""
""focus"",""0"",""0""
""fullscreenenter"",""0"",""4433""
","
","""event"",""trial"",""time""
""focus"",""0"",""0""
","""event"",""trial"",""time""
""fullscreenenter"",""0"",""4433""
","
","null","<p></p>","null","","","","","","","",""
"","image","82","142151","0.0-82.0","""event"",""trial"",""time""
""focus"",""0"",""0""
""fullscreenenter"",""0"",""4433""
","
","""event"",""trial"",""time""
""focus"",""0"",""0""
","""event"",""trial"",""time""
""fullscreenenter"",""0"",""4433""
","
","1303","run_exp/static/images/Set 6_rs/064a.jpg","86","","","","","","learn","SR",""
"","show_choice","83","142862","0.0-83.0","""event"",""trial"",""time""
""focus"",""0"",""0""
""fullscreenenter"",""0"",""4433""
","
","""event"",""trial"",""time""
""focus"",""0"",""0""
","""event"",""trial"",""time""
""fullscreenenter"",""0"",""4433""
","
","null","run_exp/static/images/Set 6_rs/064a.jpg","null","","","","","","learn","SR",""
"","html-keyboard-response","84","143379","0.0-84.0","""event"",""trial"",""time""
""focus"",""0"",""0""
""fullscreenenter"",""0"",""4433""
","
","""event"",""trial"",""time""
""focus"",""0"",""0""
","""event"",""trial"",""time""
""fullscreenenter"",""0"",""4433""
","
","null","<p></p>","null","","","","","","","",""
"","image","85","144670","0.0-85.0","""event"",""trial"",""time""
""focus"",""0"",""0""
""fullscreenenter"",""0"",""4433""
","
","""event"",""trial"",""time""
""focus"",""0"",""0""
","""event"",""trial"",""time""
""fullscreenenter"",""0"",""4433""
","
","1289","run_exp/static/images/Set 6_rs/138a.jpg","78","","","","","","learn","SL",""
"","show_choice","86","145394","0.0-86.0","""event"",""trial"",""time""
""focus"",""0"",""0""
""fullscreenenter"",""0"",""4433""
","
","""event"",""trial"",""time""
""focus"",""0"",""0""
","""event"",""trial"",""time""
""fullscreenenter"",""0"",""4433""
","
","null","run_exp/static/images/Set 6_rs/138a.jpg","null","","","","","","learn","SL",""
"","html-keyboard-response","87","145911","0.0-87.0","""event"",""trial"",""time""
""focus"",""0"",""0""
""fullscreenenter"",""0"",""4433""
","
","""event"",""trial"",""time""
""focus"",""0"",""0""
","""event"",""trial"",""time""
""fullscreenenter"",""0"",""4433""
","
","null","<p></p>","null","","","","","","","",""
"","image","88","147283","0.0-88.0","""event"",""trial"",""time""
""focus"",""0"",""0""
""fullscreenenter"",""0"",""4433""
","
","""event"",""trial"",""time""
""focus"",""0"",""0""
","""event"",""trial"",""time""
""fullscreenenter"",""0"",""4433""
","
","1369","run_exp/static/images/Set 6_rs/091a.jpg","78","","","","","","learn","SL",""
"","show_choice","89","147927","0.0-89.0","""event"",""trial"",""time""
""focus"",""0"",""0""
""fullscreenenter"",""0"",""4433""
","
","""event"",""trial"",""time""
""focus"",""0"",""0""
","""event"",""trial"",""time""
""fullscreenenter"",""0"",""4433""
","
","null","run_exp/static/images/Set 6_rs/091a.jpg","null","","","","","","learn","SL",""
"","html-keyboard-response","90","148442","0.0-90.0","""event"",""trial"",""time""
""focus"",""0"",""0""
""fullscreenenter"",""0"",""4433""
","
","""event"",""trial"",""time""
""focus"",""0"",""0""
","""event"",""trial"",""time""
""fullscreenenter"",""0"",""4433""
","
","null","<p></p>","null","","","","","","","",""
"","image","91","149549","0.0-91.0","""event"",""trial"",""time""
""focus"",""0"",""0""
""fullscreenenter"",""0"",""4433""
","
","""event"",""trial"",""time""
""focus"",""0"",""0""
","""event"",""trial"",""time""
""fullscreenenter"",""0"",""4433""
","
","1104","run_exp/static/images/Set 6_rs/088a.jpg","86","","","","","","learn","SR",""
"","show_choice","92","150459","0.0-92.0","""event"",""trial"",""time""
""focus"",""0"",""0""
""fullscreenenter"",""0"",""4433""
","
","""event"",""trial"",""time""
""focus"",""0"",""0""
","""event"",""trial"",""time""
""fullscreenenter"",""0"",""4433""
","
","null","run_exp/static/images/Set 6_rs/088a.jpg","null","","","","","","learn","SR",""
"","html-keyboard-response","93","150971","0.0-93.0","""event"",""trial"",""time""
""focus"",""0"",""0""
""fullscreenenter"",""0"",""4433""
","
","""event"",""trial"",""time""
""focus"",""0"",""0""
","""event"",""trial"",""time""
""fullscreenenter"",""0"",""4433""
","
","null","<p></p>","null","","","","","","","",""
"","image","94","152814","0.0-94.0","""event"",""trial"",""time""
""focus"",""0"",""0""
""fullscreenenter"",""0"",""4433""
","
","""event"",""trial"",""time""
""focus"",""0"",""0""
","""event"",""trial"",""time""
""fullscreenenter"",""0"",""4433""
","
","1839","run_exp/static/images/Set 6_rs/050a.jpg","86","","","","","","learn","SL",""
"","show_choice","95","152989","0.0-95.0","""event"",""trial"",""time""
""focus"",""0"",""0""
""fullscreenenter"",""0"",""4433""
","
","""event"",""trial"",""time""
""focus"",""0"",""0""
","""event"",""trial"",""time""
""fullscreenenter"",""0"",""4433""
","
","null","run_exp/static/images/Set 6_rs/050a.jpg","null","","","","","","learn","SL",""
"","html-keyboard-response","96","153491","0.0-96.0","""event"",""trial"",""time""
""focus"",""0"",""0""
""fullscreenenter"",""0"",""4433""
","
","""event"",""trial"",""time""
""focus"",""0"",""0""
","""event"",""trial"",""time""
""fullscreenenter"",""0"",""4433""
","
","null","<p></p>","null","","","","","","","",""
"","image","97","155225","0.0-97.0","""event"",""trial"",""time""
""focus"",""0"",""0""
""fullscreenenter"",""0"",""4433""
","
","""event"",""trial"",""time""
""focus"",""0"",""0""
","""event"",""trial"",""time""
""fullscreenenter"",""0"",""4433""
","
","1731","run_exp/static/images/Set 6_rs/019a.jpg","86","","","","","","learn","SL",""
"","show_choice","98","155506","0.0-98.0","""event"",""trial"",""time""
""focus"",""0"",""0""
""fullscreenenter"",""0"",""4433""
","
","""event"",""trial"",""time""
""focus"",""0"",""0""
","""event"",""trial"",""time""
""fullscreenenter"",""0"",""4433""
","
","null","run_exp/static/images/Set 6_rs/019a.jpg","null","","","","","","learn","SL",""
"","html-keyboard-response","99","156023","0.0-99.0","""event"",""trial"",""time""
""focus"",""0"",""0""
""fullscreenenter"",""0"",""4433""
","
","""event"",""trial"",""time""
""focus"",""0"",""0""
","""event"",""trial"",""time""
""fullscreenenter"",""0"",""4433""
","
","null","<p></p>","null","","","","","","","",""
"","image","100","157366","0.0-100.0","""event"",""trial"",""time""
""focus"",""0"",""0""
""fullscreenenter"",""0"",""4433""
","
","""event"",""trial"",""time""
""focus"",""0"",""0""
","""event"",""trial"",""time""
""fullscreenenter"",""0"",""4433""
","
","1341","run_exp/static/images/Set 6_rs/010a.jpg","86","","","","","","learn","SR",""
"","show_choice","101","158039","0.0-101.0","""event"",""trial"",""time""
""focus"",""0"",""0""
""fullscreenenter"",""0"",""4433""
","
","""event"",""trial"",""time""
""focus"",""0"",""0""
","""event"",""trial"",""time""
""fullscreenenter"",""0"",""4433""
","
","null","run_exp/static/images/Set 6_rs/010a.jpg","null","","","","","","learn","SR",""
"","html-keyboard-response","102","158555","0.0-102.0","""event"",""trial"",""time""
""focus"",""0"",""0""
""fullscreenenter"",""0"",""4433""
","
","""event"",""trial"",""time""
""focus"",""0"",""0""
","""event"",""trial"",""time""
""fullscreenenter"",""0"",""4433""
","
","null","<p></p>","null","","","","","","","",""
"","image","103","159445","0.0-103.0","""event"",""trial"",""time""
""focus"",""0"",""0""
""fullscreenenter"",""0"",""4433""
","
","""event"",""trial"",""time""
""focus"",""0"",""0""
","""event"",""trial"",""time""
""fullscreenenter"",""0"",""4433""
","
","890","run_exp/static/images/Set 6_rs/024a.jpg","86","","","","","","learn","SR",""
"","show_choice","104","160571","0.0-104.0","""event"",""trial"",""time""
""focus"",""0"",""0""
""fullscreenenter"",""0"",""4433""
","
","""event"",""trial"",""time""
""focus"",""0"",""0""
","""event"",""trial"",""time""
""fullscreenenter"",""0"",""4433""
","
","null","run_exp/static/images/Set 6_rs/024a.jpg","null","","","","","","learn","SR",""
"","html-keyboard-response","105","161087","0.0-105.0","""event"",""trial"",""time""
""focus"",""0"",""0""
""fullscreenenter"",""0"",""4433""
","
","""event"",""trial"",""time""
""focus"",""0"",""0""
","""event"",""trial"",""time""
""fullscreenenter"",""0"",""4433""
","
","null","<p></p>","null","","","","","","","",""
"","image","106","162549","0.0-106.0","""event"",""trial"",""time""
""focus"",""0"",""0""
""fullscreenenter"",""0"",""4433""
","
","""event"",""trial"",""time""
""focus"",""0"",""0""
","""event"",""trial"",""time""
""fullscreenenter"",""0"",""4433""
","
","1459","run_exp/static/images/Set 6_rs/116a.jpg","78","","","","","","learn","SL",""
"","show_choice","107","163096","0.0-107.0","""event"",""trial"",""time""
""focus"",""0"",""0""
""fullscreenenter"",""0"",""4433""
","
","""event"",""trial"",""time""
""focus"",""0"",""0""
","""event"",""trial"",""time""
""fullscreenenter"",""0"",""4433""
","
","null","run_exp/static/images/Set 6_rs/116a.jpg","null","","","","","","learn","SL",""
"","html-keyboard-response","108","163602","0.0-108.0","""event"",""trial"",""time""
""focus"",""0"",""0""
""fullscreenenter"",""0"",""4433""
","
","""event"",""trial"",""time""
""focus"",""0"",""0""
","""event"",""trial"",""time""
""fullscreenenter"",""0"",""4433""
","
","null","<p></p>","null","","","","","","","",""
"","image","109","164703","0.0-109.0","""event"",""trial"",""time""
""focus"",""0"",""0""
""fullscreenenter"",""0"",""4433""
","
","""event"",""trial"",""time""
""focus"",""0"",""0""
","""event"",""trial"",""time""
""fullscreenenter"",""0"",""4433""
","
","1100","run_exp/static/images/Set 6_rs/112a.jpg","86","","","","","","learn","SR",""
"","show_choice","110","165619","0.0-110.0","""event"",""trial"",""time""
""focus"",""0"",""0""
""fullscreenenter"",""0"",""4433""
","
","""event"",""trial"",""time""
""focus"",""0"",""0""
","""event"",""trial"",""time""
""fullscreenenter"",""0"",""4433""
","
","null","run_exp/static/images/Set 6_rs/112a.jpg","null","","","","","","learn","SR",""
"","html-keyboard-response","111","166134","0.0-111.0","""event"",""trial"",""time""
""focus"",""0"",""0""
""fullscreenenter"",""0"",""4433""
","
","""event"",""trial"",""time""
""focus"",""0"",""0""
","""event"",""trial"",""time""
""fullscreenenter"",""0"",""4433""
","
","null","<p></p>","null","","","","","","","",""
"","image","112","166982","0.0-112.0","""event"",""trial"",""time""
""focus"",""0"",""0""
""fullscreenenter"",""0"",""4433""
","
","""event"",""trial"",""time""
""focus"",""0"",""0""
","""event"",""trial"",""time""
""fullscreenenter"",""0"",""4433""
","
","845","run_exp/static/images/Set 6_rs/095a.jpg","86","","","","","","learn","SL",""
"","show_choice","113","168146","0.0-113.0","""event"",""trial"",""time""
""focus"",""0"",""0""
""fullscreenenter"",""0"",""4433""
","
","""event"",""trial"",""time""
""focus"",""0"",""0""
","""event"",""trial"",""time""
""fullscreenenter"",""0"",""4433""
","
","null","run_exp/static/images/Set 6_rs/095a.jpg","null","","","","","","learn","SL",""
"","html-keyboard-response","114","168650","0.0-114.0","""event"",""trial"",""time""
""focus"",""0"",""0""
""fullscreenenter"",""0"",""4433""
","
","""event"",""trial"",""time""
""focus"",""0"",""0""
","""event"",""trial"",""time""
""fullscreenenter"",""0"",""4433""
","
","null","<p></p>","null","","","","","","","",""
"","image","115","169888","0.0-115.0","""event"",""trial"",""time""
""focus"",""0"",""0""
""fullscreenenter"",""0"",""4433""
","
","""event"",""trial"",""time""
""focus"",""0"",""0""
","""event"",""trial"",""time""
""fullscreenenter"",""0"",""4433""
","
","1235","run_exp/static/images/Set 6_rs/071a.jpg","78","","","","","","learn","SL",""
"","show_choice","116","170664","0.0-116.0","""event"",""trial"",""time""
""focus"",""0"",""0""
""fullscreenenter"",""0"",""4433""
","
","""event"",""trial"",""time""
""focus"",""0"",""0""
","""event"",""trial"",""time""
""fullscreenenter"",""0"",""4433""
","
","null","run_exp/static/images/Set 6_rs/071a.jpg","null","","","","","","learn","SL",""
"","html-keyboard-response","117","171165","0.0-117.0","""event"",""trial"",""time""
""focus"",""0"",""0""
""fullscreenenter"",""0"",""4433""
","
","""event"",""trial"",""time""
""focus"",""0"",""0""
","""event"",""trial"",""time""
""fullscreenenter"",""0"",""4433""
","
","null","<p></p>","null","","","","","","","",""
"","image","118","172489","0.0-118.0","""event"",""trial"",""time""
""focus"",""0"",""0""
""fullscreenenter"",""0"",""4433""
","
","""event"",""trial"",""time""
""focus"",""0"",""0""
","""event"",""trial"",""time""
""fullscreenenter"",""0"",""4433""
","
","1321","run_exp/static/images/Set 6_rs/187a.jpg","86","","","","","","learn","SR",""
"","show_choice","119","173182","0.0-119.0","""event"",""trial"",""time""
""focus"",""0"",""0""
""fullscreenenter"",""0"",""4433""
","
","""event"",""trial"",""time""
""focus"",""0"",""0""
","""event"",""trial"",""time""
""fullscreenenter"",""0"",""4433""
","
","null","run_exp/static/images/Set 6_rs/187a.jpg","null","","","","","","learn","SR",""
"","html-keyboard-response","120","173695","0.0-120.0","""event"",""trial"",""time""
""focus"",""0"",""0""
""fullscreenenter"",""0"",""4433""
","
","""event"",""trial"",""time""
""focus"",""0"",""0""
","""event"",""trial"",""time""
""fullscreenenter"",""0"",""4433""
","
","null","<p></p>","null","","","","","","","",""
"","image","121","175531","0.0-121.0","""event"",""trial"",""time""
""focus"",""0"",""0""
""fullscreenenter"",""0"",""4433""
","
","""event"",""trial"",""time""
""focus"",""0"",""0""
","""event"",""trial"",""time""
""fullscreenenter"",""0"",""4433""
","
","1833","run_exp/static/images/Set 6_rs/131a.jpg","78","","","","","","learn","SR",""
"","show_choice","122","175714","0.0-122.0","""event"",""trial"",""time""
""focus"",""0"",""0""
""fullscreenenter"",""0"",""4433""
","
","""event"",""trial"",""time""
""focus"",""0"",""0""
","""event"",""trial"",""time""
""fullscreenenter"",""0"",""4433""
","
","null","run_exp/static/images/Set 6_rs/131a.jpg","null","","","","","","learn","SR",""
"","html-keyboard-response","123","176231","0.0-123.0","""event"",""trial"",""time""
""focus"",""0"",""0""
""fullscreenenter"",""0"",""4433""
","
","""event"",""trial"",""time""
""focus"",""0"",""0""
","""event"",""trial"",""time""
""fullscreenenter"",""0"",""4433""
","
","null","<p></p>","null","","","","","","","",""
"","image","124","177366","0.0-124.0","""event"",""trial"",""time""
""focus"",""0"",""0""
""fullscreenenter"",""0"",""4433""
","
","""event"",""trial"",""time""
""focus"",""0"",""0""
","""event"",""trial"",""time""
""fullscreenenter"",""0"",""4433""
","
","1133","run_exp/static/images/Set 6_rs/152a.jpg","86","","","","","","learn","SR",""
"","show_choice","125","178247","0.0-125.0","""event"",""trial"",""time""
""focus"",""0"",""0""
""fullscreenenter"",""0"",""4433""
","
","""event"",""trial"",""time""
""focus"",""0"",""0""
","""event"",""trial"",""time""
""fullscreenenter"",""0"",""4433""
","
","null","run_exp/static/images/Set 6_rs/152a.jpg","null","","","","","","learn","SR",""
"","html-keyboard-response","126","178762","0.0-126.0","""event"",""trial"",""time""
""focus"",""0"",""0""
""fullscreenenter"",""0"",""4433""
","
","""event"",""trial"",""time""
""focus"",""0"",""0""
","""event"",""trial"",""time""
""fullscreenenter"",""0"",""4433""
","
","null","<p></p>","null","","","","","","","",""
"","image","127","180453","0.0-127.0","""event"",""trial"",""time""
""focus"",""0"",""0""
""fullscreenenter"",""0"",""4433""
","
","""event"",""trial"",""time""
""focus"",""0"",""0""
","""event"",""trial"",""time""
""fullscreenenter"",""0"",""4433""
","
","1688","run_exp/static/images/Set 6_rs/057a.jpg","86","","","","","","learn","SL",""
"","show_choice","128","180778","0.0-128.0","""event"",""trial"",""time""
""focus"",""0"",""0""
""fullscreenenter"",""0"",""4433""
","
","""event"",""trial"",""time""
""focus"",""0"",""0""
","""event"",""trial"",""time""
""fullscreenenter"",""0"",""4433""
","
","null","run_exp/static/images/Set 6_rs/057a.jpg","null","","","","","","learn","SL",""
"","html-keyboard-response","129","181294","0.0-129.0","""event"",""trial"",""time""
""focus"",""0"",""0""
""fullscreenenter"",""0"",""4433""
","
","""event"",""trial"",""time""
""focus"",""0"",""0""
","""event"",""trial"",""time""
""fullscreenenter"",""0"",""4433""
","
","null","<p></p>","null","","","","","","","",""
"","image","130","182700","0.0-130.0","""event"",""trial"",""time""
""focus"",""0"",""0""
""fullscreenenter"",""0"",""4433""
","
","""event"",""trial"",""time""
""focus"",""0"",""0""
","""event"",""trial"",""time""
""fullscreenenter"",""0"",""4433""
","
","1405","run_exp/static/images/Set 6_rs/063a.jpg","86","","","","","","learn","SR",""
"","show_choice","131","183310","0.0-131.0","""event"",""trial"",""time""
""focus"",""0"",""0""
""fullscreenenter"",""0"",""4433""
","
","""event"",""trial"",""time""
""focus"",""0"",""0""
","""event"",""trial"",""time""
""fullscreenenter"",""0"",""4433""
","
","null","run_exp/static/images/Set 6_rs/063a.jpg","null","","","","","","learn","SR",""
"","html-keyboard-response","132","183826","0.0-132.0","""event"",""trial"",""time""
""focus"",""0"",""0""
""fullscreenenter"",""0"",""4433""
","
","""event"",""trial"",""time""
""focus"",""0"",""0""
","""event"",""trial"",""time""
""fullscreenenter"",""0"",""4433""
","
","null","<p></p>","null","","","","","","","",""
"","image","133","185187","0.0-133.0","""event"",""trial"",""time""
""focus"",""0"",""0""
""fullscreenenter"",""0"",""4433""
","
","""event"",""trial"",""time""
""focus"",""0"",""0""
","""event"",""trial"",""time""
""fullscreenenter"",""0"",""4433""
","
","1359","run_exp/static/images/Set 6_rs/070a.jpg","86","","","","","","learn","SR",""
"","show_choice","134","185843","0.0-134.0","""event"",""trial"",""time""
""focus"",""0"",""0""
""fullscreenenter"",""0"",""4433""
","
","""event"",""trial"",""time""
""focus"",""0"",""0""
","""event"",""trial"",""time""
""fullscreenenter"",""0"",""4433""
","
","null","run_exp/static/images/Set 6_rs/070a.jpg","null","","","","","","learn","SR",""
"","html-keyboard-response","135","186359","0.0-135.0","""event"",""trial"",""time""
""focus"",""0"",""0""
""fullscreenenter"",""0"",""4433""
","
","""event"",""trial"",""time""
""focus"",""0"",""0""
","""event"",""trial"",""time""
""fullscreenenter"",""0"",""4433""
","
","null","<p></p>","null","","","","","","","",""
"","image","136","187820","0.0-136.0","""event"",""trial"",""time""
""focus"",""0"",""0""
""fullscreenenter"",""0"",""4433""
","
","""event"",""trial"",""time""
""focus"",""0"",""0""
","""event"",""trial"",""time""
""fullscreenenter"",""0"",""4433""
","
","1459","run_exp/static/images/Set 6_rs/121a.jpg","78","","","","","","learn","SR",""
"","show_choice","137","188374","0.0-137.0","""event"",""trial"",""time""
""focus"",""0"",""0""
""fullscreenenter"",""0"",""4433""
","
","""event"",""trial"",""time""
""focus"",""0"",""0""
","""event"",""trial"",""time""
""fullscreenenter"",""0"",""4433""
","
","null","run_exp/static/images/Set 6_rs/121a.jpg","null","","","","","","learn","SR",""
"","html-keyboard-response","138","188874","0.0-138.0","""event"",""trial"",""time""
""focus"",""0"",""0""
""fullscreenenter"",""0"",""4433""
","
","""event"",""trial"",""time""
""focus"",""0"",""0""
","""event"",""trial"",""time""
""fullscreenenter"",""0"",""4433""
","
","null","<p></p>","null","","","","","","","",""
"","image","139","189961","0.0-139.0","""event"",""trial"",""time""
""focus"",""0"",""0""
""fullscreenenter"",""0"",""4433""
","
","""event"",""trial"",""time""
""focus"",""0"",""0""
","""event"",""trial"",""time""
""fullscreenenter"",""0"",""4433""
","
","1084","run_exp/static/images/Set 6_rs/186a.jpg","86","","","","","","learn","SR",""
"","show_choice","140","190882","0.0-140.0","""event"",""trial"",""time""
""focus"",""0"",""0""
""fullscreenenter"",""0"",""4433""
","
","""event"",""trial"",""time""
""focus"",""0"",""0""
","""event"",""trial"",""time""
""fullscreenenter"",""0"",""4433""
","
","null","run_exp/static/images/Set 6_rs/186a.jpg","null","","","","","","learn","SR",""
"","html-keyboard-response","141","191391","0.0-141.0","""event"",""trial"",""time""
""focus"",""0"",""0""
""fullscreenenter"",""0"",""4433""
","
","""event"",""trial"",""time""
""focus"",""0"",""0""
","""event"",""trial"",""time""
""fullscreenenter"",""0"",""4433""
","
","null","<p></p>","null","","","","","","","",""
"","image","142","192514","0.0-142.0","""event"",""trial"",""time""
""focus"",""0"",""0""
""fullscreenenter"",""0"",""4433""
","
","""event"",""trial"",""time""
""focus"",""0"",""0""
","""event"",""trial"",""time""
""fullscreenenter"",""0"",""4433""
","
","1119","run_exp/static/images/Set 6_rs/132a.jpg","78","","","","","","learn","SR",""
"","show_choice","143","193405","0.0-143.0","""event"",""trial"",""time""
""focus"",""0"",""0""
""fullscreenenter"",""0"",""4433""
","
","""event"",""trial"",""time""
""focus"",""0"",""0""
","""event"",""trial"",""time""
""fullscreenenter"",""0"",""4433""
","
","null","run_exp/static/images/Set 6_rs/132a.jpg","null","","","","","","learn","SR",""
"","html-keyboard-response","144","193921","0.0-144.0","""event"",""trial"",""time""
""focus"",""0"",""0""
""fullscreenenter"",""0"",""4433""
","
","""event"",""trial"",""time""
""focus"",""0"",""0""
","""event"",""trial"",""time""
""fullscreenenter"",""0"",""4433""
","
","null","<p></p>","null","","","","","","","",""
"","image","145","195420","0.0-145.0","""event"",""trial"",""time""
""focus"",""0"",""0""
""fullscreenenter"",""0"",""4433""
","
","""event"",""trial"",""time""
""focus"",""0"",""0""
","""event"",""trial"",""time""
""fullscreenenter"",""0"",""4433""
","
","1496","run_exp/static/images/Set 6_rs/144a.jpg","86","","","","","","learn","SL",""
"","show_choice","146","195938","0.0-146.0","""event"",""trial"",""time""
""focus"",""0"",""0""
""fullscreenenter"",""0"",""4433""
","
","""event"",""trial"",""time""
""focus"",""0"",""0""
","""event"",""trial"",""time""
""fullscreenenter"",""0"",""4433""
","
","null","run_exp/static/images/Set 6_rs/144a.jpg","null","","","","","","learn","SL",""
"","html-keyboard-response","147","196455","0.0-147.0","""event"",""trial"",""time""
""focus"",""0"",""0""
""fullscreenenter"",""0"",""4433""
","
","""event"",""trial"",""time""
""focus"",""0"",""0""
","""event"",""trial"",""time""
""fullscreenenter"",""0"",""4433""
","
","null","<p></p>","null","","","","","","","",""
"","image","148","197422","0.0-148.0","""event"",""trial"",""time""
""focus"",""0"",""0""
""fullscreenenter"",""0"",""4433""
","
","""event"",""trial"",""time""
""focus"",""0"",""0""
","""event"",""trial"",""time""
""fullscreenenter"",""0"",""4433""
","
","964","run_exp/static/images/Set 6_rs/172a.jpg","78","","","","","","learn","SR",""
"","show_choice","149","198471","0.0-149.0","""event"",""trial"",""time""
""focus"",""0"",""0""
""fullscreenenter"",""0"",""4433""
","
","""event"",""trial"",""time""
""focus"",""0"",""0""
","""event"",""trial"",""time""
""fullscreenenter"",""0"",""4433""
","
","null","run_exp/static/images/Set 6_rs/172a.jpg","null","","","","","","learn","SR",""
"","html-keyboard-response","150","198987","0.0-150.0","""event"",""trial"",""time""
""focus"",""0"",""0""
""fullscreenenter"",""0"",""4433""
","
","""event"",""trial"",""time""
""focus"",""0"",""0""
","""event"",""trial"",""time""
""fullscreenenter"",""0"",""4433""
","
","null","<p></p>","null","","","","","","","",""
"","image","151","200144","0.0-151.0","""event"",""trial"",""time""
""focus"",""0"",""0""
""fullscreenenter"",""0"",""4433""
","
","""event"",""trial"",""time""
""focus"",""0"",""0""
","""event"",""trial"",""time""
""fullscreenenter"",""0"",""4433""
","
","1154","run_exp/static/images/Set 6_rs/074a.jpg","78","","","","","","learn","SL",""
"","show_choice","152","201002","0.0-152.0","""event"",""trial"",""time""
""focus"",""0"",""0""
""fullscreenenter"",""0"",""4433""
","
","""event"",""trial"",""time""
""focus"",""0"",""0""
","""event"",""trial"",""time""
""fullscreenenter"",""0"",""4433""
","
","null","run_exp/static/images/Set 6_rs/074a.jpg","null","","","","","","learn","SL",""
"","html-keyboard-response","153","201519","0.0-153.0","""event"",""trial"",""time""
""focus"",""0"",""0""
""fullscreenenter"",""0"",""4433""
","
","""event"",""trial"",""time""
""focus"",""0"",""0""
","""event"",""trial"",""time""
""fullscreenenter"",""0"",""4433""
","
","null","<p></p>","null","","","","","","","",""
"","image","154","202525","0.0-154.0","""event"",""trial"",""time""
""focus"",""0"",""0""
""fullscreenenter"",""0"",""4433""
","
","""event"",""trial"",""time""
""focus"",""0"",""0""
","""event"",""trial"",""time""
""fullscreenenter"",""0"",""4433""
","
","1003","run_exp/static/images/Set 6_rs/006a.jpg","86","","","","","","learn","SL",""
"","show_choice","155","203532","0.0-155.0","""event"",""trial"",""time""
""focus"",""0"",""0""
""fullscreenenter"",""0"",""4433""
","
","""event"",""trial"",""time""
""focus"",""0"",""0""
","""event"",""trial"",""time""
""fullscreenenter"",""0"",""4433""
","
","null","run_exp/static/images/Set 6_rs/006a.jpg","null","","","","","","learn","SL",""
"","html-keyboard-response","156","204034","0.0-156.0","""event"",""trial"",""time""
""focus"",""0"",""0""
""fullscreenenter"",""0"",""4433""
","
","""event"",""trial"",""time""
""focus"",""0"",""0""
","""event"",""trial"",""time""
""fullscreenenter"",""0"",""4433""
","
","null","<p></p>","null","","","","","","","",""
"","image","157","205359","0.0-157.0","""event"",""trial"",""time""
""focus"",""0"",""0""
""fullscreenenter"",""0"",""4433""
","
","""event"",""trial"",""time""
""focus"",""0"",""0""
","""event"",""trial"",""time""
""fullscreenenter"",""0"",""4433""
","
","1322","run_exp/static/images/Set 6_rs/108a.jpg","78","","","","","","learn","SR",""
"","show_choice","158","206050","0.0-158.0","""event"",""trial"",""time""
""focus"",""0"",""0""
""fullscreenenter"",""0"",""4433""
","
","""event"",""trial"",""time""
""focus"",""0"",""0""
","""event"",""trial"",""time""
""fullscreenenter"",""0"",""4433""
","
","null","run_exp/static/images/Set 6_rs/108a.jpg","null","","","","","","learn","SR",""
"","html-keyboard-response","159","206565","0.0-159.0","""event"",""trial"",""time""
""focus"",""0"",""0""
""fullscreenenter"",""0"",""4433""
","
","""event"",""trial"",""time""
""focus"",""0"",""0""
","""event"",""trial"",""time""
""fullscreenenter"",""0"",""4433""
","
","null","<p></p>","null","","","","","","","",""
"","image","160","208276","0.0-160.0","""event"",""trial"",""time""
""focus"",""0"",""0""
""fullscreenenter"",""0"",""4433""
","
","""event"",""trial"",""time""
""focus"",""0"",""0""
","""event"",""trial"",""time""
""fullscreenenter"",""0"",""4433""
","
","1709","run_exp/static/images/Set 6_rs/177a.jpg","78","","","","","","learn","SR",""
"","show_choice","161","208582","0.0-161.0","""event"",""trial"",""time""
""focus"",""0"",""0""
""fullscreenenter"",""0"",""4433""
","
","""event"",""trial"",""time""
""focus"",""0"",""0""
","""event"",""trial"",""time""
""fullscreenenter"",""0"",""4433""
","
","null","run_exp/static/images/Set 6_rs/177a.jpg","null","","","","","","learn","SR",""
"","html-keyboard-response","162","209099","0.0-162.0","""event"",""trial"",""time""
""focus"",""0"",""0""
""fullscreenenter"",""0"",""4433""
","
","""event"",""trial"",""time""
""focus"",""0"",""0""
","""event"",""trial"",""time""
""fullscreenenter"",""0"",""4433""
","
","null","<p></p>","null","","","","","","","",""
"","image","163","210367","0.0-163.0","""event"",""trial"",""time""
""focus"",""0"",""0""
""fullscreenenter"",""0"",""4433""
","
","""event"",""trial"",""time""
""focus"",""0"",""0""
","""event"",""trial"",""time""
""fullscreenenter"",""0"",""4433""
","
","1267","run_exp/static/images/Set 6_rs/023a.jpg","86","","","","","","learn","SR",""
"","show_choice","164","211114","0.0-164.0","""event"",""trial"",""time""
""focus"",""0"",""0""
""fullscreenenter"",""0"",""4433""
","
","""event"",""trial"",""time""
""focus"",""0"",""0""
","""event"",""trial"",""time""
""fullscreenenter"",""0"",""4433""
","
","null","run_exp/static/images/Set 6_rs/023a.jpg","null","","","","","","learn","SR",""
"","html-keyboard-response","165","211631","0.0-165.0","""event"",""trial"",""time""
""focus"",""0"",""0""
""fullscreenenter"",""0"",""4433""
","
","""event"",""trial"",""time""
""focus"",""0"",""0""
","""event"",""trial"",""time""
""fullscreenenter"",""0"",""4433""
","
","null","<p></p>","null","","","","","","","",""
"","image","166","212971","0.0-166.0","""event"",""trial"",""time""
""focus"",""0"",""0""
""fullscreenenter"",""0"",""4433""
","
","""event"",""trial"",""time""
""focus"",""0"",""0""
","""event"",""trial"",""time""
""fullscreenenter"",""0"",""4433""
","
","1338","run_exp/static/images/Set 6_rs/154a.jpg","86","","","","","","learn","SR",""
"","show_choice","167","213646","0.0-167.0","""event"",""trial"",""time""
""focus"",""0"",""0""
""fullscreenenter"",""0"",""4433""
","
","""event"",""trial"",""time""
""focus"",""0"",""0""
","""event"",""trial"",""time""
""fullscreenenter"",""0"",""4433""
","
","null","run_exp/static/images/Set 6_rs/154a.jpg","null","","","","","","learn","SR",""
"","html-keyboard-response","168","214162","0.0-168.0","""event"",""trial"",""time""
""focus"",""0"",""0""
""fullscreenenter"",""0"",""4433""
","
","""event"",""trial"",""time""
""focus"",""0"",""0""
","""event"",""trial"",""time""
""fullscreenenter"",""0"",""4433""
","
","null","<p></p>","null","","","","","","","",""
"","image","169","215277","0.0-169.0","""event"",""trial"",""time""
""focus"",""0"",""0""
""fullscreenenter"",""0"",""4433""
","
","""event"",""trial"",""time""
""focus"",""0"",""0""
","""event"",""trial"",""time""
""fullscreenenter"",""0"",""4433""
","
","1111","run_exp/static/images/Set 6_rs/076a.jpg","86","","","","","","learn","SR",""
"","show_choice","170","216172","0.0-170.0","""event"",""trial"",""time""
""focus"",""0"",""0""
""fullscreenenter"",""0"",""4433""
","
","""event"",""trial"",""time""
""focus"",""0"",""0""
","""event"",""trial"",""time""
""fullscreenenter"",""0"",""4433""
","
","null","run_exp/static/images/Set 6_rs/076a.jpg","null","","","","","","learn","SR",""
"","html-keyboard-response","171","216679","0.0-171.0","""event"",""trial"",""time""
""focus"",""0"",""0""
""fullscreenenter"",""0"",""4433""
","
","""event"",""trial"",""time""
""focus"",""0"",""0""
","""event"",""trial"",""time""
""fullscreenenter"",""0"",""4433""
","
","null","<p></p>","null","","","","","","","",""
"","image","172","217679","0.0-172.0","""event"",""trial"",""time""
""focus"",""0"",""0""
""fullscreenenter"",""0"",""4433""
","
","""event"",""trial"",""time""
""focus"",""0"",""0""
","""event"",""trial"",""time""
""fullscreenenter"",""0"",""4433""
","
","1000","run_exp/static/images/Set 6_rs/014a.jpg","78","","","","","","learn","SL",""
"","show_choice","173","218694","0.0-173.0","""event"",""trial"",""time""
""focus"",""0"",""0""
""fullscreenenter"",""0"",""4433""
","
","""event"",""trial"",""time""
""focus"",""0"",""0""
","""event"",""trial"",""time""
""fullscreenenter"",""0"",""4433""
","
","null","run_exp/static/images/Set 6_rs/014a.jpg","null","","","","","","learn","SL",""
"","html-keyboard-response","174","219211","0.0-174.0","""event"",""trial"",""time""
""focus"",""0"",""0""
""fullscreenenter"",""0"",""4433""
","
","""event"",""trial"",""time""
""focus"",""0"",""0""
","""event"",""trial"",""time""
""fullscreenenter"",""0"",""4433""
","
","null","<p></p>","null","","","","","","","",""
"","image","175","220377","0.0-175.0","""event"",""trial"",""time""
""focus"",""0"",""0""
""fullscreenenter"",""0"",""4433""
","
","""event"",""trial"",""time""
""focus"",""0"",""0""
","""event"",""trial"",""time""
""fullscreenenter"",""0"",""4433""
","
","1163","run_exp/static/images/Set 6_rs/075a.jpg","86","","","","","","learn","SR",""
"","show_choice","176","221226","0.0-176.0","""event"",""trial"",""time""
""focus"",""0"",""0""
""fullscreenenter"",""0"",""4433""
","
","""event"",""trial"",""time""
""focus"",""0"",""0""
","""event"",""trial"",""time""
""fullscreenenter"",""0"",""4433""
","
","null","run_exp/static/images/Set 6_rs/075a.jpg","null","","","","","","learn","SR",""
"","html-keyboard-response","177","221742","0.0-177.0","""event"",""trial"",""time""
""focus"",""0"",""0""
""fullscreenenter"",""0"",""4433""
","
","""event"",""trial"",""time""
""focus"",""0"",""0""
","""event"",""trial"",""time""
""fullscreenenter"",""0"",""4433""
","
","null","<p></p>","null","","","","","","","",""
"","image","178","222884","0.0-178.0","""event"",""trial"",""time""
""focus"",""0"",""0""
""fullscreenenter"",""0"",""4433""
","
","""event"",""trial"",""time""
""focus"",""0"",""0""
","""event"",""trial"",""time""
""fullscreenenter"",""0"",""4433""
","
","1140","run_exp/static/images/Set 6_rs/134a.jpg","86","","","","","","learn","SR",""
"","show_choice","179","223759","0.0-179.0","""event"",""trial"",""time""
""focus"",""0"",""0""
""fullscreenenter"",""0"",""4433""
","
","""event"",""trial"",""time""
""focus"",""0"",""0""
","""event"",""trial"",""time""
""fullscreenenter"",""0"",""4433""
","
","null","run_exp/static/images/Set 6_rs/134a.jpg","null","","","","","","learn","SR",""
"","html-keyboard-response","180","224272","0.0-180.0","""event"",""trial"",""time""
""focus"",""0"",""0""
""fullscreenenter"",""0"",""4433""
","
","""event"",""trial"",""time""
""focus"",""0"",""0""
","""event"",""trial"",""time""
""fullscreenenter"",""0"",""4433""
","
","null","<p></p>","null","","","","","","","",""
"","image","181","225465","0.0-181.0","""event"",""trial"",""time""
""focus"",""0"",""0""
""fullscreenenter"",""0"",""4433""
","
","""event"",""trial"",""time""
""focus"",""0"",""0""
","""event"",""trial"",""time""
""fullscreenenter"",""0"",""4433""
","
","1190","run_exp/static/images/Set 6_rs/166a.jpg","78","","","","","","learn","SR",""
"","show_choice","182","226291","0.0-182.0","""event"",""trial"",""time""
""focus"",""0"",""0""
""fullscreenenter"",""0"",""4433""
","
","""event"",""trial"",""time""
""focus"",""0"",""0""
","""event"",""trial"",""time""
""fullscreenenter"",""0"",""4433""
","
","null","run_exp/static/images/Set 6_rs/166a.jpg","null","","","","","","learn","SR",""
"","html-keyboard-response","183","226808","0.0-183.0","""event"",""trial"",""time""
""focus"",""0"",""0""
""fullscreenenter"",""0"",""4433""
","
","""event"",""trial"",""time""
""focus"",""0"",""0""
","""event"",""trial"",""time""
""fullscreenenter"",""0"",""4433""
","
","null","<p></p>","null","","","","","","","",""
"","image","184","228276","0.0-184.0","""event"",""trial"",""time""
""focus"",""0"",""0""
""fullscreenenter"",""0"",""4433""
","
","""event"",""trial"",""time""
""focus"",""0"",""0""
","""event"",""trial"",""time""
""fullscreenenter"",""0"",""4433""
","
","1466","run_exp/static/images/Set 6_rs/191a.jpg","78","","","","","","learn","SL",""
"","show_choice","185","228824","0.0-185.0","""event"",""trial"",""time""
""focus"",""0"",""0""
""fullscreenenter"",""0"",""4433""
","
","""event"",""trial"",""time""
""focus"",""0"",""0""
","""event"",""trial"",""time""
""fullscreenenter"",""0"",""4433""
","
","null","run_exp/static/images/Set 6_rs/191a.jpg","null","","","","","","learn","SL",""
"","html-keyboard-response","186","229339","0.0-186.0","""event"",""trial"",""time""
""focus"",""0"",""0""
""fullscreenenter"",""0"",""4433""
","
","""event"",""trial"",""time""
""focus"",""0"",""0""
","""event"",""trial"",""time""
""fullscreenenter"",""0"",""4433""
","
","null","<p></p>","null","","","","","","","",""
"","image","187","230400","0.0-187.0","""event"",""trial"",""time""
""focus"",""0"",""0""
""fullscreenenter"",""0"",""4433""
","
","""event"",""trial"",""time""
""focus"",""0"",""0""
","""event"",""trial"",""time""
""fullscreenenter"",""0"",""4433""
","
","1058","run_exp/static/images/Set 6_rs/089a.jpg","86","","","","","","learn","SL",""
"","show_choice","188","231351","0.0-188.0","""event"",""trial"",""time""
""focus"",""0"",""0""
""fullscreenenter"",""0"",""4433""
","
","""event"",""trial"",""time""
""focus"",""0"",""0""
","""event"",""trial"",""time""
""fullscreenenter"",""0"",""4433""
","
","null","run_exp/static/images/Set 6_rs/089a.jpg","null","","","","","","learn","SL",""
"","html-keyboard-response","189","231854","0.0-189.0","""event"",""trial"",""time""
""focus"",""0"",""0""
""fullscreenenter"",""0"",""4433""
","
","""event"",""trial"",""time""
""focus"",""0"",""0""
","""event"",""trial"",""time""
""fullscreenenter"",""0"",""4433""
","
","null","<p></p>","null","","","","","","","",""
"","image","190","232936","0.0-190.0","""event"",""trial"",""time""
""focus"",""0"",""0""
""fullscreenenter"",""0"",""4433""
","
","""event"",""trial"",""time""
""focus"",""0"",""0""
","""event"",""trial"",""time""
""fullscreenenter"",""0"",""4433""
","
","1080","run_exp/static/images/Set 6_rs/073a.jpg","86","","","","","","learn","SL",""
"","show_choice","191","233871","0.0-191.0","""event"",""trial"",""time""
""focus"",""0"",""0""
""fullscreenenter"",""0"",""4433""
","
","""event"",""trial"",""time""
""focus"",""0"",""0""
","""event"",""trial"",""time""
""fullscreenenter"",""0"",""4433""
","
","null","run_exp/static/images/Set 6_rs/073a.jpg","null","","","","","","learn","SL",""
"","html-keyboard-response","192","234387","0.0-192.0","""event"",""trial"",""time""
""focus"",""0"",""0""
""fullscreenenter"",""0"",""4433""
","
","""event"",""trial"",""time""
""focus"",""0"",""0""
","""event"",""trial"",""time""
""fullscreenenter"",""0"",""4433""
","
","null","<p></p>","null","","","","","","","",""
"","image","193","235802","0.0-193.0","""event"",""trial"",""time""
""focus"",""0"",""0""
""fullscreenenter"",""0"",""4433""
","
","""event"",""trial"",""time""
""focus"",""0"",""0""
","""event"",""trial"",""time""
""fullscreenenter"",""0"",""4433""
","
","1411","run_exp/static/images/Set 6_rs/016a.jpg","86","","","","","","learn","SL",""
"","show_choice","194","236402","0.0-194.0","""event"",""trial"",""time""
""focus"",""0"",""0""
""fullscreenenter"",""0"",""4433""
","
","""event"",""trial"",""time""
""focus"",""0"",""0""
","""event"",""trial"",""time""
""fullscreenenter"",""0"",""4433""
","
","null","run_exp/static/images/Set 6_rs/016a.jpg","null","","","","","","learn","SL",""
"","html-keyboard-response","195","236914","0.0-195.0","""event"",""trial"",""time""
""focus"",""0"",""0""
""fullscreenenter"",""0"",""4433""
","
","""event"",""trial"",""time""
""focus"",""0"",""0""
","""event"",""trial"",""time""
""fullscreenenter"",""0"",""4433""
","
","null","<p></p>","null","","","","","","","",""
"","test_intro","196","274786","0.0-196.0","""event"",""trial"",""time""
""focus"",""0"",""0""
""fullscreenenter"",""0"",""4433""
","
","""event"",""trial"",""time""
""focus"",""0"",""0""
","""event"",""trial"",""time""
""fullscreenenter"",""0"",""4433""
","
","null","run_exp/static/audio/clip_2_memory.m4a","null","","","","","<div class='center'><p>Now, lets see how much you remember about the items you just saw.  For each item, you need to indicate if it was <b>old</b> by pressing the <b>v</b> key, <b>similar</b> by pressing the <b>b</b> key, or <b>new</b> by pressing the <b>n</b> key.</p><p>Old refers to an item that you saw before in the indoor/outdoor game that you just played, new refers to an item you have <b>not</b> seen before within the indoor/outdoor game, and similar refers to an item that is similar to an item youve seen before but is not exactly the same. </p><p>Before we begin, lets go over some brief demonstrations to make sure you understand.</p></div>","","",""
"","html-keyboard-response","197","309211","0.0-197.0","""event"",""trial"",""time""
""focus"",""0"",""0""
""fullscreenenter"",""0"",""4433""
","
","""event"",""trial"",""time""
""focus"",""0"",""0""
","""event"",""trial"",""time""
""fullscreenenter"",""0"",""4433""
","
","34422","<div class='center'><p>Now, lets see how much you remember about the items you just saw.  For each item, you need to indicate if it was <b>old</b> by pressing the <b>v</b> key, <b>similar</b> by pressing the <b>b</b> key, or <b>new</b> by pressing the <b>n</b> key.</p><p>Old refers to an item that you saw before in the indoor/outdoor game that you just played, new refers to an item you have <b>not</b> seen before within the indoor/outdoor game, and similar refers to an item that is similar to an item youve seen before but is not exactly the same. </p><p>Before we begin, lets go over some brief demonstrations to make sure you understand.</p><div><p><b>[Press the space bar to continue]</b></p></div>","32","","","","","","","",""
"","items","198","316715","0.0-198.0","""event"",""trial"",""time""
""focus"",""0"",""0""
""fullscreenenter"",""0"",""4433""
","
","""event"",""trial"",""time""
""focus"",""0"",""0""
","""event"",""trial"",""time""
""fullscreenenter"",""0"",""4433""
","
","null","run_exp/static/audio/clip_3_items.m4a","null","","","","","","","",""
"","mop","199","321231","0.0-199.0","""event"",""trial"",""time""
""focus"",""0"",""0""
""fullscreenenter"",""0"",""4433""
","
","""event"",""trial"",""time""
""focus"",""0"",""0""
","""event"",""trial"",""time""
""fullscreenenter"",""0"",""4433""
","
","null","run_exp/static/audio/clip_4_mop.m4a","null","","","","","","","",""
"","baseball","200","324745","0.0-200.0","""event"",""trial"",""time""
""focus"",""0"",""0""
""fullscreenenter"",""0"",""4433""
","
","""event"",""trial"",""time""
""focus"",""0"",""0""
","""event"",""trial"",""time""
""fullscreenenter"",""0"",""4433""
","
","null","run_exp/static/audio/clip_5_baseball.m4a","null","","","","","","","",""
"","trumpet","201","328261","0.0-201.0","""event"",""trial"",""time""
""focus"",""0"",""0""
""fullscreenenter"",""0"",""4433""
","
","""event"",""trial"",""time""
""focus"",""0"",""0""
","""event"",""trial"",""time""
""fullscreenenter"",""0"",""4433""
","
","null","run_exp/static/audio/clip_6_trumpet.m4a","null","","","","","","","",""
"","gummies","202","331776","0.0-202.0","""event"",""trial"",""time""
""focus"",""0"",""0""
""fullscreenenter"",""0"",""4433""
","
","""event"",""trial"",""time""
""focus"",""0"",""0""
","""event"",""trial"",""time""
""fullscreenenter"",""0"",""4433""
","
","null","run_exp/static/audio/clip_7_gummies.m4a","null","","","","","","","",""
"","osn","203","336290","0.0-203.0","""event"",""trial"",""time""
""focus"",""0"",""0""
""fullscreenenter"",""0"",""4433""
","
","""event"",""trial"",""time""
""focus"",""0"",""0""
","""event"",""trial"",""time""
""fullscreenenter"",""0"",""4433""
","
","null","run_exp/static/audio/clip_8_osn.m4a","null","","","","","","","",""
"","old_1","204","342807","0.0-204.0","""event"",""trial"",""time""
""focus"",""0"",""0""
""fullscreenenter"",""0"",""4433""
","
","""event"",""trial"",""time""
""focus"",""0"",""0""
","""event"",""trial"",""time""
""fullscreenenter"",""0"",""4433""
","
","null","run_exp/static/audio/clip_9_old_trumpet.m4a","null","","","","","","","",""
"","new_1","205","350318","0.0-205.0","""event"",""trial"",""time""
""focus"",""0"",""0""
""fullscreenenter"",""0"",""4433""
","
","""event"",""trial"",""time""
""focus"",""0"",""0""
","""event"",""trial"",""time""
""fullscreenenter"",""0"",""4433""
","
","null","run_exp/static/audio/clip_10_new_balloon.m4a","null","","","","","","","",""
"","similar_1a","206","354829","0.0-206.0","""event"",""trial"",""time""
""focus"",""0"",""0""
""fullscreenenter"",""0"",""4433""
","
","""event"",""trial"",""time""
""focus"",""0"",""0""
","""event"",""trial"",""time""
""fullscreenenter"",""0"",""4433""
","
","null","run_exp/static/audio/clip_11a_similar_mop.m4a","null","","","","","","","",""
"","similar_1b","207","361346","0.0-207.0","""event"",""trial"",""time""
""focus"",""0"",""0""
""fullscreenenter"",""0"",""4433""
","
","""event"",""trial"",""time""
""focus"",""0"",""0""
","""event"",""trial"",""time""
""fullscreenenter"",""0"",""4433""
","
","null","run_exp/static/audio/clip_11b_similar_mop.m4a","null","","","","","","","",""
"","new_2","208","364862","0.0-208.0","""event"",""trial"",""time""
""focus"",""0"",""0""
""fullscreenenter"",""0"",""4433""
","
","""event"",""trial"",""time""
""focus"",""0"",""0""
","""event"",""trial"",""time""
""fullscreenenter"",""0"",""4433""
","
","null","run_exp/static/audio/clip_12_new_stoplight.m4a","null","","","","","","","",""
"","old_2","209","368376","0.0-209.0","""event"",""trial"",""time""
""focus"",""0"",""0""
""fullscreenenter"",""0"",""4433""
","
","""event"",""trial"",""time""
""focus"",""0"",""0""
","""event"",""trial"",""time""
""fullscreenenter"",""0"",""4433""
","
","null","run_exp/static/audio/clip_13_old_baseball.m4a","null","","","","","","","",""
"","similar_2a","210","371891","0.0-210.0","""event"",""trial"",""time""
""focus"",""0"",""0""
""fullscreenenter"",""0"",""4433""
","
","""event"",""trial"",""time""
""focus"",""0"",""0""
","""event"",""trial"",""time""
""fullscreenenter"",""0"",""4433""
","
","null","run_exp/static/audio/clip_14a_similar_gummies.m4a","null","","","","","","","",""
"","similar_2b","211","379404","0.0-211.0","""event"",""trial"",""time""
""focus"",""0"",""0""
""fullscreenenter"",""0"",""4433""
","
","""event"",""trial"",""time""
""focus"",""0"",""0""
","""event"",""trial"",""time""
""fullscreenenter"",""0"",""4433""
","
","null","run_exp/static/audio/clip_14b_similar_gummies.m4a","null","","","","","","","",""
"","practice","212","422596","0.0-212.0","""event"",""trial"",""time""
""focus"",""0"",""0""
""fullscreenenter"",""0"",""4433""
","
","""event"",""trial"",""time""
""focus"",""0"",""0""
","""event"",""trial"",""time""
""fullscreenenter"",""0"",""4433""
","
","null","run_exp/static/audio/clip_15_practice.m4a","null","","","","","<div class='center'><p>Lets practice a little to make sure you understand the difference between new, similar, and old. Lets say you saw these three items in the indoor/outdoor game.</p><p> Try your best to remember these images because youll soon be tested on them in a practice game. In the practice game, youll be shown images and youll have to say if they are old (one of the three images belows), similar (similar to one of the images below but not exactly the same), or new (are not one of the images below nor similar to them).</p><p>Once you press the space bar youll be shown these images again but one at time. Then youll begin the practice game.</p><p><img src='run_exp/static/images/tutorial/test/three_indoor_outdoor.png' height='300'></p></div>","","",""
"","html-keyboard-response","213","422611","0.0-213.0","""event"",""trial"",""time""
""focus"",""0"",""0""
""fullscreenenter"",""0"",""4433""
","
","""event"",""trial"",""time""
""focus"",""0"",""0""
","""event"",""trial"",""time""
""fullscreenenter"",""0"",""4433""
","
","10","<div class='center'><p>Lets practice a little to make sure you understand the difference between new, similar, and old. Lets say you saw these three items in the indoor/outdoor game.</p><p> Try your best to remember these images because youll soon be tested on them in a practice game. In the practice game, youll be shown images and youll have to say if they are old (one of the three images belows), similar (similar to one of the images below but not exactly the same), or new (are not one of the images below nor similar to them).</p><p>Once you press the space bar youll be shown these images again but one at time. Then youll begin the practice game.</p><p><img src='run_exp/static/images/tutorial/test/three_indoor_outdoor.png' height='300'></p><div><p><b>[Press the space bar to continue]</b></p></div>","32","","","","","","","",""
"","planet","214","424618","0.0-214.0","""event"",""trial"",""time""
""focus"",""0"",""0""
""fullscreenenter"",""0"",""4433""
","
","""event"",""trial"",""time""
""focus"",""0"",""0""
","""event"",""trial"",""time""
""fullscreenenter"",""0"",""4433""
","
","null","run_exp/static/images/tutorial/test/008a.jpg","null","","","","","","","",""
"","boot","215","426631","0.0-215.0","""event"",""trial"",""time""
""focus"",""0"",""0""
""fullscreenenter"",""0"",""4433""
","
","""event"",""trial"",""time""
""focus"",""0"",""0""
","""event"",""trial"",""time""
""fullscreenenter"",""0"",""4433""
","
","null","run_exp/static/images/tutorial/test/011a.jpg","null","","","","","","","",""
"","lemon","216","428649","0.0-216.0","""event"",""trial"",""time""
""focus"",""0"",""0""
""fullscreenenter"",""0"",""4433""
","
","""event"",""trial"",""time""
""focus"",""0"",""0""
","""event"",""trial"",""time""
""fullscreenenter"",""0"",""4433""
","
","null","run_exp/static/images/tutorial/test/018a.jpg","null","","","","","","","",""
"","practice_q1","217","436636","0.0-217.0","""event"",""trial"",""time""
""focus"",""0"",""0""
""fullscreenenter"",""0"",""4433""
","
","""event"",""trial"",""time""
""focus"",""0"",""0""
","""event"",""trial"",""time""
""fullscreenenter"",""0"",""4433""
","
","7984","run_exp/static/audio/clip_16_practice_question.m4a","78","","","","","","","",""
"","correct","218","439632","0.0-218.0-0.0","""event"",""trial"",""time""
""focus"",""0"",""0""
""fullscreenenter"",""0"",""4433""
","
","""event"",""trial"",""time""
""focus"",""0"",""0""
","""event"",""trial"",""time""
""fullscreenenter"",""0"",""4433""
","
","null","run_exp/static/audio/clip_17_correct.m4a","null","","","","","<div class='center'><p>That's correct!</p></div>","","",""
"","html-keyboard-response","219","441171","0.0-218.0-1.0","""event"",""trial"",""time""
""focus"",""0"",""0""
""fullscreenenter"",""0"",""4433""
","
","""event"",""trial"",""time""
""focus"",""0"",""0""
","""event"",""trial"",""time""
""fullscreenenter"",""0"",""4433""
","
","1537","<div class='center'><p>That's correct!</p><div><p><b>[Press the space bar to continue]</b></p></div>","32","","","","","","","",""
"","practice_q2","220","444801","0.0-218.0-2.0","""event"",""trial"",""time""
""focus"",""0"",""0""
""fullscreenenter"",""0"",""4433""
","
","""event"",""trial"",""time""
""focus"",""0"",""0""
","""event"",""trial"",""time""
""fullscreenenter"",""0"",""4433""
","
","3625","run_exp/static/audio/clip_16_practice_question.m4a","86","","","","","","","",""
"","correct","221","447773","0.0-219.0-0.0","""event"",""trial"",""time""
""focus"",""0"",""0""
""fullscreenenter"",""0"",""4433""
","
","""event"",""trial"",""time""
""focus"",""0"",""0""
","""event"",""trial"",""time""
""fullscreenenter"",""0"",""4433""
","
","null","run_exp/static/audio/clip_17_correct.m4a","null","","","","","<div class='center'><p>That's correct!</p></div>","","",""
"","html-keyboard-response","222","449357","0.0-219.0-1.0","""event"",""trial"",""time""
""focus"",""0"",""0""
""fullscreenenter"",""0"",""4433""
","
","""event"",""trial"",""time""
""focus"",""0"",""0""
","""event"",""trial"",""time""
""fullscreenenter"",""0"",""4433""
","
","1581","<div class='center'><p>That's correct!</p><div><p><b>[Press the space bar to continue]</b></p></div>","32","","","","","","","",""
"","practice_q3","223","451007","0.0-219.0-2.0","""event"",""trial"",""time""
""focus"",""0"",""0""
""fullscreenenter"",""0"",""4433""
","
","""event"",""trial"",""time""
""focus"",""0"",""0""
","""event"",""trial"",""time""
""fullscreenenter"",""0"",""4433""
","
","1648","run_exp/static/audio/clip_16_practice_question.m4a","86","","","","","","","",""
"","incorrect_q3","224","454782","0.0-220.0-0.0","""event"",""trial"",""time""
""focus"",""0"",""0""
""fullscreenenter"",""0"",""4433""
","
","""event"",""trial"",""time""
""focus"",""0"",""0""
","""event"",""trial"",""time""
""fullscreenenter"",""0"",""4433""
","
","null","run_exp/static/audio/clip_20_incorrect_similar.m4a","null","","","","","<div class='center'><p>Thats incorrect. Its similar.</p><p><img src='run_exp/static/images/tutorial/test/boot_comparison.png' height='300'></p></div>","","",""
"","html-keyboard-response","225","455087","0.0-220.0-1.0","""event"",""trial"",""time""
""focus"",""0"",""0""
""fullscreenenter"",""0"",""4433""
","
","""event"",""trial"",""time""
""focus"",""0"",""0""
","""event"",""trial"",""time""
""fullscreenenter"",""0"",""4433""
","
","302","<div class='center'><p>Thats incorrect. Its similar.</p><p><img src='run_exp/static/images/tutorial/test/boot_comparison.png' height='300'></p><div><p><b>[Press the space bar to continue]</b></p></div>","32","","","","","","","",""
"","repeat","226","460894","0.0-221.0-0.0","""event"",""trial"",""time""
""focus"",""0"",""0""
""fullscreenenter"",""0"",""4433""
","
","""event"",""trial"",""time""
""focus"",""0"",""0""
","""event"",""trial"",""time""
""fullscreenenter"",""0"",""4433""
","
","null","run_exp/static/audio/clip_21_practice_again.m4a","null","","","","","<div class='center'><p>Oops. you missed at least one of these questions. Let's try practicing again. </p></div>","","",""
"","html-keyboard-response","227","461985","0.0-221.0-1.0","""event"",""trial"",""time""
""focus"",""0"",""0""
""fullscreenenter"",""0"",""4433""
","
","""event"",""trial"",""time""
""focus"",""0"",""0""
","""event"",""trial"",""time""
""fullscreenenter"",""0"",""4433""
","
","1089","<div class='center'><p>Oops. you missed at least one of these questions. Let's try practicing again. </p><div><p><b>[Press the space bar to continue]</b></p></div>","32","","","","","","","",""
"","practice_q1","228","463920","0.0-221.0-2.0","""event"",""trial"",""time""
""focus"",""0"",""0""
""fullscreenenter"",""0"",""4433""
","
","""event"",""trial"",""time""
""focus"",""0"",""0""
","""event"",""trial"",""time""
""fullscreenenter"",""0"",""4433""
","
","1933","run_exp/static/audio/clip_16_practice_question.m4a","78","","","","","","","",""
"","correct","229","466895","0.0-222.0-0.0","""event"",""trial"",""time""
""focus"",""0"",""0""
""fullscreenenter"",""0"",""4433""
","
","""event"",""trial"",""time""
""focus"",""0"",""0""
","""event"",""trial"",""time""
""fullscreenenter"",""0"",""4433""
","
","null","run_exp/static/audio/clip_17_correct.m4a","null","","","","","<div class='center'><p>That's correct!</p></div>","","",""
"","html-keyboard-response","230","467491","0.0-222.0-1.0","""event"",""trial"",""time""
""focus"",""0"",""0""
""fullscreenenter"",""0"",""4433""
","
","""event"",""trial"",""time""
""focus"",""0"",""0""
","""event"",""trial"",""time""
""fullscreenenter"",""0"",""4433""
","
","595","<div class='center'><p>That's correct!</p><div><p><b>[Press the space bar to continue]</b></p></div>","32","","","","","","","",""
"","practice_q2","231","471595","0.0-222.0-2.0","""event"",""trial"",""time""
""focus"",""0"",""0""
""fullscreenenter"",""0"",""4433""
","
","""event"",""trial"",""time""
""focus"",""0"",""0""
","""event"",""trial"",""time""
""fullscreenenter"",""0"",""4433""
","
","4102","run_exp/static/audio/clip_16_practice_question.m4a","86","","","","","","","",""
"","correct","232","474563","0.0-223.0-0.0","""event"",""trial"",""time""
""focus"",""0"",""0""
""fullscreenenter"",""0"",""4433""
","
","""event"",""trial"",""time""
""focus"",""0"",""0""
","""event"",""trial"",""time""
""fullscreenenter"",""0"",""4433""
","
","null","run_exp/static/audio/clip_17_correct.m4a","null","","","","","<div class='center'><p>That's correct!</p></div>","","",""
"","html-keyboard-response","233","475030","0.0-223.0-1.0","""event"",""trial"",""time""
""focus"",""0"",""0""
""fullscreenenter"",""0"",""4433""
","
","""event"",""trial"",""time""
""focus"",""0"",""0""
","""event"",""trial"",""time""
""fullscreenenter"",""0"",""4433""
","
","465","<div class='center'><p>That's correct!</p><div><p><b>[Press the space bar to continue]</b></p></div>","32","","","","","","","",""
"","practice_q3","234","476055","0.0-223.0-2.0","""event"",""trial"",""time""
""focus"",""0"",""0""
""fullscreenenter"",""0"",""4433""
","
","""event"",""trial"",""time""
""focus"",""0"",""0""
","""event"",""trial"",""time""
""fullscreenenter"",""0"",""4433""
","
","1021","run_exp/static/audio/clip_16_practice_question.m4a","66","","","","","","","",""
"","correct","235","479247","0.0-224.0-0.0","""event"",""trial"",""time""
""focus"",""0"",""0""
""fullscreenenter"",""0"",""4433""
","
","""event"",""trial"",""time""
""focus"",""0"",""0""
","""event"",""trial"",""time""
""fullscreenenter"",""0"",""4433""
","
","null","run_exp/static/audio/clip_17_correct.m4a","null","","","","","<div class='center'><p>That's correct!</p></div>","","",""
"","html-keyboard-response","236","481252","0.0-224.0-1.0","""event"",""trial"",""time""
""focus"",""0"",""0""
""fullscreenenter"",""0"",""4433""
","
","""event"",""trial"",""time""
""focus"",""0"",""0""
","""event"",""trial"",""time""
""fullscreenenter"",""0"",""4433""
","
","2002","<div class='center'><p>That's correct!</p><div><p><b>[Press the space bar to continue]</b></p></div>","32","","","","","","","",""
"","begin_text","237","500816","0.0-225.0-0.0","""event"",""trial"",""time""
""focus"",""0"",""0""
""fullscreenenter"",""0"",""4433""
","
","""event"",""trial"",""time""
""focus"",""0"",""0""
","""event"",""trial"",""time""
""fullscreenenter"",""0"",""4433""
","
","null","run_exp/static/audio/clip_22_begin_test.m4a","null","","","","","<div class='center'><p>On to the real game where well test your memory of items from the indoor/outdoor game. For each item, you need to indicate if the item is <b>old</b> by pressing the <b>v</b> key, <b>similar</b> by pressing the <b>b</b> key, or <b>new</b> by pressing the <b>n</b> key. </p></div>","","",""
"","html-keyboard-response","238","501448","0.0-225.0-1.0","""event"",""trial"",""time""
""focus"",""0"",""0""
""fullscreenenter"",""0"",""4433""
","
","""event"",""trial"",""time""
""focus"",""0"",""0""
","""event"",""trial"",""time""
""fullscreenenter"",""0"",""4433""
","
","629","<div class='center'><p>On to the real game where well test your memory of items from the indoor/outdoor game. For each item, you need to indicate if the item is <b>old</b> by pressing the <b>v</b> key, <b>similar</b> by pressing the <b>b</b> key, or <b>new</b> by pressing the <b>n</b> key. </p><div><p><b>[Press the space bar to continue]</b></p></div>","32","","","","","","","",""
"","image","239","502745","0.0-226.0-0.0","""event"",""trial"",""time""
""focus"",""0"",""0""
""fullscreenenter"",""0"",""4433""
","
","""event"",""trial"",""time""
""focus"",""0"",""0""
","""event"",""trial"",""time""
""fullscreenenter"",""0"",""4433""
","
","1294","run_exp/static/images/Set 6_rs/133a.jpg","86","","","","","","test","TF","4"
"","show_choice","240","503265","0.0-226.0-1.0","""event"",""trial"",""time""
""focus"",""0"",""0""
""fullscreenenter"",""0"",""4433""
","
","""event"",""trial"",""time""
""focus"",""0"",""0""
","""event"",""trial"",""time""
""fullscreenenter"",""0"",""4433""
","
","null","run_exp/static/images/Set 6_rs/133a.jpg","null","","","","","","test","TF",""
"","html-keyboard-response","241","503782","0.0-226.0-2.0","""event"",""trial"",""time""
""focus"",""0"",""0""
""fullscreenenter"",""0"",""4433""
","
","""event"",""trial"",""time""
""focus"",""0"",""0""
","""event"",""trial"",""time""
""fullscreenenter"",""0"",""4433""
","
","null","<p></p>","null","","","","","","","",""
"","image","242","505127","0.0-227.0-0.0","""event"",""trial"",""time""
""focus"",""0"",""0""
""fullscreenenter"",""0"",""4433""
","
","""event"",""trial"",""time""
""focus"",""0"",""0""
","""event"",""trial"",""time""
""fullscreenenter"",""0"",""4433""
","
","1342","run_exp/static/images/Set 6_rs/062b.jpg","86","","","","","","test","TL","1"
"","show_choice","243","505630","0.0-227.0-1.0","""event"",""trial"",""time""
""focus"",""0"",""0""
""fullscreenenter"",""0"",""4433""
","
","""event"",""trial"",""time""
""focus"",""0"",""0""
","""event"",""trial"",""time""
""fullscreenenter"",""0"",""4433""
","
","null","run_exp/static/images/Set 6_rs/062b.jpg","null","","","","","","test","TL",""
"","html-keyboard-response","244","506147","0.0-227.0-2.0","""event"",""trial"",""time""
""focus"",""0"",""0""
""fullscreenenter"",""0"",""4433""
","
","""event"",""trial"",""time""
""focus"",""0"",""0""
","""event"",""trial"",""time""
""fullscreenenter"",""0"",""4433""
","
","null","<p></p>","null","","","","","","","",""
"","image","245","507560","0.0-228.0-0.0","""event"",""trial"",""time""
""focus"",""0"",""0""
""fullscreenenter"",""0"",""4433""
","
","""event"",""trial"",""time""
""focus"",""0"",""0""
","""event"",""trial"",""time""
""fullscreenenter"",""0"",""4433""
","
","1412","run_exp/static/images/Set 6_rs/122a.jpg","86","","","","","","test","TR","5"
"","show_choice","246","508080","0.0-228.0-1.0","""event"",""trial"",""time""
""focus"",""0"",""0""
""fullscreenenter"",""0"",""4433""
","
","""event"",""trial"",""time""
""focus"",""0"",""0""
","""event"",""trial"",""time""
""fullscreenenter"",""0"",""4433""
","
","null","run_exp/static/images/Set 6_rs/122a.jpg","null","","","","","","test","TR",""
"","html-keyboard-response","247","508595","0.0-228.0-2.0","""event"",""trial"",""time""
""focus"",""0"",""0""
""fullscreenenter"",""0"",""4433""
","
","""event"",""trial"",""time""
""focus"",""0"",""0""
","""event"",""trial"",""time""
""fullscreenenter"",""0"",""4433""
","
","null","<p></p>","null","","","","","","","",""
"","image","248","509816","0.0-229.0-0.0","""event"",""trial"",""time""
""focus"",""0"",""0""
""fullscreenenter"",""0"",""4433""
","
","""event"",""trial"",""time""
""focus"",""0"",""0""
","""event"",""trial"",""time""
""fullscreenenter"",""0"",""4433""
","
","1217","run_exp/static/images/Set 6_rs/166a.jpg","86","","","","","","test","TR","1"
"","show_choice","249","510328","0.0-229.0-1.0","""event"",""trial"",""time""
""focus"",""0"",""0""
""fullscreenenter"",""0"",""4433""
","
","""event"",""trial"",""time""
""focus"",""0"",""0""
","""event"",""trial"",""time""
""fullscreenenter"",""0"",""4433""
","
","null","run_exp/static/images/Set 6_rs/166a.jpg","null","","","","","","test","TR",""
"","html-keyboard-response","250","510844","0.0-229.0-2.0","""event"",""trial"",""time""
""focus"",""0"",""0""
""fullscreenenter"",""0"",""4433""
","
","""event"",""trial"",""time""
""focus"",""0"",""0""
","""event"",""trial"",""time""
""fullscreenenter"",""0"",""4433""
","
","null","<p></p>","null","","","","","","","",""
"","image","251","512448","0.0-230.0-0.0","""event"",""trial"",""time""
""focus"",""0"",""0""
""fullscreenenter"",""0"",""4433""
","
","""event"",""trial"",""time""
""focus"",""0"",""0""
","""event"",""trial"",""time""
""fullscreenenter"",""0"",""4433""
","
","1602","run_exp/static/images/Set 6_rs/109a.jpg","78","","","","","","test","TF","5"
"","show_choice","252","512951","0.0-230.0-1.0","""event"",""trial"",""time""
""focus"",""0"",""0""
""fullscreenenter"",""0"",""4433""
","
","""event"",""trial"",""time""
""focus"",""0"",""0""
","""event"",""trial"",""time""
""fullscreenenter"",""0"",""4433""
","
","null","run_exp/static/images/Set 6_rs/109a.jpg","null","","","","","","test","TF",""
"","html-keyboard-response","253","513460","0.0-230.0-2.0","""event"",""trial"",""time""
""focus"",""0"",""0""
""fullscreenenter"",""0"",""4433""
","
","""event"",""trial"",""time""
""focus"",""0"",""0""
","""event"",""trial"",""time""
""fullscreenenter"",""0"",""4433""
","
","null","<p></p>","null","","","","","","","",""
"","image","254","514718","0.0-231.0-0.0","""event"",""trial"",""time""
""focus"",""0"",""0""
""fullscreenenter"",""0"",""4433""
","
","""event"",""trial"",""time""
""focus"",""0"",""0""
","""event"",""trial"",""time""
""fullscreenenter"",""0"",""4433""
","
","1256","run_exp/static/images/Set 6_rs/117b.jpg","66","","","","","","test","TL","5"
"","show_choice","255","515226","0.0-231.0-1.0","""event"",""trial"",""time""
""focus"",""0"",""0""
""fullscreenenter"",""0"",""4433""
","
","""event"",""trial"",""time""
""focus"",""0"",""0""
","""event"",""trial"",""time""
""fullscreenenter"",""0"",""4433""
","
","null","run_exp/static/images/Set 6_rs/117b.jpg","null","","","","","","test","TL",""
"","html-keyboard-response","256","515743","0.0-231.0-2.0","""event"",""trial"",""time""
""focus"",""0"",""0""
""fullscreenenter"",""0"",""4433""
","
","""event"",""trial"",""time""
""focus"",""0"",""0""
","""event"",""trial"",""time""
""fullscreenenter"",""0"",""4433""
","
","null","<p></p>","null","","","","","","","",""
"","image","257","516952","0.0-232.0-0.0","""event"",""trial"",""time""
""focus"",""0"",""0""
""fullscreenenter"",""0"",""4433""
","
","""event"",""trial"",""time""
""focus"",""0"",""0""
","""event"",""trial"",""time""
""fullscreenenter"",""0"",""4433""
","
","1208","run_exp/static/images/Set 6_rs/190a.jpg","86","","","","","","test","TF","3"
"","show_choice","258","517458","0.0-232.0-1.0","""event"",""trial"",""time""
""focus"",""0"",""0""
""fullscreenenter"",""0"",""4433""
","
","""event"",""trial"",""time""
""focus"",""0"",""0""
","""event"",""trial"",""time""
""fullscreenenter"",""0"",""4433""
","
","null","run_exp/static/images/Set 6_rs/190a.jpg","null","","","","","","test","TF",""
"","html-keyboard-response","259","517974","0.0-232.0-2.0","""event"",""trial"",""time""
""focus"",""0"",""0""
""fullscreenenter"",""0"",""4433""
","
","""event"",""trial"",""time""
""focus"",""0"",""0""
","""event"",""trial"",""time""
""fullscreenenter"",""0"",""4433""
","
","null","<p></p>","null","","","","","","","",""
"","image","260","519177","0.0-233.0-0.0","""event"",""trial"",""time""
""focus"",""0"",""0""
""fullscreenenter"",""0"",""4433""
","
","""event"",""trial"",""time""
""focus"",""0"",""0""
","""event"",""trial"",""time""
""fullscreenenter"",""0"",""4433""
","
","1201","run_exp/static/images/Set 6_rs/144b.jpg","86","","","","","","test","TL","4"
"","show_choice","261","519690","0.0-233.0-1.0","""event"",""trial"",""time""
""focus"",""0"",""0""
""fullscreenenter"",""0"",""4433""
","
","""event"",""trial"",""time""
""focus"",""0"",""0""
","""event"",""trial"",""time""
""fullscreenenter"",""0"",""4433""
","
","null","run_exp/static/images/Set 6_rs/144b.jpg","null","","","","","","test","TL",""
"","html-keyboard-response","262","520207","0.0-233.0-2.0","""event"",""trial"",""time""
""focus"",""0"",""0""
""fullscreenenter"",""0"",""4433""
","
","""event"",""trial"",""time""
""focus"",""0"",""0""
","""event"",""trial"",""time""
""fullscreenenter"",""0"",""4433""
","
","null","<p></p>","null","","","","","","","",""
"","image","263","521717","0.0-234.0-0.0","""event"",""trial"",""time""
""focus"",""0"",""0""
""fullscreenenter"",""0"",""4433""
","
","""event"",""trial"",""time""
""focus"",""0"",""0""
","""event"",""trial"",""time""
""fullscreenenter"",""0"",""4433""
","
","1508","run_exp/static/images/Set 6_rs/076a.jpg","86","","","","","","test","TR","4"
"","show_choice","264","522223","0.0-234.0-1.0","""event"",""trial"",""time""
""focus"",""0"",""0""
""fullscreenenter"",""0"",""4433""
","
","""event"",""trial"",""time""
""focus"",""0"",""0""
","""event"",""trial"",""time""
""fullscreenenter"",""0"",""4433""
","
","null","run_exp/static/images/Set 6_rs/076a.jpg","null","","","","","","test","TR",""
"","html-keyboard-response","265","522739","0.0-234.0-2.0","""event"",""trial"",""time""
""focus"",""0"",""0""
""fullscreenenter"",""0"",""4433""
","
","""event"",""trial"",""time""
""focus"",""0"",""0""
","""event"",""trial"",""time""
""fullscreenenter"",""0"",""4433""
","
","null","<p></p>","null","","","","","","","",""
"","image","266","524235","0.0-235.0-0.0","""event"",""trial"",""time""
""focus"",""0"",""0""
""fullscreenenter"",""0"",""4433""
","
","""event"",""trial"",""time""
""focus"",""0"",""0""
","""event"",""trial"",""time""
""fullscreenenter"",""0"",""4433""
","
","1494","run_exp/static/images/Set 6_rs/056a.jpg","66","","","","","","test","TF","3"
"","show_choice","267","524738","0.0-235.0-1.0","""event"",""trial"",""time""
""focus"",""0"",""0""
""fullscreenenter"",""0"",""4433""
","
","""event"",""trial"",""time""
""focus"",""0"",""0""
","""event"",""trial"",""time""
""fullscreenenter"",""0"",""4433""
","
","null","run_exp/static/images/Set 6_rs/056a.jpg","null","","","","","","test","TF",""
"","html-keyboard-response","268","525253","0.0-235.0-2.0","""event"",""trial"",""time""
""focus"",""0"",""0""
""fullscreenenter"",""0"",""4433""
","
","""event"",""trial"",""time""
""focus"",""0"",""0""
","""event"",""trial"",""time""
""fullscreenenter"",""0"",""4433""
","
","null","<p></p>","null","","","","","","","",""
"","image","269","527015","0.0-236.0-0.0","""event"",""trial"",""time""
""focus"",""0"",""0""
""fullscreenenter"",""0"",""4433""
","
","""event"",""trial"",""time""
""focus"",""0"",""0""
","""event"",""trial"",""time""
""fullscreenenter"",""0"",""4433""
","
","1759","run_exp/static/images/Set 6_rs/047a.jpg","86","","","","","","test","TF","3"
