"success","trial_type","trial_index","time_elapsed","internal_node_id","interactions","blur_events","focus_events","fullscreenenter_events","fullscreenexit_events","rt","stimulus","key_press","subject_id","participant_id","age","gender","prompt","phase","condition","lure_bin"
"true","fullscreen","0","10839","0.0-0.0","""event"",""trial"",""time""
""fullscreenenter"",""0"",""9858""
","
","
","""event"",""trial"",""time""
""fullscreenenter"",""0"",""9858""
","
","","","","","","","","","","",""
"","pavlovia","1","10846","0.0-1.0","""event"",""trial"",""time""
""fullscreenenter"",""0"",""9858""
","
","
","""event"",""trial"",""time""
""fullscreenenter"",""0"",""9858""
","
","","","","","","","","","","",""
"","welcome","2","45891","0.0-2.0","""event"",""trial"",""time""
""fullscreenenter"",""0"",""9858""
","
","
","""event"",""trial"",""time""
""fullscreenenter"",""0"",""9858""
","
","null","run_exp/static/audio/clip_1_welcome.m4a","null","838","601","9","Female","<div class='center'><p>Welcome to the third part of the study! First, you'll be shown pictures of items one at a time. For each picture, you have to decide if the item is typically found indoors or outdoors.</p><p>If you think it's usually found indoors, then press <b>v</b> key on your keyboard. If you think it's usually found outdoors, then press the <b>n</b> key.There will be reminders on the screen to help you remember which keys to press. </p><p>If you're not sure whether the item is an indoor item or an outdoor item, go ahead and take a guess but try your best not to skip that choice. </p></div>","","",""
"","html-keyboard-response","3","46294","0.0-3.0","""event"",""trial"",""time""
""fullscreenenter"",""0"",""9858""
","
","
","""event"",""trial"",""time""
""fullscreenenter"",""0"",""9858""
","
","400.10000002384186","<div class='center'><p>Welcome to the third part of the study! First, you'll be shown pictures of items one at a time. For each picture, you have to decide if the item is typically found indoors or outdoors.</p><p>If you think it's usually found indoors, then press <b>v</b> key on your keyboard. If you think it's usually found outdoors, then press the <b>n</b> key.There will be reminders on the screen to help you remember which keys to press. </p><p>If you're not sure whether the item is an indoor item or an outdoor item, go ahead and take a guess but try your best not to skip that choice. </p><div><p><b>[Press the space bar to continue]</b></p></div>","32","","","","","","","",""
"","image","4","47850","0.0-4.0","""event"",""trial"",""time""
""fullscreenenter"",""0"",""9858""
","
","
","""event"",""trial"",""time""
""fullscreenenter"",""0"",""9858""
","
","1553.7000000476837","run_exp/static/images/Set 6_rs/024a.jpg","78","","","","","","learn","SR",""
"","show_choice","5","48308","0.0-5.0","""event"",""trial"",""time""
""fullscreenenter"",""0"",""9858""
","
","
","""event"",""trial"",""time""
""fullscreenenter"",""0"",""9858""
","
","null","run_exp/static/images/Set 6_rs/024a.jpg","null","","","","","","learn","SR",""
"","html-keyboard-response","6","48828","0.0-6.0","""event"",""trial"",""time""
""fullscreenenter"",""0"",""9858""
","
","
","""event"",""trial"",""time""
""fullscreenenter"",""0"",""9858""
","
","null","<p></p>","null","","","","","","","",""
"","image","7","50801","0.0-7.0","""event"",""trial"",""time""
""fullscreenenter"",""0"",""9858""
","
","
","""event"",""trial"",""time""
""fullscreenenter"",""0"",""9858""
","
","1970.8999999761581","run_exp/static/images/Set 6_rs/006a.jpg","86","","","","","","learn","SL",""
"","show_choice","8","50838","0.0-8.0","""event"",""trial"",""time""
""fullscreenenter"",""0"",""9858""
","
","
","""event"",""trial"",""time""
""fullscreenenter"",""0"",""9858""
","
","null","run_exp/static/images/Set 6_rs/006a.jpg","null","","","","","","learn","SL",""
"","html-keyboard-response","9","51358","0.0-9.0","""event"",""trial"",""time""
""fullscreenenter"",""0"",""9858""
","
","
","""event"",""trial"",""time""
""fullscreenenter"",""0"",""9858""
","
","null","<p></p>","null","","","","","","","",""
"","image","10","52627","0.0-10.0","""event"",""trial"",""time""
""fullscreenenter"",""0"",""9858""
","
","
","""event"",""trial"",""time""
""fullscreenenter"",""0"",""9858""
","
","1267.1000000238419","run_exp/static/images/Set 6_rs/012a.jpg","86","","","","","","learn","SR",""
"","show_choice","11","53380","0.0-11.0","""event"",""trial"",""time""
""fullscreenenter"",""0"",""9858""
","
","
","""event"",""trial"",""time""
""fullscreenenter"",""0"",""9858""
","
","null","run_exp/static/images/Set 6_rs/012a.jpg","null","","","","","","learn","SR",""
"","html-keyboard-response","12","53901","0.0-12.0","""event"",""trial"",""time""
""fullscreenenter"",""0"",""9858""
","
","
","""event"",""trial"",""time""
""fullscreenenter"",""0"",""9858""
","
","null","<p></p>","null","","","","","","","",""
"","image","13","55697","0.0-13.0","""event"",""trial"",""time""
""fullscreenenter"",""0"",""9858""
","
","
","""event"",""trial"",""time""
""fullscreenenter"",""0"",""9858""
","
","1794.2999999523163","run_exp/static/images/Set 6_rs/138a.jpg","78","","","","","","learn","SL",""
"","show_choice","14","55910","0.0-14.0","""event"",""trial"",""time""
""fullscreenenter"",""0"",""9858""
","
","
","""event"",""trial"",""time""
""fullscreenenter"",""0"",""9858""
","
","null","run_exp/static/images/Set 6_rs/138a.jpg","null","","","","","","learn","SL",""
"","html-keyboard-response","15","56417","0.0-15.0","""event"",""trial"",""time""
""fullscreenenter"",""0"",""9858""
","
","
","""event"",""trial"",""time""
""fullscreenenter"",""0"",""9858""
","
","null","<p></p>","null","","","","","","","",""
"","image","16","57979","0.0-16.0","""event"",""trial"",""time""
""fullscreenenter"",""0"",""9858""
","
","
","""event"",""trial"",""time""
""fullscreenenter"",""0"",""9858""
","
","1560","run_exp/static/images/Set 6_rs/025a.jpg","86","","","","","","learn","SL",""
"","show_choice","17","58433","0.0-17.0","""event"",""trial"",""time""
""fullscreenenter"",""0"",""9858""
","
","
","""event"",""trial"",""time""
""fullscreenenter"",""0"",""9858""
","
","null","run_exp/static/images/Set 6_rs/025a.jpg","null","","","","","","learn","SL",""
"","html-keyboard-response","18","58946","0.0-18.0","""event"",""trial"",""time""
""fullscreenenter"",""0"",""9858""
","
","
","""event"",""trial"",""time""
""fullscreenenter"",""0"",""9858""
","
","null","<p></p>","null","","","","","","","",""
"","image","19","60010","0.0-19.0","""event"",""trial"",""time""
""fullscreenenter"",""0"",""9858""
","
","
","""event"",""trial"",""time""
""fullscreenenter"",""0"",""9858""
","
","1062.5","run_exp/static/images/Set 6_rs/088a.jpg","86","","","","","","learn","SR",""
"","show_choice","20","60956","0.0-20.0","""event"",""trial"",""time""
""fullscreenenter"",""0"",""9858""
","
","
","""event"",""trial"",""time""
""fullscreenenter"",""0"",""9858""
","
","null","run_exp/static/images/Set 6_rs/088a.jpg","null","","","","","","learn","SR",""
"","html-keyboard-response","21","61460","0.0-21.0","""event"",""trial"",""time""
""fullscreenenter"",""0"",""9858""
","
","
","""event"",""trial"",""time""
""fullscreenenter"",""0"",""9858""
","
","null","<p></p>","null","","","","","","","",""
"","image","22","62467","0.0-22.0","""event"",""trial"",""time""
""fullscreenenter"",""0"",""9858""
","
","
","""event"",""trial"",""time""
""fullscreenenter"",""0"",""9858""
","
","1005.3999999761581","run_exp/static/images/Set 6_rs/116a.jpg","78","","","","","","learn","SL",""
"","show_choice","23","63478","0.0-23.0","""event"",""trial"",""time""
""fullscreenenter"",""0"",""9858""
","
","
","""event"",""trial"",""time""
""fullscreenenter"",""0"",""9858""
","
","null","run_exp/static/images/Set 6_rs/116a.jpg","null","","","","","","learn","SL",""
"","html-keyboard-response","24","63996","0.0-24.0","""event"",""trial"",""time""
""fullscreenenter"",""0"",""9858""
","
","
","""event"",""trial"",""time""
""fullscreenenter"",""0"",""9858""
","
","null","<p></p>","null","","","","","","","",""
"","image","25","65111","0.0-25.0","""event"",""trial"",""time""
""fullscreenenter"",""0"",""9858""
","
","
","""event"",""trial"",""time""
""fullscreenenter"",""0"",""9858""
","
","1114.3000000715256","run_exp/static/images/Set 6_rs/122a.jpg","86","","","","","","learn","SR",""
"","show_choice","26","66004","0.0-26.0","""event"",""trial"",""time""
""fullscreenenter"",""0"",""9858""
","
","
","""event"",""trial"",""time""
""fullscreenenter"",""0"",""9858""
","
","null","run_exp/static/images/Set 6_rs/122a.jpg","null","","","","","","learn","SR",""
"","html-keyboard-response","27","66507","0.0-27.0","""event"",""trial"",""time""
""fullscreenenter"",""0"",""9858""
","
","
","""event"",""trial"",""time""
""fullscreenenter"",""0"",""9858""
","
","null","<p></p>","null","","","","","","","",""
"","image","28","67597","0.0-28.0","""event"",""trial"",""time""
""fullscreenenter"",""0"",""9858""
","
","
","""event"",""trial"",""time""
""fullscreenenter"",""0"",""9858""
","
","1088","run_exp/static/images/Set 6_rs/129a.jpg","86","","","","","","learn","SL",""
"","show_choice","29","68520","0.0-29.0","""event"",""trial"",""time""
""fullscreenenter"",""0"",""9858""
","
","
","""event"",""trial"",""time""
""fullscreenenter"",""0"",""9858""
","
","null","run_exp/static/images/Set 6_rs/129a.jpg","null","","","","","","learn","SL",""
"","html-keyboard-response","30","69025","0.0-30.0","""event"",""trial"",""time""
""fullscreenenter"",""0"",""9858""
","
","
","""event"",""trial"",""time""
""fullscreenenter"",""0"",""9858""
","
","null","<p></p>","null","","","","","","","",""
"","image","31","69932","0.0-31.0","""event"",""trial"",""time""
""fullscreenenter"",""0"",""9858""
","
","
","""event"",""trial"",""time""
""fullscreenenter"",""0"",""9858""
","
","904.7000000476837","run_exp/static/images/Set 6_rs/055a.jpg","86","","","","","","learn","SL",""
"","show_choice","32","71028","0.0-32.0","""event"",""trial"",""time""
""fullscreenenter"",""0"",""9858""
","
","
","""event"",""trial"",""time""
""fullscreenenter"",""0"",""9858""
","
","null","run_exp/static/images/Set 6_rs/055a.jpg","null","","","","","","learn","SL",""
"","html-keyboard-response","33","71535","0.0-33.0","""event"",""trial"",""time""
""fullscreenenter"",""0"",""9858""
","
","
","""event"",""trial"",""time""
""fullscreenenter"",""0"",""9858""
","
","null","<p></p>","null","","","","","","","",""
"","image","34","72973","0.0-34.0","""event"",""trial"",""time""
""fullscreenenter"",""0"",""9858""
","
","
","""event"",""trial"",""time""
""fullscreenenter"",""0"",""9858""
","
","1435.6999999284744","run_exp/static/images/Set 6_rs/066a.jpg","86","","","","","","learn","SL",""
"","show_choice","35","73547","0.0-35.0","""event"",""trial"",""time""
""fullscreenenter"",""0"",""9858""
","
","
","""event"",""trial"",""time""
""fullscreenenter"",""0"",""9858""
","
","null","run_exp/static/images/Set 6_rs/066a.jpg","null","","","","","","learn","SL",""
"","html-keyboard-response","36","74052","0.0-36.0","""event"",""trial"",""time""
""fullscreenenter"",""0"",""9858""
","
","
","""event"",""trial"",""time""
""fullscreenenter"",""0"",""9858""
","
","null","<p></p>","null","","","","","","","",""
"","image","37","75114","0.0-37.0","""event"",""trial"",""time""
""fullscreenenter"",""0"",""9858""
","
","
","""event"",""trial"",""time""
""fullscreenenter"",""0"",""9858""
","
","1059.7000000476837","run_exp/static/images/Set 6_rs/131a.jpg","86","","","","","","learn","SR",""
"","show_choice","38","76058","0.0-38.0","""event"",""trial"",""time""
""fullscreenenter"",""0"",""9858""
","
","
","""event"",""trial"",""time""
""fullscreenenter"",""0"",""9858""
","
","null","run_exp/static/images/Set 6_rs/131a.jpg","null","","","","","","learn","SR",""
"","html-keyboard-response","39","76565","0.0-39.0","""event"",""trial"",""time""
""fullscreenenter"",""0"",""9858""
","
","
","""event"",""trial"",""time""
""fullscreenenter"",""0"",""9858""
","
","null","<p></p>","null","","","","","","","",""
"","image","40","77722","0.0-40.0","""event"",""trial"",""time""
""fullscreenenter"",""0"",""9858""
","
","
","""event"",""trial"",""time""
""fullscreenenter"",""0"",""9858""
","
","1155.2999999523163","run_exp/static/images/Set 6_rs/074a.jpg","86","","","","","","learn","SL",""
"","show_choice","41","78578","0.0-41.0","""event"",""trial"",""time""
""fullscreenenter"",""0"",""9858""
","
","
","""event"",""trial"",""time""
""fullscreenenter"",""0"",""9858""
","
","null","run_exp/static/images/Set 6_rs/074a.jpg","null","","","","","","learn","SL",""
"","html-keyboard-response","42","79086","0.0-42.0","""event"",""trial"",""time""
""fullscreenenter"",""0"",""9858""
","
","
","""event"",""trial"",""time""
""fullscreenenter"",""0"",""9858""
","
","null","<p></p>","null","","","","","","","",""
"","image","43","79804","0.0-43.0","""event"",""trial"",""time""
""fullscreenenter"",""0"",""9858""
","
","
","""event"",""trial"",""time""
""fullscreenenter"",""0"",""9858""
","
","715.8999999761581","run_exp/static/images/Set 6_rs/112a.jpg","86","","","","","","learn","SR",""
"","show_choice","44","81091","0.0-44.0","""event"",""trial"",""time""
""fullscreenenter"",""0"",""9858""
","
","
","""event"",""trial"",""time""
""fullscreenenter"",""0"",""9858""
","
","null","run_exp/static/images/Set 6_rs/112a.jpg","null","","","","","","learn","SR",""
"","html-keyboard-response","45","81602","0.0-45.0","""event"",""trial"",""time""
""fullscreenenter"",""0"",""9858""
","
","
","""event"",""trial"",""time""
""fullscreenenter"",""0"",""9858""
","
","null","<p></p>","null","","","","","","","",""
"","image","46","82802","0.0-46.0","""event"",""trial"",""time""
""fullscreenenter"",""0"",""9858""
","
","
","""event"",""trial"",""time""
""fullscreenenter"",""0"",""9858""
","
","1198.3999999761581","run_exp/static/images/Set 6_rs/095a.jpg","86","","","","","","learn","SL",""
"","show_choice","47","83605","0.0-47.0","""event"",""trial"",""time""
""fullscreenenter"",""0"",""9858""
","
","
","""event"",""trial"",""time""
""fullscreenenter"",""0"",""9858""
","
","null","run_exp/static/images/Set 6_rs/095a.jpg","null","","","","","","learn","SL",""
"","html-keyboard-response","48","84109","0.0-48.0","""event"",""trial"",""time""
""fullscreenenter"",""0"",""9858""
","
","
","""event"",""trial"",""time""
""fullscreenenter"",""0"",""9858""
","
","null","<p></p>","null","","","","","","","",""
"","image","49","85195","0.0-49.0","""event"",""trial"",""time""
""fullscreenenter"",""0"",""9858""
","
","
","""event"",""trial"",""time""
""fullscreenenter"",""0"",""9858""
","
","1084.5999999046326","run_exp/static/images/Set 6_rs/141a.jpg","78","","","","","","learn","SR",""
"","show_choice","50","86119","0.0-50.0","""event"",""trial"",""time""
""fullscreenenter"",""0"",""9858""
","
","
","""event"",""trial"",""time""
""fullscreenenter"",""0"",""9858""
","
","null","run_exp/static/images/Set 6_rs/141a.jpg","null","","","","","","learn","SR",""
"","html-keyboard-response","51","86626","0.0-51.0","""event"",""trial"",""time""
""fullscreenenter"",""0"",""9858""
","
","
","""event"",""trial"",""time""
""fullscreenenter"",""0"",""9858""
","
","null","<p></p>","null","","","","","","","",""
"","image","52","88637","0.0-52.0","""event"",""trial"",""time""
""fullscreenenter"",""0"",""9858""
","
","
","""event"",""trial"",""time""
""fullscreenenter"",""0"",""9858""
","
","null","run_exp/static/images/Set 6_rs/126a.jpg","null","","","","","","learn","SR",""
"","show_choice","53","90643","0.0-53.0","""event"",""trial"",""time""
""fullscreenenter"",""0"",""9858""
","
","
","""event"",""trial"",""time""
""fullscreenenter"",""0"",""9858""
","
","null","run_exp/static/images/blank.png","null","","","","","","learn","SR",""
"","html-keyboard-response","54","91147","0.0-54.0","""event"",""trial"",""time""
""fullscreenenter"",""0"",""9858""
","
","
","""event"",""trial"",""time""
""fullscreenenter"",""0"",""9858""
","
","null","<p></p>","null","","","","","","","",""
"","image","55","92508","0.0-55.0","""event"",""trial"",""time""
""fullscreenenter"",""0"",""9858""
","
","
","""event"",""trial"",""time""
""fullscreenenter"",""0"",""9858""
","
","1359.1000000238419","run_exp/static/images/Set 6_rs/085a.jpg","78","","","","","","learn","SL",""
"","show_choice","56","93158","0.0-56.0","""event"",""trial"",""time""
""fullscreenenter"",""0"",""9858""
","
","
","""event"",""trial"",""time""
""fullscreenenter"",""0"",""9858""
","
","null","run_exp/static/images/Set 6_rs/085a.jpg","null","","","","","","learn","SL",""
"","html-keyboard-response","57","93660","0.0-57.0","""event"",""trial"",""time""
""fullscreenenter"",""0"",""9858""
","
","
","""event"",""trial"",""time""
""fullscreenenter"",""0"",""9858""
","
","null","<p></p>","null","","","","","","","",""
"","image","58","94669","0.0-58.0","""event"",""trial"",""time""
""fullscreenenter"",""0"",""9858""
","
","
","""event"",""trial"",""time""
""fullscreenenter"",""0"",""9858""
","
","1006.7999999523163","run_exp/static/images/Set 6_rs/117a.jpg","86","","","","","","learn","SL",""
"","show_choice","59","95672","0.0-59.0","""event"",""trial"",""time""
""fullscreenenter"",""0"",""9858""
","
","
","""event"",""trial"",""time""
""fullscreenenter"",""0"",""9858""
","
","null","run_exp/static/images/Set 6_rs/117a.jpg","null","","","","","","learn","SL",""
"","html-keyboard-response","60","96182","0.0-60.0","""event"",""trial"",""time""
""fullscreenenter"",""0"",""9858""
","
","
","""event"",""trial"",""time""
""fullscreenenter"",""0"",""9858""
","
","null","<p></p>","null","","","","","","","",""
"","image","61","97333","0.0-61.0","""event"",""trial"",""time""
""fullscreenenter"",""0"",""9858""
","
","
","""event"",""trial"",""time""
""fullscreenenter"",""0"",""9858""
","
","1150.3999999761581","run_exp/static/images/Set 6_rs/132a.jpg","86","","","","","","learn","SR",""
"","show_choice","62","98188","0.0-62.0","""event"",""trial"",""time""
""fullscreenenter"",""0"",""9858""
","
","
","""event"",""trial"",""time""
""fullscreenenter"",""0"",""9858""
","
","null","run_exp/static/images/Set 6_rs/132a.jpg","null","","","","","","learn","SR",""
"","html-keyboard-response","63","98701","0.0-63.0","""event"",""trial"",""time""
""fullscreenenter"",""0"",""9858""
","
","
","""event"",""trial"",""time""
""fullscreenenter"",""0"",""9858""
","
","null","<p></p>","null","","","","","","","",""
"","image","64","99832","0.0-64.0","""event"",""trial"",""time""
""fullscreenenter"",""0"",""9858""
","
","
","""event"",""trial"",""time""
""fullscreenenter"",""0"",""9858""
","
","1129.3999999761581","run_exp/static/images/Set 6_rs/181a.jpg","78","","","","","","learn","SL",""
"","show_choice","65","100707","0.0-65.0","""event"",""trial"",""time""
""fullscreenenter"",""0"",""9858""
","
","
","""event"",""trial"",""time""
""fullscreenenter"",""0"",""9858""
","
","null","run_exp/static/images/Set 6_rs/181a.jpg","null","","","","","","learn","SL",""
"","html-keyboard-response","66","101215","0.0-66.0","""event"",""trial"",""time""
""fullscreenenter"",""0"",""9858""
","
","
","""event"",""trial"",""time""
""fullscreenenter"",""0"",""9858""
","
","null","<p></p>","null","","","","","","","",""
"","image","67","102330","0.0-67.0","""event"",""trial"",""time""
""fullscreenenter"",""0"",""9858""
","
","
","""event"",""trial"",""time""
""fullscreenenter"",""0"",""9858""
","
","1113.3999999761581","run_exp/static/images/Set 6_rs/075a.jpg","86","","","","","","learn","SR",""
"","show_choice","68","103233","0.0-68.0","""event"",""trial"",""time""
""fullscreenenter"",""0"",""9858""
","
","
","""event"",""trial"",""time""
""fullscreenenter"",""0"",""9858""
","
","null","run_exp/static/images/Set 6_rs/075a.jpg","null","","","","","","learn","SR",""
"","html-keyboard-response","69","103749","0.0-69.0","""event"",""trial"",""time""
""fullscreenenter"",""0"",""9858""
","
","
","""event"",""trial"",""time""
""fullscreenenter"",""0"",""9858""
","
","null","<p></p>","null","","","","","","","",""
"","image","70","104759","0.0-70.0","""event"",""trial"",""time""
""fullscreenenter"",""0"",""9858""
","
","
","""event"",""trial"",""time""
""fullscreenenter"",""0"",""9858""
","
","1008.5","run_exp/static/images/Set 6_rs/134a.jpg","86","","","","","","learn","SR",""
"","show_choice","71","105754","0.0-71.0","""event"",""trial"",""time""
""fullscreenenter"",""0"",""9858""
","
","
","""event"",""trial"",""time""
""fullscreenenter"",""0"",""9858""
","
","null","run_exp/static/images/Set 6_rs/134a.jpg","null","","","","","","learn","SR",""
"","html-keyboard-response","72","106264","0.0-72.0","""event"",""trial"",""time""
""fullscreenenter"",""0"",""9858""
","
","
","""event"",""trial"",""time""
""fullscreenenter"",""0"",""9858""
","
","null","<p></p>","null","","","","","","","",""
"","image","73","107168","0.0-73.0","""event"",""trial"",""time""
""fullscreenenter"",""0"",""9858""
","
","
","""event"",""trial"",""time""
""fullscreenenter"",""0"",""9858""
","
","902.5","run_exp/static/images/Set 6_rs/150a.jpg","86","","","","","","learn","SR",""
"","show_choice","74","108268","0.0-74.0","""event"",""trial"",""time""
""fullscreenenter"",""0"",""9858""
","
","
","""event"",""trial"",""time""
""fullscreenenter"",""0"",""9858""
","
","null","run_exp/static/images/Set 6_rs/150a.jpg","null","","","","","","learn","SR",""
"","html-keyboard-response","75","108773","0.0-75.0","""event"",""trial"",""time""
""fullscreenenter"",""0"",""9858""
","
","
","""event"",""trial"",""time""
""fullscreenenter"",""0"",""9858""
","
","null","<p></p>","null","","","","","","","",""
"","image","76","109781","0.0-76.0","""event"",""trial"",""time""
""fullscreenenter"",""0"",""9858""
","
","
","""event"",""trial"",""time""
""fullscreenenter"",""0"",""9858""
","
","1006.5","run_exp/static/images/Set 6_rs/166a.jpg","86","","","","","","learn","SR",""
"","show_choice","77","110776","0.0-77.0","""event"",""trial"",""time""
""fullscreenenter"",""0"",""9858""
","
","
","""event"",""trial"",""time""
""fullscreenenter"",""0"",""9858""
","
","null","run_exp/static/images/Set 6_rs/166a.jpg","null","","","","","","learn","SR",""
"","html-keyboard-response","78","111277","0.0-78.0","""event"",""trial"",""time""
""fullscreenenter"",""0"",""9858""
","
","
","""event"",""trial"",""time""
""fullscreenenter"",""0"",""9858""
","
","null","<p></p>","null","","","","","","","",""
"","image","79","112664","0.0-79.0","""event"",""trial"",""time""
""fullscreenenter"",""0"",""9858""
","
","
","""event"",""trial"",""time""
""fullscreenenter"",""0"",""9858""
","
","1384.6000000238419","run_exp/static/images/Set 6_rs/061a.jpg","78","","","","","","learn","SR",""
"","show_choice","80","113288","0.0-80.0","""event"",""trial"",""time""
""fullscreenenter"",""0"",""9858""
","
","
","""event"",""trial"",""time""
""fullscreenenter"",""0"",""9858""
","
","null","run_exp/static/images/Set 6_rs/061a.jpg","null","","","","","","learn","SR",""
"","html-keyboard-response","81","113792","0.0-81.0","""event"",""trial"",""time""
""fullscreenenter"",""0"",""9858""
","
","
","""event"",""trial"",""time""
""fullscreenenter"",""0"",""9858""
","
","null","<p></p>","null","","","","","","","",""
"","image","82","115075","0.0-82.0","""event"",""trial"",""time""
""fullscreenenter"",""0"",""9858""
","
","
","""event"",""trial"",""time""
""fullscreenenter"",""0"",""9858""
","
","1281.1000000238419","run_exp/static/images/Set 6_rs/177a.jpg","78","","","","","","learn","SR",""
"","show_choice","83","115796","0.0-83.0","""event"",""trial"",""time""
""fullscreenenter"",""0"",""9858""
","
","
","""event"",""trial"",""time""
""fullscreenenter"",""0"",""9858""
","
","null","run_exp/static/images/Set 6_rs/177a.jpg","null","","","","","","learn","SR",""
"","html-keyboard-response","84","116310","0.0-84.0","""event"",""trial"",""time""
""fullscreenenter"",""0"",""9858""
","
","
","""event"",""trial"",""time""
""fullscreenenter"",""0"",""9858""
","
","null","<p></p>","null","","","","","","","",""
"","image","85","117444","0.0-85.0","""event"",""trial"",""time""
""fullscreenenter"",""0"",""9858""
","
","
","""event"",""trial"",""time""
""fullscreenenter"",""0"",""9858""
","
","1132.3999999761581","run_exp/static/images/Set 6_rs/152a.jpg","86","","","","","","learn","SR",""
"","show_choice","86","118318","0.0-86.0","""event"",""trial"",""time""
""fullscreenenter"",""0"",""9858""
","
","
","""event"",""trial"",""time""
""fullscreenenter"",""0"",""9858""
","
","null","run_exp/static/images/Set 6_rs/152a.jpg","null","","","","","","learn","SR",""
"","html-keyboard-response","87","118832","0.0-87.0","""event"",""trial"",""time""
""fullscreenenter"",""0"",""9858""
","
","
","""event"",""trial"",""time""
""fullscreenenter"",""0"",""9858""
","
","null","<p></p>","null","","","","","","","",""
"","image","88","120838","0.0-88.0","""event"",""trial"",""time""
""fullscreenenter"",""0"",""9858""
","
","
","""event"",""trial"",""time""
""fullscreenenter"",""0"",""9858""
","
","null","run_exp/static/images/Set 6_rs/062a.jpg","null","","","","","","learn","SL",""
"","show_choice","89","122846","0.0-89.0","""event"",""trial"",""time""
""fullscreenenter"",""0"",""9858""
","
","
","""event"",""trial"",""time""
""fullscreenenter"",""0"",""9858""
","
","null","run_exp/static/images/blank.png","null","","","","","","learn","SL",""
"","html-keyboard-response","90","123354","0.0-90.0","""event"",""trial"",""time""
""fullscreenenter"",""0"",""9858""
","
","
","""event"",""trial"",""time""
""fullscreenenter"",""0"",""9858""
","
","null","<p></p>","null","","","","","","","",""
"","image","91","124447","0.0-91.0","""event"",""trial"",""time""
""fullscreenenter"",""0"",""9858""
","
","
","""event"",""trial"",""time""
""fullscreenenter"",""0"",""9858""
","
","1091","run_exp/static/images/Set 6_rs/111a.jpg","86","","","","","","learn","SL",""
"","show_choice","92","125367","0.0-92.0","""event"",""trial"",""time""
""fullscreenenter"",""0"",""9858""
","
","
","""event"",""trial"",""time""
""fullscreenenter"",""0"",""9858""
","
","null","run_exp/static/images/Set 6_rs/111a.jpg","null","","","","","","learn","SL",""
"","html-keyboard-response","93","125871","0.0-93.0","""event"",""trial"",""time""
""fullscreenenter"",""0"",""9858""
","
","
","""event"",""trial"",""time""
""fullscreenenter"",""0"",""9858""
","
","null","<p></p>","null","","","","","","","",""
"","image","94","126960","0.0-94.0","""event"",""trial"",""time""
""fullscreenenter"",""0"",""9858""
","
","
","""event"",""trial"",""time""
""fullscreenenter"",""0"",""9858""
","
","1087","run_exp/static/images/Set 6_rs/010a.jpg","86","","","","","","learn","SR",""
"","show_choice","95","127884","0.0-95.0","""event"",""trial"",""time""
""fullscreenenter"",""0"",""9858""
","
","
","""event"",""trial"",""time""
""fullscreenenter"",""0"",""9858""
","
","null","run_exp/static/images/Set 6_rs/010a.jpg","null","","","","","","learn","SR",""
"","html-keyboard-response","96","128386","0.0-96.0","""event"",""trial"",""time""
""fullscreenenter"",""0"",""9858""
","
","
","""event"",""trial"",""time""
""fullscreenenter"",""0"",""9858""
","
","null","<p></p>","null","","","","","","","",""
"","image","97","130107","0.0-97.0","""event"",""trial"",""time""
""fullscreenenter"",""0"",""9858""
","
","
","""event"",""trial"",""time""
""fullscreenenter"",""0"",""9858""
","
","1719.3000000715256","run_exp/static/images/Set 6_rs/091a.jpg","86","","","","","","learn","SL",""
"","show_choice","98","130391","0.0-98.0","""event"",""trial"",""time""
""fullscreenenter"",""0"",""9858""
","
","
","""event"",""trial"",""time""
""fullscreenenter"",""0"",""9858""
","
","null","run_exp/static/images/Set 6_rs/091a.jpg","null","","","","","","learn","SL",""
"","html-keyboard-response","99","130893","0.0-99.0","""event"",""trial"",""time""
""fullscreenenter"",""0"",""9858""
","
","
","""event"",""trial"",""time""
""fullscreenenter"",""0"",""9858""
","
","null","<p></p>","null","","","","","","","",""
"","image","100","132086","0.0-100.0","""event"",""trial"",""time""
""fullscreenenter"",""0"",""9858""
","
","
","""event"",""trial"",""time""
""fullscreenenter"",""0"",""9858""
","
","1190.6999999284744","run_exp/static/images/Set 6_rs/064a.jpg","86","","","","","","learn","SR",""
"","show_choice","101","132902","0.0-101.0","""event"",""trial"",""time""
""fullscreenenter"",""0"",""9858""
","
","
","""event"",""trial"",""time""
""fullscreenenter"",""0"",""9858""
","
","null","run_exp/static/images/Set 6_rs/064a.jpg","null","","","","","","learn","SR",""
"","html-keyboard-response","102","133405","0.0-102.0","""event"",""trial"",""time""
""fullscreenenter"",""0"",""9858""
","
","
","""event"",""trial"",""time""
""fullscreenenter"",""0"",""9858""
","
","null","<p></p>","null","","","","","","","",""
"","image","103","134985","0.0-103.0","""event"",""trial"",""time""
""fullscreenenter"",""0"",""9858""
","
","
","""event"",""trial"",""time""
""fullscreenenter"",""0"",""9858""
","
","1578.2999999523163","run_exp/static/images/Set 6_rs/191a.jpg","78","","","","","","learn","SL",""
"","show_choice","104","135417","0.0-104.0","""event"",""trial"",""time""
""fullscreenenter"",""0"",""9858""
","
","
","""event"",""trial"",""time""
""fullscreenenter"",""0"",""9858""
","
","null","run_exp/static/images/Set 6_rs/191a.jpg","null","","","","","","learn","SL",""
"","html-keyboard-response","105","135928","0.0-105.0","""event"",""trial"",""time""
""fullscreenenter"",""0"",""9858""
","
","
","""event"",""trial"",""time""
""fullscreenenter"",""0"",""9858""
","
","null","<p></p>","null","","","","","","","",""
"","image","106","137142","0.0-106.0","""event"",""trial"",""time""
""fullscreenenter"",""0"",""9858""
","
","
","""event"",""trial"",""time""
""fullscreenenter"",""0"",""9858""
","
","1212.1000000238419","run_exp/static/images/Set 6_rs/076a.jpg","78","","","","","","learn","SR",""
"","show_choice","107","137936","0.0-107.0","""event"",""trial"",""time""
""fullscreenenter"",""0"",""9858""
","
","
","""event"",""trial"",""time""
""fullscreenenter"",""0"",""9858""
","
","null","run_exp/static/images/Set 6_rs/076a.jpg","null","","","","","","learn","SR",""
"","html-keyboard-response","108","138445","0.0-108.0","""event"",""trial"",""time""
""fullscreenenter"",""0"",""9858""
","
","
","""event"",""trial"",""time""
""fullscreenenter"",""0"",""9858""
","
","null","<p></p>","null","","","","","","","",""
"","image","109","139352","0.0-109.0","""event"",""trial"",""time""
""fullscreenenter"",""0"",""9858""
","
","
","""event"",""trial"",""time""
""fullscreenenter"",""0"",""9858""
","
","905.2000000476837","run_exp/static/images/Set 6_rs/178a.jpg","86","","","","","","learn","SR",""
"","show_choice","110","140456","0.0-110.0","""event"",""trial"",""time""
""fullscreenenter"",""0"",""9858""
","
","
","""event"",""trial"",""time""
""fullscreenenter"",""0"",""9858""
","
","null","run_exp/static/images/Set 6_rs/178a.jpg","null","","","","","","learn","SR",""
"","html-keyboard-response","111","140958","0.0-111.0","""event"",""trial"",""time""
""fullscreenenter"",""0"",""9858""
","
","
","""event"",""trial"",""time""
""fullscreenenter"",""0"",""9858""
","
","null","<p></p>","null","","","","","","","",""
"","image","112","142479","0.0-112.0","""event"",""trial"",""time""
""fullscreenenter"",""0"",""9858""
","
","
","""event"",""trial"",""time""
""fullscreenenter"",""0"",""9858""
","
","1518.5999999046326","run_exp/static/images/Set 6_rs/108a.jpg","78","","","","","","learn","SR",""
"","show_choice","113","142973","0.0-113.0","""event"",""trial"",""time""
""fullscreenenter"",""0"",""9858""
","
","
","""event"",""trial"",""time""
""fullscreenenter"",""0"",""9858""
","
","null","run_exp/static/images/Set 6_rs/108a.jpg","null","","","","","","learn","SR",""
"","html-keyboard-response","114","143476","0.0-114.0","""event"",""trial"",""time""
""fullscreenenter"",""0"",""9858""
","
","
","""event"",""trial"",""time""
""fullscreenenter"",""0"",""9858""
","
","null","<p></p>","null","","","","","","","",""
"","image","115","144417","0.0-115.0","""event"",""trial"",""time""
""fullscreenenter"",""0"",""9858""
","
","
","""event"",""trial"",""time""
""fullscreenenter"",""0"",""9858""
","
","939.8000000715256","run_exp/static/images/Set 6_rs/169a.jpg","78","","","","","","learn","SR",""
"","show_choice","116","145488","0.0-116.0","""event"",""trial"",""time""
""fullscreenenter"",""0"",""9858""
","
","
","""event"",""trial"",""time""
""fullscreenenter"",""0"",""9858""
","
","null","run_exp/static/images/Set 6_rs/169a.jpg","null","","","","","","learn","SR",""
"","html-keyboard-response","117","145990","0.0-117.0","""event"",""trial"",""time""
""fullscreenenter"",""0"",""9858""
","
","
","""event"",""trial"",""time""
""fullscreenenter"",""0"",""9858""
","
","null","<p></p>","null","","","","","","","",""
"","image","118","146927","0.0-118.0","""event"",""trial"",""time""
""fullscreenenter"",""0"",""9858""
","
","
","""event"",""trial"",""time""
""fullscreenenter"",""0"",""9858""
","
","935.1999999284744","run_exp/static/images/Set 6_rs/017a.jpg","78","","","","","","learn","SL",""
"","show_choice","119","148005","0.0-119.0","""event"",""trial"",""time""
""fullscreenenter"",""0"",""9858""
","
","
","""event"",""trial"",""time""
""fullscreenenter"",""0"",""9858""
","
","null","run_exp/static/images/Set 6_rs/017a.jpg","null","","","","","","learn","SL",""
"","html-keyboard-response","120","148517","0.0-120.0","""event"",""trial"",""time""
""fullscreenenter"",""0"",""9858""
","
","
","""event"",""trial"",""time""
""fullscreenenter"",""0"",""9858""
","
","null","<p></p>","null","","","","","","","",""
"","image","121","149461","0.0-121.0","""event"",""trial"",""time""
""fullscreenenter"",""0"",""9858""
","
","
","""event"",""trial"",""time""
""fullscreenenter"",""0"",""9858""
","
","942.3999999761581","run_exp/static/images/Set 6_rs/016a.jpg","86","","","","","","learn","SL",""
"","show_choice","122","150525","0.0-122.0","""event"",""trial"",""time""
""fullscreenenter"",""0"",""9858""
","
","
","""event"",""trial"",""time""
""fullscreenenter"",""0"",""9858""
","
","null","run_exp/static/images/Set 6_rs/016a.jpg","null","","","","","","learn","SL",""
"","html-keyboard-response","123","151037","0.0-123.0","""event"",""trial"",""time""
""fullscreenenter"",""0"",""9858""
","
","
","""event"",""trial"",""time""
""fullscreenenter"",""0"",""9858""
","
","null","<p></p>","null","","","","","","","",""
"","image","124","152266","0.0-124.0","""event"",""trial"",""time""
""fullscreenenter"",""0"",""9858""
","
","
","""event"",""trial"",""time""
""fullscreenenter"",""0"",""9858""
","
","1228.1000000238419","run_exp/static/images/Set 6_rs/045a.jpg","78","","","","","","learn","SR",""
"","show_choice","125","153043","0.0-125.0","""event"",""trial"",""time""
""fullscreenenter"",""0"",""9858""
","
","
","""event"",""trial"",""time""
""fullscreenenter"",""0"",""9858""
","
","null","run_exp/static/images/Set 6_rs/045a.jpg","null","","","","","","learn","SR",""
"","html-keyboard-response","126","153546","0.0-126.0","""event"",""trial"",""time""
""fullscreenenter"",""0"",""9858""
","
","
","""event"",""trial"",""time""
""fullscreenenter"",""0"",""9858""
","
","null","<p></p>","null","","","","","","","",""
"","image","127","155101","0.0-127.0","""event"",""trial"",""time""
""fullscreenenter"",""0"",""9858""
","
","
","""event"",""trial"",""time""
""fullscreenenter"",""0"",""9858""
","
","1553.5","run_exp/static/images/Set 6_rs/121a.jpg","86","","","","","","learn","SR",""
"","show_choice","128","155550","0.0-128.0","""event"",""trial"",""time""
""fullscreenenter"",""0"",""9858""
","
","
","""event"",""trial"",""time""
""fullscreenenter"",""0"",""9858""
","
","null","run_exp/static/images/Set 6_rs/121a.jpg","null","","","","","","learn","SR",""
"","html-keyboard-response","129","156062","0.0-129.0","""event"",""trial"",""time""
""fullscreenenter"",""0"",""9858""
","
","
","""event"",""trial"",""time""
""fullscreenenter"",""0"",""9858""
","
","null","<p></p>","null","","","","","","","",""
"","image","130","158010","0.0-130.0","""event"",""trial"",""time""
""fullscreenenter"",""0"",""9858""
","
","
","""event"",""trial"",""time""
""fullscreenenter"",""0"",""9858""
","
","1946.8999999761581","run_exp/static/images/Set 6_rs/050a.jpg","86","","","","","","learn","SL",""
"","show_choice","131","158067","0.0-131.0","""event"",""trial"",""time""
""fullscreenenter"",""0"",""9858""
","
","
","""event"",""trial"",""time""
""fullscreenenter"",""0"",""9858""
","
","null","run_exp/static/images/Set 6_rs/050a.jpg","null","","","","","","learn","SL",""
"","html-keyboard-response","132","158578","0.0-132.0","""event"",""trial"",""time""
""fullscreenenter"",""0"",""9858""
","
","
","""event"",""trial"",""time""
""fullscreenenter"",""0"",""9858""
","
","null","<p></p>","null","","","","","","","",""
"","image","133","159521","0.0-133.0","""event"",""trial"",""time""
""fullscreenenter"",""0"",""9858""
","
","
","""event"",""trial"",""time""
""fullscreenenter"",""0"",""9858""
","
","940.6000000238419","run_exp/static/images/Set 6_rs/144a.jpg","86","","","","","","learn","SL",""
"","show_choice","134","160588","0.0-134.0","""event"",""trial"",""time""
""fullscreenenter"",""0"",""9858""
","
","
","""event"",""trial"",""time""
""fullscreenenter"",""0"",""9858""
","
","null","run_exp/static/images/Set 6_rs/144a.jpg","null","","","","","","learn","SL",""
"","html-keyboard-response","135","161092","0.0-135.0","""event"",""trial"",""time""
""fullscreenenter"",""0"",""9858""
","
","
","""event"",""trial"",""time""
""fullscreenenter"",""0"",""9858""
","
","null","<p></p>","null","","","","","","","",""
"","image","136","162637","0.0-136.0","""event"",""trial"",""time""
""fullscreenenter"",""0"",""9858""
","
","
","""event"",""trial"",""time""
""fullscreenenter"",""0"",""9858""
","
","1542.8000000715256","run_exp/static/images/Set 6_rs/019a.jpg","86","","","","","","learn","SL",""
"","show_choice","137","163109","0.0-137.0","""event"",""trial"",""time""
""fullscreenenter"",""0"",""9858""
","
","
","""event"",""trial"",""time""
""fullscreenenter"",""0"",""9858""
","
","null","run_exp/static/images/Set 6_rs/019a.jpg","null","","","","","","learn","SL",""
"","html-keyboard-response","138","163612","0.0-138.0","""event"",""trial"",""time""
""fullscreenenter"",""0"",""9858""
","
","
","""event"",""trial"",""time""
""fullscreenenter"",""0"",""9858""
","
","null","<p></p>","null","","","","","","","",""
"","image","139","165156","0.0-139.0","""event"",""trial"",""time""
""fullscreenenter"",""0"",""9858""
","
","
","""event"",""trial"",""time""
""fullscreenenter"",""0"",""9858""
","
","1542.3000000715256","run_exp/static/images/Set 6_rs/154a.jpg","78","","","","","","learn","SR",""
"","show_choice","140","165614","0.0-140.0","""event"",""trial"",""time""
""fullscreenenter"",""0"",""9858""
","
","
","""event"",""trial"",""time""
""fullscreenenter"",""0"",""9858""
","
","null","run_exp/static/images/Set 6_rs/154a.jpg","null","","","","","","learn","SR",""
"","html-keyboard-response","141","166135","0.0-141.0","""event"",""trial"",""time""
""fullscreenenter"",""0"",""9858""
","
","
","""event"",""trial"",""time""
""fullscreenenter"",""0"",""9858""
","
","null","<p></p>","null","","","","","","","",""
"","image","142","168138","0.0-142.0","""event"",""trial"",""time""
""fullscreenenter"",""0"",""9858""
","
","
","""event"",""trial"",""time""
""fullscreenenter"",""0"",""9858""
","
","null","run_exp/static/images/Set 6_rs/089a.jpg","null","","","","","","learn","SL",""
"","show_choice","143","170141","0.0-143.0","""event"",""trial"",""time""
""fullscreenenter"",""0"",""9858""
","
","
","""event"",""trial"",""time""
""fullscreenenter"",""0"",""9858""
","
","null","run_exp/static/images/blank.png","null","","","","","","learn","SL",""
"","html-keyboard-response","144","170650","0.0-144.0","""event"",""trial"",""time""
""fullscreenenter"",""0"",""9858""
","
","
","""event"",""trial"",""time""
""fullscreenenter"",""0"",""9858""
","
","null","<p></p>","null","","","","","","","",""
"","image","145","171555","0.0-145.0","""event"",""trial"",""time""
""fullscreenenter"",""0"",""9858""
","
","
","""event"",""trial"",""time""
""fullscreenenter"",""0"",""9858""
","
","903","run_exp/static/images/Set 6_rs/036a.jpg","86","","","","","","learn","SL",""
"","show_choice","146","172665","0.0-146.0","""event"",""trial"",""time""
""fullscreenenter"",""0"",""9858""
","
","
","""event"",""trial"",""time""
""fullscreenenter"",""0"",""9858""
","
","null","run_exp/static/images/Set 6_rs/036a.jpg","null","","","","","","learn","SL",""
"","html-keyboard-response","147","173178","0.0-147.0","""event"",""trial"",""time""
""fullscreenenter"",""0"",""9858""
","
","
","""event"",""trial"",""time""
""fullscreenenter"",""0"",""9858""
","
","null","<p></p>","null","","","","","","","",""
"","image","148","174165","0.0-148.0","""event"",""trial"",""time""
""fullscreenenter"",""0"",""9858""
","
","
","""event"",""trial"",""time""
""fullscreenenter"",""0"",""9858""
","
","990.6999999284744","run_exp/static/images/Set 6_rs/057a.jpg","86","","","","","","learn","SL",""
"","show_choice","149","175184","0.0-149.0","""event"",""trial"",""time""
""fullscreenenter"",""0"",""9858""
","
","
","""event"",""trial"",""time""
""fullscreenenter"",""0"",""9858""
","
","null","run_exp/static/images/Set 6_rs/057a.jpg","null","","","","","","learn","SL",""
"","html-keyboard-response","150","175686","0.0-150.0","""event"",""trial"",""time""
""fullscreenenter"",""0"",""9858""
","
","
","""event"",""trial"",""time""
""fullscreenenter"",""0"",""9858""
","
","null","<p></p>","null","","","","","","","",""
"","image","151","176453","0.0-151.0","""event"",""trial"",""time""
""fullscreenenter"",""0"",""9858""
","
","
","""event"",""trial"",""time""
""fullscreenenter"",""0"",""9858""
","
","764.7000000476837","run_exp/static/images/Set 6_rs/172a.jpg","78","","","","","","learn","SR",""
"","show_choice","152","177699","0.0-152.0","""event"",""trial"",""time""
""fullscreenenter"",""0"",""9858""
","
","
","""event"",""trial"",""time""
""fullscreenenter"",""0"",""9858""
","
","null","run_exp/static/images/Set 6_rs/172a.jpg","null","","","","","","learn","SR",""
"","html-keyboard-response","153","178201","0.0-153.0","""event"",""trial"",""time""
""fullscreenenter"",""0"",""9858""
","
","
","""event"",""trial"",""time""
""fullscreenenter"",""0"",""9858""
","
","null","<p></p>","null","","","","","","","",""
"","image","154","179228","0.0-154.0","""event"",""trial"",""time""
""fullscreenenter"",""0"",""9858""
","
","
","""event"",""trial"",""time""
""fullscreenenter"",""0"",""9858""
","
","1025.3999999761581","run_exp/static/images/Set 6_rs/079a.jpg","86","","","","","","learn","SL",""
"","show_choice","155","180209","0.0-155.0","""event"",""trial"",""time""
""fullscreenenter"",""0"",""9858""
","
","
","""event"",""trial"",""time""
""fullscreenenter"",""0"",""9858""
","
","null","run_exp/static/images/Set 6_rs/079a.jpg","null","","","","","","learn","SL",""
"","html-keyboard-response","156","180720","0.0-156.0","""event"",""trial"",""time""
""fullscreenenter"",""0"",""9858""
","
","
","""event"",""trial"",""time""
""fullscreenenter"",""0"",""9858""
","
","null","<p></p>","null","","","","","","","",""
"","image","157","181664","0.0-157.0","""event"",""trial"",""time""
""fullscreenenter"",""0"",""9858""
","
","
","""event"",""trial"",""time""
""fullscreenenter"",""0"",""9858""
","
","942.1000000238419","run_exp/static/images/Set 6_rs/186a.jpg","86","","","","","","learn","SR",""
"","show_choice","158","182729","0.0-158.0","""event"",""trial"",""time""
""fullscreenenter"",""0"",""9858""
","
","
","""event"",""trial"",""time""
""fullscreenenter"",""0"",""9858""
","
","null","run_exp/static/images/Set 6_rs/186a.jpg","null","","","","","","learn","SR",""
"","html-keyboard-response","159","183241","0.0-159.0","""event"",""trial"",""time""
""fullscreenenter"",""0"",""9858""
","
","
","""event"",""trial"",""time""
""fullscreenenter"",""0"",""9858""
","
","null","<p></p>","null","","","","","","","",""
"","image","160","184071","0.0-160.0","""event"",""trial"",""time""
""fullscreenenter"",""0"",""9858""
","
","
","""event"",""trial"",""time""
""fullscreenenter"",""0"",""9858""
","
","828.1000000238419","run_exp/static/images/Set 6_rs/007a.jpg","86","","","","","","learn","SR",""
"","show_choice","161","185245","0.0-161.0","""event"",""trial"",""time""
""fullscreenenter"",""0"",""9858""
","
","
","""event"",""trial"",""time""
""fullscreenenter"",""0"",""9858""
","
","null","run_exp/static/images/Set 6_rs/007a.jpg","null","","","","","","learn","SR",""
"","html-keyboard-response","162","185749","0.0-162.0","""event"",""trial"",""time""
""fullscreenenter"",""0"",""9858""
","
","
","""event"",""trial"",""time""
""fullscreenenter"",""0"",""9858""
","
","null","<p></p>","null","","","","","","","",""
"","image","163","187167","0.0-163.0","""event"",""trial"",""time""
""fullscreenenter"",""0"",""9858""
","
","
","""event"",""trial"",""time""
""fullscreenenter"",""0"",""9858""
","
","1416.8999999761581","run_exp/static/images/Set 6_rs/008a.jpg","86","","","","","","learn","SL",""
"","show_choice","164","187763","0.0-164.0","""event"",""trial"",""time""
""fullscreenenter"",""0"",""9858""
","
","
","""event"",""trial"",""time""
""fullscreenenter"",""0"",""9858""
","
","null","run_exp/static/images/Set 6_rs/008a.jpg","null","","","","","","learn","SL",""
"","html-keyboard-response","165","188274","0.0-165.0","""event"",""trial"",""time""
""fullscreenenter"",""0"",""9858""
","
","
","""event"",""trial"",""time""
""fullscreenenter"",""0"",""9858""
","
","null","<p></p>","null","","","","","","","",""
"","image","166","189214","0.0-166.0","""event"",""trial"",""time""
""fullscreenenter"",""0"",""9858""
","
","
","""event"",""trial"",""time""
""fullscreenenter"",""0"",""9858""
","
","936","run_exp/static/images/Set 6_rs/187a.jpg","86","","","","","","learn","SR",""
"","show_choice","167","190291","0.0-167.0","""event"",""trial"",""time""
""fullscreenenter"",""0"",""9858""
","
","
","""event"",""trial"",""time""
""fullscreenenter"",""0"",""9858""
","
","null","run_exp/static/images/Set 6_rs/187a.jpg","null","","","","","","learn","SR",""
"","html-keyboard-response","168","190798","0.0-168.0","""event"",""trial"",""time""
""fullscreenenter"",""0"",""9858""
","
","
","""event"",""trial"",""time""
""fullscreenenter"",""0"",""9858""
","
","null","<p></p>","null","","","","","","","",""
"","image","169","191362","0.0-169.0","""event"",""trial"",""time""
""fullscreenenter"",""0"",""9858""
","
","
","""event"",""trial"",""time""
""fullscreenenter"",""0"",""9858""
","
","562.3999999761581","run_exp/static/images/Set 6_rs/014a.jpg","86","","","","","","learn","SL",""
"","show_choice","170","192815","0.0-170.0","""event"",""trial"",""time""
""fullscreenenter"",""0"",""9858""
","
","
","""event"",""trial"",""time""
""fullscreenenter"",""0"",""9858""
","
","null","run_exp/static/images/Set 6_rs/014a.jpg","null","","","","","","learn","SL",""
"","html-keyboard-response","171","193323","0.0-171.0","""event"",""trial"",""time""
""fullscreenenter"",""0"",""9858""
","
","
","""event"",""trial"",""time""
""fullscreenenter"",""0"",""9858""
","
","null","<p></p>","null","","","","","","","",""
"","image","172","193780","0.0-172.0","""event"",""trial"",""time""
""fullscreenenter"",""0"",""9858""
","
","
","""event"",""trial"",""time""
""fullscreenenter"",""0"",""9858""
","
","455.39999997615814","run_exp/static/images/Set 6_rs/023a.jpg","86","","","","","","learn","SR",""
"","show_choice","173","195331","0.0-173.0","""event"",""trial"",""time""
""fullscreenenter"",""0"",""9858""
","
","
","""event"",""trial"",""time""
""fullscreenenter"",""0"",""9858""
","
","null","run_exp/static/images/Set 6_rs/023a.jpg","null","","","","","","learn","SR",""
"","html-keyboard-response","174","195840","0.0-174.0","""event"",""trial"",""time""
""fullscreenenter"",""0"",""9858""
","
","
","""event"",""trial"",""time""
""fullscreenenter"",""0"",""9858""
","
","null","<p></p>","null","","","","","","","",""
"","image","175","196897","0.0-175.0","""event"",""trial"",""time""
""fullscreenenter"",""0"",""9858""
","
","
","""event"",""trial"",""time""
""fullscreenenter"",""0"",""9858""
","
","1055.1000000238419","run_exp/static/images/Set 6_rs/063a.jpg","86","","","","","","learn","SR",""
"","show_choice","176","197851","0.0-176.0","""event"",""trial"",""time""
""fullscreenenter"",""0"",""9858""
","
","
","""event"",""trial"",""time""
""fullscreenenter"",""0"",""9858""
","
","null","run_exp/static/images/Set 6_rs/063a.jpg","null","","","","","","learn","SR",""
"","html-keyboard-response","177","198360","0.0-177.0","""event"",""trial"",""time""
""fullscreenenter"",""0"",""9858""
","
","
","""event"",""trial"",""time""
""fullscreenenter"",""0"",""9858""
","
","null","<p></p>","null","","","","","","","",""
"","image","178","199280","0.0-178.0","""event"",""trial"",""time""
""fullscreenenter"",""0"",""9858""
","
","
","""event"",""trial"",""time""
""fullscreenenter"",""0"",""9858""
","
","917.5","run_exp/static/images/Set 6_rs/071a.jpg","86","","","","","","learn","SL",""
"","show_choice","179","200375","0.0-179.0","""event"",""trial"",""time""
""fullscreenenter"",""0"",""9858""
","
","
","""event"",""trial"",""time""
""fullscreenenter"",""0"",""9858""
","
","null","run_exp/static/images/Set 6_rs/071a.jpg","null","","","","","","learn","SL",""
"","html-keyboard-response","180","200884","0.0-180.0","""event"",""trial"",""time""
""fullscreenenter"",""0"",""9858""
","
","
","""event"",""trial"",""time""
""fullscreenenter"",""0"",""9858""
","
","null","<p></p>","null","","","","","","","",""
"","image","181","202224","0.0-181.0","""event"",""trial"",""time""
""fullscreenenter"",""0"",""9858""
","
","
","""event"",""trial"",""time""
""fullscreenenter"",""0"",""9858""
","
","1338.3999999761581","run_exp/static/images/Set 6_rs/123a.jpg","78","","","","","","learn","SL",""
"","show_choice","182","202888","0.0-182.0","""event"",""trial"",""time""
""fullscreenenter"",""0"",""9858""
","
","
","""event"",""trial"",""time""
""fullscreenenter"",""0"",""9858""
","
","null","run_exp/static/images/Set 6_rs/123a.jpg","null","","","","","","learn","SL",""
"","html-keyboard-response","183","203391","0.0-183.0","""event"",""trial"",""time""
""fullscreenenter"",""0"",""9858""
","
","
","""event"",""trial"",""time""
""fullscreenenter"",""0"",""9858""
","
","null","<p></p>","null","","","","","","","",""
"","image","184","204338","0.0-184.0","""event"",""trial"",""time""
""fullscreenenter"",""0"",""9858""
","
","
","""event"",""trial"",""time""
""fullscreenenter"",""0"",""9858""
","
","945.7999999523163","run_exp/static/images/Set 6_rs/073a.jpg","86","","","","","","learn","SL",""
"","show_choice","185","205395","0.0-185.0","""event"",""trial"",""time""
""fullscreenenter"",""0"",""9858""
","
","
","""event"",""trial"",""time""
""fullscreenenter"",""0"",""9858""
","
","null","run_exp/static/images/Set 6_rs/073a.jpg","null","","","","","","learn","SL",""
"","html-keyboard-response","186","205909","0.0-186.0","""event"",""trial"",""time""
""fullscreenenter"",""0"",""9858""
","
","
","""event"",""trial"",""time""
""fullscreenenter"",""0"",""9858""
","
","null","<p></p>","null","","","","","","","",""
"","image","187","206835","0.0-187.0","""event"",""trial"",""time""
""fullscreenenter"",""0"",""9858""
","
","
","""event"",""trial"",""time""
""fullscreenenter"",""0"",""9858""
","
","924.3000000715256","run_exp/static/images/Set 6_rs/070a.jpg","86","","","","","","learn","SR",""
"","show_choice","188","207924","0.0-188.0","""event"",""trial"",""time""
""fullscreenenter"",""0"",""9858""
","
","
","""event"",""trial"",""time""
""fullscreenenter"",""0"",""9858""
","
","null","run_exp/static/images/Set 6_rs/070a.jpg","null","","","","","","learn","SR",""
"","html-keyboard-response","189","208432","0.0-189.0","""event"",""trial"",""time""
""fullscreenenter"",""0"",""9858""
","
","
","""event"",""trial"",""time""
""fullscreenenter"",""0"",""9858""
","
","null","<p></p>","null","","","","","","","",""
"","image","190","209699","0.0-190.0","""event"",""trial"",""time""
""fullscreenenter"",""0"",""9858""
","
","
","""event"",""trial"",""time""
""fullscreenenter"",""0"",""9858""
","
","1265.5","run_exp/static/images/Set 6_rs/167a.jpg","86","","","","","","learn","SL",""
"","show_choice","191","210437","0.0-191.0","""event"",""trial"",""time""
""fullscreenenter"",""0"",""9858""
","
","
","""event"",""trial"",""time""
""fullscreenenter"",""0"",""9858""
","
","null","run_exp/static/images/Set 6_rs/167a.jpg","null","","","","","","learn","SL",""
"","html-keyboard-response","192","210940","0.0-192.0","""event"",""trial"",""time""
""fullscreenenter"",""0"",""9858""
","
","
","""event"",""trial"",""time""
""fullscreenenter"",""0"",""9858""
","
","null","<p></p>","null","","","","","","","",""
"","image","193","211732","0.0-193.0","""event"",""trial"",""time""
""fullscreenenter"",""0"",""9858""
","
","
","""event"",""trial"",""time""
""fullscreenenter"",""0"",""9858""
","
","790.0999999046326","run_exp/static/images/Set 6_rs/168a.jpg","78","","","","","","learn","SL",""
"","show_choice","194","212948","0.0-194.0","""event"",""trial"",""time""
""fullscreenenter"",""0"",""9858""
","
","
","""event"",""trial"",""time""
""fullscreenenter"",""0"",""9858""
","
","null","run_exp/static/images/Set 6_rs/168a.jpg","null","","","","","","learn","SL",""
"","html-keyboard-response","195","213452","0.0-195.0","""event"",""trial"",""time""
""fullscreenenter"",""0"",""9858""
","
","
","""event"",""trial"",""time""
""fullscreenenter"",""0"",""9858""
","
","null","<p></p>","null","","","","","","","",""
"","test_intro","196","251026","0.0-196.0","""event"",""trial"",""time""
""fullscreenenter"",""0"",""9858""
","
","
","""event"",""trial"",""time""
""fullscreenenter"",""0"",""9858""
","
","null","run_exp/static/audio/clip_2_memory.m4a","null","","","","","<div class='center'><p>Now, lets see how much you remember about the items you just saw.  For each item, you need to indicate if it was <b>old</b> by pressing the <b>v</b> key, <b>similar</b> by pressing the <b>b</b> key, or <b>new</b> by pressing the <b>n</b> key.</p><p>Old refers to an item that you saw before in the indoor/outdoor game that you just played, new refers to an item you have <b>not</b> seen before within the indoor/outdoor game, and similar refers to an item that is similar to an item youve seen before but is not exactly the same. </p><p>Before we begin, lets go over some brief demonstrations to make sure you understand.</p></div>","","",""
"","html-keyboard-response","197","251456","0.0-197.0","""event"",""trial"",""time""
""fullscreenenter"",""0"",""9858""
","
","
","""event"",""trial"",""time""
""fullscreenenter"",""0"",""9858""
","
","428.2999999523163","<div class='center'><p>Now, lets see how much you remember about the items you just saw.  For each item, you need to indicate if it was <b>old</b> by pressing the <b>v</b> key, <b>similar</b> by pressing the <b>b</b> key, or <b>new</b> by pressing the <b>n</b> key.</p><p>Old refers to an item that you saw before in the indoor/outdoor game that you just played, new refers to an item you have <b>not</b> seen before within the indoor/outdoor game, and similar refers to an item that is similar to an item youve seen before but is not exactly the same. </p><p>Before we begin, lets go over some brief demonstrations to make sure you understand.</p><div><p><b>[Press the space bar to continue]</b></p></div>","32","","","","","","","",""
"","items","198","258964","0.0-198.0","""event"",""trial"",""time""
""fullscreenenter"",""0"",""9858""
","
","
","""event"",""trial"",""time""
""fullscreenenter"",""0"",""9858""
","
","null","run_exp/static/audio/clip_3_items.m4a","null","","","","","","","",""
"","mop","199","263474","0.0-199.0","""event"",""trial"",""time""
""fullscreenenter"",""0"",""9858""
","
","
","""event"",""trial"",""time""
""fullscreenenter"",""0"",""9858""
","
","null","run_exp/static/audio/clip_4_mop.m4a","null","","","","","","","",""
"","baseball","200","266984","0.0-200.0","""event"",""trial"",""time""
""fullscreenenter"",""0"",""9858""
","
","
","""event"",""trial"",""time""
""fullscreenenter"",""0"",""9858""
","
","null","run_exp/static/audio/clip_5_baseball.m4a","null","","","","","","","",""
"","trumpet","201","270494","0.0-201.0","""event"",""trial"",""time""
""fullscreenenter"",""0"",""9858""
","
","
","""event"",""trial"",""time""
""fullscreenenter"",""0"",""9858""
","
","null","run_exp/static/audio/clip_6_trumpet.m4a","null","","","","","","","",""
"","gummies","202","274014","0.0-202.0","""event"",""trial"",""time""
""fullscreenenter"",""0"",""9858""
","
","
","""event"",""trial"",""time""
""fullscreenenter"",""0"",""9858""
","
","null","run_exp/static/audio/clip_7_gummies.m4a","null","","","","","","","",""
"","osn","203","278524","0.0-203.0","""event"",""trial"",""time""
""fullscreenenter"",""0"",""9858""
","
","
","""event"",""trial"",""time""
""fullscreenenter"",""0"",""9858""
","
","null","run_exp/static/audio/clip_8_osn.m4a","null","","","","","","","",""
"","old_1","204","285044","0.0-204.0","""event"",""trial"",""time""
""fullscreenenter"",""0"",""9858""
","
","
","""event"",""trial"",""time""
""fullscreenenter"",""0"",""9858""
","
","null","run_exp/static/audio/clip_9_old_trumpet.m4a","null","","","","","","","",""
"","new_1","205","292554","0.0-205.0","""event"",""trial"",""time""
""fullscreenenter"",""0"",""9858""
","
","
","""event"",""trial"",""time""
""fullscreenenter"",""0"",""9858""
","
","null","run_exp/static/audio/clip_10_new_balloon.m4a","null","","","","","","","",""
"","similar_1a","206","297074","0.0-206.0","""event"",""trial"",""time""
""fullscreenenter"",""0"",""9858""
","
","
","""event"",""trial"",""time""
""fullscreenenter"",""0"",""9858""
","
","null","run_exp/static/audio/clip_11a_similar_mop.m4a","null","","","","","","","",""
"","similar_1b","207","303594","0.0-207.0","""event"",""trial"",""time""
""fullscreenenter"",""0"",""9858""
","
","
","""event"",""trial"",""time""
""fullscreenenter"",""0"",""9858""
","
","null","run_exp/static/audio/clip_11b_similar_mop.m4a","null","","","","","","","",""
"","new_2","208","307114","0.0-208.0","""event"",""trial"",""time""
""fullscreenenter"",""0"",""9858""
","
","
","""event"",""trial"",""time""
""fullscreenenter"",""0"",""9858""
","
","null","run_exp/static/audio/clip_12_new_stoplight.m4a","null","","","","","","","",""
"","old_2","209","310624","0.0-209.0","""event"",""trial"",""time""
""fullscreenenter"",""0"",""9858""
","
","
","""event"",""trial"",""time""
""fullscreenenter"",""0"",""9858""
","
","null","run_exp/static/audio/clip_13_old_baseball.m4a","null","","","","","","","",""
"","similar_2a","210","314134","0.0-210.0","""event"",""trial"",""time""
""fullscreenenter"",""0"",""9858""
","
","
","""event"",""trial"",""time""
""fullscreenenter"",""0"",""9858""
","
","null","run_exp/static/audio/clip_14a_similar_gummies.m4a","null","","","","","","","",""
"","similar_2b","211","321654","0.0-211.0","""event"",""trial"",""time""
""fullscreenenter"",""0"",""9858""
","
","
","""event"",""trial"",""time""
""fullscreenenter"",""0"",""9858""
","
","null","run_exp/static/audio/clip_14b_similar_gummies.m4a","null","","","","","","","",""
"","practice","212","363788","0.0-212.0","""event"",""trial"",""time""
""fullscreenenter"",""0"",""9858""
","
","
","""event"",""trial"",""time""
""fullscreenenter"",""0"",""9858""
","
","null","run_exp/static/audio/clip_15_practice.m4a","null","","","","","<div class='center'><p>Lets practice a little to make sure you understand the difference between new, similar, and old. Lets say you saw these three items in the indoor/outdoor game.</p><p> Try your best to remember these images because youll soon be tested on them in a practice game. In the practice game, youll be shown images and youll have to say if they are old (one of the three images belows), similar (similar to one of the images below but not exactly the same), or new (are not one of the images below nor similar to them).</p><p>Once you press the space bar youll be shown these images again but one at time. Then youll begin the practice game.</p><p><img src='run_exp/static/images/tutorial/test/three_indoor_outdoor.png' height='300'></p></div>","","",""
"","html-keyboard-response","213","367413","0.0-213.0","""event"",""trial"",""time""
""fullscreenenter"",""0"",""9858""
","
","
","""event"",""trial"",""time""
""fullscreenenter"",""0"",""9858""
","
","3622.1999999284744","<div class='center'><p>Lets practice a little to make sure you understand the difference between new, similar, and old. Lets say you saw these three items in the indoor/outdoor game.</p><p> Try your best to remember these images because youll soon be tested on them in a practice game. In the practice game, youll be shown images and youll have to say if they are old (one of the three images belows), similar (similar to one of the images below but not exactly the same), or new (are not one of the images below nor similar to them).</p><p>Once you press the space bar youll be shown these images again but one at time. Then youll begin the practice game.</p><p><img src='run_exp/static/images/tutorial/test/three_indoor_outdoor.png' height='300'></p><div><p><b>[Press the space bar to continue]</b></p></div>","32","","","","","","","",""
"","planet","214","369434","0.0-214.0","""event"",""trial"",""time""
""fullscreenenter"",""0"",""9858""
","
","
","""event"",""trial"",""time""
""fullscreenenter"",""0"",""9858""
","
","null","run_exp/static/images/tutorial/test/008a.jpg","null","","","","","","","",""
"","boot","215","371444","0.0-215.0","""event"",""trial"",""time""
""fullscreenenter"",""0"",""9858""
","
","
","""event"",""trial"",""time""
""fullscreenenter"",""0"",""9858""
","
","null","run_exp/static/images/tutorial/test/011a.jpg","null","","","","","","","",""
"","lemon","216","373464","0.0-216.0","""event"",""trial"",""time""
""fullscreenenter"",""0"",""9858""
","
","
","""event"",""trial"",""time""
""fullscreenenter"",""0"",""9858""
","
","null","run_exp/static/images/tutorial/test/018a.jpg","null","","","","","","","",""
"","practice_q1","217","379234","0.0-217.0","""event"",""trial"",""time""
""fullscreenenter"",""0"",""9858""
","
","
","""event"",""trial"",""time""
""fullscreenenter"",""0"",""9858""
","
","5768","run_exp/static/audio/clip_16_practice_question.m4a","78","","","","","","","",""
"","correct","218","381147","0.0-218.0-0.0","""event"",""trial"",""time""
""fullscreenenter"",""0"",""9858""
","
","
","""event"",""trial"",""time""
""fullscreenenter"",""0"",""9858""
","
","null","run_exp/static/audio/clip_17_correct.m4a","null","","","","","<div class='center'><p>That's correct!</p></div>","","",""
"","html-keyboard-response","219","381949","0.0-218.0-1.0","""event"",""trial"",""time""
""fullscreenenter"",""0"",""9858""
","
","
","""event"",""trial"",""time""
""fullscreenenter"",""0"",""9858""
","
","800.2000000476837","<div class='center'><p>That's correct!</p><div><p><b>[Press the space bar to continue]</b></p></div>","32","","","","","","","",""
"","practice_q2","220","383619","0.0-218.0-2.0","""event"",""trial"",""time""
""fullscreenenter"",""0"",""9858""
","
","
","""event"",""trial"",""time""
""fullscreenenter"",""0"",""9858""
","
","1669","run_exp/static/audio/clip_16_practice_question.m4a","86","","","","","","","",""
"","correct","221","385507","0.0-219.0-0.0","""event"",""trial"",""time""
""fullscreenenter"",""0"",""9858""
","
","
","""event"",""trial"",""time""
""fullscreenenter"",""0"",""9858""
","
","null","run_exp/static/audio/clip_17_correct.m4a","null","","","","","<div class='center'><p>That's correct!</p></div>","","",""
"","html-keyboard-response","222","386006","0.0-219.0-1.0","""event"",""trial"",""time""
""fullscreenenter"",""0"",""9858""
","
","
","""event"",""trial"",""time""
""fullscreenenter"",""0"",""9858""
","
","497.8000000715256","<div class='center'><p>That's correct!</p><div><p><b>[Press the space bar to continue]</b></p></div>","32","","","","","","","",""
"","practice_q3","223","387277","0.0-219.0-2.0","""event"",""trial"",""time""
""fullscreenenter"",""0"",""9858""
","
","
","""event"",""trial"",""time""
""fullscreenenter"",""0"",""9858""
","
","1268.7999999523163","run_exp/static/audio/clip_16_practice_question.m4a","66","","","","","","","",""
"","correct","224","389286","0.0-220.0-0.0","""event"",""trial"",""time""
""fullscreenenter"",""0"",""9858""
","
","
","""event"",""trial"",""time""
""fullscreenenter"",""0"",""9858""
","
","null","run_exp/static/audio/clip_17_correct.m4a","null","","","","","<div class='center'><p>That's correct!</p></div>","","",""
"","html-keyboard-response","225","389288","0.0-220.0-1.0","""event"",""trial"",""time""
""fullscreenenter"",""0"",""9858""
","
","
","""event"",""trial"",""time""
""fullscreenenter"",""0"",""9858""
","
","0","<div class='center'><p>That's correct!</p><div><p><b>[Press the space bar to continue]</b></p></div>","32","","","","","","","",""
"","begin_text","226","407766","0.0-221.0-0.0","""event"",""trial"",""time""
""fullscreenenter"",""0"",""9858""
","
","
","""event"",""trial"",""time""
""fullscreenenter"",""0"",""9858""
","
","null","run_exp/static/audio/clip_22_begin_test.m4a","null","","","","","<div class='center'><p>On to the real game where well test your memory of items from the indoor/outdoor game. For each item, you need to indicate if the item is <b>old</b> by pressing the <b>v</b> key, <b>similar</b> by pressing the <b>b</b> key, or <b>new</b> by pressing the <b>n</b> key. </p></div>","","",""
"","html-keyboard-response","227","408537","0.0-221.0-1.0","""event"",""trial"",""time""
""fullscreenenter"",""0"",""9858""
","
","
","""event"",""trial"",""time""
""fullscreenenter"",""0"",""9858""
","
","769.2000000476837","<div class='center'><p>On to the real game where well test your memory of items from the indoor/outdoor game. For each item, you need to indicate if the item is <b>old</b> by pressing the <b>v</b> key, <b>similar</b> by pressing the <b>b</b> key, or <b>new</b> by pressing the <b>n</b> key. </p><div><p><b>[Press the space bar to continue]</b></p></div>","32","","","","","","","",""
"","image","228","409700","0.0-222.0-0.0","""event"",""trial"",""time""
""fullscreenenter"",""0"",""9858""
","
","
","""event"",""trial"",""time""
""fullscreenenter"",""0"",""9858""
","
","1161.5999999046326","run_exp/static/images/Set 6_rs/005a.jpg","78","","","","","","test","TF","5"
"","show_choice","229","410204","0.0-222.0-1.0","""event"",""trial"",""time""
""fullscreenenter"",""0"",""9858""
","
","
","""event"",""trial"",""time""
""fullscreenenter"",""0"",""9858""
","
","null","run_exp/static/images/Set 6_rs/005a.jpg","null","","","","","","test","TF",""
"","html-keyboard-response","230","410724","0.0-222.0-2.0","""event"",""trial"",""time""
""fullscreenenter"",""0"",""9858""
","
","
","""event"",""trial"",""time""
""fullscreenenter"",""0"",""9858""
","
","null","<p></p>","null","","","","","","","",""
"","image","231","412154","0.0-223.0-0.0","""event"",""trial"",""time""
""fullscreenenter"",""0"",""9858""
","
","
","""event"",""trial"",""time""
""fullscreenenter"",""0"",""9858""
","
","1427.8999999761581","run_exp/static/images/Set 6_rs/149a.jpg","86","","","","","","test","TF","1"
"","show_choice","232","412664","0.0-223.0-1.0","""event"",""trial"",""time""
""fullscreenenter"",""0"",""9858""
","
","
","""event"",""trial"",""time""
""fullscreenenter"",""0"",""9858""
","
","null","run_exp/static/images/Set 6_rs/149a.jpg","null","","","","","","test","TF",""
"","html-keyboard-response","233","413184","0.0-223.0-2.0","""event"",""trial"",""time""
""fullscreenenter"",""0"",""9858""
","
","
","""event"",""trial"",""time""
""fullscreenenter"",""0"",""9858""
","
","null","<p></p>","null","","","","","","","",""
"","image","234","414766","0.0-224.0-0.0","""event"",""trial"",""time""
""fullscreenenter"",""0"",""9858""
","
","
","""event"",""trial"",""time""
""fullscreenenter"",""0"",""9858""
","
","1579.8000000715256","run_exp/static/images/Set 6_rs/073b.jpg","66","","","","","","test","TL","3"
"","show_choice","235","415284","0.0-224.0-1.0","""event"",""trial"",""time""
""fullscreenenter"",""0"",""9858""
","
","
","""event"",""trial"",""time""
""fullscreenenter"",""0"",""9858""
","
","null","run_exp/static/images/Set 6_rs/073b.jpg","null","","","","","","test","TL",""
"","html-keyboard-response","236","415796","0.0-224.0-2.0","""event"",""trial"",""time""
""fullscreenenter"",""0"",""9858""
","
","
","""event"",""trial"",""time""
""fullscreenenter"",""0"",""9858""
","
","null","<p></p>","null","","","","","","","",""
"","image","237","417715","0.0-225.0-0.0","""event"",""trial"",""time""
""fullscreenenter"",""0"",""9858""
","
","
","""event"",""trial"",""time""
""fullscreenenter"",""0"",""9858""
","
","1916.6999999284744","run_exp/static/images/Set 6_rs/089b.jpg","66","","","","","","test","TL","4"
"","show_choice","238","418221","0.0-225.0-1.0","""event"",""trial"",""time""
""fullscreenenter"",""0"",""9858""
","
","
","""event"",""trial"",""time""
""fullscreenenter"",""0"",""9858""
","
","null","run_exp/static/images/Set 6_rs/089b.jpg","null","","","","","","test","TL",""
"","html-keyboard-response","239","418735","0.0-225.0-2.0","""event"",""trial"",""time""
""fullscreenenter"",""0"",""9858""
","
","
","""event"",""trial"",""time""
""fullscreenenter"",""0"",""9858""
","
","null","<p></p>","null","","","","","","","",""
"","image","240","420425","0.0-226.0-0.0","""event"",""trial"",""time""
""fullscreenenter"",""0"",""9858""
","
","
","""event"",""trial"",""time""
""fullscreenenter"",""0"",""9858""
","
","1688.2999999523163","run_exp/static/images/Set 6_rs/181b.jpg","86","","","","","","test","TL","1"
"","show_choice","241","420931","0.0-226.0-1.0","""event"",""trial"",""time""
""fullscreenenter"",""0"",""9858""
","
","
","""event"",""trial"",""time""
""fullscreenenter"",""0"",""9858""
","
","null","run_exp/static/images/Set 6_rs/181b.jpg","null","","","","","","test","TL",""
"","html-keyboard-response","242","421436","0.0-226.0-2.0","""event"",""trial"",""time""
""fullscreenenter"",""0"",""9858""
","
","
","""event"",""trial"",""time""
""fullscreenenter"",""0"",""9858""
","
","null","<p></p>","null","","","","","","","",""
"","image","243","422810","0.0-227.0-0.0","""event"",""trial"",""time""
""fullscreenenter"",""0"",""9858""
","
","
","""event"",""trial"",""time""
""fullscreenenter"",""0"",""9858""
","
","1372.2000000476837","run_exp/static/images/Set 6_rs/171a.jpg","78","","","","","","test","TF","1"
"","show_choice","244","423313","0.0-227.0-1.0","""event"",""trial"",""time""
""fullscreenenter"",""0"",""9858""
","
","
","""event"",""trial"",""time""
""fullscreenenter"",""0"",""9858""
","
","null","run_exp/static/images/Set 6_rs/171a.jpg","null","","","","","","test","TF",""
"","html-keyboard-response","245","423816","0.0-227.0-2.0","""event"",""trial"",""time""
""fullscreenenter"",""0"",""9858""
","
","
","""event"",""trial"",""time""
""fullscreenenter"",""0"",""9858""
","
","null","<p></p>","null","","","","","","","",""
"","image","246","424962","0.0-228.0-0.0","""event"",""trial"",""time""
""fullscreenenter"",""0"",""9858""
","
","
","""event"",""trial"",""time""
""fullscreenenter"",""0"",""9858""
","
","1143.3999999761581","run_exp/static/images/Set 6_rs/100a.jpg","78","","","","","","test","TF","2"
"","show_choice","247","425464","0.0-228.0-1.0","""event"",""trial"",""time""
""fullscreenenter"",""0"",""9858""
","
","
","""event"",""trial"",""time""
""fullscreenenter"",""0"",""9858""
","
","null","run_exp/static/images/Set 6_rs/100a.jpg","null","","","","","","test","TF",""
"","html-keyboard-response","248","425974","0.0-228.0-2.0","""event"",""trial"",""time""
""fullscreenenter"",""0"",""9858""
","
","
","""event"",""trial"",""time""
""fullscreenenter"",""0"",""9858""
","
","null","<p></p>","null","","","","","","","",""
"","image","249","427945","0.0-229.0-0.0","""event"",""trial"",""time""
""fullscreenenter"",""0"",""9858""
","
","
","""event"",""trial"",""time""
""fullscreenenter"",""0"",""9858""
","
","1969.3999999761581","run_exp/static/images/Set 6_rs/138b.jpg","86","","","","","","test","TL","1"
"","show_choice","250","428450","0.0-229.0-1.0","""event"",""trial"",""time""
""fullscreenenter"",""0"",""9858""
","
","
","""event"",""trial"",""time""
""fullscreenenter"",""0"",""9858""
","
","null","run_exp/static/images/Set 6_rs/138b.jpg","null","","","","","","test","TL",""
"","html-keyboard-response","251","428952","0.0-229.0-2.0","""event"",""trial"",""time""
""fullscreenenter"",""0"",""9858""
","
","
","""event"",""trial"",""time""
""fullscreenenter"",""0"",""9858""
","
","null","<p></p>","null","","","","","","","",""
"","image","252","430346","0.0-230.0-0.0","""event"",""trial"",""time""
""fullscreenenter"",""0"",""9858""
","
","
","""event"",""trial"",""time""
""fullscreenenter"",""0"",""9858""
","
","1392","run_exp/static/images/Set 6_rs/012a.jpg","86","","","","","","test","TR","1"
"","show_choice","253","430855","0.0-230.0-1.0","""event"",""trial"",""time""
""fullscreenenter"",""0"",""9858""
","
","
","""event"",""trial"",""time""
""fullscreenenter"",""0"",""9858""
","
","null","run_exp/static/images/Set 6_rs/012a.jpg","null","","","","","","test","TR",""
"","html-keyboard-response","254","431363","0.0-230.0-2.0","""event"",""trial"",""time""
""fullscreenenter"",""0"",""9858""
","
","
","""event"",""trial"",""time""
""fullscreenenter"",""0"",""9858""
","
","null","<p></p>","null","","","","","","","",""
"","image","255","432547","0.0-231.0-0.0","""event"",""trial"",""time""
""fullscreenenter"",""0"",""9858""
","
","
","""event"",""trial"",""time""
""fullscreenenter"",""0"",""9858""
","
","1183","run_exp/static/images/Set 6_rs/132a.jpg","86","","","","","","test","TR","5"
"","show_choice","256","433061","0.0-231.0-1.0","""event"",""trial"",""time""
""fullscreenenter"",""0"",""9858""
","
","
","""event"",""trial"",""time""
""fullscreenenter"",""0"",""9858""
","
","null","run_exp/static/images/Set 6_rs/132a.jpg","null","","","","","","test","TR",""
"","html-keyboard-response","257","433565","0.0-231.0-2.0","""event"",""trial"",""time""
""fullscreenenter"",""0"",""9858""
","
","
","""event"",""trial"",""time""
""fullscreenenter"",""0"",""9858""
","
","null","<p></p>","null","","","","","","","",""
"","image","258","434823","0.0-232.0-0.0","""event"",""trial"",""time""
""fullscreenenter"",""0"",""9858""
","
","
","""event"",""trial"",""time""
""fullscreenenter"",""0"",""9858""
","
","1255.7999999523163","run_exp/static/images/Set 6_rs/088a.jpg","86","","","","","","test","TR","2"
"","show_choice","259","435326","0.0-232.0-1.0","""event"",""trial"",""time""
""fullscreenenter"",""0"",""9858""
","
","
","""event"",""trial"",""time""
""fullscreenenter"",""0"",""9858""
","
","null","run_exp/static/images/Set 6_rs/088a.jpg","null","","","","","","test","TR",""
"","html-keyboard-response","260","435835","0.0-232.0-2.0","""event"",""trial"",""time""
""fullscreenenter"",""0"",""9858""
","
","
","""event"",""trial"",""time""
""fullscreenenter"",""0"",""9858""
","
","null","<p></p>","null","","","","","","","",""
"","image","261","437205","0.0-233.0-0.0","""event"",""trial"",""time""
""fullscreenenter"",""0"",""9858""
","
","
","""event"",""trial"",""time""
""fullscreenenter"",""0"",""9858""
","
","1368","run_exp/static/images/Set 6_rs/075a.jpg","86","","","","","","test","TR","1"
"","show_choice","262","437718","0.0-233.0-1.0","""event"",""trial"",""time""
""fullscreenenter"",""0"",""9858""
","
","
","""event"",""trial"",""time""
""fullscreenenter"",""0"",""9858""
","
","null","run_exp/static/images/Set 6_rs/075a.jpg","null","","","","","","test","TR",""
"","html-keyboard-response","263","438224","0.0-233.0-2.0","""event"",""trial"",""time""
""fullscreenenter"",""0"",""9858""
","
","
","""event"",""trial"",""time""
""fullscreenenter"",""0"",""9858""
","
","null","<p></p>","null","","","","","","","",""
"","image","264","439017","0.0-234.0-0.0","""event"",""trial"",""time""
""fullscreenenter"",""0"",""9858""
","
","
","""event"",""trial"",""time""
""fullscreenenter"",""0"",""9858""
","
","790.8999999761581","run_exp/static/images/Set 6_rs/187a.jpg","86","","","","","","test","TR","3"
"","show_choice","265","439533","0.0-234.0-1.0","""event"",""trial"",""time""
""fullscreenenter"",""0"",""9858""
","
","
","""event"",""trial"",""time""
""fullscreenenter"",""0"",""9858""
","
","null","run_exp/static/images/Set 6_rs/187a.jpg","null","","","","","","test","TR",""
"","html-keyboard-response","266","440047","0.0-234.0-2.0","""event"",""trial"",""time""
""fullscreenenter"",""0"",""9858""
","
","
","""event"",""trial"",""time""
""fullscreenenter"",""0"",""9858""
","
","null","<p></p>","null","","","","","","","",""
"","image","267","441711","0.0-235.0-0.0","""event"",""trial"",""time""
""fullscreenenter"",""0"",""9858""
","
","
","""event"",""trial"",""time""
""fullscreenenter"",""0"",""9858""
","
","1662.1000000238419","run_exp/static/images/Set 6_rs/045a.jpg","86","","","","","","test","TR","2"
"","show_choice","268","442214","0.0-235.0-1.0","""event"",""trial"",""time""
""fullscreenenter"",""0"",""9858""
","
","
","""event"",""trial"",""time""
""fullscreenenter"",""0"",""9858""
","
","null","run_exp/static/images/Set 6_rs/045a.jpg","null","","","","","","test","TR",""
"","html-keyboard-response","269","442717","0.0-235.0-2.0","""event"",""trial"",""time""
""fullscreenenter"",""0"",""9858""
","
","
","""event"",""trial"",""time""
""fullscreenenter"",""0"",""9858""
","
","null","<p></p>","null","","","","","","","",""
"","image","270","444114","0.0-236.0-0.0","""event"",""trial"",""time""
""fullscreenenter"",""0"",""9858""
","
","
","""event"",""trial"",""time""
""fullscreenenter"",""0"",""9858""
","
","1395.5","run_exp/static/images/Set 6_rs/129b.jpg","66","","","","","","test","TL","1"
"","show_choice","271","444625","0.0-236.0-1.0","""event"",""trial"",""time""
""fullscreenenter"",""0"",""9858""
","
","
","""event"",""trial"",""time""
""fullscreenenter"",""0"",""9858""
","
","null","run_exp/static/images/Set 6_rs/129b.jpg","null","","","","","","test","TL",""
"","html-keyboard-response","272","445141","0.0-236.0-2.0","""event"",""trial"",""time""
""fullscreenenter"",""0"",""9858""
","
","
","""event"",""trial"",""time""
""fullscreenenter"",""0"",""9858""
","
","null","<p></p>","null","","","","","","","",""
"","image","273","445998","0.0-237.0-0.0","""event"",""trial"",""time""
""fullscreenenter"",""0"",""9858""
","
","
","""event"",""trial"",""time""
""fullscreenenter"",""0"",""9858""
","
","855.1999999284744","run_exp/static/images/Set 6_rs/095b.jpg","66","","","","","","test","TL","5"
"","show_choice","274","446501","0.0-237.0-1.0","""event"",""trial"",""time""
""fullscreenenter"",""0"",""9858""
","
","
","""event"",""trial"",""time""
""fullscreenenter"",""0"",""9858""
","
","null","run_exp/static/images/Set 6_rs/095b.jpg","null","","","","","","test","TL",""
"","html-keyboard-response","275","447017","0.0-237.0-2.0","""event"",""trial"",""time""
""fullscreenenter"",""0"",""9858""
","
","
","""event"",""trial"",""time""
""fullscreenenter"",""0"",""9858""
","
","null","<p></p>","null","","","","","","","",""
"","image","276","448026","0.0-238.0-0.0","""event"",""trial"",""time""
""fullscreenenter"",""0"",""9858""
","
","
","""event"",""trial"",""time""
""fullscreenenter"",""0"",""9858""
","
","1007","run_exp/static/images/Set 6_rs/007a.jpg","86","","","","","","test","TR","3"
"","show_choice","277","448529","0.0-238.0-1.0","""event"",""trial"",""time""
""fullscreenenter"",""0"",""9858""
","
","
","""event"",""trial"",""time""
""fullscreenenter"",""0"",""9858""
","
","null","run_exp/static/images/Set 6_rs/007a.jpg","null","","","","","","test","TR",""
"","html-keyboard-response","278","449032","0.0-238.0-2.0","""event"",""trial"",""time""
""fullscreenenter"",""0"",""9858""
","
","
","""event"",""trial"",""time""
""fullscreenenter"",""0"",""9858""
","
","null","<p></p>","null","","","","","","","",""
"","image","279","450525","0.0-239.0-0.0","""event"",""trial"",""time""
""fullscreenenter"",""0"",""9858""
","
","
","""event"",""trial"",""time""
""fullscreenenter"",""0"",""9858""
","
","1490.8999999761581","run_exp/static/images/Set 6_rs/167b.jpg","66","","","","","","test","TL","2"
"","show_choice","280","451028","0.0-239.0-1.0","""event"",""trial"",""time""
""fullscreenenter"",""0"",""9858""
","
","
","""event"",""trial"",""time""
""fullscreenenter"",""0"",""9858""
","
","null","run_exp/static/images/Set 6_rs/167b.jpg","null","","","","","","test","TL",""
"","html-keyboard-response","281","451532","0.0-239.0-2.0","""event"",""trial"",""time""
""fullscreenenter"",""0"",""9858""
","
","
","""event"",""trial"",""time""
""fullscreenenter"",""0"",""9858""
","
","null","<p></p>","null","","","","","","","",""
"","image","282","452980","0.0-240.0-0.0","""event"",""trial"",""time""
""fullscreenenter"",""0"",""9858""
","
","
","""event"",""trial"",""time""
""fullscreenenter"",""0"",""9858""
","
","1446.1999999284744","run_exp/static/images/Set 6_rs/170a.jpg","78","","","","","","test","TF","2"
"","show_choice","283","453497","0.0-240.0-1.0","""event"",""trial"",""time""
""fullscreenenter"",""0"",""9858""
","
","
","""event"",""trial"",""time""
""fullscreenenter"",""0"",""9858""
","
","null","run_exp/static/images/Set 6_rs/170a.jpg","null","","","","","","test","TF",""
"","html-keyboard-response","284","454000","0.0-240.0-2.0","""event"",""trial"",""time""
""fullscreenenter"",""0"",""9858""
","
","
","""event"",""trial"",""time""
""fullscreenenter"",""0"",""9858""
","
","null","<p></p>","null","","","","","","","",""
"","image","285","454881","0.0-241.0-0.0","""event"",""trial"",""time""
""fullscreenenter"",""0"",""9858""
","
","
","""event"",""trial"",""time""
""fullscreenenter"",""0"",""9858""
","
","879","run_exp/static/images/Set 6_rs/097a.jpg","78","","","","","","test","TF","5"
"","show_choice","286","455393","0.0-241.0-1.0","""event"",""trial"",""time""
""fullscreenenter"",""0"",""9858""
","
","
","""event"",""trial"",""time""
""fullscreenenter"",""0"",""9858""
","
","null","run_exp/static/images/Set 6_rs/097a.jpg","null","","","","","","test","TF",""
"","html-keyboard-response","287","455906","0.0-241.0-2.0","""event"",""trial"",""time""
""fullscreenenter"",""0"",""9858""
","
","
","""event"",""trial"",""time""
""fullscreenenter"",""0"",""9858""
","
","null","<p></p>","null","","","","","","","",""
"","image","288","456907","0.0-242.0-0.0","""event"",""trial"",""time""
""fullscreenenter"",""0"",""9858""
","
","
","""event"",""trial"",""time""
""fullscreenenter"",""0"",""9858""
","
","998.7999999523163","run_exp/static/images/Set 6_rs/006b.jpg","86","","","","","","test","TL","2"
"","show_choice","289","457415","0.0-242.0-1.0","""event"",""trial"",""time""
""fullscreenenter"",""0"",""9858""
","
","
","""event"",""trial"",""time""
""fullscreenenter"",""0"",""9858""
","
","null","run_exp/static/images/Set 6_rs/006b.jpg","null","","","","","","test","TL",""
"","html-keyboard-response","290","457931","0.0-242.0-2.0","""event"",""trial"",""time""
""fullscreenenter"",""0"",""9858""
","
","
","""event"",""trial"",""time""
""fullscreenenter"",""0"",""9858""
","
","null","<p></p>","null","","","","","","","",""
"","image","291","459459","0.0-243.0-0.0","""event"",""trial"",""time""
""fullscreenenter"",""0"",""9858""
","
","
","""event"",""trial"",""time""
""fullscreenenter"",""0"",""9858""
","
","1525.5999999046326","run_exp/static/images/Set 6_rs/055b.jpg","66","","","","","","test","TL","4"
"","show_choice","292","459962","0.0-243.0-1.0","""event"",""trial"",""time""
""fullscreenenter"",""0"",""9858""
","
","
","""event"",""trial"",""time""
""fullscreenenter"",""0"",""9858""
","
","null","run_exp/static/images/Set 6_rs/055b.jpg","null","","","","","","test","TL",""
"","html-keyboard-response","293","460475","0.0-243.0-2.0","""event"",""trial"",""time""
""fullscreenenter"",""0"",""9858""
","
","
","""event"",""trial"",""time""
""fullscreenenter"",""0"",""9858""
","
","null","<p></p>","null","","","","","","","",""
"","image","294","463493","0.0-244.0-0.0","""event"",""trial"",""time""
""fullscreenenter"",""0"",""9858""
","
","
","""event"",""trial"",""time""
""fullscreenenter"",""0"",""9858""
","
","null","run_exp/static/images/Set 6_rs/116b.jpg","null","","","","","","test","TL","2"
"","show_choice","295","464000","0.0-244.0-1.0","""event"",""trial"",""time""
""fullscreenenter"",""0"",""9858""
","
","
","""event"",""trial"",""time""
""fullscreenenter"",""0"",""9858""
","
","null","run_exp/static/images/Set 6_rs/116b.jpg","null","","","","","","test","TL",""
"","html-keyboard-response","296","464509","0.0-244.0-2.0","""event"",""trial"",""time""
""fullscreenenter"",""0"",""9858""
","
","
","""event"",""trial"",""time""
""fullscreenenter"",""0"",""9858""
","
","null","<p></p>","null","","","","","","","",""
"","image","297","465596","0.0-245.0-0.0","""event"",""trial"",""time""
""fullscreenenter"",""0"",""9858""
","
","
","""event"",""trial"",""time""
""fullscreenenter"",""0"",""9858""
","
","1085","run_exp/static/images/Set 6_rs/126a.jpg","78","","","","","","test","TR","2"
"","show_choice","298","466098","0.0-245.0-1.0","""event"",""trial"",""time""
""fullscreenenter"",""0"",""9858""
","
","
","""event"",""trial"",""time""
""fullscreenenter"",""0"",""9858""
","
","null","run_exp/static/images/Set 6_rs/126a.jpg","null","","","","","","test","TR",""
"","html-keyboard-response","299","466608","0.0-245.0-2.0","""event"",""trial"",""time""
""fullscreenenter"",""0"",""9858""
","
","
","""event"",""trial"",""time""
""fullscreenenter"",""0"",""9858""
","
","null","<p></p>","null","","","","","","","",""
"","image","300","467535","0.0-246.0-0.0","""event"",""trial"",""time""
""fullscreenenter"",""0"",""9858""
","
","
","""event"",""trial"",""time""
""fullscreenenter"",""0"",""9858""
","
","924.5","run_exp/static/images/Set 6_rs/052a.jpg","78","","","","","","test","TF","1"
"","show_choice","301","468048","0.0-246.0-1.0","""event"",""trial"",""time""
""fullscreenenter"",""0"",""9858""
","
","
","""event"",""trial"",""time""
""fullscreenenter"",""0"",""9858""
","
","null","run_exp/static/images/Set 6_rs/052a.jpg","null","","","","","","test","TF",""
"","html-keyboard-response","302","468550","0.0-246.0-2.0","""event"",""trial"",""time""
""fullscreenenter"",""0"",""9858""
","
","
","""event"",""trial"",""time""
""fullscreenenter"",""0"",""9858""
","
","null","<p></p>","null","","","","","","","",""
"","image","303","469905","0.0-247.0-0.0","""event"",""trial"",""time""
""fullscreenenter"",""0"",""9858""
","
","
","""event"",""trial"",""time""
""fullscreenenter"",""0"",""9858""
","
","1353.5","run_exp/static/images/Set 6_rs/070a.jpg","86","","","","","","test","TR","2"
"","show_choice","304","470418","0.0-247.0-1.0","""event"",""trial"",""time""
""fullscreenenter"",""0"",""9858""
","
","
","""event"",""trial"",""time""
""fullscreenenter"",""0"",""9858""
","
","null","run_exp/static/images/Set 6_rs/070a.jpg","null","","","","","","test","TR",""
"","html-keyboard-response","305","470926","0.0-247.0-2.0","""event"",""trial"",""time""
""fullscreenenter"",""0"",""9858""
","
","
","""event"",""trial"",""time""
""fullscreenenter"",""0"",""9858""
","
","null","<p></p>","null","","","","","","","",""
"","image","306","472442","0.0-248.0-0.0","""event"",""trial"",""time""
""fullscreenenter"",""0"",""9858""
","
","
","""event"",""trial"",""time""
""fullscreenenter"",""0"",""9858""
","
","1513.8000000715256","run_exp/static/images/Set 6_rs/001a.jpg","78","","","","","","test","TF","1"
"","show_choice","307","472951","0.0-248.0-1.0","""event"",""trial"",""time""
""fullscreenenter"",""0"",""9858""
","
","
","""event"",""trial"",""time""
""fullscreenenter"",""0"",""9858""
","
","null","run_exp/static/images/Set 6_rs/001a.jpg","null","","","","","","test","TF",""
"","html-keyboard-response","308","473459","0.0-248.0-2.0","""event"",""trial"",""time""
""fullscreenenter"",""0"",""9858""
","
","
","""event"",""trial"",""time""
""fullscreenenter"",""0"",""9858""
","
","null","<p></p>","null","","","","","","","",""
"","image","309","475083","0.0-249.0-0.0","""event"",""trial"",""time""
""fullscreenenter"",""0"",""9858""
","
","
","""event"",""trial"",""time""
""fullscreenenter"",""0"",""9858""
","
","1621.6999999284744","run_exp/static/images/Set 6_rs/015a.jpg","78","","","","","","test","TF","4"
"","show_choice","310","475592","0.0-249.0-1.0","""event"",""trial"",""time""
""fullscreenenter"",""0"",""9858""
","
","
","""event"",""trial"",""time""
""fullscreenenter"",""0"",""9858""
","
","null","run_exp/static/images/Set 6_rs/015a.jpg","null","","","","","","test","TF",""
"","html-keyboard-response","311","476098","0.0-249.0-2.0","""event"",""trial"",""time""
""fullscreenenter"",""0"",""9858""
","
","
","""event"",""trial"",""time""
""fullscreenenter"",""0"",""9858""
","
","null","<p></p>","null","","","","","","","",""
"","image","312","477534","0.0-250.0-0.0","""event"",""trial"",""time""
""fullscreenenter"",""0"",""9858""
","
","
","""event"",""trial"",""time""
""fullscreenenter"",""0"",""9858""
","
","1434.6000000238419","run_exp/static/images/Set 6_rs/177a.jpg","86","","","","","","test","TR","5"
"","show_choice","313","478045","0.0-250.0-1.0","""event"",""trial"",""time""
""fullscreenenter"",""0"",""9858""
","
","
","""event"",""trial"",""time""
""fullscreenenter"",""0"",""9858""
","
","null","run_exp/static/images/Set 6_rs/177a.jpg","null","","","","","","test","TR",""
"","html-keyboard-response","314","478555","0.0-250.0-2.0","""event"",""trial"",""time""
""fullscreenenter"",""0"",""9858""
","
","
","""event"",""trial"",""time""
""fullscreenenter"",""0"",""9858""
","
","null","<p></p>","null","","","","","","","",""
"","image","315","479626","0.0-251.0-0.0","""event"",""trial"",""time""
""fullscreenenter"",""0"",""9858""
","
","
","""event"",""trial"",""time""
""fullscreenenter"",""0"",""9858""
","
","1068.9000000953674","run_exp/static/images/Set 6_rs/169a.jpg","86","","","","","","test","TR","4"
"","show_choice","316","480128","0.0-251.0-1.0","""event"",""trial"",""time""
""fullscreenenter"",""0"",""9858""
","
","
","""event"",""trial"",""time""
""fullscreenenter"",""0"",""9858""
","
","null","run_exp/static/images/Set 6_rs/169a.jpg","null","","","","","","test","TR",""
"","html-keyboard-response","317","480631","0.0-251.0-2.0","""event"",""trial"",""time""
""fullscreenenter"",""0"",""9858""
","
","
","""event"",""trial"",""time""
""fullscreenenter"",""0"",""9858""
","
","null","<p></p>","null","","","","","","","",""
"","image","318","481770","0.0-252.0-0.0","""event"",""trial"",""time""
""fullscreenenter"",""0"",""9858""
","
","
","""event"",""trial"",""time""
""fullscreenenter"",""0"",""9858""
","
","1137.6999999284744","run_exp/static/images/Set 6_rs/014b.jpg","66","","","","","","test","TL","5"
"","show_choice","319","482281","0.0-252.0-1.0","""event"",""trial"",""time""
""fullscreenenter"",""0"",""9858""
","
","
","""event"",""trial"",""time""
""fullscreenenter"",""0"",""9858""
","
","null","run_exp/static/images/Set 6_rs/014b.jpg","null","","","","","","test","TL",""
"","html-keyboard-response","320","482783","0.0-252.0-2.0","""event"",""trial"",""time""
""fullscreenenter"",""0"",""9858""
","
","
","""event"",""trial"",""time""
""fullscreenenter"",""0"",""9858""
","
","null","<p></p>","null","","","","","","","",""
"","image","321","483488","0.0-253.0-0.0","""event"",""trial"",""time""
""fullscreenenter"",""0"",""9858""
","
","
","""event"",""trial"",""time""
""fullscreenenter"",""0"",""9858""
","
","702.6999999284744","run_exp/static/images/Set 6_rs/121a.jpg","86","","","","","","test","TR","4"
"","show_choice","322","484001","0.0-253.0-1.0","""event"",""trial"",""time""
""fullscreenenter"",""0"",""9858""
","
","
","""event"",""trial"",""time""
""fullscreenenter"",""0"",""9858""
","
","null","run_exp/static/images/Set 6_rs/121a.jpg","null","","","","","","test","TR",""
"","html-keyboard-response","323","484512","0.0-253.0-2.0","""event"",""trial"",""time""
""fullscreenenter"",""0"",""9858""
","
","
","""event"",""trial"",""time""
""fullscreenenter"",""0"",""9858""
","
","null","<p></p>","null","","","","","","","",""
"","image","324","485676","0.0-254.0-0.0","""event"",""trial"",""time""
""fullscreenenter"",""0"",""9858""
","
","
","""event"",""trial"",""time""
""fullscreenenter"",""0"",""9858""
","
","1161.6000000238419","run_exp/static/images/Set 6_rs/010a.jpg","86","","","","","","test","TR","5"
"","show_choice","325","486181","0.0-254.0-1.0","""event"",""trial"",""time""
""fullscreenenter"",""0"",""9858""
","
","
","""event"",""trial"",""time""
""fullscreenenter"",""0"",""9858""
","
","null","run_exp/static/images/Set 6_rs/010a.jpg","null","","","","","","test","TR",""
"","html-keyboard-response","326","486684","0.0-254.0-2.0","""event"",""trial"",""time""
""fullscreenenter"",""0"",""9858""
","
","
","""event"",""trial"",""time""
""fullscreenenter"",""0"",""9858""
","
","null","<p></p>","null","","","","","","","",""
"","image","327","488925","0.0-255.0-0.0","""event"",""trial"",""time""
""fullscreenenter"",""0"",""9858""
","
","
","""event"",""trial"",""time""
""fullscreenenter"",""0"",""9858""
","
","2238.399999976158","run_exp/static/images/Set 6_rs/064a.jpg","78","","","","","","test","TR","5"
"","show_choice","328","489440","0.0-255.0-1.0","""event"",""trial"",""time""
""fullscreenenter"",""0"",""9858""
","
","
","""event"",""trial"",""time""
""fullscreenenter"",""0"",""9858""
","
","null","run_exp/static/images/Set 6_rs/064a.jpg","null","","","","","","test","TR",""
"","html-keyboard-response","329","489944","0.0-255.0-2.0","""event"",""trial"",""time""
""fullscreenenter"",""0"",""9858""
","
","
","""event"",""trial"",""time""
""fullscreenenter"",""0"",""9858""
","
","null","<p></p>","null","","","","","","","",""
"","image","330","491209","0.0-256.0-0.0","""event"",""trial"",""time""
""fullscreenenter"",""0"",""9858""
","
","
","""event"",""trial"",""time""
""fullscreenenter"",""0"",""9858""
","
","1263.3999999761581","run_exp/static/images/Set 6_rs/188a.jpg","78","","","","","","test","TF","3"
"","show_choice","331","491713","0.0-256.0-1.0","""event"",""trial"",""time""
""fullscreenenter"",""0"",""9858""
","
","
","""event"",""trial"",""time""
""fullscreenenter"",""0"",""9858""
","
","null","run_exp/static/images/Set 6_rs/188a.jpg","null","","","","","","test","TF",""
"","html-keyboard-response","332","492216","0.0-256.0-2.0","""event"",""trial"",""time""
""fullscreenenter"",""0"",""9858""
","
","
","""event"",""trial"",""time""
""fullscreenenter"",""0"",""9858""
","
","null","<p></p>","null","","","","","","","",""
"","image","333","493047","0.0-257.0-0.0","""event"",""trial"",""time""
""fullscreenenter"",""0"",""9858""
","
","
","""event"",""trial"",""time""
""fullscreenenter"",""0"",""9858""
","
","829","run_exp/static/images/Set 6_rs/118a.jpg","78","","","","","","test","TF","5"
"","show_choice","334","493549","0.0-257.0-1.0","""event"",""trial"",""time""
""fullscreenenter"",""0"",""9858""
","
","
","""event"",""trial"",""time""
""fullscreenenter"",""0"",""9858""
","
","null","run_exp/static/images/Set 6_rs/118a.jpg","null","","","","","","test","TF",""
"","html-keyboard-response","335","494060","0.0-257.0-2.0","""event"",""trial"",""time""
""fullscreenenter"",""0"",""9858""
","
","
","""event"",""trial"",""time""
""fullscreenenter"",""0"",""9858""
","
","null","<p></p>","null","","","","","","","",""
"","image","336","495601","0.0-258.0-0.0","""event"",""trial"",""time""
""fullscreenenter"",""0"",""9858""
","
","
","""event"",""trial"",""time""
""fullscreenenter"",""0"",""9858""
","
","1539.2000000476837","run_exp/static/images/Set 6_rs/017b.jpg","66","","","","","","test","TL","3"
"","show_choice","337","496110","0.0-258.0-1.0","""event"",""trial"",""time""
""fullscreenenter"",""0"",""9858""
","
","
","""event"",""trial"",""time""
""fullscreenenter"",""0"",""9858""
","
","null","run_exp/static/images/Set 6_rs/017b.jpg","null","","","","","","test","TL",""
"","html-keyboard-response","338","496620","0.0-258.0-2.0","""event"",""trial"",""time""
""fullscreenenter"",""0"",""9858""
","
","
","""event"",""trial"",""time""
""fullscreenenter"",""0"",""9858""
","
","null","<p></p>","null","","","","","","","",""
"","image","339","497809","0.0-259.0-0.0","""event"",""trial"",""time""
""fullscreenenter"",""0"",""9858""
","
","
","""event"",""trial"",""time""
""fullscreenenter"",""0"",""9858""
","
","1187.1000000238419","run_exp/static/images/Set 6_rs/108a.jpg","86","","","","","","test","TR","5"
"","show_choice","340","498312","0.0-259.0-1.0","""event"",""trial"",""time""
""fullscreenenter"",""0"",""9858""
","
","
","""event"",""trial"",""time""
""fullscreenenter"",""0"",""9858""
","
","null","run_exp/static/images/Set 6_rs/108a.jpg","null","","","","","","test","TR",""
"","html-keyboard-response","341","498817","0.0-259.0-2.0","""event"",""trial"",""time""
""fullscreenenter"",""0"",""9858""
","
","
