"success","trial_type","trial_index","time_elapsed","internal_node_id","interactions","blur_events","focus_events","fullscreenenter_events","fullscreenexit_events","rt","stimulus","key_press","subject_id","participant_id","age","gender","prompt","phase","condition","lure_bin"
"true","fullscreen","0","11327","0.0-0.0","""event"",""trial"",""time""
""fullscreenenter"",""0"",""10320""
","
","
","""event"",""trial"",""time""
""fullscreenenter"",""0"",""10320""
","
","","","","","","","","","","",""
"","pavlovia","1","11337","0.0-1.0","""event"",""trial"",""time""
""fullscreenenter"",""0"",""10320""
""fullscreenexit"",""2"",""29127""
""blur"",""2"",""30236""
""focus"",""2"",""35097""
","""event"",""trial"",""time""
""blur"",""2"",""30236""
","""event"",""trial"",""time""
""focus"",""2"",""35097""
","""event"",""trial"",""time""
""fullscreenenter"",""0"",""10320""
","""event"",""trial"",""time""
""fullscreenexit"",""2"",""29127""
","","","","","","","","","","",""
"","welcome","2","46142","0.0-2.0","""event"",""trial"",""time""
""fullscreenenter"",""0"",""10320""
""fullscreenexit"",""2"",""29127""
""blur"",""2"",""30236""
""focus"",""2"",""35097""
","""event"",""trial"",""time""
""blur"",""2"",""30236""
","""event"",""trial"",""time""
""focus"",""2"",""35097""
","""event"",""trial"",""time""
""fullscreenenter"",""0"",""10320""
","""event"",""trial"",""time""
""fullscreenexit"",""2"",""29127""
","null","run_exp/static/audio/clip_1_welcome.m4a","null","571","626","10","Male","<div class='center'><p>Welcome to the third part of the study! First, you'll be shown pictures of items one at a time. For each picture, you have to decide if the item is typically found indoors or outdoors.</p><p>If you think it's usually found indoors, then press <b>v</b> key on your keyboard. If you think it's usually found outdoors, then press the <b>n</b> key.There will be reminders on the screen to help you remember which keys to press. </p><p>If you're not sure whether the item is an indoor item or an outdoor item, go ahead and take a guess but try your best not to skip that choice. </p></div>","","",""
"","html-keyboard-response","3","46585","0.0-3.0","""event"",""trial"",""time""
""fullscreenenter"",""0"",""10320""
""fullscreenexit"",""2"",""29127""
""blur"",""2"",""30236""
""focus"",""2"",""35097""
","""event"",""trial"",""time""
""blur"",""2"",""30236""
","""event"",""trial"",""time""
""focus"",""2"",""35097""
","""event"",""trial"",""time""
""fullscreenenter"",""0"",""10320""
","""event"",""trial"",""time""
""fullscreenexit"",""2"",""29127""
","438.10000014305115","<div class='center'><p>Welcome to the third part of the study! First, you'll be shown pictures of items one at a time. For each picture, you have to decide if the item is typically found indoors or outdoors.</p><p>If you think it's usually found indoors, then press <b>v</b> key on your keyboard. If you think it's usually found outdoors, then press the <b>n</b> key.There will be reminders on the screen to help you remember which keys to press. </p><p>If you're not sure whether the item is an indoor item or an outdoor item, go ahead and take a guess but try your best not to skip that choice. </p><div><p><b>[Press the space bar to continue]</b></p></div>","32","","","","","","","",""
"","image","4","48604","0.0-4.0","""event"",""trial"",""time""
""fullscreenenter"",""0"",""10320""
""fullscreenexit"",""2"",""29127""
""blur"",""2"",""30236""
""focus"",""2"",""35097""
","""event"",""trial"",""time""
""blur"",""2"",""30236""
","""event"",""trial"",""time""
""focus"",""2"",""35097""
","""event"",""trial"",""time""
""fullscreenenter"",""0"",""10320""
","""event"",""trial"",""time""
""fullscreenexit"",""2"",""29127""
","null","run_exp/static/images/Set 6_rs/061a.jpg","null","","","","","","learn","SR",""
"","show_choice","5","50615","0.0-5.0","""event"",""trial"",""time""
""fullscreenenter"",""0"",""10320""
""fullscreenexit"",""2"",""29127""
""blur"",""2"",""30236""
""focus"",""2"",""35097""
","""event"",""trial"",""time""
""blur"",""2"",""30236""
","""event"",""trial"",""time""
""focus"",""2"",""35097""
","""event"",""trial"",""time""
""fullscreenenter"",""0"",""10320""
","""event"",""trial"",""time""
""fullscreenexit"",""2"",""29127""
","null","run_exp/static/images/blank.png","null","","","","","","learn","SR",""
"","html-keyboard-response","6","51128","0.0-6.0","""event"",""trial"",""time""
""fullscreenenter"",""0"",""10320""
""fullscreenexit"",""2"",""29127""
""blur"",""2"",""30236""
""focus"",""2"",""35097""
","""event"",""trial"",""time""
""blur"",""2"",""30236""
","""event"",""trial"",""time""
""focus"",""2"",""35097""
","""event"",""trial"",""time""
""fullscreenenter"",""0"",""10320""
","""event"",""trial"",""time""
""fullscreenexit"",""2"",""29127""
","null","<p></p>","null","","","","","","","",""
"","image","7","52334","0.0-7.0","""event"",""trial"",""time""
""fullscreenenter"",""0"",""10320""
""fullscreenexit"",""2"",""29127""
""blur"",""2"",""30236""
""focus"",""2"",""35097""
","""event"",""trial"",""time""
""blur"",""2"",""30236""
","""event"",""trial"",""time""
""focus"",""2"",""35097""
","""event"",""trial"",""time""
""fullscreenenter"",""0"",""10320""
","""event"",""trial"",""time""
""fullscreenexit"",""2"",""29127""
","1203.5","run_exp/static/images/Set 6_rs/064a.jpg","78","","","","","","learn","SR",""
"","show_choice","8","53140","0.0-8.0","""event"",""trial"",""time""
""fullscreenenter"",""0"",""10320""
""fullscreenexit"",""2"",""29127""
""blur"",""2"",""30236""
""focus"",""2"",""35097""
","""event"",""trial"",""time""
""blur"",""2"",""30236""
","""event"",""trial"",""time""
""focus"",""2"",""35097""
","""event"",""trial"",""time""
""fullscreenenter"",""0"",""10320""
","""event"",""trial"",""time""
""fullscreenexit"",""2"",""29127""
","null","run_exp/static/images/Set 6_rs/064a.jpg","null","","","","","","learn","SR",""
"","html-keyboard-response","9","53650","0.0-9.0","""event"",""trial"",""time""
""fullscreenenter"",""0"",""10320""
""fullscreenexit"",""2"",""29127""
""blur"",""2"",""30236""
""focus"",""2"",""35097""
","""event"",""trial"",""time""
""blur"",""2"",""30236""
","""event"",""trial"",""time""
""focus"",""2"",""35097""
","""event"",""trial"",""time""
""fullscreenenter"",""0"",""10320""
","""event"",""trial"",""time""
""fullscreenexit"",""2"",""29127""
","null","<p></p>","null","","","","","","","",""
"","image","10","54432","0.0-10.0","""event"",""trial"",""time""
""fullscreenenter"",""0"",""10320""
""fullscreenexit"",""2"",""29127""
""blur"",""2"",""30236""
""focus"",""2"",""35097""
","""event"",""trial"",""time""
""blur"",""2"",""30236""
","""event"",""trial"",""time""
""focus"",""2"",""35097""
","""event"",""trial"",""time""
""fullscreenenter"",""0"",""10320""
","""event"",""trial"",""time""
""fullscreenexit"",""2"",""29127""
","778.7999999523163","run_exp/static/images/Set 6_rs/074a.jpg","78","","","","","","learn","SL",""
"","show_choice","11","55663","0.0-11.0","""event"",""trial"",""time""
""fullscreenenter"",""0"",""10320""
""fullscreenexit"",""2"",""29127""
""blur"",""2"",""30236""
""focus"",""2"",""35097""
","""event"",""trial"",""time""
""blur"",""2"",""30236""
","""event"",""trial"",""time""
""focus"",""2"",""35097""
","""event"",""trial"",""time""
""fullscreenenter"",""0"",""10320""
","""event"",""trial"",""time""
""fullscreenexit"",""2"",""29127""
","null","run_exp/static/images/Set 6_rs/074a.jpg","null","","","","","","learn","SL",""
"","html-keyboard-response","12","56167","0.0-12.0","""event"",""trial"",""time""
""fullscreenenter"",""0"",""10320""
""fullscreenexit"",""2"",""29127""
""blur"",""2"",""30236""
""focus"",""2"",""35097""
","""event"",""trial"",""time""
""blur"",""2"",""30236""
","""event"",""trial"",""time""
""focus"",""2"",""35097""
","""event"",""trial"",""time""
""fullscreenenter"",""0"",""10320""
","""event"",""trial"",""time""
""fullscreenexit"",""2"",""29127""
","null","<p></p>","null","","","","","","","",""
"","image","13","56950","0.0-13.0","""event"",""trial"",""time""
""fullscreenenter"",""0"",""10320""
""fullscreenexit"",""2"",""29127""
""blur"",""2"",""30236""
""focus"",""2"",""35097""
","""event"",""trial"",""time""
""blur"",""2"",""30236""
","""event"",""trial"",""time""
""focus"",""2"",""35097""
","""event"",""trial"",""time""
""fullscreenenter"",""0"",""10320""
","""event"",""trial"",""time""
""fullscreenexit"",""2"",""29127""
","781","run_exp/static/images/Set 6_rs/070a.jpg","86","","","","","","learn","SR",""
"","show_choice","14","58172","0.0-14.0","""event"",""trial"",""time""
""fullscreenenter"",""0"",""10320""
""fullscreenexit"",""2"",""29127""
""blur"",""2"",""30236""
""focus"",""2"",""35097""
","""event"",""trial"",""time""
""blur"",""2"",""30236""
","""event"",""trial"",""time""
""focus"",""2"",""35097""
","""event"",""trial"",""time""
""fullscreenenter"",""0"",""10320""
","""event"",""trial"",""time""
""fullscreenexit"",""2"",""29127""
","null","run_exp/static/images/Set 6_rs/070a.jpg","null","","","","","","learn","SR",""
"","html-keyboard-response","15","58679","0.0-15.0","""event"",""trial"",""time""
""fullscreenenter"",""0"",""10320""
""fullscreenexit"",""2"",""29127""
""blur"",""2"",""30236""
""focus"",""2"",""35097""
","""event"",""trial"",""time""
""blur"",""2"",""30236""
","""event"",""trial"",""time""
""focus"",""2"",""35097""
","""event"",""trial"",""time""
""fullscreenenter"",""0"",""10320""
","""event"",""trial"",""time""
""fullscreenexit"",""2"",""29127""
","null","<p></p>","null","","","","","","","",""
"","image","16","59366","0.0-16.0","""event"",""trial"",""time""
""fullscreenenter"",""0"",""10320""
""fullscreenexit"",""2"",""29127""
""blur"",""2"",""30236""
""focus"",""2"",""35097""
","""event"",""trial"",""time""
""blur"",""2"",""30236""
","""event"",""trial"",""time""
""focus"",""2"",""35097""
","""event"",""trial"",""time""
""fullscreenenter"",""0"",""10320""
","""event"",""trial"",""time""
""fullscreenexit"",""2"",""29127""
","684.3999998569489","run_exp/static/images/Set 6_rs/057a.jpg","86","","","","","","learn","SL",""
"","show_choice","17","60684","0.0-17.0","""event"",""trial"",""time""
""fullscreenenter"",""0"",""10320""
""fullscreenexit"",""2"",""29127""
""blur"",""2"",""30236""
""focus"",""2"",""35097""
","""event"",""trial"",""time""
""blur"",""2"",""30236""
","""event"",""trial"",""time""
""focus"",""2"",""35097""
","""event"",""trial"",""time""
""fullscreenenter"",""0"",""10320""
","""event"",""trial"",""time""
""fullscreenexit"",""2"",""29127""
","null","run_exp/static/images/Set 6_rs/057a.jpg","null","","","","","","learn","SL",""
"","html-keyboard-response","18","61198","0.0-18.0","""event"",""trial"",""time""
""fullscreenenter"",""0"",""10320""
""fullscreenexit"",""2"",""29127""
""blur"",""2"",""30236""
""focus"",""2"",""35097""
","""event"",""trial"",""time""
""blur"",""2"",""30236""
","""event"",""trial"",""time""
""focus"",""2"",""35097""
","""event"",""trial"",""time""
""fullscreenenter"",""0"",""10320""
","""event"",""trial"",""time""
""fullscreenexit"",""2"",""29127""
","null","<p></p>","null","","","","","","","",""
"","image","19","62276","0.0-19.0","""event"",""trial"",""time""
""fullscreenenter"",""0"",""10320""
""fullscreenexit"",""2"",""29127""
""blur"",""2"",""30236""
""focus"",""2"",""35097""
","""event"",""trial"",""time""
""blur"",""2"",""30236""
","""event"",""trial"",""time""
""focus"",""2"",""35097""
","""event"",""trial"",""time""
""fullscreenenter"",""0"",""10320""
","""event"",""trial"",""time""
""fullscreenexit"",""2"",""29127""
","1076.3999998569489","run_exp/static/images/Set 6_rs/126a.jpg","86","","","","","","learn","SR",""
"","show_choice","20","63214","0.0-20.0","""event"",""trial"",""time""
""fullscreenenter"",""0"",""10320""
""fullscreenexit"",""2"",""29127""
""blur"",""2"",""30236""
""focus"",""2"",""35097""
","""event"",""trial"",""time""
""blur"",""2"",""30236""
","""event"",""trial"",""time""
""focus"",""2"",""35097""
","""event"",""trial"",""time""
""fullscreenenter"",""0"",""10320""
","""event"",""trial"",""time""
""fullscreenexit"",""2"",""29127""
","null","run_exp/static/images/Set 6_rs/126a.jpg","null","","","","","","learn","SR",""
"","html-keyboard-response","21","63721","0.0-21.0","""event"",""trial"",""time""
""fullscreenenter"",""0"",""10320""
""fullscreenexit"",""2"",""29127""
""blur"",""2"",""30236""
""focus"",""2"",""35097""
","""event"",""trial"",""time""
""blur"",""2"",""30236""
","""event"",""trial"",""time""
""focus"",""2"",""35097""
","""event"",""trial"",""time""
""fullscreenenter"",""0"",""10320""
","""event"",""trial"",""time""
""fullscreenexit"",""2"",""29127""
","null","<p></p>","null","","","","","","","",""
"","image","22","65162","0.0-22.0","""event"",""trial"",""time""
""fullscreenenter"",""0"",""10320""
""fullscreenexit"",""2"",""29127""
""blur"",""2"",""30236""
""focus"",""2"",""35097""
","""event"",""trial"",""time""
""blur"",""2"",""30236""
","""event"",""trial"",""time""
""focus"",""2"",""35097""
","""event"",""trial"",""time""
""fullscreenenter"",""0"",""10320""
","""event"",""trial"",""time""
""fullscreenexit"",""2"",""29127""
","1438.2999999523163","run_exp/static/images/Set 6_rs/178a.jpg","78","","","","","","learn","SR",""
"","show_choice","23","65738","0.0-23.0","""event"",""trial"",""time""
""fullscreenenter"",""0"",""10320""
""fullscreenexit"",""2"",""29127""
""blur"",""2"",""30236""
""focus"",""2"",""35097""
","""event"",""trial"",""time""
""blur"",""2"",""30236""
","""event"",""trial"",""time""
""focus"",""2"",""35097""
","""event"",""trial"",""time""
""fullscreenenter"",""0"",""10320""
","""event"",""trial"",""time""
""fullscreenexit"",""2"",""29127""
","null","run_exp/static/images/Set 6_rs/178a.jpg","null","","","","","","learn","SR",""
"","html-keyboard-response","24","66248","0.0-24.0","""event"",""trial"",""time""
""fullscreenenter"",""0"",""10320""
""fullscreenexit"",""2"",""29127""
""blur"",""2"",""30236""
""focus"",""2"",""35097""
","""event"",""trial"",""time""
""blur"",""2"",""30236""
","""event"",""trial"",""time""
""focus"",""2"",""35097""
","""event"",""trial"",""time""
""fullscreenenter"",""0"",""10320""
","""event"",""trial"",""time""
""fullscreenexit"",""2"",""29127""
","null","<p></p>","null","","","","","","","",""
"","image","25","67306","0.0-25.0","""event"",""trial"",""time""
""fullscreenenter"",""0"",""10320""
""fullscreenexit"",""2"",""29127""
""blur"",""2"",""30236""
""focus"",""2"",""35097""
","""event"",""trial"",""time""
""blur"",""2"",""30236""
","""event"",""trial"",""time""
""focus"",""2"",""35097""
","""event"",""trial"",""time""
""fullscreenenter"",""0"",""10320""
","""event"",""trial"",""time""
""fullscreenexit"",""2"",""29127""
","1056","run_exp/static/images/Set 6_rs/063a.jpg","86","","","","","","learn","SR",""
"","show_choice","26","68265","0.0-26.0","""event"",""trial"",""time""
""fullscreenenter"",""0"",""10320""
""fullscreenexit"",""2"",""29127""
""blur"",""2"",""30236""
""focus"",""2"",""35097""
","""event"",""trial"",""time""
""blur"",""2"",""30236""
","""event"",""trial"",""time""
""focus"",""2"",""35097""
","""event"",""trial"",""time""
""fullscreenenter"",""0"",""10320""
","""event"",""trial"",""time""
""fullscreenexit"",""2"",""29127""
","null","run_exp/static/images/Set 6_rs/063a.jpg","null","","","","","","learn","SR",""
"","html-keyboard-response","27","68778","0.0-27.0","""event"",""trial"",""time""
""fullscreenenter"",""0"",""10320""
""fullscreenexit"",""2"",""29127""
""blur"",""2"",""30236""
""focus"",""2"",""35097""
","""event"",""trial"",""time""
""blur"",""2"",""30236""
","""event"",""trial"",""time""
""focus"",""2"",""35097""
","""event"",""trial"",""time""
""fullscreenenter"",""0"",""10320""
","""event"",""trial"",""time""
""fullscreenexit"",""2"",""29127""
","null","<p></p>","null","","","","","","","",""
"","image","28","69881","0.0-28.0","""event"",""trial"",""time""
""fullscreenenter"",""0"",""10320""
""fullscreenexit"",""2"",""29127""
""blur"",""2"",""30236""
""focus"",""2"",""35097""
","""event"",""trial"",""time""
""blur"",""2"",""30236""
","""event"",""trial"",""time""
""focus"",""2"",""35097""
","""event"",""trial"",""time""
""fullscreenenter"",""0"",""10320""
","""event"",""trial"",""time""
""fullscreenexit"",""2"",""29127""
","1100.1999998092651","run_exp/static/images/Set 6_rs/117a.jpg","86","","","","","","learn","SL",""
"","show_choice","29","70796","0.0-29.0","""event"",""trial"",""time""
""fullscreenenter"",""0"",""10320""
""fullscreenexit"",""2"",""29127""
""blur"",""2"",""30236""
""focus"",""2"",""35097""
","""event"",""trial"",""time""
""blur"",""2"",""30236""
","""event"",""trial"",""time""
""focus"",""2"",""35097""
","""event"",""trial"",""time""
""fullscreenenter"",""0"",""10320""
","""event"",""trial"",""time""
""fullscreenexit"",""2"",""29127""
","null","run_exp/static/images/Set 6_rs/117a.jpg","null","","","","","","learn","SL",""
"","html-keyboard-response","30","71304","0.0-30.0","""event"",""trial"",""time""
""fullscreenenter"",""0"",""10320""
""fullscreenexit"",""2"",""29127""
""blur"",""2"",""30236""
""focus"",""2"",""35097""
","""event"",""trial"",""time""
""blur"",""2"",""30236""
","""event"",""trial"",""time""
""focus"",""2"",""35097""
","""event"",""trial"",""time""
""fullscreenenter"",""0"",""10320""
","""event"",""trial"",""time""
""fullscreenexit"",""2"",""29127""
","null","<p></p>","null","","","","","","","",""
"","image","31","72971","0.0-31.0","""event"",""trial"",""time""
""fullscreenenter"",""0"",""10320""
""fullscreenexit"",""2"",""29127""
""blur"",""2"",""30236""
""focus"",""2"",""35097""
","""event"",""trial"",""time""
""blur"",""2"",""30236""
","""event"",""trial"",""time""
""focus"",""2"",""35097""
","""event"",""trial"",""time""
""fullscreenenter"",""0"",""10320""
","""event"",""trial"",""time""
""fullscreenexit"",""2"",""29127""
","1665.8999998569489","run_exp/static/images/Set 6_rs/071a.jpg","78","","","","","","learn","SL",""
"","show_choice","32","73308","0.0-32.0","""event"",""trial"",""time""
""fullscreenenter"",""0"",""10320""
""fullscreenexit"",""2"",""29127""
""blur"",""2"",""30236""
""focus"",""2"",""35097""
","""event"",""trial"",""time""
""blur"",""2"",""30236""
","""event"",""trial"",""time""
""focus"",""2"",""35097""
","""event"",""trial"",""time""
""fullscreenenter"",""0"",""10320""
","""event"",""trial"",""time""
""fullscreenexit"",""2"",""29127""
","null","run_exp/static/images/Set 6_rs/071a.jpg","null","","","","","","learn","SL",""
"","html-keyboard-response","33","73814","0.0-33.0","""event"",""trial"",""time""
""fullscreenenter"",""0"",""10320""
""fullscreenexit"",""2"",""29127""
""blur"",""2"",""30236""
""focus"",""2"",""35097""
","""event"",""trial"",""time""
""blur"",""2"",""30236""
","""event"",""trial"",""time""
""focus"",""2"",""35097""
","""event"",""trial"",""time""
""fullscreenenter"",""0"",""10320""
","""event"",""trial"",""time""
""fullscreenexit"",""2"",""29127""
","null","<p></p>","null","","","","","","","",""
"","image","34","75096","0.0-34.0","""event"",""trial"",""time""
""fullscreenenter"",""0"",""10320""
""fullscreenexit"",""2"",""29127""
""blur"",""2"",""30236""
""focus"",""2"",""35097""
","""event"",""trial"",""time""
""blur"",""2"",""30236""
","""event"",""trial"",""time""
""focus"",""2"",""35097""
","""event"",""trial"",""time""
""fullscreenenter"",""0"",""10320""
","""event"",""trial"",""time""
""fullscreenexit"",""2"",""29127""
","1280.7000000476837","run_exp/static/images/Set 6_rs/008a.jpg","78","","","","","","learn","SL",""
"","show_choice","35","75818","0.0-35.0","""event"",""trial"",""time""
""fullscreenenter"",""0"",""10320""
""fullscreenexit"",""2"",""29127""
""blur"",""2"",""30236""
""focus"",""2"",""35097""
","""event"",""trial"",""time""
""blur"",""2"",""30236""
","""event"",""trial"",""time""
""focus"",""2"",""35097""
","""event"",""trial"",""time""
""fullscreenenter"",""0"",""10320""
","""event"",""trial"",""time""
""fullscreenexit"",""2"",""29127""
","null","run_exp/static/images/Set 6_rs/008a.jpg","null","","","","","","learn","SL",""
"","html-keyboard-response","36","76325","0.0-36.0","""event"",""trial"",""time""
""fullscreenenter"",""0"",""10320""
""fullscreenexit"",""2"",""29127""
""blur"",""2"",""30236""
""focus"",""2"",""35097""
","""event"",""trial"",""time""
""blur"",""2"",""30236""
","""event"",""trial"",""time""
""focus"",""2"",""35097""
","""event"",""trial"",""time""
""fullscreenenter"",""0"",""10320""
","""event"",""trial"",""time""
""fullscreenexit"",""2"",""29127""
","null","<p></p>","null","","","","","","","",""
"","image","37","77465","0.0-37.0","""event"",""trial"",""time""
""fullscreenenter"",""0"",""10320""
""fullscreenexit"",""2"",""29127""
""blur"",""2"",""30236""
""focus"",""2"",""35097""
","""event"",""trial"",""time""
""blur"",""2"",""30236""
","""event"",""trial"",""time""
""focus"",""2"",""35097""
","""event"",""trial"",""time""
""fullscreenenter"",""0"",""10320""
","""event"",""trial"",""time""
""fullscreenexit"",""2"",""29127""
","1137.7000000476837","run_exp/static/images/Set 6_rs/152a.jpg","78","","","","","","learn","SR",""
"","show_choice","38","78334","0.0-38.0","""event"",""trial"",""time""
""fullscreenenter"",""0"",""10320""
""fullscreenexit"",""2"",""29127""
""blur"",""2"",""30236""
""focus"",""2"",""35097""
","""event"",""trial"",""time""
""blur"",""2"",""30236""
","""event"",""trial"",""time""
""focus"",""2"",""35097""
","""event"",""trial"",""time""
""fullscreenenter"",""0"",""10320""
","""event"",""trial"",""time""
""fullscreenexit"",""2"",""29127""
","null","run_exp/static/images/Set 6_rs/152a.jpg","null","","","","","","learn","SR",""
"","html-keyboard-response","39","78839","0.0-39.0","""event"",""trial"",""time""
""fullscreenenter"",""0"",""10320""
""fullscreenexit"",""2"",""29127""
""blur"",""2"",""30236""
""focus"",""2"",""35097""
","""event"",""trial"",""time""
""blur"",""2"",""30236""
","""event"",""trial"",""time""
""focus"",""2"",""35097""
","""event"",""trial"",""time""
""fullscreenenter"",""0"",""10320""
","""event"",""trial"",""time""
""fullscreenexit"",""2"",""29127""
","null","<p></p>","null","","","","","","","",""
"","image","40","80311","0.0-40.0","""event"",""trial"",""time""
""fullscreenenter"",""0"",""10320""
""fullscreenexit"",""2"",""29127""
""blur"",""2"",""30236""
""focus"",""2"",""35097""
","""event"",""trial"",""time""
""blur"",""2"",""30236""
","""event"",""trial"",""time""
""focus"",""2"",""35097""
","""event"",""trial"",""time""
""fullscreenenter"",""0"",""10320""
","""event"",""trial"",""time""
""fullscreenexit"",""2"",""29127""
","1470.7000000476837","run_exp/static/images/Set 6_rs/085a.jpg","86","","","","","","learn","SL",""
"","show_choice","41","80856","0.0-41.0","""event"",""trial"",""time""
""fullscreenenter"",""0"",""10320""
""fullscreenexit"",""2"",""29127""
""blur"",""2"",""30236""
""focus"",""2"",""35097""
","""event"",""trial"",""time""
""blur"",""2"",""30236""
","""event"",""trial"",""time""
""focus"",""2"",""35097""
","""event"",""trial"",""time""
""fullscreenenter"",""0"",""10320""
","""event"",""trial"",""time""
""fullscreenexit"",""2"",""29127""
","null","run_exp/static/images/Set 6_rs/085a.jpg","null","","","","","","learn","SL",""
"","html-keyboard-response","42","81365","0.0-42.0","""event"",""trial"",""time""
""fullscreenenter"",""0"",""10320""
""fullscreenexit"",""2"",""29127""
""blur"",""2"",""30236""
""focus"",""2"",""35097""
","""event"",""trial"",""time""
""blur"",""2"",""30236""
","""event"",""trial"",""time""
""focus"",""2"",""35097""
","""event"",""trial"",""time""
""fullscreenenter"",""0"",""10320""
","""event"",""trial"",""time""
""fullscreenexit"",""2"",""29127""
","null","<p></p>","null","","","","","","","",""
"","image","43","83372","0.0-43.0","""event"",""trial"",""time""
""fullscreenenter"",""0"",""10320""
""fullscreenexit"",""2"",""29127""
""blur"",""2"",""30236""
""focus"",""2"",""35097""
","""event"",""trial"",""time""
""blur"",""2"",""30236""
","""event"",""trial"",""time""
""focus"",""2"",""35097""
","""event"",""trial"",""time""
""fullscreenenter"",""0"",""10320""
","""event"",""trial"",""time""
""fullscreenexit"",""2"",""29127""
","null","run_exp/static/images/Set 6_rs/073a.jpg","null","","","","","","learn","SL",""
"","show_choice","44","85386","0.0-44.0","""event"",""trial"",""time""
""fullscreenenter"",""0"",""10320""
""fullscreenexit"",""2"",""29127""
""blur"",""2"",""30236""
""focus"",""2"",""35097""
","""event"",""trial"",""time""
""blur"",""2"",""30236""
","""event"",""trial"",""time""
""focus"",""2"",""35097""
","""event"",""trial"",""time""
""fullscreenenter"",""0"",""10320""
","""event"",""trial"",""time""
""fullscreenexit"",""2"",""29127""
","null","run_exp/static/images/blank.png","null","","","","","","learn","SL",""
"","html-keyboard-response","45","85893","0.0-45.0","""event"",""trial"",""time""
""fullscreenenter"",""0"",""10320""
""fullscreenexit"",""2"",""29127""
""blur"",""2"",""30236""
""focus"",""2"",""35097""
","""event"",""trial"",""time""
""blur"",""2"",""30236""
","""event"",""trial"",""time""
""focus"",""2"",""35097""
","""event"",""trial"",""time""
""fullscreenenter"",""0"",""10320""
","""event"",""trial"",""time""
""fullscreenexit"",""2"",""29127""
","null","<p></p>","null","","","","","","","",""
"","image","46","86868","0.0-46.0","""event"",""trial"",""time""
""fullscreenenter"",""0"",""10320""
""fullscreenexit"",""2"",""29127""
""blur"",""2"",""30236""
""focus"",""2"",""35097""
","""event"",""trial"",""time""
""blur"",""2"",""30236""
","""event"",""trial"",""time""
""focus"",""2"",""35097""
","""event"",""trial"",""time""
""fullscreenenter"",""0"",""10320""
","""event"",""trial"",""time""
""fullscreenexit"",""2"",""29127""
","972.7999999523163","run_exp/static/images/Set 6_rs/181a.jpg","78","","","","","","learn","SL",""
"","show_choice","47","87911","0.0-47.0","""event"",""trial"",""time""
""fullscreenenter"",""0"",""10320""
""fullscreenexit"",""2"",""29127""
""blur"",""2"",""30236""
""focus"",""2"",""35097""
","""event"",""trial"",""time""
""blur"",""2"",""30236""
","""event"",""trial"",""time""
""focus"",""2"",""35097""
","""event"",""trial"",""time""
""fullscreenenter"",""0"",""10320""
","""event"",""trial"",""time""
""fullscreenexit"",""2"",""29127""
","null","run_exp/static/images/Set 6_rs/181a.jpg","null","","","","","","learn","SL",""
"","html-keyboard-response","48","88420","0.0-48.0","""event"",""trial"",""time""
""fullscreenenter"",""0"",""10320""
""fullscreenexit"",""2"",""29127""
""blur"",""2"",""30236""
""focus"",""2"",""35097""
","""event"",""trial"",""time""
""blur"",""2"",""30236""
","""event"",""trial"",""time""
""focus"",""2"",""35097""
","""event"",""trial"",""time""
""fullscreenenter"",""0"",""10320""
","""event"",""trial"",""time""
""fullscreenexit"",""2"",""29127""
","null","<p></p>","null","","","","","","","",""
"","image","49","89330","0.0-49.0","""event"",""trial"",""time""
""fullscreenenter"",""0"",""10320""
""fullscreenexit"",""2"",""29127""
""blur"",""2"",""30236""
""focus"",""2"",""35097""
","""event"",""trial"",""time""
""blur"",""2"",""30236""
","""event"",""trial"",""time""
""focus"",""2"",""35097""
","""event"",""trial"",""time""
""fullscreenenter"",""0"",""10320""
","""event"",""trial"",""time""
""fullscreenexit"",""2"",""29127""
","907.7999999523163","run_exp/static/images/Set 6_rs/012a.jpg","86","","","","","","learn","SR",""
"","show_choice","50","90438","0.0-50.0","""event"",""trial"",""time""
""fullscreenenter"",""0"",""10320""
""fullscreenexit"",""2"",""29127""
""blur"",""2"",""30236""
""focus"",""2"",""35097""
","""event"",""trial"",""time""
""blur"",""2"",""30236""
","""event"",""trial"",""time""
""focus"",""2"",""35097""
","""event"",""trial"",""time""
""fullscreenenter"",""0"",""10320""
","""event"",""trial"",""time""
""fullscreenexit"",""2"",""29127""
","null","run_exp/static/images/Set 6_rs/012a.jpg","null","","","","","","learn","SR",""
"","html-keyboard-response","51","90946","0.0-51.0","""event"",""trial"",""time""
""fullscreenenter"",""0"",""10320""
""fullscreenexit"",""2"",""29127""
""blur"",""2"",""30236""
""focus"",""2"",""35097""
","""event"",""trial"",""time""
""blur"",""2"",""30236""
","""event"",""trial"",""time""
""focus"",""2"",""35097""
","""event"",""trial"",""time""
""fullscreenenter"",""0"",""10320""
","""event"",""trial"",""time""
""fullscreenexit"",""2"",""29127""
","null","<p></p>","null","","","","","","","",""
"","image","52","92268","0.0-52.0","""event"",""trial"",""time""
""fullscreenenter"",""0"",""10320""
""fullscreenexit"",""2"",""29127""
""blur"",""2"",""30236""
""focus"",""2"",""35097""
","""event"",""trial"",""time""
""blur"",""2"",""30236""
","""event"",""trial"",""time""
""focus"",""2"",""35097""
","""event"",""trial"",""time""
""fullscreenenter"",""0"",""10320""
","""event"",""trial"",""time""
""fullscreenexit"",""2"",""29127""
","1321","run_exp/static/images/Set 6_rs/108a.jpg","78","","","","","","learn","SR",""
"","show_choice","53","92954","0.0-53.0","""event"",""trial"",""time""
""fullscreenenter"",""0"",""10320""
""fullscreenexit"",""2"",""29127""
""blur"",""2"",""30236""
""focus"",""2"",""35097""
","""event"",""trial"",""time""
""blur"",""2"",""30236""
","""event"",""trial"",""time""
""focus"",""2"",""35097""
","""event"",""trial"",""time""
""fullscreenenter"",""0"",""10320""
","""event"",""trial"",""time""
""fullscreenexit"",""2"",""29127""
","null","run_exp/static/images/Set 6_rs/108a.jpg","null","","","","","","learn","SR",""
"","html-keyboard-response","54","93463","0.0-54.0","""event"",""trial"",""time""
""fullscreenenter"",""0"",""10320""
""fullscreenexit"",""2"",""29127""
""blur"",""2"",""30236""
""focus"",""2"",""35097""
","""event"",""trial"",""time""
""blur"",""2"",""30236""
","""event"",""trial"",""time""
""focus"",""2"",""35097""
","""event"",""trial"",""time""
""fullscreenenter"",""0"",""10320""
","""event"",""trial"",""time""
""fullscreenexit"",""2"",""29127""
","null","<p></p>","null","","","","","","","",""
"","image","55","94769","0.0-55.0","""event"",""trial"",""time""
""fullscreenenter"",""0"",""10320""
""fullscreenexit"",""2"",""29127""
""blur"",""2"",""30236""
""focus"",""2"",""35097""
","""event"",""trial"",""time""
""blur"",""2"",""30236""
","""event"",""trial"",""time""
""focus"",""2"",""35097""
","""event"",""trial"",""time""
""fullscreenenter"",""0"",""10320""
","""event"",""trial"",""time""
""fullscreenexit"",""2"",""29127""
","1303.9000000953674","run_exp/static/images/Set 6_rs/138a.jpg","78","","","","","","learn","SL",""
"","show_choice","56","95471","0.0-56.0","""event"",""trial"",""time""
""fullscreenenter"",""0"",""10320""
""fullscreenexit"",""2"",""29127""
""blur"",""2"",""30236""
""focus"",""2"",""35097""
","""event"",""trial"",""time""
""blur"",""2"",""30236""
","""event"",""trial"",""time""
""focus"",""2"",""35097""
","""event"",""trial"",""time""
""fullscreenenter"",""0"",""10320""
","""event"",""trial"",""time""
""fullscreenexit"",""2"",""29127""
","null","run_exp/static/images/Set 6_rs/138a.jpg","null","","","","","","learn","SL",""
"","html-keyboard-response","57","95979","0.0-57.0","""event"",""trial"",""time""
""fullscreenenter"",""0"",""10320""
""fullscreenexit"",""2"",""29127""
""blur"",""2"",""30236""
""focus"",""2"",""35097""
","""event"",""trial"",""time""
""blur"",""2"",""30236""
","""event"",""trial"",""time""
""focus"",""2"",""35097""
","""event"",""trial"",""time""
""fullscreenenter"",""0"",""10320""
","""event"",""trial"",""time""
""fullscreenexit"",""2"",""29127""
","null","<p></p>","null","","","","","","","",""
"","image","58","96952","0.0-58.0","""event"",""trial"",""time""
""fullscreenenter"",""0"",""10320""
""fullscreenexit"",""2"",""29127""
""blur"",""2"",""30236""
""focus"",""2"",""35097""
","""event"",""trial"",""time""
""blur"",""2"",""30236""
","""event"",""trial"",""time""
""focus"",""2"",""35097""
","""event"",""trial"",""time""
""fullscreenenter"",""0"",""10320""
","""event"",""trial"",""time""
""fullscreenexit"",""2"",""29127""
","970.4000000953674","run_exp/static/images/Set 6_rs/016a.jpg","86","","","","","","learn","SL",""
"","show_choice","59","97994","0.0-59.0","""event"",""trial"",""time""
""fullscreenenter"",""0"",""10320""
""fullscreenexit"",""2"",""29127""
""blur"",""2"",""30236""
""focus"",""2"",""35097""
","""event"",""trial"",""time""
""blur"",""2"",""30236""
","""event"",""trial"",""time""
""focus"",""2"",""35097""
","""event"",""trial"",""time""
""fullscreenenter"",""0"",""10320""
","""event"",""trial"",""time""
""fullscreenexit"",""2"",""29127""
","null","run_exp/static/images/Set 6_rs/016a.jpg","null","","","","","","learn","SL",""
"","html-keyboard-response","60","98503","0.0-60.0","""event"",""trial"",""time""
""fullscreenenter"",""0"",""10320""
""fullscreenexit"",""2"",""29127""
""blur"",""2"",""30236""
""focus"",""2"",""35097""
","""event"",""trial"",""time""
""blur"",""2"",""30236""
","""event"",""trial"",""time""
""focus"",""2"",""35097""
","""event"",""trial"",""time""
""fullscreenenter"",""0"",""10320""
","""event"",""trial"",""time""
""fullscreenexit"",""2"",""29127""
","null","<p></p>","null","","","","","","","",""
"","image","61","99264","0.0-61.0","""event"",""trial"",""time""
""fullscreenenter"",""0"",""10320""
""fullscreenexit"",""2"",""29127""
""blur"",""2"",""30236""
""focus"",""2"",""35097""
","""event"",""trial"",""time""
""blur"",""2"",""30236""
","""event"",""trial"",""time""
""focus"",""2"",""35097""
","""event"",""trial"",""time""
""fullscreenenter"",""0"",""10320""
","""event"",""trial"",""time""
""fullscreenexit"",""2"",""29127""
","759.2999999523163","run_exp/static/images/Set 6_rs/055a.jpg","86","","","","","","learn","SL",""
"","show_choice","62","100508","0.0-62.0","""event"",""trial"",""time""
""fullscreenenter"",""0"",""10320""
""fullscreenexit"",""2"",""29127""
""blur"",""2"",""30236""
""focus"",""2"",""35097""
","""event"",""trial"",""time""
""blur"",""2"",""30236""
","""event"",""trial"",""time""
""focus"",""2"",""35097""
","""event"",""trial"",""time""
""fullscreenenter"",""0"",""10320""
","""event"",""trial"",""time""
""fullscreenexit"",""2"",""29127""
","null","run_exp/static/images/Set 6_rs/055a.jpg","null","","","","","","learn","SL",""
"","html-keyboard-response","63","101020","0.0-63.0","""event"",""trial"",""time""
""fullscreenenter"",""0"",""10320""
""fullscreenexit"",""2"",""29127""
""blur"",""2"",""30236""
""focus"",""2"",""35097""
","""event"",""trial"",""time""
""blur"",""2"",""30236""
","""event"",""trial"",""time""
""focus"",""2"",""35097""
","""event"",""trial"",""time""
""fullscreenenter"",""0"",""10320""
","""event"",""trial"",""time""
""fullscreenexit"",""2"",""29127""
","null","<p></p>","null","","","","","","","",""
"","image","64","101924","0.0-64.0","""event"",""trial"",""time""
""fullscreenenter"",""0"",""10320""
""fullscreenexit"",""2"",""29127""
""blur"",""2"",""30236""
""focus"",""2"",""35097""
","""event"",""trial"",""time""
""blur"",""2"",""30236""
","""event"",""trial"",""time""
""focus"",""2"",""35097""
","""event"",""trial"",""time""
""fullscreenenter"",""0"",""10320""
","""event"",""trial"",""time""
""fullscreenexit"",""2"",""29127""
","902.4000000953674","run_exp/static/images/Set 6_rs/017a.jpg","78","","","","","","learn","SL",""
"","show_choice","65","103036","0.0-65.0","""event"",""trial"",""time""
""fullscreenenter"",""0"",""10320""
""fullscreenexit"",""2"",""29127""
""blur"",""2"",""30236""
""focus"",""2"",""35097""
","""event"",""trial"",""time""
""blur"",""2"",""30236""
","""event"",""trial"",""time""
""focus"",""2"",""35097""
","""event"",""trial"",""time""
""fullscreenenter"",""0"",""10320""
","""event"",""trial"",""time""
""fullscreenexit"",""2"",""29127""
","null","run_exp/static/images/Set 6_rs/017a.jpg","null","","","","","","learn","SL",""
"","html-keyboard-response","66","103548","0.0-66.0","""event"",""trial"",""time""
""fullscreenenter"",""0"",""10320""
""fullscreenexit"",""2"",""29127""
""blur"",""2"",""30236""
""focus"",""2"",""35097""
","""event"",""trial"",""time""
""blur"",""2"",""30236""
","""event"",""trial"",""time""
""focus"",""2"",""35097""
","""event"",""trial"",""time""
""fullscreenenter"",""0"",""10320""
","""event"",""trial"",""time""
""fullscreenexit"",""2"",""29127""
","null","<p></p>","null","","","","","","","",""
"","image","67","104667","0.0-67.0","""event"",""trial"",""time""
""fullscreenenter"",""0"",""10320""
""fullscreenexit"",""2"",""29127""
""blur"",""2"",""30236""
""focus"",""2"",""35097""
","""event"",""trial"",""time""
""blur"",""2"",""30236""
","""event"",""trial"",""time""
""focus"",""2"",""35097""
","""event"",""trial"",""time""
""fullscreenenter"",""0"",""10320""
","""event"",""trial"",""time""
""fullscreenexit"",""2"",""29127""
","1117.7000000476837","run_exp/static/images/Set 6_rs/076a.jpg","78","","","","","","learn","SR",""
"","show_choice","68","105558","0.0-68.0","""event"",""trial"",""time""
""fullscreenenter"",""0"",""10320""
""fullscreenexit"",""2"",""29127""
""blur"",""2"",""30236""
""focus"",""2"",""35097""
","""event"",""trial"",""time""
""blur"",""2"",""30236""
","""event"",""trial"",""time""
""focus"",""2"",""35097""
","""event"",""trial"",""time""
""fullscreenenter"",""0"",""10320""
","""event"",""trial"",""time""
""fullscreenexit"",""2"",""29127""
","null","run_exp/static/images/Set 6_rs/076a.jpg","null","","","","","","learn","SR",""
"","html-keyboard-response","69","106068","0.0-69.0","""event"",""trial"",""time""
""fullscreenenter"",""0"",""10320""
""fullscreenexit"",""2"",""29127""
""blur"",""2"",""30236""
""focus"",""2"",""35097""
","""event"",""trial"",""time""
""blur"",""2"",""30236""
","""event"",""trial"",""time""
""focus"",""2"",""35097""
","""event"",""trial"",""time""
""fullscreenenter"",""0"",""10320""
","""event"",""trial"",""time""
""fullscreenexit"",""2"",""29127""
","null","<p></p>","null","","","","","","","",""
"","image","70","106867","0.0-70.0","""event"",""trial"",""time""
""fullscreenenter"",""0"",""10320""
""fullscreenexit"",""2"",""29127""
""blur"",""2"",""30236""
""focus"",""2"",""35097""
","""event"",""trial"",""time""
""blur"",""2"",""30236""
","""event"",""trial"",""time""
""focus"",""2"",""35097""
","""event"",""trial"",""time""
""fullscreenenter"",""0"",""10320""
","""event"",""trial"",""time""
""fullscreenexit"",""2"",""29127""
","796.7999999523163","run_exp/static/images/Set 6_rs/122a.jpg","86","","","","","","learn","SR",""
"","show_choice","71","108082","0.0-71.0","""event"",""trial"",""time""
""fullscreenenter"",""0"",""10320""
""fullscreenexit"",""2"",""29127""
""blur"",""2"",""30236""
""focus"",""2"",""35097""
","""event"",""trial"",""time""
""blur"",""2"",""30236""
","""event"",""trial"",""time""
""focus"",""2"",""35097""
","""event"",""trial"",""time""
""fullscreenenter"",""0"",""10320""
","""event"",""trial"",""time""
""fullscreenexit"",""2"",""29127""
","null","run_exp/static/images/Set 6_rs/122a.jpg","null","","","","","","learn","SR",""
"","html-keyboard-response","72","108589","0.0-72.0","""event"",""trial"",""time""
""fullscreenenter"",""0"",""10320""
""fullscreenexit"",""2"",""29127""
""blur"",""2"",""30236""
""focus"",""2"",""35097""
","""event"",""trial"",""time""
""blur"",""2"",""30236""
","""event"",""trial"",""time""
""focus"",""2"",""35097""
","""event"",""trial"",""time""
""fullscreenenter"",""0"",""10320""
","""event"",""trial"",""time""
""fullscreenexit"",""2"",""29127""
","null","<p></p>","null","","","","","","","",""
"","image","73","109574","0.0-73.0","""event"",""trial"",""time""
""fullscreenenter"",""0"",""10320""
""fullscreenexit"",""2"",""29127""
""blur"",""2"",""30236""
""focus"",""2"",""35097""
","""event"",""trial"",""time""
""blur"",""2"",""30236""
","""event"",""trial"",""time""
""focus"",""2"",""35097""
","""event"",""trial"",""time""
""fullscreenenter"",""0"",""10320""
","""event"",""trial"",""time""
""fullscreenexit"",""2"",""29127""
","982.5","run_exp/static/images/Set 6_rs/079a.jpg","86","","","","","","learn","SL",""
"","show_choice","74","110594","0.0-74.0","""event"",""trial"",""time""
""fullscreenenter"",""0"",""10320""
""fullscreenexit"",""2"",""29127""
""blur"",""2"",""30236""
""focus"",""2"",""35097""
","""event"",""trial"",""time""
""blur"",""2"",""30236""
","""event"",""trial"",""time""
""focus"",""2"",""35097""
","""event"",""trial"",""time""
""fullscreenenter"",""0"",""10320""
","""event"",""trial"",""time""
""fullscreenexit"",""2"",""29127""
","null","run_exp/static/images/Set 6_rs/079a.jpg","null","","","","","","learn","SL",""
"","html-keyboard-response","75","111102","0.0-75.0","""event"",""trial"",""time""
""fullscreenenter"",""0"",""10320""
""fullscreenexit"",""2"",""29127""
""blur"",""2"",""30236""
""focus"",""2"",""35097""
","""event"",""trial"",""time""
""blur"",""2"",""30236""
","""event"",""trial"",""time""
""focus"",""2"",""35097""
","""event"",""trial"",""time""
""fullscreenenter"",""0"",""10320""
","""event"",""trial"",""time""
""fullscreenexit"",""2"",""29127""
","null","<p></p>","null","","","","","","","",""
"","image","76","112935","0.0-76.0","""event"",""trial"",""time""
""fullscreenenter"",""0"",""10320""
""fullscreenexit"",""2"",""29127""
""blur"",""2"",""30236""
""focus"",""2"",""35097""
","""event"",""trial"",""time""
""blur"",""2"",""30236""
","""event"",""trial"",""time""
""focus"",""2"",""35097""
","""event"",""trial"",""time""
""fullscreenenter"",""0"",""10320""
","""event"",""trial"",""time""
""fullscreenexit"",""2"",""29127""
","1830.8999998569489","run_exp/static/images/Set 6_rs/088a.jpg","86","","","","","","learn","SR",""
"","show_choice","77","113120","0.0-77.0","""event"",""trial"",""time""
""fullscreenenter"",""0"",""10320""
""fullscreenexit"",""2"",""29127""
""blur"",""2"",""30236""
""focus"",""2"",""35097""
","""event"",""trial"",""time""
""blur"",""2"",""30236""
","""event"",""trial"",""time""
""focus"",""2"",""35097""
","""event"",""trial"",""time""
""fullscreenenter"",""0"",""10320""
","""event"",""trial"",""time""
""fullscreenexit"",""2"",""29127""
","null","run_exp/static/images/Set 6_rs/088a.jpg","null","","","","","","learn","SR",""
"","html-keyboard-response","78","113629","0.0-78.0","""event"",""trial"",""time""
""fullscreenenter"",""0"",""10320""
""fullscreenexit"",""2"",""29127""
""blur"",""2"",""30236""
""focus"",""2"",""35097""
","""event"",""trial"",""time""
""blur"",""2"",""30236""
","""event"",""trial"",""time""
""focus"",""2"",""35097""
","""event"",""trial"",""time""
""fullscreenenter"",""0"",""10320""
","""event"",""trial"",""time""
""fullscreenexit"",""2"",""29127""
","null","<p></p>","null","","","","","","","",""
"","image","79","114901","0.0-79.0","""event"",""trial"",""time""
""fullscreenenter"",""0"",""10320""
""fullscreenexit"",""2"",""29127""
""blur"",""2"",""30236""
""focus"",""2"",""35097""
","""event"",""trial"",""time""
""blur"",""2"",""30236""
","""event"",""trial"",""time""
""focus"",""2"",""35097""
","""event"",""trial"",""time""
""fullscreenenter"",""0"",""10320""
","""event"",""trial"",""time""
""fullscreenexit"",""2"",""29127""
","1270.4000000953674","run_exp/static/images/Set 6_rs/150a.jpg","86","","","","","","learn","SR",""
"","show_choice","80","115632","0.0-80.0","""event"",""trial"",""time""
""fullscreenenter"",""0"",""10320""
""fullscreenexit"",""2"",""29127""
""blur"",""2"",""30236""
""focus"",""2"",""35097""
","""event"",""trial"",""time""
""blur"",""2"",""30236""
","""event"",""trial"",""time""
""focus"",""2"",""35097""
","""event"",""trial"",""time""
""fullscreenenter"",""0"",""10320""
","""event"",""trial"",""time""
""fullscreenexit"",""2"",""29127""
","null","run_exp/static/images/Set 6_rs/150a.jpg","null","","","","","","learn","SR",""
"","html-keyboard-response","81","116140","0.0-81.0","""event"",""trial"",""time""
""fullscreenenter"",""0"",""10320""
""fullscreenexit"",""2"",""29127""
""blur"",""2"",""30236""
""focus"",""2"",""35097""
","""event"",""trial"",""time""
""blur"",""2"",""30236""
","""event"",""trial"",""time""
""focus"",""2"",""35097""
","""event"",""trial"",""time""
""fullscreenenter"",""0"",""10320""
","""event"",""trial"",""time""
""fullscreenexit"",""2"",""29127""
","null","<p></p>","null","","","","","","","",""
"","image","82","117082","0.0-82.0","""event"",""trial"",""time""
""fullscreenenter"",""0"",""10320""
""fullscreenexit"",""2"",""29127""
""blur"",""2"",""30236""
""focus"",""2"",""35097""
","""event"",""trial"",""time""
""blur"",""2"",""30236""
","""event"",""trial"",""time""
""focus"",""2"",""35097""
","""event"",""trial"",""time""
""fullscreenenter"",""0"",""10320""
","""event"",""trial"",""time""
""fullscreenexit"",""2"",""29127""
","940","run_exp/static/images/Set 6_rs/123a.jpg","86","","","","","","learn","SL",""
"","show_choice","83","118148","0.0-83.0","""event"",""trial"",""time""
""fullscreenenter"",""0"",""10320""
""fullscreenexit"",""2"",""29127""
""blur"",""2"",""30236""
""focus"",""2"",""35097""
","""event"",""trial"",""time""
""blur"",""2"",""30236""
","""event"",""trial"",""time""
""focus"",""2"",""35097""
","""event"",""trial"",""time""
""fullscreenenter"",""0"",""10320""
","""event"",""trial"",""time""
""fullscreenexit"",""2"",""29127""
","null","run_exp/static/images/Set 6_rs/123a.jpg","null","","","","","","learn","SL",""
"","html-keyboard-response","84","118655","0.0-84.0","""event"",""trial"",""time""
""fullscreenenter"",""0"",""10320""
""fullscreenexit"",""2"",""29127""
""blur"",""2"",""30236""
""focus"",""2"",""35097""
","""event"",""trial"",""time""
""blur"",""2"",""30236""
","""event"",""trial"",""time""
""focus"",""2"",""35097""
","""event"",""trial"",""time""
""fullscreenenter"",""0"",""10320""
","""event"",""trial"",""time""
""fullscreenexit"",""2"",""29127""
","null","<p></p>","null","","","","","","","",""
"","image","85","119330","0.0-85.0","""event"",""trial"",""time""
""fullscreenenter"",""0"",""10320""
""fullscreenexit"",""2"",""29127""
""blur"",""2"",""30236""
""focus"",""2"",""35097""
","""event"",""trial"",""time""
""blur"",""2"",""30236""
","""event"",""trial"",""time""
""focus"",""2"",""35097""
","""event"",""trial"",""time""
""fullscreenenter"",""0"",""10320""
","""event"",""trial"",""time""
""fullscreenexit"",""2"",""29127""
","672.7999999523163","run_exp/static/images/Set 6_rs/024a.jpg","86","","","","","","learn","SR",""
"","show_choice","86","120671","0.0-86.0","""event"",""trial"",""time""
""fullscreenenter"",""0"",""10320""
""fullscreenexit"",""2"",""29127""
""blur"",""2"",""30236""
""focus"",""2"",""35097""
","""event"",""trial"",""time""
""blur"",""2"",""30236""
","""event"",""trial"",""time""
""focus"",""2"",""35097""
","""event"",""trial"",""time""
""fullscreenenter"",""0"",""10320""
","""event"",""trial"",""time""
""fullscreenexit"",""2"",""29127""
","null","run_exp/static/images/Set 6_rs/024a.jpg","null","","","","","","learn","SR",""
"","html-keyboard-response","87","121178","0.0-87.0","""event"",""trial"",""time""
""fullscreenenter"",""0"",""10320""
""fullscreenexit"",""2"",""29127""
""blur"",""2"",""30236""
""focus"",""2"",""35097""
","""event"",""trial"",""time""
""blur"",""2"",""30236""
","""event"",""trial"",""time""
""focus"",""2"",""35097""
","""event"",""trial"",""time""
""fullscreenenter"",""0"",""10320""
","""event"",""trial"",""time""
""fullscreenexit"",""2"",""29127""
","null","<p></p>","null","","","","","","","",""
"","image","88","122055","0.0-88.0","""event"",""trial"",""time""
""fullscreenenter"",""0"",""10320""
""fullscreenexit"",""2"",""29127""
""blur"",""2"",""30236""
""focus"",""2"",""35097""
","""event"",""trial"",""time""
""blur"",""2"",""30236""
","""event"",""trial"",""time""
""focus"",""2"",""35097""
","""event"",""trial"",""time""
""fullscreenenter"",""0"",""10320""
","""event"",""trial"",""time""
""fullscreenexit"",""2"",""29127""
","875","run_exp/static/images/Set 6_rs/177a.jpg","78","","","","","","learn","SR",""
"","show_choice","89","123184","0.0-89.0","""event"",""trial"",""time""
""fullscreenenter"",""0"",""10320""
""fullscreenexit"",""2"",""29127""
""blur"",""2"",""30236""
""focus"",""2"",""35097""
","""event"",""trial"",""time""
""blur"",""2"",""30236""
","""event"",""trial"",""time""
""focus"",""2"",""35097""
","""event"",""trial"",""time""
""fullscreenenter"",""0"",""10320""
","""event"",""trial"",""time""
""fullscreenexit"",""2"",""29127""
","null","run_exp/static/images/Set 6_rs/177a.jpg","null","","","","","","learn","SR",""
"","html-keyboard-response","90","123693","0.0-90.0","""event"",""trial"",""time""
""fullscreenenter"",""0"",""10320""
""fullscreenexit"",""2"",""29127""
""blur"",""2"",""30236""
""focus"",""2"",""35097""
","""event"",""trial"",""time""
""blur"",""2"",""30236""
","""event"",""trial"",""time""
""focus"",""2"",""35097""
","""event"",""trial"",""time""
""fullscreenenter"",""0"",""10320""
","""event"",""trial"",""time""
""fullscreenexit"",""2"",""29127""
","null","<p></p>","null","","","","","","","",""
"","image","91","124574","0.0-91.0","""event"",""trial"",""time""
""fullscreenenter"",""0"",""10320""
""fullscreenexit"",""2"",""29127""
""blur"",""2"",""30236""
""focus"",""2"",""35097""
","""event"",""trial"",""time""
""blur"",""2"",""30236""
","""event"",""trial"",""time""
""focus"",""2"",""35097""
","""event"",""trial"",""time""
""fullscreenenter"",""0"",""10320""
","""event"",""trial"",""time""
""fullscreenexit"",""2"",""29127""
","879.1000001430511","run_exp/static/images/Set 6_rs/169a.jpg","78","","","","","","learn","SR",""
"","show_choice","92","125697","0.0-92.0","""event"",""trial"",""time""
""fullscreenenter"",""0"",""10320""
""fullscreenexit"",""2"",""29127""
""blur"",""2"",""30236""
""focus"",""2"",""35097""
","""event"",""trial"",""time""
""blur"",""2"",""30236""
","""event"",""trial"",""time""
""focus"",""2"",""35097""
","""event"",""trial"",""time""
""fullscreenenter"",""0"",""10320""
","""event"",""trial"",""time""
""fullscreenexit"",""2"",""29127""
","null","run_exp/static/images/Set 6_rs/169a.jpg","null","","","","","","learn","SR",""
"","html-keyboard-response","93","126205","0.0-93.0","""event"",""trial"",""time""
""fullscreenenter"",""0"",""10320""
""fullscreenexit"",""2"",""29127""
""blur"",""2"",""30236""
""focus"",""2"",""35097""
","""event"",""trial"",""time""
""blur"",""2"",""30236""
","""event"",""trial"",""time""
""focus"",""2"",""35097""
","""event"",""trial"",""time""
""fullscreenenter"",""0"",""10320""
","""event"",""trial"",""time""
""fullscreenexit"",""2"",""29127""
","null","<p></p>","null","","","","","","","",""
"","image","94","127307","0.0-94.0","""event"",""trial"",""time""
""fullscreenenter"",""0"",""10320""
""fullscreenexit"",""2"",""29127""
""blur"",""2"",""30236""
""focus"",""2"",""35097""
","""event"",""trial"",""time""
""blur"",""2"",""30236""
","""event"",""trial"",""time""
""focus"",""2"",""35097""
","""event"",""trial"",""time""
""fullscreenenter"",""0"",""10320""
","""event"",""trial"",""time""
""fullscreenexit"",""2"",""29127""
","1100","run_exp/static/images/Set 6_rs/121a.jpg","86","","","","","","learn","SR",""
"","show_choice","95","128212","0.0-95.0","""event"",""trial"",""time""
""fullscreenenter"",""0"",""10320""
""fullscreenexit"",""2"",""29127""
""blur"",""2"",""30236""
""focus"",""2"",""35097""
","""event"",""trial"",""time""
""blur"",""2"",""30236""
","""event"",""trial"",""time""
""focus"",""2"",""35097""
","""event"",""trial"",""time""
""fullscreenenter"",""0"",""10320""
","""event"",""trial"",""time""
""fullscreenexit"",""2"",""29127""
","null","run_exp/static/images/Set 6_rs/121a.jpg","null","","","","","","learn","SR",""
"","html-keyboard-response","96","128721","0.0-96.0","""event"",""trial"",""time""
""fullscreenenter"",""0"",""10320""
""fullscreenexit"",""2"",""29127""
""blur"",""2"",""30236""
""focus"",""2"",""35097""
","""event"",""trial"",""time""
""blur"",""2"",""30236""
","""event"",""trial"",""time""
""focus"",""2"",""35097""
","""event"",""trial"",""time""
""fullscreenenter"",""0"",""10320""
","""event"",""trial"",""time""
""fullscreenexit"",""2"",""29127""
","null","<p></p>","null","","","","","","","",""
"","image","97","129724","0.0-97.0","""event"",""trial"",""time""
""fullscreenenter"",""0"",""10320""
""fullscreenexit"",""2"",""29127""
""blur"",""2"",""30236""
""focus"",""2"",""35097""
","""event"",""trial"",""time""
""blur"",""2"",""30236""
","""event"",""trial"",""time""
""focus"",""2"",""35097""
","""event"",""trial"",""time""
""fullscreenenter"",""0"",""10320""
","""event"",""trial"",""time""
""fullscreenexit"",""2"",""29127""
","1001","run_exp/static/images/Set 6_rs/010a.jpg","86","","","","","","learn","SR",""
"","show_choice","98","130726","0.0-98.0","""event"",""trial"",""time""
""fullscreenenter"",""0"",""10320""
""fullscreenexit"",""2"",""29127""
""blur"",""2"",""30236""
""focus"",""2"",""35097""
","""event"",""trial"",""time""
""blur"",""2"",""30236""
","""event"",""trial"",""time""
""focus"",""2"",""35097""
","""event"",""trial"",""time""
""fullscreenenter"",""0"",""10320""
","""event"",""trial"",""time""
""fullscreenexit"",""2"",""29127""
","null","run_exp/static/images/Set 6_rs/010a.jpg","null","","","","","","learn","SR",""
"","html-keyboard-response","99","131235","0.0-99.0","""event"",""trial"",""time""
""fullscreenenter"",""0"",""10320""
""fullscreenexit"",""2"",""29127""
""blur"",""2"",""30236""
""focus"",""2"",""35097""
","""event"",""trial"",""time""
""blur"",""2"",""30236""
","""event"",""trial"",""time""
""focus"",""2"",""35097""
","""event"",""trial"",""time""
""fullscreenenter"",""0"",""10320""
","""event"",""trial"",""time""
""fullscreenexit"",""2"",""29127""
","null","<p></p>","null","","","","","","","",""
"","image","100","132693","0.0-100.0","""event"",""trial"",""time""
""fullscreenenter"",""0"",""10320""
""fullscreenexit"",""2"",""29127""
""blur"",""2"",""30236""
""focus"",""2"",""35097""
","""event"",""trial"",""time""
""blur"",""2"",""30236""
","""event"",""trial"",""time""
""focus"",""2"",""35097""
","""event"",""trial"",""time""
""fullscreenenter"",""0"",""10320""
","""event"",""trial"",""time""
""fullscreenexit"",""2"",""29127""
","1455.5999999046326","run_exp/static/images/Set 6_rs/050a.jpg","86","","","","","","learn","SL",""
"","show_choice","101","133254","0.0-101.0","""event"",""trial"",""time""
""fullscreenenter"",""0"",""10320""
""fullscreenexit"",""2"",""29127""
""blur"",""2"",""30236""
""focus"",""2"",""35097""
","""event"",""trial"",""time""
""blur"",""2"",""30236""
","""event"",""trial"",""time""
""focus"",""2"",""35097""
","""event"",""trial"",""time""
""fullscreenenter"",""0"",""10320""
","""event"",""trial"",""time""
""fullscreenexit"",""2"",""29127""
","null","run_exp/static/images/Set 6_rs/050a.jpg","null","","","","","","learn","SL",""
"","html-keyboard-response","102","133760","0.0-102.0","""event"",""trial"",""time""
""fullscreenenter"",""0"",""10320""
""fullscreenexit"",""2"",""29127""
""blur"",""2"",""30236""
""focus"",""2"",""35097""
","""event"",""trial"",""time""
""blur"",""2"",""30236""
","""event"",""trial"",""time""
""focus"",""2"",""35097""
","""event"",""trial"",""time""
""fullscreenenter"",""0"",""10320""
","""event"",""trial"",""time""
""fullscreenexit"",""2"",""29127""
","null","<p></p>","null","","","","","","","",""
"","image","103","134677","0.0-103.0","""event"",""trial"",""time""
""fullscreenenter"",""0"",""10320""
""fullscreenexit"",""2"",""29127""
""blur"",""2"",""30236""
""focus"",""2"",""35097""
","""event"",""trial"",""time""
""blur"",""2"",""30236""
","""event"",""trial"",""time""
""focus"",""2"",""35097""
","""event"",""trial"",""time""
""fullscreenenter"",""0"",""10320""
","""event"",""trial"",""time""
""fullscreenexit"",""2"",""29127""
","915","run_exp/static/images/Set 6_rs/089a.jpg","86","","","","","","learn","SL",""
"","show_choice","104","135770","0.0-104.0","""event"",""trial"",""time""
""fullscreenenter"",""0"",""10320""
""fullscreenexit"",""2"",""29127""
""blur"",""2"",""30236""
""focus"",""2"",""35097""
","""event"",""trial"",""time""
""blur"",""2"",""30236""
","""event"",""trial"",""time""
""focus"",""2"",""35097""
","""event"",""trial"",""time""
""fullscreenenter"",""0"",""10320""
","""event"",""trial"",""time""
""fullscreenexit"",""2"",""29127""
","null","run_exp/static/images/Set 6_rs/089a.jpg","null","","","","","","learn","SL",""
"","html-keyboard-response","105","136282","0.0-105.0","""event"",""trial"",""time""
""fullscreenenter"",""0"",""10320""
""fullscreenexit"",""2"",""29127""
""blur"",""2"",""30236""
""focus"",""2"",""35097""
","""event"",""trial"",""time""
""blur"",""2"",""30236""
","""event"",""trial"",""time""
""focus"",""2"",""35097""
","""event"",""trial"",""time""
""fullscreenenter"",""0"",""10320""
","""event"",""trial"",""time""
""fullscreenexit"",""2"",""29127""
","null","<p></p>","null","","","","","","","",""
"","image","106","136906","0.0-106.0","""event"",""trial"",""time""
""fullscreenenter"",""0"",""10320""
""fullscreenexit"",""2"",""29127""
""blur"",""2"",""30236""
""focus"",""2"",""35097""
","""event"",""trial"",""time""
""blur"",""2"",""30236""
","""event"",""trial"",""time""
""focus"",""2"",""35097""
","""event"",""trial"",""time""
""fullscreenenter"",""0"",""10320""
","""event"",""trial"",""time""
""fullscreenexit"",""2"",""29127""
","621.9000000953674","run_exp/static/images/Set 6_rs/007a.jpg","86","","","","","","learn","SR",""
"","show_choice","107","138296","0.0-107.0","""event"",""trial"",""time""
""fullscreenenter"",""0"",""10320""
""fullscreenexit"",""2"",""29127""
""blur"",""2"",""30236""
""focus"",""2"",""35097""
","""event"",""trial"",""time""
""blur"",""2"",""30236""
","""event"",""trial"",""time""
""focus"",""2"",""35097""
","""event"",""trial"",""time""
""fullscreenenter"",""0"",""10320""
","""event"",""trial"",""time""
""fullscreenexit"",""2"",""29127""
","null","run_exp/static/images/Set 6_rs/007a.jpg","null","","","","","","learn","SR",""
"","html-keyboard-response","108","138804","0.0-108.0","""event"",""trial"",""time""
""fullscreenenter"",""0"",""10320""
""fullscreenexit"",""2"",""29127""
""blur"",""2"",""30236""
""focus"",""2"",""35097""
","""event"",""trial"",""time""
""blur"",""2"",""30236""
","""event"",""trial"",""time""
""focus"",""2"",""35097""
","""event"",""trial"",""time""
""fullscreenenter"",""0"",""10320""
","""event"",""trial"",""time""
""fullscreenexit"",""2"",""29127""
","null","<p></p>","null","","","","","","","",""
"","image","109","140193","0.0-109.0","""event"",""trial"",""time""
""fullscreenenter"",""0"",""10320""
""fullscreenexit"",""2"",""29127""
""blur"",""2"",""30236""
""focus"",""2"",""35097""
","""event"",""trial"",""time""
""blur"",""2"",""30236""
","""event"",""trial"",""time""
""focus"",""2"",""35097""
","""event"",""trial"",""time""
""fullscreenenter"",""0"",""10320""
","""event"",""trial"",""time""
""fullscreenexit"",""2"",""29127""
","1387.2000000476837","run_exp/static/images/Set 6_rs/134a.jpg","86","","","","","","learn","SR",""
"","show_choice","110","140809","0.0-110.0","""event"",""trial"",""time""
""fullscreenenter"",""0"",""10320""
""fullscreenexit"",""2"",""29127""
""blur"",""2"",""30236""
""focus"",""2"",""35097""
","""event"",""trial"",""time""
""blur"",""2"",""30236""
","""event"",""trial"",""time""
""focus"",""2"",""35097""
","""event"",""trial"",""time""
""fullscreenenter"",""0"",""10320""
","""event"",""trial"",""time""
""fullscreenexit"",""2"",""29127""
","null","run_exp/static/images/Set 6_rs/134a.jpg","null","","","","","","learn","SR",""
"","html-keyboard-response","111","141321","0.0-111.0","""event"",""trial"",""time""
""fullscreenenter"",""0"",""10320""
""fullscreenexit"",""2"",""29127""
""blur"",""2"",""30236""
""focus"",""2"",""35097""
","""event"",""trial"",""time""
""blur"",""2"",""30236""
","""event"",""trial"",""time""
""focus"",""2"",""35097""
","""event"",""trial"",""time""
""fullscreenenter"",""0"",""10320""
","""event"",""trial"",""time""
""fullscreenexit"",""2"",""29127""
","null","<p></p>","null","","","","","","","",""
"","image","112","142393","0.0-112.0","""event"",""trial"",""time""
""fullscreenenter"",""0"",""10320""
""fullscreenexit"",""2"",""29127""
""blur"",""2"",""30236""
""focus"",""2"",""35097""
","""event"",""trial"",""time""
""blur"",""2"",""30236""
","""event"",""trial"",""time""
""focus"",""2"",""35097""
","""event"",""trial"",""time""
""fullscreenenter"",""0"",""10320""
","""event"",""trial"",""time""
""fullscreenexit"",""2"",""29127""
","1069.4000000953674","run_exp/static/images/Set 6_rs/166a.jpg","78","","","","","","learn","SR",""
"","show_choice","113","143335","0.0-113.0","""event"",""trial"",""time""
""fullscreenenter"",""0"",""10320""
""fullscreenexit"",""2"",""29127""
""blur"",""2"",""30236""
""focus"",""2"",""35097""
","""event"",""trial"",""time""
""blur"",""2"",""30236""
","""event"",""trial"",""time""
""focus"",""2"",""35097""
","""event"",""trial"",""time""
""fullscreenenter"",""0"",""10320""
","""event"",""trial"",""time""
""fullscreenexit"",""2"",""29127""
","null","run_exp/static/images/Set 6_rs/166a.jpg","null","","","","","","learn","SR",""
"","html-keyboard-response","114","143845","0.0-114.0","""event"",""trial"",""time""
""fullscreenenter"",""0"",""10320""
""fullscreenexit"",""2"",""29127""
""blur"",""2"",""30236""
""focus"",""2"",""35097""
","""event"",""trial"",""time""
""blur"",""2"",""30236""
","""event"",""trial"",""time""
""focus"",""2"",""35097""
","""event"",""trial"",""time""
""fullscreenenter"",""0"",""10320""
","""event"",""trial"",""time""
""fullscreenexit"",""2"",""29127""
","null","<p></p>","null","","","","","","","",""
"","image","115","144818","0.0-115.0","""event"",""trial"",""time""
""fullscreenenter"",""0"",""10320""
""fullscreenexit"",""2"",""29127""
""blur"",""2"",""30236""
""focus"",""2"",""35097""
","""event"",""trial"",""time""
""blur"",""2"",""30236""
","""event"",""trial"",""time""
""focus"",""2"",""35097""
","""event"",""trial"",""time""
""fullscreenenter"",""0"",""10320""
","""event"",""trial"",""time""
""fullscreenexit"",""2"",""29127""
","970.7999999523163","run_exp/static/images/Set 6_rs/154a.jpg","86","","","","","","learn","SR",""
"","show_choice","116","145849","0.0-116.0","""event"",""trial"",""time""
""fullscreenenter"",""0"",""10320""
""fullscreenexit"",""2"",""29127""
""blur"",""2"",""30236""
""focus"",""2"",""35097""
","""event"",""trial"",""time""
""blur"",""2"",""30236""
","""event"",""trial"",""time""
""focus"",""2"",""35097""
","""event"",""trial"",""time""
""fullscreenenter"",""0"",""10320""
","""event"",""trial"",""time""
""fullscreenexit"",""2"",""29127""
","null","run_exp/static/images/Set 6_rs/154a.jpg","null","","","","","","learn","SR",""
"","html-keyboard-response","117","146358","0.0-117.0","""event"",""trial"",""time""
""fullscreenenter"",""0"",""10320""
""fullscreenexit"",""2"",""29127""
""blur"",""2"",""30236""
""focus"",""2"",""35097""
","""event"",""trial"",""time""
""blur"",""2"",""30236""
","""event"",""trial"",""time""
""focus"",""2"",""35097""
","""event"",""trial"",""time""
""fullscreenenter"",""0"",""10320""
","""event"",""trial"",""time""
""fullscreenexit"",""2"",""29127""
","null","<p></p>","null","","","","","","","",""
"","image","118","147421","0.0-118.0","""event"",""trial"",""time""
""fullscreenenter"",""0"",""10320""
""fullscreenexit"",""2"",""29127""
""blur"",""2"",""30236""
""focus"",""2"",""35097""
","""event"",""trial"",""time""
""blur"",""2"",""30236""
","""event"",""trial"",""time""
""focus"",""2"",""35097""
","""event"",""trial"",""time""
""fullscreenenter"",""0"",""10320""
","""event"",""trial"",""time""
""fullscreenexit"",""2"",""29127""
","1060.8999998569489","run_exp/static/images/Set 6_rs/167a.jpg","86","","","","","","learn","SL",""
"","show_choice","119","148362","0.0-119.0","""event"",""trial"",""time""
""fullscreenenter"",""0"",""10320""
""fullscreenexit"",""2"",""29127""
""blur"",""2"",""30236""
""focus"",""2"",""35097""
","""event"",""trial"",""time""
""blur"",""2"",""30236""
","""event"",""trial"",""time""
""focus"",""2"",""35097""
","""event"",""trial"",""time""
""fullscreenenter"",""0"",""10320""
","""event"",""trial"",""time""
""fullscreenexit"",""2"",""29127""
","null","run_exp/static/images/Set 6_rs/167a.jpg","null","","","","","","learn","SL",""
"","html-keyboard-response","120","148869","0.0-120.0","""event"",""trial"",""time""
""fullscreenenter"",""0"",""10320""
""fullscreenexit"",""2"",""29127""
""blur"",""2"",""30236""
""focus"",""2"",""35097""
","""event"",""trial"",""time""
""blur"",""2"",""30236""
","""event"",""trial"",""time""
""focus"",""2"",""35097""
","""event"",""trial"",""time""
""fullscreenenter"",""0"",""10320""
","""event"",""trial"",""time""
""fullscreenexit"",""2"",""29127""
","null","<p></p>","null","","","","","","","",""
"","image","121","150520","0.0-121.0","""event"",""trial"",""time""
""fullscreenenter"",""0"",""10320""
""fullscreenexit"",""2"",""29127""
""blur"",""2"",""30236""
""focus"",""2"",""35097""
","""event"",""trial"",""time""
""blur"",""2"",""30236""
","""event"",""trial"",""time""
""focus"",""2"",""35097""
","""event"",""trial"",""time""
""fullscreenenter"",""0"",""10320""
","""event"",""trial"",""time""
""fullscreenexit"",""2"",""29127""
","1646.7999999523163","run_exp/static/images/Set 6_rs/075a.jpg","86","","","","","","learn","SR",""
"","show_choice","122","150888","0.0-122.0","""event"",""trial"",""time""
""fullscreenenter"",""0"",""10320""
""fullscreenexit"",""2"",""29127""
""blur"",""2"",""30236""
""focus"",""2"",""35097""
","""event"",""trial"",""time""
""blur"",""2"",""30236""
","""event"",""trial"",""time""
""focus"",""2"",""35097""
","""event"",""trial"",""time""
""fullscreenenter"",""0"",""10320""
","""event"",""trial"",""time""
""fullscreenexit"",""2"",""29127""
","null","run_exp/static/images/Set 6_rs/075a.jpg","null","","","","","","learn","SR",""
"","html-keyboard-response","123","151395","0.0-123.0","""event"",""trial"",""time""
""fullscreenenter"",""0"",""10320""
""fullscreenexit"",""2"",""29127""
""blur"",""2"",""30236""
""focus"",""2"",""35097""
","""event"",""trial"",""time""
""blur"",""2"",""30236""
","""event"",""trial"",""time""
""focus"",""2"",""35097""
","""event"",""trial"",""time""
""fullscreenenter"",""0"",""10320""
","""event"",""trial"",""time""
""fullscreenexit"",""2"",""29127""
","null","<p></p>","null","","","","","","","",""
"","image","124","152965","0.0-124.0","""event"",""trial"",""time""
""fullscreenenter"",""0"",""10320""
""fullscreenexit"",""2"",""29127""
""blur"",""2"",""30236""
""focus"",""2"",""35097""
","""event"",""trial"",""time""
""blur"",""2"",""30236""
","""event"",""trial"",""time""
""focus"",""2"",""35097""
","""event"",""trial"",""time""
""fullscreenenter"",""0"",""10320""
","""event"",""trial"",""time""
""fullscreenexit"",""2"",""29127""
","1567.5","run_exp/static/images/Set 6_rs/141a.jpg","78","","","","","","learn","SR",""
"","show_choice","125","153412","0.0-125.0","""event"",""trial"",""time""
""fullscreenenter"",""0"",""10320""
""fullscreenexit"",""2"",""29127""
""blur"",""2"",""30236""
""focus"",""2"",""35097""
","""event"",""trial"",""time""
""blur"",""2"",""30236""
","""event"",""trial"",""time""
""focus"",""2"",""35097""
","""event"",""trial"",""time""
""fullscreenenter"",""0"",""10320""
","""event"",""trial"",""time""
""fullscreenexit"",""2"",""29127""
","null","run_exp/static/images/Set 6_rs/141a.jpg","null","","","","","","learn","SR",""
"","html-keyboard-response","126","153918","0.0-126.0","""event"",""trial"",""time""
""fullscreenenter"",""0"",""10320""
""fullscreenexit"",""2"",""29127""
""blur"",""2"",""30236""
""focus"",""2"",""35097""
","""event"",""trial"",""time""
""blur"",""2"",""30236""
","""event"",""trial"",""time""
""focus"",""2"",""35097""
","""event"",""trial"",""time""
""fullscreenenter"",""0"",""10320""
","""event"",""trial"",""time""
""fullscreenexit"",""2"",""29127""
","null","<p></p>","null","","","","","","","",""
"","image","127","155558","0.0-127.0","""event"",""trial"",""time""
""fullscreenenter"",""0"",""10320""
""fullscreenexit"",""2"",""29127""
""blur"",""2"",""30236""
""focus"",""2"",""35097""
","""event"",""trial"",""time""
""blur"",""2"",""30236""
","""event"",""trial"",""time""
""focus"",""2"",""35097""
","""event"",""trial"",""time""
""fullscreenenter"",""0"",""10320""
","""event"",""trial"",""time""
""fullscreenexit"",""2"",""29127""
","1637.5999999046326","run_exp/static/images/Set 6_rs/014a.jpg","78","","","","","","learn","SL",""
"","show_choice","128","155933","0.0-128.0","""event"",""trial"",""time""
""fullscreenenter"",""0"",""10320""
""fullscreenexit"",""2"",""29127""
""blur"",""2"",""30236""
""focus"",""2"",""35097""
","""event"",""trial"",""time""
""blur"",""2"",""30236""
","""event"",""trial"",""time""
""focus"",""2"",""35097""
","""event"",""trial"",""time""
""fullscreenenter"",""0"",""10320""
","""event"",""trial"",""time""
""fullscreenexit"",""2"",""29127""
","null","run_exp/static/images/Set 6_rs/014a.jpg","null","","","","","","learn","SL",""
"","html-keyboard-response","129","156441","0.0-129.0","""event"",""trial"",""time""
""fullscreenenter"",""0"",""10320""
""fullscreenexit"",""2"",""29127""
""blur"",""2"",""30236""
""focus"",""2"",""35097""
","""event"",""trial"",""time""
""blur"",""2"",""30236""
","""event"",""trial"",""time""
""focus"",""2"",""35097""
","""event"",""trial"",""time""
""fullscreenenter"",""0"",""10320""
","""event"",""trial"",""time""
""fullscreenexit"",""2"",""29127""
","null","<p></p>","null","","","","","","","",""
"","image","130","158293","0.0-130.0","""event"",""trial"",""time""
""fullscreenenter"",""0"",""10320""
""fullscreenexit"",""2"",""29127""
""blur"",""2"",""30236""
""focus"",""2"",""35097""
","""event"",""trial"",""time""
""blur"",""2"",""30236""
","""event"",""trial"",""time""
""focus"",""2"",""35097""
","""event"",""trial"",""time""
""fullscreenenter"",""0"",""10320""
","""event"",""trial"",""time""
""fullscreenexit"",""2"",""29127""
","1849.7999999523163","run_exp/static/images/Set 6_rs/144a.jpg","78","","","","","","learn","SL",""
"","show_choice","131","158447","0.0-131.0","""event"",""trial"",""time""
""fullscreenenter"",""0"",""10320""
""fullscreenexit"",""2"",""29127""
""blur"",""2"",""30236""
""focus"",""2"",""35097""
","""event"",""trial"",""time""
""blur"",""2"",""30236""
","""event"",""trial"",""time""
""focus"",""2"",""35097""
","""event"",""trial"",""time""
""fullscreenenter"",""0"",""10320""
","""event"",""trial"",""time""
""fullscreenexit"",""2"",""29127""
","null","run_exp/static/images/Set 6_rs/144a.jpg","null","","","","","","learn","SL",""
"","html-keyboard-response","132","158954","0.0-132.0","""event"",""trial"",""time""
""fullscreenenter"",""0"",""10320""
""fullscreenexit"",""2"",""29127""
""blur"",""2"",""30236""
""focus"",""2"",""35097""
","""event"",""trial"",""time""
""blur"",""2"",""30236""
","""event"",""trial"",""time""
""focus"",""2"",""35097""
","""event"",""trial"",""time""
""fullscreenenter"",""0"",""10320""
","""event"",""trial"",""time""
""fullscreenexit"",""2"",""29127""
","null","<p></p>","null","","","","","","","",""
"","image","133","160304","0.0-133.0","""event"",""trial"",""time""
""fullscreenenter"",""0"",""10320""
""fullscreenexit"",""2"",""29127""
""blur"",""2"",""30236""
""focus"",""2"",""35097""
","""event"",""trial"",""time""
""blur"",""2"",""30236""
","""event"",""trial"",""time""
""focus"",""2"",""35097""
","""event"",""trial"",""time""
""fullscreenenter"",""0"",""10320""
","""event"",""trial"",""time""
""fullscreenexit"",""2"",""29127""
","1348.5999999046326","run_exp/static/images/Set 6_rs/112a.jpg","86","","","","","","learn","SR",""
"","show_choice","134","160960","0.0-134.0","""event"",""trial"",""time""
""fullscreenenter"",""0"",""10320""
""fullscreenexit"",""2"",""29127""
""blur"",""2"",""30236""
""focus"",""2"",""35097""
","""event"",""trial"",""time""
""blur"",""2"",""30236""
","""event"",""trial"",""time""
""focus"",""2"",""35097""
","""event"",""trial"",""time""
""fullscreenenter"",""0"",""10320""
","""event"",""trial"",""time""
""fullscreenexit"",""2"",""29127""
","null","run_exp/static/images/Set 6_rs/112a.jpg","null","","","","","","learn","SR",""
"","html-keyboard-response","135","161467","0.0-135.0","""event"",""trial"",""time""
""fullscreenenter"",""0"",""10320""
""fullscreenexit"",""2"",""29127""
""blur"",""2"",""30236""
""focus"",""2"",""35097""
","""event"",""trial"",""time""
""blur"",""2"",""30236""
","""event"",""trial"",""time""
""focus"",""2"",""35097""
","""event"",""trial"",""time""
""fullscreenenter"",""0"",""10320""
","""event"",""trial"",""time""
""fullscreenexit"",""2"",""29127""
","null","<p></p>","null","","","","","","","",""
"","image","136","162926","0.0-136.0","""event"",""trial"",""time""
""fullscreenenter"",""0"",""10320""
""fullscreenexit"",""2"",""29127""
""blur"",""2"",""30236""
""focus"",""2"",""35097""
","""event"",""trial"",""time""
""blur"",""2"",""30236""
","""event"",""trial"",""time""
""focus"",""2"",""35097""
","""event"",""trial"",""time""
""fullscreenenter"",""0"",""10320""
","""event"",""trial"",""time""
""fullscreenexit"",""2"",""29127""
","1457.7999999523163","run_exp/static/images/Set 6_rs/168a.jpg","86","","","","","","learn","SL",""
"","show_choice","137","163471","0.0-137.0","""event"",""trial"",""time""
""fullscreenenter"",""0"",""10320""
""fullscreenexit"",""2"",""29127""
""blur"",""2"",""30236""
""focus"",""2"",""35097""
","""event"",""trial"",""time""
""blur"",""2"",""30236""
","""event"",""trial"",""time""
""focus"",""2"",""35097""
","""event"",""trial"",""time""
""fullscreenenter"",""0"",""10320""
","""event"",""trial"",""time""
""fullscreenexit"",""2"",""29127""
","null","run_exp/static/images/Set 6_rs/168a.jpg","null","","","","","","learn","SL",""
"","html-keyboard-response","138","163979","0.0-138.0","""event"",""trial"",""time""
""fullscreenenter"",""0"",""10320""
""fullscreenexit"",""2"",""29127""
""blur"",""2"",""30236""
""focus"",""2"",""35097""
","""event"",""trial"",""time""
""blur"",""2"",""30236""
","""event"",""trial"",""time""
""focus"",""2"",""35097""
","""event"",""trial"",""time""
""fullscreenenter"",""0"",""10320""
","""event"",""trial"",""time""
""fullscreenexit"",""2"",""29127""
","null","<p></p>","null","","","","","","","",""
"","image","139","165174","0.0-139.0","""event"",""trial"",""time""
""fullscreenenter"",""0"",""10320""
""fullscreenexit"",""2"",""29127""
""blur"",""2"",""30236""
""focus"",""2"",""35097""
","""event"",""trial"",""time""
""blur"",""2"",""30236""
","""event"",""trial"",""time""
""focus"",""2"",""35097""
","""event"",""trial"",""time""
""fullscreenenter"",""0"",""10320""
","""event"",""trial"",""time""
""fullscreenexit"",""2"",""29127""
","1192.5999999046326","run_exp/static/images/Set 6_rs/091a.jpg","78","","","","","","learn","SL",""
"","show_choice","140","165988","0.0-140.0","""event"",""trial"",""time""
""fullscreenenter"",""0"",""10320""
""fullscreenexit"",""2"",""29127""
""blur"",""2"",""30236""
""focus"",""2"",""35097""
","""event"",""trial"",""time""
""blur"",""2"",""30236""
","""event"",""trial"",""time""
""focus"",""2"",""35097""
","""event"",""trial"",""time""
""fullscreenenter"",""0"",""10320""
","""event"",""trial"",""time""
""fullscreenexit"",""2"",""29127""
","null","run_exp/static/images/Set 6_rs/091a.jpg","null","","","","","","learn","SL",""
"","html-keyboard-response","141","166498","0.0-141.0","""event"",""trial"",""time""
""fullscreenenter"",""0"",""10320""
""fullscreenexit"",""2"",""29127""
""blur"",""2"",""30236""
""focus"",""2"",""35097""
","""event"",""trial"",""time""
""blur"",""2"",""30236""
","""event"",""trial"",""time""
""focus"",""2"",""35097""
","""event"",""trial"",""time""
""fullscreenenter"",""0"",""10320""
","""event"",""trial"",""time""
""fullscreenexit"",""2"",""29127""
","null","<p></p>","null","","","","","","","",""
"","image","142","168086","0.0-142.0","""event"",""trial"",""time""
""fullscreenenter"",""0"",""10320""
""fullscreenexit"",""2"",""29127""
""blur"",""2"",""30236""
""focus"",""2"",""35097""
","""event"",""trial"",""time""
""blur"",""2"",""30236""
","""event"",""trial"",""time""
""focus"",""2"",""35097""
","""event"",""trial"",""time""
""fullscreenenter"",""0"",""10320""
","""event"",""trial"",""time""
""fullscreenexit"",""2"",""29127""
","1585.3999998569489","run_exp/static/images/Set 6_rs/025a.jpg","78","","","","","","learn","SL",""
"","show_choice","143","168509","0.0-143.0","""event"",""trial"",""time""
""fullscreenenter"",""0"",""10320""
""fullscreenexit"",""2"",""29127""
""blur"",""2"",""30236""
""focus"",""2"",""35097""
","""event"",""trial"",""time""
""blur"",""2"",""30236""
","""event"",""trial"",""time""
""focus"",""2"",""35097""
","""event"",""trial"",""time""
""fullscreenenter"",""0"",""10320""
","""event"",""trial"",""time""
""fullscreenexit"",""2"",""29127""
","null","run_exp/static/images/Set 6_rs/025a.jpg","null","","","","","","learn","SL",""
"","html-keyboard-response","144","169019","0.0-144.0","""event"",""trial"",""time""
""fullscreenenter"",""0"",""10320""
""fullscreenexit"",""2"",""29127""
""blur"",""2"",""30236""
""focus"",""2"",""35097""
","""event"",""trial"",""time""
""blur"",""2"",""30236""
","""event"",""trial"",""time""
""focus"",""2"",""35097""
","""event"",""trial"",""time""
""fullscreenenter"",""0"",""10320""
","""event"",""trial"",""time""
""fullscreenexit"",""2"",""29127""
","null","<p></p>","null","","","","","","","",""
"","image","145","170839","0.0-145.0","""event"",""trial"",""time""
""fullscreenenter"",""0"",""10320""
""fullscreenexit"",""2"",""29127""
""blur"",""2"",""30236""
""focus"",""2"",""35097""
","""event"",""trial"",""time""
""blur"",""2"",""30236""
","""event"",""trial"",""time""
""focus"",""2"",""35097""
","""event"",""trial"",""time""
""fullscreenenter"",""0"",""10320""
","""event"",""trial"",""time""
""fullscreenexit"",""2"",""29127""
","1817.7999999523163","run_exp/static/images/Set 6_rs/062a.jpg","86","","","","","","learn","SL",""
"","show_choice","146","171031","0.0-146.0","""event"",""trial"",""time""
""fullscreenenter"",""0"",""10320""
""fullscreenexit"",""2"",""29127""
""blur"",""2"",""30236""
""focus"",""2"",""35097""
","""event"",""trial"",""time""
""blur"",""2"",""30236""
","""event"",""trial"",""time""
""focus"",""2"",""35097""
","""event"",""trial"",""time""
""fullscreenenter"",""0"",""10320""
","""event"",""trial"",""time""
""fullscreenexit"",""2"",""29127""
","null","run_exp/static/images/Set 6_rs/062a.jpg","null","","","","","","learn","SL",""
"","html-keyboard-response","147","171538","0.0-147.0","""event"",""trial"",""time""
""fullscreenenter"",""0"",""10320""
""fullscreenexit"",""2"",""29127""
""blur"",""2"",""30236""
""focus"",""2"",""35097""
","""event"",""trial"",""time""
""blur"",""2"",""30236""
","""event"",""trial"",""time""
""focus"",""2"",""35097""
","""event"",""trial"",""time""
""fullscreenenter"",""0"",""10320""
","""event"",""trial"",""time""
""fullscreenexit"",""2"",""29127""
","null","<p></p>","null","","","","","","","",""
"","image","148","172346","0.0-148.0","""event"",""trial"",""time""
""fullscreenenter"",""0"",""10320""
""fullscreenexit"",""2"",""29127""
""blur"",""2"",""30236""
""focus"",""2"",""35097""
","""event"",""trial"",""time""
""blur"",""2"",""30236""
","""event"",""trial"",""time""
""focus"",""2"",""35097""
","""event"",""trial"",""time""
""fullscreenenter"",""0"",""10320""
","""event"",""trial"",""time""
""fullscreenexit"",""2"",""29127""
","805.0999999046326","run_exp/static/images/Set 6_rs/172a.jpg","86","","","","","","learn","SR",""
"","show_choice","149","173550","0.0-149.0","""event"",""trial"",""time""
""fullscreenenter"",""0"",""10320""
""fullscreenexit"",""2"",""29127""
""blur"",""2"",""30236""
""focus"",""2"",""35097""
","""event"",""trial"",""time""
""blur"",""2"",""30236""
","""event"",""trial"",""time""
""focus"",""2"",""35097""
","""event"",""trial"",""time""
""fullscreenenter"",""0"",""10320""
","""event"",""trial"",""time""
""fullscreenexit"",""2"",""29127""
","null","run_exp/static/images/Set 6_rs/172a.jpg","null","","","","","","learn","SR",""
"","html-keyboard-response","150","174059","0.0-150.0","""event"",""trial"",""time""
""fullscreenenter"",""0"",""10320""
""fullscreenexit"",""2"",""29127""
""blur"",""2"",""30236""
""focus"",""2"",""35097""
","""event"",""trial"",""time""
""blur"",""2"",""30236""
","""event"",""trial"",""time""
""focus"",""2"",""35097""
","""event"",""trial"",""time""
""fullscreenenter"",""0"",""10320""
","""event"",""trial"",""time""
""fullscreenexit"",""2"",""29127""
","null","<p></p>","null","","","","","","","",""
"","image","151","176068","0.0-151.0","""event"",""trial"",""time""
""fullscreenenter"",""0"",""10320""
""fullscreenexit"",""2"",""29127""
""blur"",""2"",""30236""
""focus"",""2"",""35097""
","""event"",""trial"",""time""
""blur"",""2"",""30236""
","""event"",""trial"",""time""
""focus"",""2"",""35097""
","""event"",""trial"",""time""
""fullscreenenter"",""0"",""10320""
","""event"",""trial"",""time""
""fullscreenexit"",""2"",""29127""
","null","run_exp/static/images/Set 6_rs/132a.jpg","null","","","","","","learn","SR",""
"","show_choice","152","178083","0.0-152.0","""event"",""trial"",""time""
""fullscreenenter"",""0"",""10320""
""fullscreenexit"",""2"",""29127""
""blur"",""2"",""30236""
""focus"",""2"",""35097""
","""event"",""trial"",""time""
""blur"",""2"",""30236""
","""event"",""trial"",""time""
""focus"",""2"",""35097""
","""event"",""trial"",""time""
""fullscreenenter"",""0"",""10320""
","""event"",""trial"",""time""
""fullscreenexit"",""2"",""29127""
","null","run_exp/static/images/blank.png","null","","","","","","learn","SR",""
"","html-keyboard-response","153","178591","0.0-153.0","""event"",""trial"",""time""
""fullscreenenter"",""0"",""10320""
""fullscreenexit"",""2"",""29127""
""blur"",""2"",""30236""
""focus"",""2"",""35097""
","""event"",""trial"",""time""
""blur"",""2"",""30236""
","""event"",""trial"",""time""
""focus"",""2"",""35097""
","""event"",""trial"",""time""
""fullscreenenter"",""0"",""10320""
","""event"",""trial"",""time""
""fullscreenexit"",""2"",""29127""
","null","<p></p>","null","","","","","","","",""
"","image","154","179605","0.0-154.0","""event"",""trial"",""time""
""fullscreenenter"",""0"",""10320""
""fullscreenexit"",""2"",""29127""
""blur"",""2"",""30236""
""focus"",""2"",""35097""
","""event"",""trial"",""time""
""blur"",""2"",""30236""
","""event"",""trial"",""time""
""focus"",""2"",""35097""
","""event"",""trial"",""time""
""fullscreenenter"",""0"",""10320""
","""event"",""trial"",""time""
""fullscreenexit"",""2"",""29127""
","1012.3000001907349","run_exp/static/images/Set 6_rs/095a.jpg","86","","","","","","learn","SL",""
"","show_choice","155","180596","0.0-155.0","""event"",""trial"",""time""
""fullscreenenter"",""0"",""10320""
""fullscreenexit"",""2"",""29127""
""blur"",""2"",""30236""
""focus"",""2"",""35097""
","""event"",""trial"",""time""
""blur"",""2"",""30236""
","""event"",""trial"",""time""
""focus"",""2"",""35097""
","""event"",""trial"",""time""
""fullscreenenter"",""0"",""10320""
","""event"",""trial"",""time""
""fullscreenexit"",""2"",""29127""
","null","run_exp/static/images/Set 6_rs/095a.jpg","null","","","","","","learn","SL",""
"","html-keyboard-response","156","181107","0.0-156.0","""event"",""trial"",""time""
""fullscreenenter"",""0"",""10320""
""fullscreenexit"",""2"",""29127""
""blur"",""2"",""30236""
""focus"",""2"",""35097""
","""event"",""trial"",""time""
""blur"",""2"",""30236""
","""event"",""trial"",""time""
""focus"",""2"",""35097""
","""event"",""trial"",""time""
""fullscreenenter"",""0"",""10320""
","""event"",""trial"",""time""
""fullscreenexit"",""2"",""29127""
","null","<p></p>","null","","","","","","","",""
"","image","157","182151","0.0-157.0","""event"",""trial"",""time""
""fullscreenenter"",""0"",""10320""
""fullscreenexit"",""2"",""29127""
""blur"",""2"",""30236""
""focus"",""2"",""35097""
","""event"",""trial"",""time""
""blur"",""2"",""30236""
","""event"",""trial"",""time""
""focus"",""2"",""35097""
","""event"",""trial"",""time""
""fullscreenenter"",""0"",""10320""
","""event"",""trial"",""time""
""fullscreenexit"",""2"",""29127""
","1042.4000000953674","run_exp/static/images/Set 6_rs/186a.jpg","86","","","","","","learn","SR",""
"","show_choice","158","183119","0.0-158.0","""event"",""trial"",""time""
""fullscreenenter"",""0"",""10320""
""fullscreenexit"",""2"",""29127""
""blur"",""2"",""30236""
""focus"",""2"",""35097""
","""event"",""trial"",""time""
""blur"",""2"",""30236""
","""event"",""trial"",""time""
""focus"",""2"",""35097""
","""event"",""trial"",""time""
""fullscreenenter"",""0"",""10320""
","""event"",""trial"",""time""
""fullscreenexit"",""2"",""29127""
","null","run_exp/static/images/Set 6_rs/186a.jpg","null","","","","","","learn","SR",""
"","html-keyboard-response","159","183627","0.0-159.0","""event"",""trial"",""time""
""fullscreenenter"",""0"",""10320""
""fullscreenexit"",""2"",""29127""
""blur"",""2"",""30236""
""focus"",""2"",""35097""
","""event"",""trial"",""time""
""blur"",""2"",""30236""
","""event"",""trial"",""time""
""focus"",""2"",""35097""
","""event"",""trial"",""time""
""fullscreenenter"",""0"",""10320""
","""event"",""trial"",""time""
""fullscreenexit"",""2"",""29127""
","null","<p></p>","null","","","","","","","",""
"","image","160","184810","0.0-160.0","""event"",""trial"",""time""
""fullscreenenter"",""0"",""10320""
""fullscreenexit"",""2"",""29127""
""blur"",""2"",""30236""
""focus"",""2"",""35097""
","""event"",""trial"",""time""
""blur"",""2"",""30236""
","""event"",""trial"",""time""
""focus"",""2"",""35097""
","""event"",""trial"",""time""
""fullscreenenter"",""0"",""10320""
","""event"",""trial"",""time""
""fullscreenexit"",""2"",""29127""
","1181.2000000476837","run_exp/static/images/Set 6_rs/187a.jpg","86","","","","","","learn","SR",""
"","show_choice","161","185643","0.0-161.0","""event"",""trial"",""time""
""fullscreenenter"",""0"",""10320""
""fullscreenexit"",""2"",""29127""
""blur"",""2"",""30236""
""focus"",""2"",""35097""
","""event"",""trial"",""time""
""blur"",""2"",""30236""
","""event"",""trial"",""time""
""focus"",""2"",""35097""
","""event"",""trial"",""time""
""fullscreenenter"",""0"",""10320""
","""event"",""trial"",""time""
""fullscreenexit"",""2"",""29127""
","null","run_exp/static/images/Set 6_rs/187a.jpg","null","","","","","","learn","SR",""
"","html-keyboard-response","162","186150","0.0-162.0","""event"",""trial"",""time""
""fullscreenenter"",""0"",""10320""
""fullscreenexit"",""2"",""29127""
""blur"",""2"",""30236""
""focus"",""2"",""35097""
","""event"",""trial"",""time""
""blur"",""2"",""30236""
","""event"",""trial"",""time""
""focus"",""2"",""35097""
","""event"",""trial"",""time""
""fullscreenenter"",""0"",""10320""
","""event"",""trial"",""time""
""fullscreenexit"",""2"",""29127""
","null","<p></p>","null","","","","","","","",""
"","image","163","187226","0.0-163.0","""event"",""trial"",""time""
""fullscreenenter"",""0"",""10320""
""fullscreenexit"",""2"",""29127""
""blur"",""2"",""30236""
""focus"",""2"",""35097""
","""event"",""trial"",""time""
""blur"",""2"",""30236""
","""event"",""trial"",""time""
""focus"",""2"",""35097""
","""event"",""trial"",""time""
""fullscreenenter"",""0"",""10320""
","""event"",""trial"",""time""
""fullscreenexit"",""2"",""29127""
","1073","run_exp/static/images/Set 6_rs/129a.jpg","86","","","","","","learn","SL",""
"","show_choice","164","188157","0.0-164.0","""event"",""trial"",""time""
""fullscreenenter"",""0"",""10320""
""fullscreenexit"",""2"",""29127""
""blur"",""2"",""30236""
""focus"",""2"",""35097""
","""event"",""trial"",""time""
""blur"",""2"",""30236""
","""event"",""trial"",""time""
""focus"",""2"",""35097""
","""event"",""trial"",""time""
""fullscreenenter"",""0"",""10320""
","""event"",""trial"",""time""
""fullscreenexit"",""2"",""29127""
","null","run_exp/static/images/Set 6_rs/129a.jpg","null","","","","","","learn","SL",""
"","html-keyboard-response","165","188663","0.0-165.0","""event"",""trial"",""time""
""fullscreenenter"",""0"",""10320""
""fullscreenexit"",""2"",""29127""
""blur"",""2"",""30236""
""focus"",""2"",""35097""
","""event"",""trial"",""time""
""blur"",""2"",""30236""
","""event"",""trial"",""time""
""focus"",""2"",""35097""
","""event"",""trial"",""time""
""fullscreenenter"",""0"",""10320""
","""event"",""trial"",""time""
""fullscreenexit"",""2"",""29127""
","null","<p></p>","null","","","","","","","",""
"","image","166","189990","0.0-166.0","""event"",""trial"",""time""
""fullscreenenter"",""0"",""10320""
""fullscreenexit"",""2"",""29127""
""blur"",""2"",""30236""
""focus"",""2"",""35097""
","""event"",""trial"",""time""
""blur"",""2"",""30236""
","""event"",""trial"",""time""
""focus"",""2"",""35097""
","""event"",""trial"",""time""
""fullscreenenter"",""0"",""10320""
","""event"",""trial"",""time""
""fullscreenexit"",""2"",""29127""
","1324","run_exp/static/images/Set 6_rs/045a.jpg","86","","","","","","learn","SR",""
"","show_choice","167","190682","0.0-167.0","""event"",""trial"",""time""
""fullscreenenter"",""0"",""10320""
""fullscreenexit"",""2"",""29127""
""blur"",""2"",""30236""
""focus"",""2"",""35097""
","""event"",""trial"",""time""
""blur"",""2"",""30236""
","""event"",""trial"",""time""
""focus"",""2"",""35097""
","""event"",""trial"",""time""
""fullscreenenter"",""0"",""10320""
","""event"",""trial"",""time""
""fullscreenexit"",""2"",""29127""
","null","run_exp/static/images/Set 6_rs/045a.jpg","null","","","","","","learn","SR",""
"","html-keyboard-response","168","191185","0.0-168.0","""event"",""trial"",""time""
""fullscreenenter"",""0"",""10320""
""fullscreenexit"",""2"",""29127""
""blur"",""2"",""30236""
""focus"",""2"",""35097""
","""event"",""trial"",""time""
""blur"",""2"",""30236""
","""event"",""trial"",""time""
""focus"",""2"",""35097""
","""event"",""trial"",""time""
""fullscreenenter"",""0"",""10320""
","""event"",""trial"",""time""
""fullscreenexit"",""2"",""29127""
","null","<p></p>","null","","","","","","","",""
"","image","169","193145","0.0-169.0","""event"",""trial"",""time""
""fullscreenenter"",""0"",""10320""
""fullscreenexit"",""2"",""29127""
""blur"",""2"",""30236""
""focus"",""2"",""35097""
","""event"",""trial"",""time""
""blur"",""2"",""30236""
","""event"",""trial"",""time""
""focus"",""2"",""35097""
","""event"",""trial"",""time""
""fullscreenenter"",""0"",""10320""
","""event"",""trial"",""time""
""fullscreenexit"",""2"",""29127""
","1957.8999998569489","run_exp/static/images/Set 6_rs/116a.jpg","86","","","","","","learn","SL",""
"","show_choice","170","193195","0.0-170.0","""event"",""trial"",""time""
""fullscreenenter"",""0"",""10320""
""fullscreenexit"",""2"",""29127""
""blur"",""2"",""30236""
""focus"",""2"",""35097""
","""event"",""trial"",""time""
""blur"",""2"",""30236""
","""event"",""trial"",""time""
""focus"",""2"",""35097""
","""event"",""trial"",""time""
""fullscreenenter"",""0"",""10320""
","""event"",""trial"",""time""
""fullscreenexit"",""2"",""29127""
","null","run_exp/static/images/Set 6_rs/116a.jpg","null","","","","","","learn","SL",""
"","html-keyboard-response","171","193705","0.0-171.0","""event"",""trial"",""time""
""fullscreenenter"",""0"",""10320""
""fullscreenexit"",""2"",""29127""
""blur"",""2"",""30236""
""focus"",""2"",""35097""
","""event"",""trial"",""time""
""blur"",""2"",""30236""
","""event"",""trial"",""time""
""focus"",""2"",""35097""
","""event"",""trial"",""time""
""fullscreenenter"",""0"",""10320""
","""event"",""trial"",""time""
""fullscreenexit"",""2"",""29127""
","null","<p></p>","null","","","","","","","",""
"","image","172","195118","0.0-172.0","""event"",""trial"",""time""
""fullscreenenter"",""0"",""10320""
""fullscreenexit"",""2"",""29127""
""blur"",""2"",""30236""
""focus"",""2"",""35097""
","""event"",""trial"",""time""
""blur"",""2"",""30236""
","""event"",""trial"",""time""
""focus"",""2"",""35097""
","""event"",""trial"",""time""
""fullscreenenter"",""0"",""10320""
","""event"",""trial"",""time""
""fullscreenexit"",""2"",""29127""
","1410.2999999523163","run_exp/static/images/Set 6_rs/111a.jpg","86","","","","","","learn","SL",""
"","show_choice","173","195711","0.0-173.0","""event"",""trial"",""time""
""fullscreenenter"",""0"",""10320""
""fullscreenexit"",""2"",""29127""
""blur"",""2"",""30236""
""focus"",""2"",""35097""
","""event"",""trial"",""time""
""blur"",""2"",""30236""
","""event"",""trial"",""time""
""focus"",""2"",""35097""
","""event"",""trial"",""time""
""fullscreenenter"",""0"",""10320""
","""event"",""trial"",""time""
""fullscreenexit"",""2"",""29127""
","null","run_exp/static/images/Set 6_rs/111a.jpg","null","","","","","","learn","SL",""
"","html-keyboard-response","174","196219","0.0-174.0","""event"",""trial"",""time""
""fullscreenenter"",""0"",""10320""
""fullscreenexit"",""2"",""29127""
""blur"",""2"",""30236""
""focus"",""2"",""35097""
","""event"",""trial"",""time""
""blur"",""2"",""30236""
","""event"",""trial"",""time""
""focus"",""2"",""35097""
","""event"",""trial"",""time""
""fullscreenenter"",""0"",""10320""
","""event"",""trial"",""time""
""fullscreenexit"",""2"",""29127""
","null","<p></p>","null","","","","","","","",""
"","image","175","197498","0.0-175.0","""event"",""trial"",""time""
""fullscreenenter"",""0"",""10320""
""fullscreenexit"",""2"",""29127""
""blur"",""2"",""30236""
""focus"",""2"",""35097""
","""event"",""trial"",""time""
""blur"",""2"",""30236""
","""event"",""trial"",""time""
""focus"",""2"",""35097""
","""event"",""trial"",""time""
""fullscreenenter"",""0"",""10320""
","""event"",""trial"",""time""
""fullscreenexit"",""2"",""29127""
","1276.7999999523163","run_exp/static/images/Set 6_rs/066a.jpg","86","","","","","","learn","SL",""
"","show_choice","176","198229","0.0-176.0","""event"",""trial"",""time""
""fullscreenenter"",""0"",""10320""
""fullscreenexit"",""2"",""29127""
""blur"",""2"",""30236""
""focus"",""2"",""35097""
","""event"",""trial"",""time""
""blur"",""2"",""30236""
","""event"",""trial"",""time""
""focus"",""2"",""35097""
","""event"",""trial"",""time""
""fullscreenenter"",""0"",""10320""
","""event"",""trial"",""time""
""fullscreenexit"",""2"",""29127""
","null","run_exp/static/images/Set 6_rs/066a.jpg","null","","","","","","learn","SL",""
"","html-keyboard-response","177","198736","0.0-177.0","""event"",""trial"",""time""
""fullscreenenter"",""0"",""10320""
""fullscreenexit"",""2"",""29127""
""blur"",""2"",""30236""
""focus"",""2"",""35097""
","""event"",""trial"",""time""
""blur"",""2"",""30236""
","""event"",""trial"",""time""
""focus"",""2"",""35097""
","""event"",""trial"",""time""
""fullscreenenter"",""0"",""10320""
","""event"",""trial"",""time""
""fullscreenexit"",""2"",""29127""
","null","<p></p>","null","","","","","","","",""
"","image","178","200175","0.0-178.0","""event"",""trial"",""time""
""fullscreenenter"",""0"",""10320""
""fullscreenexit"",""2"",""29127""
""blur"",""2"",""30236""
""focus"",""2"",""35097""
","""event"",""trial"",""time""
""blur"",""2"",""30236""
","""event"",""trial"",""time""
""focus"",""2"",""35097""
","""event"",""trial"",""time""
""fullscreenenter"",""0"",""10320""
","""event"",""trial"",""time""
""fullscreenexit"",""2"",""29127""
","1437.1000001430511","run_exp/static/images/Set 6_rs/023a.jpg","86","","","","","","learn","SR",""
"","show_choice","179","200751","0.0-179.0","""event"",""trial"",""time""
""fullscreenenter"",""0"",""10320""
""fullscreenexit"",""2"",""29127""
""blur"",""2"",""30236""
""focus"",""2"",""35097""
","""event"",""trial"",""time""
""blur"",""2"",""30236""
","""event"",""trial"",""time""
""focus"",""2"",""35097""
","""event"",""trial"",""time""
""fullscreenenter"",""0"",""10320""
","""event"",""trial"",""time""
""fullscreenexit"",""2"",""29127""
","null","run_exp/static/images/Set 6_rs/023a.jpg","null","","","","","","learn","SR",""
"","html-keyboard-response","180","201261","0.0-180.0","""event"",""trial"",""time""
""fullscreenenter"",""0"",""10320""
""fullscreenexit"",""2"",""29127""
""blur"",""2"",""30236""
""focus"",""2"",""35097""
","""event"",""trial"",""time""
""blur"",""2"",""30236""
","""event"",""trial"",""time""
""focus"",""2"",""35097""
","""event"",""trial"",""time""
""fullscreenenter"",""0"",""10320""
","""event"",""trial"",""time""
""fullscreenexit"",""2"",""29127""
","null","<p></p>","null","","","","","","","",""
"","image","181","203107","0.0-181.0","""event"",""trial"",""time""
""fullscreenenter"",""0"",""10320""
""fullscreenexit"",""2"",""29127""
""blur"",""2"",""30236""
""focus"",""2"",""35097""
","""event"",""trial"",""time""
""blur"",""2"",""30236""
","""event"",""trial"",""time""
""focus"",""2"",""35097""
","""event"",""trial"",""time""
""fullscreenenter"",""0"",""10320""
","""event"",""trial"",""time""
""fullscreenexit"",""2"",""29127""
","1844.0999999046326","run_exp/static/images/Set 6_rs/006a.jpg","78","","","","","","learn","SL",""
"","show_choice","182","203274","0.0-182.0","""event"",""trial"",""time""
""fullscreenenter"",""0"",""10320""
""fullscreenexit"",""2"",""29127""
""blur"",""2"",""30236""
""focus"",""2"",""35097""
","""event"",""trial"",""time""
""blur"",""2"",""30236""
","""event"",""trial"",""time""
""focus"",""2"",""35097""
","""event"",""trial"",""time""
""fullscreenenter"",""0"",""10320""
","""event"",""trial"",""time""
""fullscreenexit"",""2"",""29127""
","null","run_exp/static/images/Set 6_rs/006a.jpg","null","","","","","","learn","SL",""
"","html-keyboard-response","183","203783","0.0-183.0","""event"",""trial"",""time""
""fullscreenenter"",""0"",""10320""
""fullscreenexit"",""2"",""29127""
""blur"",""2"",""30236""
