"success","trial_type","trial_index","time_elapsed","internal_node_id","interactions","blur_events","focus_events","fullscreenenter_events","fullscreenexit_events","rt","stimulus","key_press","subject_id","participant_id","age","gender","prompt","phase","condition","lure_bin"
"true","fullscreen","0","9399","0.0-0.0","""event"",""trial"",""time""
""fullscreenenter"",""0"",""8459""
","
","
","""event"",""trial"",""time""
""fullscreenenter"",""0"",""8459""
","
","","","","","","","","","","",""
"","pavlovia","1","9403","0.0-1.0","""event"",""trial"",""time""
""fullscreenenter"",""0"",""8459""
","
","
","""event"",""trial"",""time""
""fullscreenenter"",""0"",""8459""
","
","","","","","","","","","","",""
"","welcome","2","44254","0.0-2.0","""event"",""trial"",""time""
""fullscreenenter"",""0"",""8459""
","
","
","""event"",""trial"",""time""
""fullscreenenter"",""0"",""8459""
","
","null","run_exp/static/audio/clip_1_welcome.m4a","null","533","72","12","Female","<div class='center'><p>Welcome to the third part of the study! First, you'll be shown pictures of items one at a time. For each picture, you have to decide if the item is typically found indoors or outdoors.</p><p>If you think it's usually found indoors, then press <b>v</b> key on your keyboard. If you think it's usually found outdoors, then press the <b>n</b> key.There will be reminders on the screen to help you remember which keys to press. </p><p>If you're not sure whether the item is an indoor item or an outdoor item, go ahead and take a guess but try your best not to skip that choice. </p></div>","","",""
"","html-keyboard-response","3","44492","0.0-3.0","""event"",""trial"",""time""
""fullscreenenter"",""0"",""8459""
","
","
","""event"",""trial"",""time""
""fullscreenenter"",""0"",""8459""
","
","229.5","<div class='center'><p>Welcome to the third part of the study! First, you'll be shown pictures of items one at a time. For each picture, you have to decide if the item is typically found indoors or outdoors.</p><p>If you think it's usually found indoors, then press <b>v</b> key on your keyboard. If you think it's usually found outdoors, then press the <b>n</b> key.There will be reminders on the screen to help you remember which keys to press. </p><p>If you're not sure whether the item is an indoor item or an outdoor item, go ahead and take a guess but try your best not to skip that choice. </p><div><p><b>[Press the space bar to continue]</b></p></div>","32","","","","","","","",""
"","image","4","46467","0.0-4.0","""event"",""trial"",""time""
""fullscreenenter"",""0"",""8459""
","
","
","""event"",""trial"",""time""
""fullscreenenter"",""0"",""8459""
","
","1974.0999994277954","run_exp/static/images/Set 6_rs/186a.jpg","86","","","","","","learn","SR",""
"","show_choice","5","46495","0.0-5.0","""event"",""trial"",""time""
""fullscreenenter"",""0"",""8459""
","
","
","""event"",""trial"",""time""
""fullscreenenter"",""0"",""8459""
","
","null","run_exp/static/images/Set 6_rs/186a.jpg","null","","","","","","learn","SR",""
"","html-keyboard-response","6","47002","0.0-6.0","""event"",""trial"",""time""
""fullscreenenter"",""0"",""8459""
","
","
","""event"",""trial"",""time""
""fullscreenenter"",""0"",""8459""
","
","null","<p></p>","null","","","","","","","",""
"","image","7","48075","0.0-7.0","""event"",""trial"",""time""
""fullscreenenter"",""0"",""8459""
","
","
","""event"",""trial"",""time""
""fullscreenenter"",""0"",""8459""
","
","1071.8999996185303","run_exp/static/images/Set 6_rs/024a.jpg","86","","","","","","learn","SR",""
"","show_choice","8","49022","0.0-8.0","""event"",""trial"",""time""
""fullscreenenter"",""0"",""8459""
","
","
","""event"",""trial"",""time""
""fullscreenenter"",""0"",""8459""
","
","null","run_exp/static/images/Set 6_rs/024a.jpg","null","","","","","","learn","SR",""
"","html-keyboard-response","9","49539","0.0-9.0","""event"",""trial"",""time""
""fullscreenenter"",""0"",""8459""
","
","
","""event"",""trial"",""time""
""fullscreenenter"",""0"",""8459""
","
","null","<p></p>","null","","","","","","","",""
"","image","10","50803","0.0-10.0","""event"",""trial"",""time""
""fullscreenenter"",""0"",""8459""
","
","
","""event"",""trial"",""time""
""fullscreenenter"",""0"",""8459""
","
","1262.8000001907349","run_exp/static/images/Set 6_rs/126a.jpg","78","","","","","","learn","SR",""
"","show_choice","11","51557","0.0-11.0","""event"",""trial"",""time""
""fullscreenenter"",""0"",""8459""
","
","
","""event"",""trial"",""time""
""fullscreenenter"",""0"",""8459""
","
","null","run_exp/static/images/Set 6_rs/126a.jpg","null","","","","","","learn","SR",""
"","html-keyboard-response","12","52062","0.0-12.0","""event"",""trial"",""time""
""fullscreenenter"",""0"",""8459""
","
","
","""event"",""trial"",""time""
""fullscreenenter"",""0"",""8459""
","
","null","<p></p>","null","","","","","","","",""
"","image","13","53323","0.0-13.0","""event"",""trial"",""time""
""fullscreenenter"",""0"",""8459""
","
","
","""event"",""trial"",""time""
""fullscreenenter"",""0"",""8459""
","
","1259.6999998092651","run_exp/static/images/Set 6_rs/144a.jpg","86","","","","","","learn","SL",""
"","show_choice","14","54082","0.0-14.0","""event"",""trial"",""time""
""fullscreenenter"",""0"",""8459""
","
","
","""event"",""trial"",""time""
""fullscreenenter"",""0"",""8459""
","
","null","run_exp/static/images/Set 6_rs/144a.jpg","null","","","","","","learn","SL",""
"","html-keyboard-response","15","54600","0.0-15.0","""event"",""trial"",""time""
""fullscreenenter"",""0"",""8459""
","
","
","""event"",""trial"",""time""
""fullscreenenter"",""0"",""8459""
","
","null","<p></p>","null","","","","","","","",""
"","image","16","55547","0.0-16.0","""event"",""trial"",""time""
""fullscreenenter"",""0"",""8459""
","
","
","""event"",""trial"",""time""
""fullscreenenter"",""0"",""8459""
","
","946.3000001907349","run_exp/static/images/Set 6_rs/074a.jpg","78","","","","","","learn","SL",""
"","show_choice","17","56610","0.0-17.0","""event"",""trial"",""time""
""fullscreenenter"",""0"",""8459""
","
","
","""event"",""trial"",""time""
""fullscreenenter"",""0"",""8459""
","
","null","run_exp/static/images/Set 6_rs/074a.jpg","null","","","","","","learn","SL",""
"","html-keyboard-response","18","57127","0.0-18.0","""event"",""trial"",""time""
""fullscreenenter"",""0"",""8459""
","
","
","""event"",""trial"",""time""
""fullscreenenter"",""0"",""8459""
","
","null","<p></p>","null","","","","","","","",""
"","image","19","58275","0.0-19.0","""event"",""trial"",""time""
""fullscreenenter"",""0"",""8459""
","
","
","""event"",""trial"",""time""
""fullscreenenter"",""0"",""8459""
","
","1147.3999996185303","run_exp/static/images/Set 6_rs/167a.jpg","86","","","","","","learn","SL",""
"","show_choice","20","59133","0.0-20.0","""event"",""trial"",""time""
""fullscreenenter"",""0"",""8459""
","
","
","""event"",""trial"",""time""
""fullscreenenter"",""0"",""8459""
","
","null","run_exp/static/images/Set 6_rs/167a.jpg","null","","","","","","learn","SL",""
"","html-keyboard-response","21","59637","0.0-21.0","""event"",""trial"",""time""
""fullscreenenter"",""0"",""8459""
","
","
","""event"",""trial"",""time""
""fullscreenenter"",""0"",""8459""
","
","null","<p></p>","null","","","","","","","",""
"","image","22","60715","0.0-22.0","""event"",""trial"",""time""
""fullscreenenter"",""0"",""8459""
","
","
","""event"",""trial"",""time""
""fullscreenenter"",""0"",""8459""
","
","1076.6999998092651","run_exp/static/images/Set 6_rs/036a.jpg","86","","","","","","learn","SL",""
"","show_choice","23","61643","0.0-23.0","""event"",""trial"",""time""
""fullscreenenter"",""0"",""8459""
","
","
","""event"",""trial"",""time""
""fullscreenenter"",""0"",""8459""
","
","null","run_exp/static/images/Set 6_rs/036a.jpg","null","","","","","","learn","SL",""
"","html-keyboard-response","24","62155","0.0-24.0","""event"",""trial"",""time""
""fullscreenenter"",""0"",""8459""
","
","
","""event"",""trial"",""time""
""fullscreenenter"",""0"",""8459""
","
","null","<p></p>","null","","","","","","","",""
"","image","25","63827","0.0-25.0","""event"",""trial"",""time""
""fullscreenenter"",""0"",""8459""
","
","
","""event"",""trial"",""time""
""fullscreenenter"",""0"",""8459""
","
","1671.2999992370605","run_exp/static/images/Set 6_rs/121a.jpg","78","","","","","","learn","SR",""
"","show_choice","26","64166","0.0-26.0","""event"",""trial"",""time""
""fullscreenenter"",""0"",""8459""
","
","
","""event"",""trial"",""time""
""fullscreenenter"",""0"",""8459""
","
","null","run_exp/static/images/Set 6_rs/121a.jpg","null","","","","","","learn","SR",""
"","html-keyboard-response","27","64672","0.0-27.0","""event"",""trial"",""time""
""fullscreenenter"",""0"",""8459""
","
","
","""event"",""trial"",""time""
""fullscreenenter"",""0"",""8459""
","
","null","<p></p>","null","","","","","","","",""
"","image","28","65611","0.0-28.0","""event"",""trial"",""time""
""fullscreenenter"",""0"",""8459""
","
","
","""event"",""trial"",""time""
""fullscreenenter"",""0"",""8459""
","
","937.8999996185303","run_exp/static/images/Set 6_rs/187a.jpg","86","","","","","","learn","SR",""
"","show_choice","29","66684","0.0-29.0","""event"",""trial"",""time""
""fullscreenenter"",""0"",""8459""
","
","
","""event"",""trial"",""time""
""fullscreenenter"",""0"",""8459""
","
","null","run_exp/static/images/Set 6_rs/187a.jpg","null","","","","","","learn","SR",""
"","html-keyboard-response","30","67188","0.0-30.0","""event"",""trial"",""time""
""fullscreenenter"",""0"",""8459""
","
","
","""event"",""trial"",""time""
""fullscreenenter"",""0"",""8459""
","
","null","<p></p>","null","","","","","","","",""
"","image","31","68491","0.0-31.0","""event"",""trial"",""time""
""fullscreenenter"",""0"",""8459""
","
","
","""event"",""trial"",""time""
""fullscreenenter"",""0"",""8459""
","
","1302.1999998092651","run_exp/static/images/Set 6_rs/064a.jpg","78","","","","","","learn","SR",""
"","show_choice","32","69193","0.0-32.0","""event"",""trial"",""time""
""fullscreenenter"",""0"",""8459""
","
","
","""event"",""trial"",""time""
""fullscreenenter"",""0"",""8459""
","
","null","run_exp/static/images/Set 6_rs/064a.jpg","null","","","","","","learn","SR",""
"","html-keyboard-response","33","69705","0.0-33.0","""event"",""trial"",""time""
""fullscreenenter"",""0"",""8459""
","
","
","""event"",""trial"",""time""
""fullscreenenter"",""0"",""8459""
","
","null","<p></p>","null","","","","","","","",""
"","image","34","71219","0.0-34.0","""event"",""trial"",""time""
""fullscreenenter"",""0"",""8459""
","
","
","""event"",""trial"",""time""
""fullscreenenter"",""0"",""8459""
","
","1512.8999996185303","run_exp/static/images/Set 6_rs/141a.jpg","86","","","","","","learn","SR",""
"","show_choice","35","71707","0.0-35.0","""event"",""trial"",""time""
""fullscreenenter"",""0"",""8459""
","
","
","""event"",""trial"",""time""
""fullscreenenter"",""0"",""8459""
","
","null","run_exp/static/images/Set 6_rs/141a.jpg","null","","","","","","learn","SR",""
"","html-keyboard-response","36","72222","0.0-36.0","""event"",""trial"",""time""
""fullscreenenter"",""0"",""8459""
","
","
","""event"",""trial"",""time""
""fullscreenenter"",""0"",""8459""
","
","null","<p></p>","null","","","","","","","",""
"","image","37","73243","0.0-37.0","""event"",""trial"",""time""
""fullscreenenter"",""0"",""8459""
","
","
","""event"",""trial"",""time""
""fullscreenenter"",""0"",""8459""
","
","1020","run_exp/static/images/Set 6_rs/075a.jpg","86","","","","","","learn","SR",""
"","show_choice","38","74223","0.0-38.0","""event"",""trial"",""time""
""fullscreenenter"",""0"",""8459""
","
","
","""event"",""trial"",""time""
""fullscreenenter"",""0"",""8459""
","
","null","run_exp/static/images/Set 6_rs/075a.jpg","null","","","","","","learn","SR",""
"","html-keyboard-response","39","74738","0.0-39.0","""event"",""trial"",""time""
""fullscreenenter"",""0"",""8459""
","
","
","""event"",""trial"",""time""
""fullscreenenter"",""0"",""8459""
","
","null","<p></p>","null","","","","","","","",""
"","image","40","75667","0.0-40.0","""event"",""trial"",""time""
""fullscreenenter"",""0"",""8459""
","
","
","""event"",""trial"",""time""
""fullscreenenter"",""0"",""8459""
","
","928","run_exp/static/images/Set 6_rs/073a.jpg","86","","","","","","learn","SL",""
"","show_choice","41","76754","0.0-41.0","""event"",""trial"",""time""
""fullscreenenter"",""0"",""8459""
","
","
","""event"",""trial"",""time""
""fullscreenenter"",""0"",""8459""
","
","null","run_exp/static/images/Set 6_rs/073a.jpg","null","","","","","","learn","SL",""
"","html-keyboard-response","42","77256","0.0-42.0","""event"",""trial"",""time""
""fullscreenenter"",""0"",""8459""
","
","
","""event"",""trial"",""time""
""fullscreenenter"",""0"",""8459""
","
","null","<p></p>","null","","","","","","","",""
"","image","43","78139","0.0-43.0","""event"",""trial"",""time""
""fullscreenenter"",""0"",""8459""
","
","
","""event"",""trial"",""time""
""fullscreenenter"",""0"",""8459""
","
","881.6000003814697","run_exp/static/images/Set 6_rs/181a.jpg","78","","","","","","learn","SL",""
"","show_choice","44","79263","0.0-44.0","""event"",""trial"",""time""
""fullscreenenter"",""0"",""8459""
","
","
","""event"",""trial"",""time""
""fullscreenenter"",""0"",""8459""
","
","null","run_exp/static/images/Set 6_rs/181a.jpg","null","","","","","","learn","SL",""
"","html-keyboard-response","45","79772","0.0-45.0","""event"",""trial"",""time""
""fullscreenenter"",""0"",""8459""
","
","
","""event"",""trial"",""time""
""fullscreenenter"",""0"",""8459""
","
","null","<p></p>","null","","","","","","","",""
"","image","46","80747","0.0-46.0","""event"",""trial"",""time""
""fullscreenenter"",""0"",""8459""
","
","
","""event"",""trial"",""time""
""fullscreenenter"",""0"",""8459""
","
","974.1999998092651","run_exp/static/images/Set 6_rs/079a.jpg","86","","","","","","learn","SL",""
"","show_choice","47","81786","0.0-47.0","""event"",""trial"",""time""
""fullscreenenter"",""0"",""8459""
","
","
","""event"",""trial"",""time""
""fullscreenenter"",""0"",""8459""
","
","null","run_exp/static/images/Set 6_rs/079a.jpg","null","","","","","","learn","SL",""
"","html-keyboard-response","48","82288","0.0-48.0","""event"",""trial"",""time""
""fullscreenenter"",""0"",""8459""
","
","
","""event"",""trial"",""time""
""fullscreenenter"",""0"",""8459""
","
","null","<p></p>","null","","","","","","","",""
"","image","49","83283","0.0-49.0","""event"",""trial"",""time""
""fullscreenenter"",""0"",""8459""
","
","
","""event"",""trial"",""time""
""fullscreenenter"",""0"",""8459""
","
","994.0999994277954","run_exp/static/images/Set 6_rs/016a.jpg","86","","","","","","learn","SL",""
"","show_choice","50","84295","0.0-50.0","""event"",""trial"",""time""
""fullscreenenter"",""0"",""8459""
","
","
","""event"",""trial"",""time""
""fullscreenenter"",""0"",""8459""
","
","null","run_exp/static/images/Set 6_rs/016a.jpg","null","","","","","","learn","SL",""
"","html-keyboard-response","51","84805","0.0-51.0","""event"",""trial"",""time""
""fullscreenenter"",""0"",""8459""
","
","
","""event"",""trial"",""time""
""fullscreenenter"",""0"",""8459""
","
","null","<p></p>","null","","","","","","","",""
"","image","52","85691","0.0-52.0","""event"",""trial"",""time""
""fullscreenenter"",""0"",""8459""
","
","
","""event"",""trial"",""time""
""fullscreenenter"",""0"",""8459""
","
","885.1999998092651","run_exp/static/images/Set 6_rs/169a.jpg","78","","","","","","learn","SR",""
"","show_choice","53","86814","0.0-53.0","""event"",""trial"",""time""
""fullscreenenter"",""0"",""8459""
","
","
","""event"",""trial"",""time""
""fullscreenenter"",""0"",""8459""
","
","null","run_exp/static/images/Set 6_rs/169a.jpg","null","","","","","","learn","SR",""
"","html-keyboard-response","54","87322","0.0-54.0","""event"",""trial"",""time""
""fullscreenenter"",""0"",""8459""
","
","
","""event"",""trial"",""time""
""fullscreenenter"",""0"",""8459""
","
","null","<p></p>","null","","","","","","","",""
"","image","55","88579","0.0-55.0","""event"",""trial"",""time""
""fullscreenenter"",""0"",""8459""
","
","
","""event"",""trial"",""time""
""fullscreenenter"",""0"",""8459""
","
","1256.3000001907349","run_exp/static/images/Set 6_rs/154a.jpg","86","","","","","","learn","SR",""
"","show_choice","56","89337","0.0-56.0","""event"",""trial"",""time""
""fullscreenenter"",""0"",""8459""
","
","
","""event"",""trial"",""time""
""fullscreenenter"",""0"",""8459""
","
","null","run_exp/static/images/Set 6_rs/154a.jpg","null","","","","","","learn","SR",""
"","html-keyboard-response","57","89839","0.0-57.0","""event"",""trial"",""time""
""fullscreenenter"",""0"",""8459""
","
","
","""event"",""trial"",""time""
""fullscreenenter"",""0"",""8459""
","
","null","<p></p>","null","","","","","","","",""
"","image","58","91075","0.0-58.0","""event"",""trial"",""time""
""fullscreenenter"",""0"",""8459""
","
","
","""event"",""trial"",""time""
""fullscreenenter"",""0"",""8459""
","
","1234.8999996185303","run_exp/static/images/Set 6_rs/089a.jpg","86","","","","","","learn","SL",""
"","show_choice","59","91841","0.0-59.0","""event"",""trial"",""time""
""fullscreenenter"",""0"",""8459""
","
","
","""event"",""trial"",""time""
""fullscreenenter"",""0"",""8459""
","
","null","run_exp/static/images/Set 6_rs/089a.jpg","null","","","","","","learn","SL",""
"","html-keyboard-response","60","92355","0.0-60.0","""event"",""trial"",""time""
""fullscreenenter"",""0"",""8459""
","
","
","""event"",""trial"",""time""
""fullscreenenter"",""0"",""8459""
","
","null","<p></p>","null","","","","","","","",""
"","image","61","93443","0.0-61.0","""event"",""trial"",""time""
""fullscreenenter"",""0"",""8459""
","
","
","""event"",""trial"",""time""
""fullscreenenter"",""0"",""8459""
","
","1087.1999998092651","run_exp/static/images/Set 6_rs/108a.jpg","86","","","","","","learn","SR",""
"","show_choice","62","94362","0.0-62.0","""event"",""trial"",""time""
""fullscreenenter"",""0"",""8459""
","
","
","""event"",""trial"",""time""
""fullscreenenter"",""0"",""8459""
","
","null","run_exp/static/images/Set 6_rs/108a.jpg","null","","","","","","learn","SR",""
"","html-keyboard-response","63","94872","0.0-63.0","""event"",""trial"",""time""
""fullscreenenter"",""0"",""8459""
","
","
","""event"",""trial"",""time""
""fullscreenenter"",""0"",""8459""
","
","null","<p></p>","null","","","","","","","",""
"","image","64","96323","0.0-64.0","""event"",""trial"",""time""
""fullscreenenter"",""0"",""8459""
","
","
","""event"",""trial"",""time""
""fullscreenenter"",""0"",""8459""
","
","1450.3999996185303","run_exp/static/images/Set 6_rs/191a.jpg","86","","","","","","learn","SL",""
"","show_choice","65","96885","0.0-65.0","""event"",""trial"",""time""
""fullscreenenter"",""0"",""8459""
","
","
","""event"",""trial"",""time""
""fullscreenenter"",""0"",""8459""
","
","null","run_exp/static/images/Set 6_rs/191a.jpg","null","","","","","","learn","SL",""
"","html-keyboard-response","66","97400","0.0-66.0","""event"",""trial"",""time""
""fullscreenenter"",""0"",""8459""
","
","
","""event"",""trial"",""time""
""fullscreenenter"",""0"",""8459""
","
","null","<p></p>","null","","","","","","","",""
"","image","67","98323","0.0-67.0","""event"",""trial"",""time""
""fullscreenenter"",""0"",""8459""
","
","
","""event"",""trial"",""time""
""fullscreenenter"",""0"",""8459""
","
","921.8000001907349","run_exp/static/images/Set 6_rs/138a.jpg","78","","","","","","learn","SL",""
"","show_choice","68","99415","0.0-68.0","""event"",""trial"",""time""
""fullscreenenter"",""0"",""8459""
","
","
","""event"",""trial"",""time""
""fullscreenenter"",""0"",""8459""
","
","null","run_exp/static/images/Set 6_rs/138a.jpg","null","","","","","","learn","SL",""
"","html-keyboard-response","69","99922","0.0-69.0","""event"",""trial"",""time""
""fullscreenenter"",""0"",""8459""
","
","
","""event"",""trial"",""time""
""fullscreenenter"",""0"",""8459""
","
","null","<p></p>","null","","","","","","","",""
"","image","70","101163","0.0-70.0","""event"",""trial"",""time""
""fullscreenenter"",""0"",""8459""
","
","
","""event"",""trial"",""time""
""fullscreenenter"",""0"",""8459""
","
","1240.5","run_exp/static/images/Set 6_rs/017a.jpg","78","","","","","","learn","SL",""
"","show_choice","71","101927","0.0-71.0","""event"",""trial"",""time""
""fullscreenenter"",""0"",""8459""
","
","
","""event"",""trial"",""time""
""fullscreenenter"",""0"",""8459""
","
","null","run_exp/static/images/Set 6_rs/017a.jpg","null","","","","","","learn","SL",""
"","html-keyboard-response","72","102439","0.0-72.0","""event"",""trial"",""time""
""fullscreenenter"",""0"",""8459""
","
","
","""event"",""trial"",""time""
""fullscreenenter"",""0"",""8459""
","
","null","<p></p>","null","","","","","","","",""
"","image","73","103395","0.0-73.0","""event"",""trial"",""time""
""fullscreenenter"",""0"",""8459""
","
","
","""event"",""trial"",""time""
""fullscreenenter"",""0"",""8459""
","
","954.7999992370605","run_exp/static/images/Set 6_rs/019a.jpg","86","","","","","","learn","SL",""
"","show_choice","74","104452","0.0-74.0","""event"",""trial"",""time""
""fullscreenenter"",""0"",""8459""
","
","
","""event"",""trial"",""time""
""fullscreenenter"",""0"",""8459""
","
","null","run_exp/static/images/Set 6_rs/019a.jpg","null","","","","","","learn","SL",""
"","html-keyboard-response","75","104954","0.0-75.0","""event"",""trial"",""time""
""fullscreenenter"",""0"",""8459""
","
","
","""event"",""trial"",""time""
""fullscreenenter"",""0"",""8459""
","
","null","<p></p>","null","","","","","","","",""
"","image","76","105971","0.0-76.0","""event"",""trial"",""time""
""fullscreenenter"",""0"",""8459""
","
","
","""event"",""trial"",""time""
""fullscreenenter"",""0"",""8459""
","
","1015.8000001907349","run_exp/static/images/Set 6_rs/057a.jpg","86","","","","","","learn","SL",""
"","show_choice","77","106957","0.0-77.0","""event"",""trial"",""time""
""fullscreenenter"",""0"",""8459""
","
","
","""event"",""trial"",""time""
""fullscreenenter"",""0"",""8459""
","
","null","run_exp/static/images/Set 6_rs/057a.jpg","null","","","","","","learn","SL",""
"","html-keyboard-response","78","107472","0.0-78.0","""event"",""trial"",""time""
""fullscreenenter"",""0"",""8459""
","
","
","""event"",""trial"",""time""
""fullscreenenter"",""0"",""8459""
","
","null","<p></p>","null","","","","","","","",""
"","image","79","108507","0.0-79.0","""event"",""trial"",""time""
""fullscreenenter"",""0"",""8459""
","
","
","""event"",""trial"",""time""
""fullscreenenter"",""0"",""8459""
","
","1034","run_exp/static/images/Set 6_rs/088a.jpg","78","","","","","","learn","SR",""
"","show_choice","80","109479","0.0-80.0","""event"",""trial"",""time""
""fullscreenenter"",""0"",""8459""
","
","
","""event"",""trial"",""time""
""fullscreenenter"",""0"",""8459""
","
","null","run_exp/static/images/Set 6_rs/088a.jpg","null","","","","","","learn","SR",""
"","html-keyboard-response","81","109988","0.0-81.0","""event"",""trial"",""time""
""fullscreenenter"",""0"",""8459""
","
","
","""event"",""trial"",""time""
""fullscreenenter"",""0"",""8459""
","
","null","<p></p>","null","","","","","","","",""
"","image","82","111275","0.0-82.0","""event"",""trial"",""time""
""fullscreenenter"",""0"",""8459""
","
","
","""event"",""trial"",""time""
""fullscreenenter"",""0"",""8459""
","
","1285.7000007629395","run_exp/static/images/Set 6_rs/091a.jpg","78","","","","","","learn","SL",""
"","show_choice","83","111997","0.0-83.0","""event"",""trial"",""time""
""fullscreenenter"",""0"",""8459""
","
","
","""event"",""trial"",""time""
""fullscreenenter"",""0"",""8459""
","
","null","run_exp/static/images/Set 6_rs/091a.jpg","null","","","","","","learn","SL",""
"","html-keyboard-response","84","112505","0.0-84.0","""event"",""trial"",""time""
""fullscreenenter"",""0"",""8459""
","
","
","""event"",""trial"",""time""
""fullscreenenter"",""0"",""8459""
","
","null","<p></p>","null","","","","","","","",""
"","image","85","113331","0.0-85.0","""event"",""trial"",""time""
""fullscreenenter"",""0"",""8459""
","
","
","""event"",""trial"",""time""
""fullscreenenter"",""0"",""8459""
","
","825","run_exp/static/images/Set 6_rs/006a.jpg","86","","","","","","learn","SL",""
"","show_choice","86","114510","0.0-86.0","""event"",""trial"",""time""
""fullscreenenter"",""0"",""8459""
","
","
","""event"",""trial"",""time""
""fullscreenenter"",""0"",""8459""
","
","null","run_exp/static/images/Set 6_rs/006a.jpg","null","","","","","","learn","SL",""
"","html-keyboard-response","87","115012","0.0-87.0","""event"",""trial"",""time""
""fullscreenenter"",""0"",""8459""
","
","
","""event"",""trial"",""time""
""fullscreenenter"",""0"",""8459""
","
","null","<p></p>","null","","","","","","","",""
"","image","88","115851","0.0-88.0","""event"",""trial"",""time""
""fullscreenenter"",""0"",""8459""
","
","
","""event"",""trial"",""time""
""fullscreenenter"",""0"",""8459""
","
","837.8999996185303","run_exp/static/images/Set 6_rs/025a.jpg","78","","","","","","learn","SL",""
"","show_choice","89","117028","0.0-89.0","""event"",""trial"",""time""
""fullscreenenter"",""0"",""8459""
","
","
","""event"",""trial"",""time""
""fullscreenenter"",""0"",""8459""
","
","null","run_exp/static/images/Set 6_rs/025a.jpg","null","","","","","","learn","SL",""
"","html-keyboard-response","90","117539","0.0-90.0","""event"",""trial"",""time""
""fullscreenenter"",""0"",""8459""
","
","
","""event"",""trial"",""time""
""fullscreenenter"",""0"",""8459""
","
","null","<p></p>","null","","","","","","","",""
"","image","91","118251","0.0-91.0","""event"",""trial"",""time""
""fullscreenenter"",""0"",""8459""
","
","
","""event"",""trial"",""time""
""fullscreenenter"",""0"",""8459""
","
","710.8000001907349","run_exp/static/images/Set 6_rs/045a.jpg","86","","","","","","learn","SR",""
"","show_choice","92","119553","0.0-92.0","""event"",""trial"",""time""
""fullscreenenter"",""0"",""8459""
","
","
","""event"",""trial"",""time""
""fullscreenenter"",""0"",""8459""
","
","null","run_exp/static/images/Set 6_rs/045a.jpg","null","","","","","","learn","SR",""
"","html-keyboard-response","93","120056","0.0-93.0","""event"",""trial"",""time""
""fullscreenenter"",""0"",""8459""
","
","
","""event"",""trial"",""time""
""fullscreenenter"",""0"",""8459""
","
","null","<p></p>","null","","","","","","","",""
"","image","94","121275","0.0-94.0","""event"",""trial"",""time""
""fullscreenenter"",""0"",""8459""
","
","
","""event"",""trial"",""time""
""fullscreenenter"",""0"",""8459""
","
","1218.3000001907349","run_exp/static/images/Set 6_rs/152a.jpg","86","","","","","","learn","SR",""
"","show_choice","95","122068","0.0-95.0","""event"",""trial"",""time""
""fullscreenenter"",""0"",""8459""
","
","
","""event"",""trial"",""time""
""fullscreenenter"",""0"",""8459""
","
","null","run_exp/static/images/Set 6_rs/152a.jpg","null","","","","","","learn","SR",""
"","html-keyboard-response","96","122572","0.0-96.0","""event"",""trial"",""time""
""fullscreenenter"",""0"",""8459""
","
","
","""event"",""trial"",""time""
""fullscreenenter"",""0"",""8459""
","
","null","<p></p>","null","","","","","","","",""
"","image","97","123507","0.0-97.0","""event"",""trial"",""time""
""fullscreenenter"",""0"",""8459""
","
","
","""event"",""trial"",""time""
""fullscreenenter"",""0"",""8459""
","
","933.6000003814697","run_exp/static/images/Set 6_rs/172a.jpg","78","","","","","","learn","SR",""
"","show_choice","98","124587","0.0-98.0","""event"",""trial"",""time""
""fullscreenenter"",""0"",""8459""
","
","
","""event"",""trial"",""time""
""fullscreenenter"",""0"",""8459""
","
","null","run_exp/static/images/Set 6_rs/172a.jpg","null","","","","","","learn","SR",""
"","html-keyboard-response","99","125090","0.0-99.0","""event"",""trial"",""time""
""fullscreenenter"",""0"",""8459""
","
","
","""event"",""trial"",""time""
""fullscreenenter"",""0"",""8459""
","
","null","<p></p>","null","","","","","","","",""
"","image","100","126379","0.0-100.0","""event"",""trial"",""time""
""fullscreenenter"",""0"",""8459""
","
","
","""event"",""trial"",""time""
""fullscreenenter"",""0"",""8459""
","
","1288.1999998092651","run_exp/static/images/Set 6_rs/134a.jpg","86","","","","","","learn","SR",""
"","show_choice","101","127091","0.0-101.0","""event"",""trial"",""time""
""fullscreenenter"",""0"",""8459""
","
","
","""event"",""trial"",""time""
""fullscreenenter"",""0"",""8459""
","
","null","run_exp/static/images/Set 6_rs/134a.jpg","null","","","","","","learn","SR",""
"","html-keyboard-response","102","127592","0.0-102.0","""event"",""trial"",""time""
""fullscreenenter"",""0"",""8459""
","
","
","""event"",""trial"",""time""
""fullscreenenter"",""0"",""8459""
","
","null","<p></p>","null","","","","","","","",""
"","image","103","128355","0.0-103.0","""event"",""trial"",""time""
""fullscreenenter"",""0"",""8459""
","
","
","""event"",""trial"",""time""
""fullscreenenter"",""0"",""8459""
","
","761.6000003814697","run_exp/static/images/Set 6_rs/014a.jpg","86","","","","","","learn","SL",""
"","show_choice","104","129606","0.0-104.0","""event"",""trial"",""time""
""fullscreenenter"",""0"",""8459""
","
","
","""event"",""trial"",""time""
""fullscreenenter"",""0"",""8459""
","
","null","run_exp/static/images/Set 6_rs/014a.jpg","null","","","","","","learn","SL",""
"","html-keyboard-response","105","130122","0.0-105.0","""event"",""trial"",""time""
""fullscreenenter"",""0"",""8459""
","
","
","""event"",""trial"",""time""
""fullscreenenter"",""0"",""8459""
","
","null","<p></p>","null","","","","","","","",""
"","image","106","130851","0.0-106.0","""event"",""trial"",""time""
""fullscreenenter"",""0"",""8459""
","
","
","""event"",""trial"",""time""
""fullscreenenter"",""0"",""8459""
","
","727.8999996185303","run_exp/static/images/Set 6_rs/150a.jpg","86","","","","","","learn","SR",""
"","show_choice","107","132138","0.0-107.0","""event"",""trial"",""time""
""fullscreenenter"",""0"",""8459""
","
","
","""event"",""trial"",""time""
""fullscreenenter"",""0"",""8459""
","
","null","run_exp/static/images/Set 6_rs/150a.jpg","null","","","","","","learn","SR",""
"","html-keyboard-response","108","132639","0.0-108.0","""event"",""trial"",""time""
""fullscreenenter"",""0"",""8459""
","
","
","""event"",""trial"",""time""
""fullscreenenter"",""0"",""8459""
","
","null","<p></p>","null","","","","","","","",""
"","image","109","133643","0.0-109.0","""event"",""trial"",""time""
""fullscreenenter"",""0"",""8459""
","
","
","""event"",""trial"",""time""
""fullscreenenter"",""0"",""8459""
","
","1003.1000003814697","run_exp/static/images/Set 6_rs/010a.jpg","86","","","","","","learn","SR",""
"","show_choice","110","134655","0.0-110.0","""event"",""trial"",""time""
""fullscreenenter"",""0"",""8459""
","
","
","""event"",""trial"",""time""
""fullscreenenter"",""0"",""8459""
","
","null","run_exp/static/images/Set 6_rs/010a.jpg","null","","","","","","learn","SR",""
"","html-keyboard-response","111","135156","0.0-111.0","""event"",""trial"",""time""
""fullscreenenter"",""0"",""8459""
","
","
","""event"",""trial"",""time""
""fullscreenenter"",""0"",""8459""
","
","null","<p></p>","null","","","","","","","",""
"","image","112","136387","0.0-112.0","""event"",""trial"",""time""
""fullscreenenter"",""0"",""8459""
","
","
","""event"",""trial"",""time""
""fullscreenenter"",""0"",""8459""
","
","1229.6999998092651","run_exp/static/images/Set 6_rs/129a.jpg","86","","","","","","learn","SL",""
"","show_choice","113","137170","0.0-113.0","""event"",""trial"",""time""
""fullscreenenter"",""0"",""8459""
","
","
","""event"",""trial"",""time""
""fullscreenenter"",""0"",""8459""
","
","null","run_exp/static/images/Set 6_rs/129a.jpg","null","","","","","","learn","SL",""
"","html-keyboard-response","114","137673","0.0-114.0","""event"",""trial"",""time""
""fullscreenenter"",""0"",""8459""
","
","
","""event"",""trial"",""time""
""fullscreenenter"",""0"",""8459""
","
","null","<p></p>","null","","","","","","","",""
"","image","115","138587","0.0-115.0","""event"",""trial"",""time""
""fullscreenenter"",""0"",""8459""
","
","
","""event"",""trial"",""time""
""fullscreenenter"",""0"",""8459""
","
","912","run_exp/static/images/Set 6_rs/085a.jpg","78","","","","","","learn","SL",""
"","show_choice","116","139683","0.0-116.0","""event"",""trial"",""time""
""fullscreenenter"",""0"",""8459""
","
","
","""event"",""trial"",""time""
""fullscreenenter"",""0"",""8459""
","
","null","run_exp/static/images/Set 6_rs/085a.jpg","null","","","","","","learn","SL",""
"","html-keyboard-response","117","140198","0.0-117.0","""event"",""trial"",""time""
""fullscreenenter"",""0"",""8459""
","
","
","""event"",""trial"",""time""
""fullscreenenter"",""0"",""8459""
","
","null","<p></p>","null","","","","","","","",""
"","image","118","141379","0.0-118.0","""event"",""trial"",""time""
""fullscreenenter"",""0"",""8459""
","
","
","""event"",""trial"",""time""
""fullscreenenter"",""0"",""8459""
","
","1179.8999996185303","run_exp/static/images/Set 6_rs/061a.jpg","78","","","","","","learn","SR",""
"","show_choice","119","142202","0.0-119.0","""event"",""trial"",""time""
""fullscreenenter"",""0"",""8459""
","
","
","""event"",""trial"",""time""
""fullscreenenter"",""0"",""8459""
","
","null","run_exp/static/images/Set 6_rs/061a.jpg","null","","","","","","learn","SR",""
"","html-keyboard-response","120","142707","0.0-120.0","""event"",""trial"",""time""
""fullscreenenter"",""0"",""8459""
","
","
","""event"",""trial"",""time""
""fullscreenenter"",""0"",""8459""
","
","null","<p></p>","null","","","","","","","",""
"","image","121","143611","0.0-121.0","""event"",""trial"",""time""
""fullscreenenter"",""0"",""8459""
","
","
","""event"",""trial"",""time""
""fullscreenenter"",""0"",""8459""
","
","903","run_exp/static/images/Set 6_rs/095a.jpg","86","","","","","","learn","SL",""
"","show_choice","122","144715","0.0-122.0","""event"",""trial"",""time""
""fullscreenenter"",""0"",""8459""
","
","
","""event"",""trial"",""time""
""fullscreenenter"",""0"",""8459""
","
","null","run_exp/static/images/Set 6_rs/095a.jpg","null","","","","","","learn","SL",""
"","html-keyboard-response","123","145221","0.0-123.0","""event"",""trial"",""time""
""fullscreenenter"",""0"",""8459""
","
","
","""event"",""trial"",""time""
""fullscreenenter"",""0"",""8459""
","
","null","<p></p>","null","","","","","","","",""
"","image","124","146627","0.0-124.0","""event"",""trial"",""time""
""fullscreenenter"",""0"",""8459""
","
","
","""event"",""trial"",""time""
""fullscreenenter"",""0"",""8459""
","
","1404.8000001907349","run_exp/static/images/Set 6_rs/008a.jpg","86","","","","","","learn","SL",""
"","show_choice","125","147232","0.0-125.0","""event"",""trial"",""time""
""fullscreenenter"",""0"",""8459""
","
","
","""event"",""trial"",""time""
""fullscreenenter"",""0"",""8459""
","
","null","run_exp/static/images/Set 6_rs/008a.jpg","null","","","","","","learn","SL",""
"","html-keyboard-response","126","147733","0.0-126.0","""event"",""trial"",""time""
""fullscreenenter"",""0"",""8459""
","
","
","""event"",""trial"",""time""
""fullscreenenter"",""0"",""8459""
","
","null","<p></p>","null","","","","","","","",""
"","image","127","148603","0.0-127.0","""event"",""trial"",""time""
""fullscreenenter"",""0"",""8459""
","
","
","""event"",""trial"",""time""
""fullscreenenter"",""0"",""8459""
","
","868.3000001907349","run_exp/static/images/Set 6_rs/112a.jpg","86","","","","","","learn","SR",""
"","show_choice","128","149746","0.0-128.0","""event"",""trial"",""time""
""fullscreenenter"",""0"",""8459""
","
","
","""event"",""trial"",""time""
""fullscreenenter"",""0"",""8459""
","
","null","run_exp/static/images/Set 6_rs/112a.jpg","null","","","","","","learn","SR",""
"","html-keyboard-response","129","150255","0.0-129.0","""event"",""trial"",""time""
""fullscreenenter"",""0"",""8459""
","
","
","""event"",""trial"",""time""
""fullscreenenter"",""0"",""8459""
","
","null","<p></p>","null","","","","","","","",""
"","image","130","151307","0.0-130.0","""event"",""trial"",""time""
""fullscreenenter"",""0"",""8459""
","
","
","""event"",""trial"",""time""
""fullscreenenter"",""0"",""8459""
","
","1051.5","run_exp/static/images/Set 6_rs/122a.jpg","86","","","","","","learn","SR",""
"","show_choice","131","152259","0.0-131.0","""event"",""trial"",""time""
""fullscreenenter"",""0"",""8459""
","
","
","""event"",""trial"",""time""
""fullscreenenter"",""0"",""8459""
","
","null","run_exp/static/images/Set 6_rs/122a.jpg","null","","","","","","learn","SR",""
"","html-keyboard-response","132","152772","0.0-132.0","""event"",""trial"",""time""
""fullscreenenter"",""0"",""8459""
","
","
","""event"",""trial"",""time""
""fullscreenenter"",""0"",""8459""
","
","null","<p></p>","null","","","","","","","",""
"","image","133","153971","0.0-133.0","""event"",""trial"",""time""
""fullscreenenter"",""0"",""8459""
","
","
","""event"",""trial"",""time""
""fullscreenenter"",""0"",""8459""
","
","1197.9000005722046","run_exp/static/images/Set 6_rs/123a.jpg","78","","","","","","learn","SL",""
"","show_choice","134","154784","0.0-134.0","""event"",""trial"",""time""
""fullscreenenter"",""0"",""8459""
","
","
","""event"",""trial"",""time""
""fullscreenenter"",""0"",""8459""
","
","null","run_exp/static/images/Set 6_rs/123a.jpg","null","","","","","","learn","SL",""
"","html-keyboard-response","135","155288","0.0-135.0","""event"",""trial"",""time""
""fullscreenenter"",""0"",""8459""
","
","
","""event"",""trial"",""time""
""fullscreenenter"",""0"",""8459""
","
","null","<p></p>","null","","","","","","","",""
"","image","136","157305","0.0-136.0","""event"",""trial"",""time""
""fullscreenenter"",""0"",""8459""
","
","
","""event"",""trial"",""time""
""fullscreenenter"",""0"",""8459""
","
","null","run_exp/static/images/Set 6_rs/131a.jpg","null","","","","","","learn","SR",""
"","show_choice","137","159308","0.0-137.0","""event"",""trial"",""time""
""fullscreenenter"",""0"",""8459""
","
","
","""event"",""trial"",""time""
""fullscreenenter"",""0"",""8459""
","
","null","run_exp/static/images/blank.png","null","","","","","","learn","SR",""
"","html-keyboard-response","138","159822","0.0-138.0","""event"",""trial"",""time""
""fullscreenenter"",""0"",""8459""
","
","
","""event"",""trial"",""time""
""fullscreenenter"",""0"",""8459""
","
","null","<p></p>","null","","","","","","","",""
"","image","139","161043","0.0-139.0","""event"",""trial"",""time""
""fullscreenenter"",""0"",""8459""
","
","
","""event"",""trial"",""time""
""fullscreenenter"",""0"",""8459""
","
","1220","run_exp/static/images/Set 6_rs/177a.jpg","78","","","","","","learn","SR",""
"","show_choice","140","161836","0.0-140.0","""event"",""trial"",""time""
""fullscreenenter"",""0"",""8459""
","
","
","""event"",""trial"",""time""
""fullscreenenter"",""0"",""8459""
","
","null","run_exp/static/images/Set 6_rs/177a.jpg","null","","","","","","learn","SR",""
"","html-keyboard-response","141","162342","0.0-141.0","""event"",""trial"",""time""
""fullscreenenter"",""0"",""8459""
","
","
","""event"",""trial"",""time""
""fullscreenenter"",""0"",""8459""
","
","null","<p></p>","null","","","","","","","",""
"","image","142","163315","0.0-142.0","""event"",""trial"",""time""
""fullscreenenter"",""0"",""8459""
","
","
","""event"",""trial"",""time""
""fullscreenenter"",""0"",""8459""
","
","971.5","run_exp/static/images/Set 6_rs/168a.jpg","86","","","","","","learn","SL",""
"","show_choice","143","164354","0.0-143.0","""event"",""trial"",""time""
""fullscreenenter"",""0"",""8459""
","
","
","""event"",""trial"",""time""
""fullscreenenter"",""0"",""8459""
","
","null","run_exp/static/images/Set 6_rs/168a.jpg","null","","","","","","learn","SL",""
"","html-keyboard-response","144","164856","0.0-144.0","""event"",""trial"",""time""
""fullscreenenter"",""0"",""8459""
","
","
","""event"",""trial"",""time""
""fullscreenenter"",""0"",""8459""
","
","null","<p></p>","null","","","","","","","",""
"","image","145","165979","0.0-145.0","""event"",""trial"",""time""
""fullscreenenter"",""0"",""8459""
","
","
","""event"",""trial"",""time""
""fullscreenenter"",""0"",""8459""
","
","1121.5","run_exp/static/images/Set 6_rs/132a.jpg","78","","","","","","learn","SR",""
"","show_choice","146","166865","0.0-146.0","""event"",""trial"",""time""
""fullscreenenter"",""0"",""8459""
","
","
","""event"",""trial"",""time""
""fullscreenenter"",""0"",""8459""
","
","null","run_exp/static/images/Set 6_rs/132a.jpg","null","","","","","","learn","SR",""
"","html-keyboard-response","147","167380","0.0-147.0","""event"",""trial"",""time""
""fullscreenenter"",""0"",""8459""
","
","
","""event"",""trial"",""time""
""fullscreenenter"",""0"",""8459""
","
","null","<p></p>","null","","","","","","","",""
"","image","148","168419","0.0-148.0","""event"",""trial"",""time""
""fullscreenenter"",""0"",""8459""
","
","
","""event"",""trial"",""time""
""fullscreenenter"",""0"",""8459""
","
","1038.5","run_exp/static/images/Set 6_rs/076a.jpg","78","","","","","","learn","SR",""
"","show_choice","149","169381","0.0-149.0","""event"",""trial"",""time""
""fullscreenenter"",""0"",""8459""
","
","
","""event"",""trial"",""time""
""fullscreenenter"",""0"",""8459""
","
","null","run_exp/static/images/Set 6_rs/076a.jpg","null","","","","","","learn","SR",""
"","html-keyboard-response","150","169891","0.0-150.0","""event"",""trial"",""time""
""fullscreenenter"",""0"",""8459""
","
","
","""event"",""trial"",""time""
""fullscreenenter"",""0"",""8459""
","
","null","<p></p>","null","","","","","","","",""
"","image","151","171043","0.0-151.0","""event"",""trial"",""time""
""fullscreenenter"",""0"",""8459""
","
","
","""event"",""trial"",""time""
""fullscreenenter"",""0"",""8459""
","
","1150.5","run_exp/static/images/Set 6_rs/070a.jpg","86","","","","","","learn","SR",""
"","show_choice","152","171899","0.0-152.0","""event"",""trial"",""time""
""fullscreenenter"",""0"",""8459""
","
","
","""event"",""trial"",""time""
""fullscreenenter"",""0"",""8459""
","
","null","run_exp/static/images/Set 6_rs/070a.jpg","null","","","","","","learn","SR",""
"","html-keyboard-response","153","172404","0.0-153.0","""event"",""trial"",""time""
""fullscreenenter"",""0"",""8459""
","
","
","""event"",""trial"",""time""
""fullscreenenter"",""0"",""8459""
","
","null","<p></p>","null","","","","","","","",""
"","image","154","173331","0.0-154.0","""event"",""trial"",""time""
""fullscreenenter"",""0"",""8459""
","
","
","""event"",""trial"",""time""
""fullscreenenter"",""0"",""8459""
","
","925.3000001907349","run_exp/static/images/Set 6_rs/007a.jpg","86","","","","","","learn","SR",""
"","show_choice","155","174414","0.0-155.0","""event"",""trial"",""time""
""fullscreenenter"",""0"",""8459""
","
","
","""event"",""trial"",""time""
""fullscreenenter"",""0"",""8459""
","
","null","run_exp/static/images/Set 6_rs/007a.jpg","null","","","","","","learn","SR",""
"","html-keyboard-response","156","174922","0.0-156.0","""event"",""trial"",""time""
""fullscreenenter"",""0"",""8459""
","
","
","""event"",""trial"",""time""
""fullscreenenter"",""0"",""8459""
","
","null","<p></p>","null","","","","","","","",""
"","image","157","176203","0.0-157.0","""event"",""trial"",""time""
""fullscreenenter"",""0"",""8459""
","
","
","""event"",""trial"",""time""
""fullscreenenter"",""0"",""8459""
","
","1280.1000003814697","run_exp/static/images/Set 6_rs/166a.jpg","86","","","","","","learn","SR",""
"","show_choice","158","176924","0.0-158.0","""event"",""trial"",""time""
""fullscreenenter"",""0"",""8459""
","
","
","""event"",""trial"",""time""
""fullscreenenter"",""0"",""8459""
","
","null","run_exp/static/images/Set 6_rs/166a.jpg","null","","","","","","learn","SR",""
"","html-keyboard-response","159","177438","0.0-159.0","""event"",""trial"",""time""
""fullscreenenter"",""0"",""8459""
","
","
","""event"",""trial"",""time""
""fullscreenenter"",""0"",""8459""
","
","null","<p></p>","null","","","","","","","",""
"","image","160","178587","0.0-160.0","""event"",""trial"",""time""
""fullscreenenter"",""0"",""8459""
","
","
","""event"",""trial"",""time""
""fullscreenenter"",""0"",""8459""
","
","1147.8000001907349","run_exp/static/images/Set 6_rs/178a.jpg","86","","","","","","learn","SR",""
"","show_choice","161","179448","0.0-161.0","""event"",""trial"",""time""
""fullscreenenter"",""0"",""8459""
","
","
","""event"",""trial"",""time""
""fullscreenenter"",""0"",""8459""
","
","null","run_exp/static/images/Set 6_rs/178a.jpg","null","","","","","","learn","SR",""
"","html-keyboard-response","162","179960","0.0-162.0","""event"",""trial"",""time""
""fullscreenenter"",""0"",""8459""
","
","
","""event"",""trial"",""time""
""fullscreenenter"",""0"",""8459""
","
","null","<p></p>","null","","","","","","","",""
"","image","163","181251","0.0-163.0","""event"",""trial"",""time""
""fullscreenenter"",""0"",""8459""
","
","
","""event"",""trial"",""time""
""fullscreenenter"",""0"",""8459""
","
","1290.3000001907349","run_exp/static/images/Set 6_rs/066a.jpg","86","","","","","","learn","SL",""
"","show_choice","164","181975","0.0-164.0","""event"",""trial"",""time""
""fullscreenenter"",""0"",""8459""
","
","
","""event"",""trial"",""time""
""fullscreenenter"",""0"",""8459""
","
","null","run_exp/static/images/Set 6_rs/066a.jpg","null","","","","","","learn","SL",""
"","html-keyboard-response","165","182488","0.0-165.0","""event"",""trial"",""time""
""fullscreenenter"",""0"",""8459""
","
","
","""event"",""trial"",""time""
""fullscreenenter"",""0"",""8459""
","
","null","<p></p>","null","","","","","","","",""
"","image","166","183755","0.0-166.0","""event"",""trial"",""time""
""fullscreenenter"",""0"",""8459""
","
","
","""event"",""trial"",""time""
""fullscreenenter"",""0"",""8459""
","
","1265.5","run_exp/static/images/Set 6_rs/055a.jpg","86","","","","","","learn","SL",""
"","show_choice","167","184492","0.0-167.0","""event"",""trial"",""time""
""fullscreenenter"",""0"",""8459""
","
","
","""event"",""trial"",""time""
""fullscreenenter"",""0"",""8459""
","
","null","run_exp/static/images/Set 6_rs/055a.jpg","null","","","","","","learn","SL",""
"","html-keyboard-response","168","185005","0.0-168.0","""event"",""trial"",""time""
""fullscreenenter"",""0"",""8459""
","
","
","""event"",""trial"",""time""
""fullscreenenter"",""0"",""8459""
","
","null","<p></p>","null","","","","","","","",""
"","image","169","185731","0.0-169.0","""event"",""trial"",""time""
""fullscreenenter"",""0"",""8459""
","
","
","""event"",""trial"",""time""
""fullscreenenter"",""0"",""8459""
","
","724.6999998092651","run_exp/static/images/Set 6_rs/050a.jpg","86","","","","","","learn","SL",""
"","show_choice","170","187010","0.0-170.0","""event"",""trial"",""time""
""fullscreenenter"",""0"",""8459""
","
","
","""event"",""trial"",""time""
""fullscreenenter"",""0"",""8459""
","
","null","run_exp/static/images/Set 6_rs/050a.jpg","null","","","","","","learn","SL",""
"","html-keyboard-response","171","187522","0.0-171.0","""event"",""trial"",""time""
""fullscreenenter"",""0"",""8459""
","
","
","""event"",""trial"",""time""
""fullscreenenter"",""0"",""8459""
","
","null","<p></p>","null","","","","","","","",""
"","image","172","188363","0.0-172.0","""event"",""trial"",""time""
""fullscreenenter"",""0"",""8459""
","
","
","""event"",""trial"",""time""
""fullscreenenter"",""0"",""8459""
","
","840","run_exp/static/images/Set 6_rs/111a.jpg","86","","","","","","learn","SL",""
"","show_choice","173","189528","0.0-173.0","""event"",""trial"",""time""
""fullscreenenter"",""0"",""8459""
","
","
","""event"",""trial"",""time""
""fullscreenenter"",""0"",""8459""
","
","null","run_exp/static/images/Set 6_rs/111a.jpg","null","","","","","","learn","SL",""
"","html-keyboard-response","174","190038","0.0-174.0","""event"",""trial"",""time""
""fullscreenenter"",""0"",""8459""
","
","
","""event"",""trial"",""time""
""fullscreenenter"",""0"",""8459""
","
","null","<p></p>","null","","","","","","","",""
"","image","175","190803","0.0-175.0","""event"",""trial"",""time""
""fullscreenenter"",""0"",""8459""
","
","
","""event"",""trial"",""time""
""fullscreenenter"",""0"",""8459""
","
","764.1999998092651","run_exp/static/images/Set 6_rs/023a.jpg","86","","","","","","learn","SR",""
"","show_choice","176","192041","0.0-176.0","""event"",""trial"",""time""
""fullscreenenter"",""0"",""8459""
","
","
","""event"",""trial"",""time""
""fullscreenenter"",""0"",""8459""
","
","null","run_exp/static/images/Set 6_rs/023a.jpg","null","","","","","","learn","SR",""
"","html-keyboard-response","177","192555","0.0-177.0","""event"",""trial"",""time""
""fullscreenenter"",""0"",""8459""
","
","
","""event"",""trial"",""time""
""fullscreenenter"",""0"",""8459""
","
","null","<p></p>","null","","","","","","","",""
"","image","178","193931","0.0-178.0","""event"",""trial"",""time""
""fullscreenenter"",""0"",""8459""
","
","
","""event"",""trial"",""time""
""fullscreenenter"",""0"",""8459""
","
","1375","run_exp/static/images/Set 6_rs/117a.jpg","86","","","","","","learn","SL",""
"","show_choice","179","194563","0.0-179.0","""event"",""trial"",""time""
""fullscreenenter"",""0"",""8459""
","
","
","""event"",""trial"",""time""
""fullscreenenter"",""0"",""8459""
","
","null","run_exp/static/images/Set 6_rs/117a.jpg","null","","","","","","learn","SL",""
"","html-keyboard-response","180","195073","0.0-180.0","""event"",""trial"",""time""
""fullscreenenter"",""0"",""8459""
","
","
","""event"",""trial"",""time""
""fullscreenenter"",""0"",""8459""
","
","null","<p></p>","null","","","","","","","",""
"","image","181","197077","0.0-181.0","""event"",""trial"",""time""
""fullscreenenter"",""0"",""8459""
","
","
","""event"",""trial"",""time""
""fullscreenenter"",""0"",""8459""
","
","null","run_exp/static/images/Set 6_rs/063a.jpg","null","","","","","","learn","SR",""
"","show_choice","182","199089","0.0-182.0","""event"",""trial"",""time""
""fullscreenenter"",""0"",""8459""
","
","
","""event"",""trial"",""time""
""fullscreenenter"",""0"",""8459""
","
","null","run_exp/static/images/blank.png","null","","","","","","learn","SR",""
"","html-keyboard-response","183","199592","0.0-183.0","""event"",""trial"",""time""
""fullscreenenter"",""0"",""8459""
","
","
","""event"",""trial"",""time""
""fullscreenenter"",""0"",""8459""
","
","null","<p></p>","null","","","","","","","",""
"","image","184","200531","0.0-184.0","""event"",""trial"",""time""
""fullscreenenter"",""0"",""8459""
","
","
","""event"",""trial"",""time""
""fullscreenenter"",""0"",""8459""
","
","938.3000001907349","run_exp/static/images/Set 6_rs/012a.jpg","86","","","","","","learn","SR",""
"","show_choice","185","201593","0.0-185.0","""event"",""trial"",""time""
""fullscreenenter"",""0"",""8459""
","
","
","""event"",""trial"",""time""
""fullscreenenter"",""0"",""8459""
","
","null","run_exp/static/images/Set 6_rs/012a.jpg","null","","","","","","learn","SR",""
"","html-keyboard-response","186","202105","0.0-186.0","""event"",""trial"",""time""
""fullscreenenter"",""0"",""8459""
","
","
","""event"",""trial"",""time""
""fullscreenenter"",""0"",""8459""
","
","null","<p></p>","null","","","","","","","",""
"","image","187","203355","0.0-187.0","""event"",""trial"",""time""
""fullscreenenter"",""0"",""8459""
","
","
","""event"",""trial"",""time""
""fullscreenenter"",""0"",""8459""
","
","1248.8000001907349","run_exp/static/images/Set 6_rs/116a.jpg","86","","","","","","learn","SL",""
"","show_choice","188","204121","0.0-188.0","""event"",""trial"",""time""
""fullscreenenter"",""0"",""8459""
","
","
","""event"",""trial"",""time""
""fullscreenenter"",""0"",""8459""
","
","null","run_exp/static/images/Set 6_rs/116a.jpg","null","","","","","","learn","SL",""
"","html-keyboard-response","189","204638","0.0-189.0","""event"",""trial"",""time""
""fullscreenenter"",""0"",""8459""
","
","
","""event"",""trial"",""time""
""fullscreenenter"",""0"",""8459""
","
","null","<p></p>","null","","","","","","","",""
"","image","190","205731","0.0-190.0","""event"",""trial"",""time""
""fullscreenenter"",""0"",""8459""
","
","
","""event"",""trial"",""time""
""fullscreenenter"",""0"",""8459""
","
","1092.1000003814697","run_exp/static/images/Set 6_rs/062a.jpg","86","","","","","","learn","SL",""
"","show_choice","191","206644","0.0-191.0","""event"",""trial"",""time""
""fullscreenenter"",""0"",""8459""
","
","
","""event"",""trial"",""time""
""fullscreenenter"",""0"",""8459""
","
","null","run_exp/static/images/Set 6_rs/062a.jpg","null","","","","","","learn","SL",""
"","html-keyboard-response","192","207155","0.0-192.0","""event"",""trial"",""time""
""fullscreenenter"",""0"",""8459""
","
","
","""event"",""trial"",""time""
""fullscreenenter"",""0"",""8459""
","
","null","<p></p>","null","","","","","","","",""
"","image","193","208147","0.0-193.0","""event"",""trial"",""time""
""fullscreenenter"",""0"",""8459""
","
","
","""event"",""trial"",""time""
""fullscreenenter"",""0"",""8459""
","
","990.8000001907349","run_exp/static/images/Set 6_rs/071a.jpg","78","","","","","","learn","SL",""
"","show_choice","194","209157","0.0-194.0","""event"",""trial"",""time""
""fullscreenenter"",""0"",""8459""
","
","
","""event"",""trial"",""time""
""fullscreenenter"",""0"",""8459""
","
","null","run_exp/static/images/Set 6_rs/071a.jpg","null","","","","","","learn","SL",""
"","html-keyboard-response","195","209673","0.0-195.0","""event"",""trial"",""time""
""fullscreenenter"",""0"",""8459""
","
","
","""event"",""trial"",""time""
""fullscreenenter"",""0"",""8459""
","
","null","<p></p>","null","","","","","","","",""
"","test_intro","196","246531","0.0-196.0","""event"",""trial"",""time""
""fullscreenenter"",""0"",""8459""
","
","
","""event"",""trial"",""time""
""fullscreenenter"",""0"",""8459""
","
","null","run_exp/static/audio/clip_2_memory.m4a","null","","","","","<div class='center'><p>Now, lets see how much you remember about the items you just saw.  For each item, you need to indicate if it was <b>old</b> by pressing the <b>v</b> key, <b>similar</b> by pressing the <b>b</b> key, or <b>new</b> by pressing the <b>n</b> key.</p><p>Old refers to an item that you saw before in the indoor/outdoor game that you just played, new refers to an item you have <b>not</b> seen before within the indoor/outdoor game, and similar refers to an item that is similar to an item youve seen before but is not exactly the same. </p><p>Before we begin, lets go over some brief demonstrations to make sure you understand.</p></div>","","",""
"","html-keyboard-response","197","248961","0.0-197.0","""event"",""trial"",""time""
""fullscreenenter"",""0"",""8459""
","
","
","""event"",""trial"",""time""
""fullscreenenter"",""0"",""8459""
","
","2428.300000190735","<div class='center'><p>Now, lets see how much you remember about the items you just saw.  For each item, you need to indicate if it was <b>old</b> by pressing the <b>v</b> key, <b>similar</b> by pressing the <b>b</b> key, or <b>new</b> by pressing the <b>n</b> key.</p><p>Old refers to an item that you saw before in the indoor/outdoor game that you just played, new refers to an item you have <b>not</b> seen before within the indoor/outdoor game, and similar refers to an item that is similar to an item youve seen before but is not exactly the same. </p><p>Before we begin, lets go over some brief demonstrations to make sure you understand.</p><div><p><b>[Press the space bar to continue]</b></p></div>","32","","","","","","","",""
"","items","198","256479","0.0-198.0","""event"",""trial"",""time""
""fullscreenenter"",""0"",""8459""
","
","
","""event"",""trial"",""time""
""fullscreenenter"",""0"",""8459""
","
","null","run_exp/static/audio/clip_3_items.m4a","null","","","","","","","",""
"","mop","199","260989","0.0-199.0","""event"",""trial"",""time""
""fullscreenenter"",""0"",""8459""
","
","
","""event"",""trial"",""time""
""fullscreenenter"",""0"",""8459""
","
","null","run_exp/static/audio/clip_4_mop.m4a","null","","","","","","","",""
"","baseball","200","264510","0.0-200.0","""event"",""trial"",""time""
""fullscreenenter"",""0"",""8459""
","
","
","""event"",""trial"",""time""
""fullscreenenter"",""0"",""8459""
","
","null","run_exp/static/audio/clip_5_baseball.m4a","null","","","","","","","",""
"","trumpet","201","268020","0.0-201.0","""event"",""trial"",""time""
""fullscreenenter"",""0"",""8459""
","
","
","""event"",""trial"",""time""
""fullscreenenter"",""0"",""8459""
","
","null","run_exp/static/audio/clip_6_trumpet.m4a","null","","","","","","","",""
"","gummies","202","271528","0.0-202.0","""event"",""trial"",""time""
""fullscreenenter"",""0"",""8459""
","
","
","""event"",""trial"",""time""
""fullscreenenter"",""0"",""8459""
","
","null","run_exp/static/audio/clip_7_gummies.m4a","null","","","","","","","",""
"","osn","203","276039","0.0-203.0","""event"",""trial"",""time""
""fullscreenenter"",""0"",""8459""
","
","
","""event"",""trial"",""time""
""fullscreenenter"",""0"",""8459""
","
","null","run_exp/static/audio/clip_8_osn.m4a","null","","","","","","","",""
"","old_1","204","282559","0.0-204.0","""event"",""trial"",""time""
""fullscreenenter"",""0"",""8459""
","
","
","""event"",""trial"",""time""
""fullscreenenter"",""0"",""8459""
","
","null","run_exp/static/audio/clip_9_old_trumpet.m4a","null","","","","","","","",""
"","new_1","205","290080","0.0-205.0","""event"",""trial"",""time""
""fullscreenenter"",""0"",""8459""
","
","
","""event"",""trial"",""time""
""fullscreenenter"",""0"",""8459""
","
","null","run_exp/static/audio/clip_10_new_balloon.m4a","null","","","","","","","",""
"","similar_1a","206","294600","0.0-206.0","""event"",""trial"",""time""
""fullscreenenter"",""0"",""8459""
","
","
","""event"",""trial"",""time""
""fullscreenenter"",""0"",""8459""
","
","null","run_exp/static/audio/clip_11a_similar_mop.m4a","null","","","","","","","",""
"","similar_1b","207","301105","0.0-207.0","""event"",""trial"",""time""
""fullscreenenter"",""0"",""8459""
","
","
","""event"",""trial"",""time""
""fullscreenenter"",""0"",""8459""
","
","null","run_exp/static/audio/clip_11b_similar_mop.m4a","null","","","","","","","",""
"","new_2","208","304619","0.0-208.0","""event"",""trial"",""time""
""fullscreenenter"",""0"",""8459""
","
","
","""event"",""trial"",""time""
""fullscreenenter"",""0"",""8459""
","
","null","run_exp/static/audio/clip_12_new_stoplight.m4a","null","","","","","","","",""
"","old_2","209","308141","0.0-209.0","""event"",""trial"",""time""
""fullscreenenter"",""0"",""8459""
","
","
","""event"",""trial"",""time""
""fullscreenenter"",""0"",""8459""
","
","null","run_exp/static/audio/clip_13_old_baseball.m4a","null","","","","","","","",""
"","similar_2a","210","311651","0.0-210.0","""event"",""trial"",""time""
""fullscreenenter"",""0"",""8459""
","
","
","""event"",""trial"",""time""
""fullscreenenter"",""0"",""8459""
","
","null","run_exp/static/audio/clip_14a_similar_gummies.m4a","null","","","","","","","",""
"","similar_2b","211","319161","0.0-211.0","""event"",""trial"",""time""
""fullscreenenter"",""0"",""8459""
","
","
","""event"",""trial"",""time""
""fullscreenenter"",""0"",""8459""
","
","null","run_exp/static/audio/clip_14b_similar_gummies.m4a","null","","","","","","","",""
"","practice","212","361273","0.0-212.0","""event"",""trial"",""time""
""fullscreenenter"",""0"",""8459""
","
","
","""event"",""trial"",""time""
""fullscreenenter"",""0"",""8459""
","
","null","run_exp/static/audio/clip_15_practice.m4a","null","","","","","<div class='center'><p>Lets practice a little to make sure you understand the difference between new, similar, and old. Lets say you saw these three items in the indoor/outdoor game.</p><p> Try your best to remember these images because youll soon be tested on them in a practice game. In the practice game, youll be shown images and youll have to say if they are old (one of the three images belows), similar (similar to one of the images below but not exactly the same), or new (are not one of the images below nor similar to them).</p><p>Once you press the space bar youll be shown these images again but one at time. Then youll begin the practice game.</p><p><img src='run_exp/static/images/tutorial/test/three_indoor_outdoor.png' height='300'></p></div>","","",""
"","html-keyboard-response","213","362171","0.0-213.0","""event"",""trial"",""time""
""fullscreenenter"",""0"",""8459""
","
","
","""event"",""trial"",""time""
""fullscreenenter"",""0"",""8459""
","
","896.1999998092651","<div class='center'><p>Lets practice a little to make sure you understand the difference between new, similar, and old. Lets say you saw these three items in the indoor/outdoor game.</p><p> Try your best to remember these images because youll soon be tested on them in a practice game. In the practice game, youll be shown images and youll have to say if they are old (one of the three images belows), similar (similar to one of the images below but not exactly the same), or new (are not one of the images below nor similar to them).</p><p>Once you press the space bar youll be shown these images again but one at time. Then youll begin the practice game.</p><p><img src='run_exp/static/images/tutorial/test/three_indoor_outdoor.png' height='300'></p><div><p><b>[Press the space bar to continue]</b></p></div>","32","","","","","","","",""
"","planet","214","364181","0.0-214.0","""event"",""trial"",""time""
""fullscreenenter"",""0"",""8459""
","
","
","""event"",""trial"",""time""
""fullscreenenter"",""0"",""8459""
","
","null","run_exp/static/images/tutorial/test/008a.jpg","null","","","","","","","",""
"","boot","215","366201","0.0-215.0","""event"",""trial"",""time""
""fullscreenenter"",""0"",""8459""
","
","
","""event"",""trial"",""time""
""fullscreenenter"",""0"",""8459""
","
","null","run_exp/static/images/tutorial/test/011a.jpg","null","","","","","","","",""
"","lemon","216","368211","0.0-216.0","""event"",""trial"",""time""
""fullscreenenter"",""0"",""8459""
","
","
","""event"",""trial"",""time""
""fullscreenenter"",""0"",""8459""
","
","null","run_exp/static/images/tutorial/test/018a.jpg","null","","","","","","","",""
"","practice_q1","217","370875","0.0-217.0","""event"",""trial"",""time""
""fullscreenenter"",""0"",""8459""
","
","
","""event"",""trial"",""time""
""fullscreenenter"",""0"",""8459""
","
","2661.8999996185303","run_exp/static/audio/clip_16_practice_question.m4a","78","","","","","","","",""
"","correct","218","372813","0.0-218.0-0.0","""event"",""trial"",""time""
""fullscreenenter"",""0"",""8459""
","
","
","""event"",""trial"",""time""
""fullscreenenter"",""0"",""8459""
","
","null","run_exp/static/audio/clip_17_correct.m4a","null","","","","","<div class='center'><p>That's correct!</p></div>","","",""
"","html-keyboard-response","219","374587","0.0-218.0-1.0","""event"",""trial"",""time""
""fullscreenenter"",""0"",""8459""
","
","
","""event"",""trial"",""time""
""fullscreenenter"",""0"",""8459""
","
","1773","<div class='center'><p>That's correct!</p><div><p><b>[Press the space bar to continue]</b></p></div>","32","","","","","","","",""
"","practice_q2","220","377603","0.0-218.0-2.0","""event"",""trial"",""time""
""fullscreenenter"",""0"",""8459""
","
","
","""event"",""trial"",""time""
""fullscreenenter"",""0"",""8459""
","
","3014.800000190735","run_exp/static/audio/clip_16_practice_question.m4a","86","","","","","","","",""
"","correct","221","379493","0.0-219.0-0.0","""event"",""trial"",""time""
""fullscreenenter"",""0"",""8459""
","
","
","""event"",""trial"",""time""
""fullscreenenter"",""0"",""8459""
","
","null","run_exp/static/audio/clip_17_correct.m4a","null","","","","","<div class='center'><p>That's correct!</p></div>","","",""
"","html-keyboard-response","222","380163","0.0-219.0-1.0","""event"",""trial"",""time""
""fullscreenenter"",""0"",""8459""
","
","
","""event"",""trial"",""time""
""fullscreenenter"",""0"",""8459""
","
","669.4000005722046","<div class='center'><p>That's correct!</p><div><p><b>[Press the space bar to continue]</b></p></div>","32","","","","","","","",""
"","practice_q3","223","385563","0.0-219.0-2.0","""event"",""trial"",""time""
""fullscreenenter"",""0"",""8459""
","
","
","""event"",""trial"",""time""
""fullscreenenter"",""0"",""8459""
","
","5397.800000190735","run_exp/static/audio/clip_16_practice_question.m4a","78","","","","","","","",""
"","incorrect_q3","224","388313","0.0-220.0-0.0","""event"",""trial"",""time""
""fullscreenenter"",""0"",""8459""
","
","
","""event"",""trial"",""time""
""fullscreenenter"",""0"",""8459""
","
","null","run_exp/static/audio/clip_20_incorrect_similar.m4a","null","","","","","<div class='center'><p>Thats incorrect. Its similar.</p><p><img src='run_exp/static/images/tutorial/test/boot_comparison.png' height='300'></p></div>","","",""
"","html-keyboard-response","225","389907","0.0-220.0-1.0","""event"",""trial"",""time""
""fullscreenenter"",""0"",""8459""
","
","
","""event"",""trial"",""time""
""fullscreenenter"",""0"",""8459""
","
","1593.5","<div class='center'><p>Thats incorrect. Its similar.</p><p><img src='run_exp/static/images/tutorial/test/boot_comparison.png' height='300'></p><div><p><b>[Press the space bar to continue]</b></p></div>","32","","","","","","","",""
"","repeat","226","394653","0.0-221.0-0.0","""event"",""trial"",""time""
""fullscreenenter"",""0"",""8459""
","
","
","""event"",""trial"",""time""
""fullscreenenter"",""0"",""8459""
","
","null","run_exp/static/audio/clip_21_practice_again.m4a","null","","","","","<div class='center'><p>Oops. you missed at least one of these questions. Let's try practicing again. </p></div>","","",""
"","html-keyboard-response","227","395939","0.0-221.0-1.0","""event"",""trial"",""time""
""fullscreenenter"",""0"",""8459""
","
","
","""event"",""trial"",""time""
""fullscreenenter"",""0"",""8459""
","
","1285.8000001907349","<div class='center'><p>Oops. you missed at least one of these questions. Let's try practicing again. </p><div><p><b>[Press the space bar to continue]</b></p></div>","32","","","","","","","",""
"","practice_q1","228","397979","0.0-221.0-2.0","""event"",""trial"",""time""
""fullscreenenter"",""0"",""8459""
","
","
","""event"",""trial"",""time""
""fullscreenenter"",""0"",""8459""
","
","2038.8000001907349","run_exp/static/audio/clip_16_practice_question.m4a","78","","","","","","","",""
"","correct","229","399913","0.0-222.0-0.0","""event"",""trial"",""time""
""fullscreenenter"",""0"",""8459""
","
","
","""event"",""trial"",""time""
""fullscreenenter"",""0"",""8459""
","
","null","run_exp/static/audio/clip_17_correct.m4a","null","","","","","<div class='center'><p>That's correct!</p></div>","","",""
"","html-keyboard-response","230","401035","0.0-222.0-1.0","""event"",""trial"",""time""
""fullscreenenter"",""0"",""8459""
","
","
","""event"",""trial"",""time""
""fullscreenenter"",""0"",""8459""
","
","1121.0999994277954","<div class='center'><p>That's correct!</p><div><p><b>[Press the space bar to continue]</b></p></div>","32","","","","","","","",""
"","practice_q2","231","402235","0.0-222.0-2.0","""event"",""trial"",""time""
""fullscreenenter"",""0"",""8459""
","
","
","""event"",""trial"",""time""
""fullscreenenter"",""0"",""8459""
","
","1198.6999998092651","run_exp/static/audio/clip_16_practice_question.m4a","86","","","","","","","",""
"","correct","232","404133","0.0-223.0-0.0","""event"",""trial"",""time""
""fullscreenenter"",""0"",""8459""
","
","
","""event"",""trial"",""time""
""fullscreenenter"",""0"",""8459""
","
","null","run_exp/static/audio/clip_17_correct.m4a","null","","","","","<div class='center'><p>That's correct!</p></div>","","",""
"","html-keyboard-response","233","404803","0.0-223.0-1.0","""event"",""trial"",""time""
""fullscreenenter"",""0"",""8459""
","
","
","""event"",""trial"",""time""
""fullscreenenter"",""0"",""8459""
","
","669.1999998092651","<div class='center'><p>That's correct!</p><div><p><b>[Press the space bar to continue]</b></p></div>","32","","","","","","","",""
"","practice_q3","234","405371","0.0-223.0-2.0","""event"",""trial"",""time""
""fullscreenenter"",""0"",""8459""
","
","
","""event"",""trial"",""time""
""fullscreenenter"",""0"",""8459""
","
","566.8000001907349","run_exp/static/audio/clip_16_practice_question.m4a","66","","","","","","","",""
"","correct","235","407473","0.0-224.0-0.0","""event"",""trial"",""time""
""fullscreenenter"",""0"",""8459""
","
","
","""event"",""trial"",""time""
""fullscreenenter"",""0"",""8459""
","
","null","run_exp/static/audio/clip_17_correct.m4a","null","","","","","<div class='center'><p>That's correct!</p></div>","","",""
"","html-keyboard-response","236","408299","0.0-224.0-1.0","""event"",""trial"",""time""
""fullscreenenter"",""0"",""8459""
","
","
","""event"",""trial"",""time""
""fullscreenenter"",""0"",""8459""
","
","825.8999996185303","<div class='center'><p>That's correct!</p><div><p><b>[Press the space bar to continue]</b></p></div>","32","","","","","","","",""
"","begin_text","237","426793","0.0-225.0-0.0","""event"",""trial"",""time""
""fullscreenenter"",""0"",""8459""
","
","
","""event"",""trial"",""time""
""fullscreenenter"",""0"",""8459""
","
","null","run_exp/static/audio/clip_22_begin_test.m4a","null","","","","","<div class='center'><p>On to the real game where well test your memory of items from the indoor/outdoor game. For each item, you need to indicate if the item is <b>old</b> by pressing the <b>v</b> key, <b>similar</b> by pressing the <b>b</b> key, or <b>new</b> by pressing the <b>n</b> key. </p></div>","","",""
"","html-keyboard-response","238","428964","0.0-225.0-1.0","""event"",""trial"",""time""
""fullscreenenter"",""0"",""8459""
","
","
","""event"",""trial"",""time""
""fullscreenenter"",""0"",""8459""
","
","2167.9000005722046","<div class='center'><p>On to the real game where well test your memory of items from the indoor/outdoor game. For each item, you need to indicate if the item is <b>old</b> by pressing the <b>v</b> key, <b>similar</b> by pressing the <b>b</b> key, or <b>new</b> by pressing the <b>n</b> key. </p><div><p><b>[Press the space bar to continue]</b></p></div>","32","","","","","","","",""
"","image","239","430379","0.0-226.0-0.0","""event"",""trial"",""time""
""fullscreenenter"",""0"",""8459""
","
","
","""event"",""trial"",""time""
""fullscreenenter"",""0"",""8459""
","
","1414.5","run_exp/static/images/Set 6_rs/021a.jpg","78","","","","","","test","TF","2"
"","show_choice","240","430882","0.0-226.0-1.0","""event"",""trial"",""time""
""fullscreenenter"",""0"",""8459""
","
","
","""event"",""trial"",""time""
""fullscreenenter"",""0"",""8459""
","
","null","run_exp/static/images/Set 6_rs/021a.jpg","null","","","","","","test","TF",""
"","html-keyboard-response","241","431401","0.0-226.0-2.0","""event"",""trial"",""time""
""fullscreenenter"",""0"",""8459""
","
","
","""event"",""trial"",""time""
""fullscreenenter"",""0"",""8459""
","
","null","<p></p>","null","","","","","","","",""
"","image","242","432691","0.0-227.0-0.0","""event"",""trial"",""time""
""fullscreenenter"",""0"",""8459""
","
","
","""event"",""trial"",""time""
""fullscreenenter"",""0"",""8459""
","
","1288.8000001907349","run_exp/static/images/Set 6_rs/167b.jpg","86","","","","","","test","TL","2"
"","show_choice","243","433211","0.0-227.0-1.0","""event"",""trial"",""time""
""fullscreenenter"",""0"",""8459""
","
","
","""event"",""trial"",""time""
""fullscreenenter"",""0"",""8459""
","
","null","run_exp/static/images/Set 6_rs/167b.jpg","null","","","","","","test","TL",""
"","html-keyboard-response","244","433731","0.0-227.0-2.0","""event"",""trial"",""time""
""fullscreenenter"",""0"",""8459""
","
","
","""event"",""trial"",""time""
""fullscreenenter"",""0"",""8459""
","
","null","<p></p>","null","","","","","","","",""
"","image","245","435755","0.0-228.0-0.0","""event"",""trial"",""time""
""fullscreenenter"",""0"",""8459""
","
","
","""event"",""trial"",""time""
""fullscreenenter"",""0"",""8459""
","
","2022.8000001907349","run_exp/static/images/Set 6_rs/001a.jpg","78","","","","","","test","TF","1"
"","show_choice","246","436262","0.0-228.0-1.0","""event"",""trial"",""time""
""fullscreenenter"",""0"",""8459""
","
","
","""event"",""trial"",""time""
""fullscreenenter"",""0"",""8459""
","
","null","run_exp/static/images/Set 6_rs/001a.jpg","null","","","","","","test","TF",""
"","html-keyboard-response","247","436782","0.0-228.0-2.0","""event"",""trial"",""time""
""fullscreenenter"",""0"",""8459""
","
","
","""event"",""trial"",""time""
""fullscreenenter"",""0"",""8459""
","
","null","<p></p>","null","","","","","","","",""
"","image","248","438155","0.0-229.0-0.0","""event"",""trial"",""time""
""fullscreenenter"",""0"",""8459""
","
","
","""event"",""trial"",""time""
""fullscreenenter"",""0"",""8459""
","
","1372.3999996185303","run_exp/static/images/Set 6_rs/091b.jpg","86","","","","","","test","TL","3"
"","show_choice","249","438658","0.0-229.0-1.0","""event"",""trial"",""time""
""fullscreenenter"",""0"",""8459""
","
","
","""event"",""trial"",""time""
""fullscreenenter"",""0"",""8459""
","
","null","run_exp/static/images/Set 6_rs/091b.jpg","null","","","","","","test","TL",""
"","html-keyboard-response","250","439159","0.0-229.0-2.0","""event"",""trial"",""time""
""fullscreenenter"",""0"",""8459""
","
","
","""event"",""trial"",""time""
""fullscreenenter"",""0"",""8459""
","
","null","<p></p>","null","","","","","","","",""
"","image","251","440739","0.0-230.0-0.0","""event"",""trial"",""time""
""fullscreenenter"",""0"",""8459""
","
","
","""event"",""trial"",""time""
""fullscreenenter"",""0"",""8459""
","
","1579","run_exp/static/images/Set 6_rs/131a.jpg","66","","","","","","test","TR","5"
"","show_choice","252","441251","0.0-230.0-1.0","""event"",""trial"",""time""
""fullscreenenter"",""0"",""8459""
","
","
","""event"",""trial"",""time""
""fullscreenenter"",""0"",""8459""
","
","null","run_exp/static/images/Set 6_rs/131a.jpg","null","","","","","","test","TR",""
"","html-keyboard-response","253","441752","0.0-230.0-2.0","""event"",""trial"",""time""
""fullscreenenter"",""0"",""8459""
","
","
","""event"",""trial"",""time""
""fullscreenenter"",""0"",""8459""
","
","null","<p></p>","null","","","","","","","",""
"","image","254","443275","0.0-231.0-0.0","""event"",""trial"",""time""
""fullscreenenter"",""0"",""8459""
","
","
","""event"",""trial"",""time""
""fullscreenenter"",""0"",""8459""
","
","1522.5","run_exp/static/images/Set 6_rs/140a.jpg","78","","","","","","test","TF","1"
"","show_choice","255","443786","0.0-231.0-1.0","""event"",""trial"",""time""
""fullscreenenter"",""0"",""8459""
","
","
","""event"",""trial"",""time""
""fullscreenenter"",""0"",""8459""
","
","null","run_exp/static/images/Set 6_rs/140a.jpg","null","","","","","","test","TF",""
"","html-keyboard-response","256","444291","0.0-231.0-2.0","""event"",""trial"",""time""
""fullscreenenter"",""0"",""8459""
","
","
","""event"",""trial"",""time""
""fullscreenenter"",""0"",""8459""
","
","null","<p></p>","null","","","","","","","",""
"","image","257","445651","0.0-232.0-0.0","""event"",""trial"",""time""
""fullscreenenter"",""0"",""8459""
","
","
","""event"",""trial"",""time""
""fullscreenenter"",""0"",""8459""
","
","1359.0999994277954","run_exp/static/images/Set 6_rs/064a.jpg","86","","","","","","test","TR","5"
"","show_choice","258","446157","0.0-232.0-1.0","""event"",""trial"",""time""
""fullscreenenter"",""0"",""8459""
","
","
","""event"",""trial"",""time""
""fullscreenenter"",""0"",""8459""
","
","null","run_exp/static/images/Set 6_rs/064a.jpg","null","","","","","","test","TR",""
"","html-keyboard-response","259","446673","0.0-232.0-2.0","""event"",""trial"",""time""
""fullscreenenter"",""0"",""8459""
","
","
","""event"",""trial"",""time""
""fullscreenenter"",""0"",""8459""
","
","null","<p></p>","null","","","","","","","",""
"","image","260","447435","0.0-233.0-0.0","""event"",""trial"",""time""
""fullscreenenter"",""0"",""8459""
","
","
","""event"",""trial"",""time""
""fullscreenenter"",""0"",""8459""
","
","761.5999994277954","run_exp/static/images/Set 6_rs/045a.jpg","86","","","","","","test","TR","2"
"","show_choice","261","447941","0.0-233.0-1.0","""event"",""trial"",""time""
""fullscreenenter"",""0"",""8459""
","
","
","""event"",""trial"",""time""
""fullscreenenter"",""0"",""8459""
","
","null","run_exp/static/images/Set 6_rs/045a.jpg","null","","","","","","test","TR",""
"","html-keyboard-response","262","448456","0.0-233.0-2.0","""event"",""trial"",""time""
""fullscreenenter"",""0"",""8459""
","
","
","""event"",""trial"",""time""
""fullscreenenter"",""0"",""8459""
","
","null","<p></p>","null","","","","","","","",""
"","image","263","449507","0.0-234.0-0.0","""event"",""trial"",""time""
""fullscreenenter"",""0"",""8459""
","
","
","""event"",""trial"",""time""
""fullscreenenter"",""0"",""8459""
","
","1049.8999996185303","run_exp/static/images/Set 6_rs/028a.jpg","78","","","","","","test","TF","1"
"","show_choice","264","450022","0.0-234.0-1.0","""event"",""trial"",""time""
""fullscreenenter"",""0"",""8459""
","
","
","""event"",""trial"",""time""
""fullscreenenter"",""0"",""8459""
","
","null","run_exp/static/images/Set 6_rs/028a.jpg","null","","","","","","test","TF",""
"","html-keyboard-response","265","450524","0.0-234.0-2.0","""event"",""trial"",""time""
""fullscreenenter"",""0"",""8459""
","
","
","""event"",""trial"",""time""
""fullscreenenter"",""0"",""8459""
","
","null","<p></p>","null","","","","","","","",""
"","image","266","451539","0.0-235.0-0.0","""event"",""trial"",""time""
""fullscreenenter"",""0"",""8459""
","
","
","""event"",""trial"",""time""
""fullscreenenter"",""0"",""8459""
","
","1013.6999998092651","run_exp/static/images/Set 6_rs/187a.jpg","66","","","","","","test","TR","3"
"","show_choice","267","452045","0.0-235.0-1.0","""event"",""trial"",""time""
""fullscreenenter"",""0"",""8459""
","
","
","""event"",""trial"",""time""
""fullscreenenter"",""0"",""8459""
","
","null","run_exp/static/images/Set 6_rs/187a.jpg","null","","","","","","test","TR",""
"","html-keyboard-response","268","452556","0.0-235.0-2.0","""event"",""trial"",""time""
""fullscreenenter"",""0"",""8459""
","
","
","""event"",""trial"",""time""
""fullscreenenter"",""0"",""8459""
","
","null","<p></p>","null","","","","","","","",""
"","image","269","453827","0.0-236.0-0.0","""event"",""trial"",""time""
""fullscreenenter"",""0"",""8459""
","
","
","""event"",""trial"",""time""
""fullscreenenter"",""0"",""8459""
","
","1270.3000001907349","run_exp/static/images/Set 6_rs/118a.jpg","78","","","","","","test","TF","5"
"","show_choice","270","454340","0.0-236.0-1.0","""event"",""trial"",""time""
""fullscreenenter"",""0"",""8459""
","
","
","""event"",""trial"",""time""
""fullscreenenter"",""0"",""8459""
","
","null","run_exp/static/images/Set 6_rs/118a.jpg","null","","","","","","test","TF",""
"","html-keyboard-response","271","454855","0.0-236.0-2.0","""event"",""trial"",""time""
""fullscreenenter"",""0"",""8459""
","
","
","""event"",""trial"",""time""
""fullscreenenter"",""0"",""8459""
","
","null","<p></p>","null","","","","","","","",""
"","image","272","456187","0.0-237.0-0.0","""event"",""trial"",""time""
""fullscreenenter"",""0"",""8459""
","
","
","""event"",""trial"",""time""
""fullscreenenter"",""0"",""8459""
","
","1331","run_exp/static/images/Set 6_rs/169a.jpg","86","","","","","","test","TR","4"
"","show_choice","273","456691","0.0-237.0-1.0","""event"",""trial"",""time""
""fullscreenenter"",""0"",""8459""
","
","
","""event"",""trial"",""time""
""fullscreenenter"",""0"",""8459""
","
","null","run_exp/static/images/Set 6_rs/169a.jpg","null","","","","","","test","TR",""
"","html-keyboard-response","274","457207","0.0-237.0-2.0","""event"",""trial"",""time""
""fullscreenenter"",""0"",""8459""
","
","
","""event"",""trial"",""time""
""fullscreenenter"",""0"",""8459""
","
","null","<p></p>","null","","","","","","","",""
"","image","275","458203","0.0-238.0-0.0","""event"",""trial"",""time""
""fullscreenenter"",""0"",""8459""
","
","
","""event"",""trial"",""time""
""fullscreenenter"",""0"",""8459""
","
","995.6000003814697","run_exp/static/images/Set 6_rs/065a.jpg","78","","","","","","test","TF","3"
"","show_choice","276","458707","0.0-238.0-1.0","""event"",""trial"",""time""
""fullscreenenter"",""0"",""8459""
","
","
","""event"",""trial"",""time""
""fullscreenenter"",""0"",""8459""
","
","null","run_exp/static/images/Set 6_rs/065a.jpg","null","","","","","","test","TF",""
"","html-keyboard-response","277","459214","0.0-238.0-2.0","""event"",""trial"",""time""
""fullscreenenter"",""0"",""8459""
","
","
","""event"",""trial"",""time""
""fullscreenenter"",""0"",""8459""
","
","null","<p></p>","null","","","","","","","",""
"","image","278","460443","0.0-239.0-0.0","""event"",""trial"",""time""
""fullscreenenter"",""0"",""8459""
","
","
","""event"",""trial"",""time""
""fullscreenenter"",""0"",""8459""
","
","1227.8999996185303","run_exp/static/images/Set 6_rs/138b.jpg","66","","","","","","test","TL","1"
"","show_choice","279","460956","0.0-239.0-1.0","""event"",""trial"",""time""
""fullscreenenter"",""0"",""8459""
","
","
","""event"",""trial"",""time""
""fullscreenenter"",""0"",""8459""
","
","null","run_exp/static/images/Set 6_rs/138b.jpg","null","","","","","","test","TL",""
"","html-keyboard-response","280","461457","0.0-239.0-2.0","""event"",""trial"",""time""
""fullscreenenter"",""0"",""8459""
","
","
","""event"",""trial"",""time""
""fullscreenenter"",""0"",""8459""
","
","null","<p></p>","null","","","","","","","",""
"","image","281","462747","0.0-240.0-0.0","""event"",""trial"",""time""
""fullscreenenter"",""0"",""8459""
","
","
","""event"",""trial"",""time""
""fullscreenenter"",""0"",""8459""
","
","1289.5","run_exp/static/images/Set 6_rs/176a.jpg","78","","","","","","test","TF","4"
"","show_choice","282","463255","0.0-240.0-1.0","""event"",""trial"",""time""
""fullscreenenter"",""0"",""8459""
","
","
","""event"",""trial"",""time""
""fullscreenenter"",""0"",""8459""
","
","null","run_exp/static/images/Set 6_rs/176a.jpg","null","","","","","","test","TF",""
"","html-keyboard-response","283","463763","0.0-240.0-2.0","""event"",""trial"",""time""
""fullscreenenter"",""0"",""8459""
","
","
","""event"",""trial"",""time""
""fullscreenenter"",""0"",""8459""
","
","null","<p></p>","null","","","","","","","",""
"","image","284","465123","0.0-241.0-0.0","""event"",""trial"",""time""
""fullscreenenter"",""0"",""8459""
","
","
","""event"",""trial"",""time""
""fullscreenenter"",""0"",""8459""
","
","1359.6999998092651","run_exp/static/images/Set 6_rs/105a.jpg","78","","","","","","test","TF","5"
"","show_choice","285","465639","0.0-241.0-1.0","""event"",""trial"",""time""
""fullscreenenter"",""0"",""8459""
","
","
","""event"",""trial"",""time""
""fullscreenenter"",""0"",""8459""
","
","null","run_exp/static/images/Set 6_rs/105a.jpg","null","","","","","","test","TF",""
"","html-keyboard-response","286","466140","0.0-241.0-2.0","""event"",""trial"",""time""
""fullscreenenter"",""0"",""8459""
","
","
","""event"",""trial"",""time""
""fullscreenenter"",""0"",""8459""
","
","null","<p></p>","null","","","","","","","",""
"","image","287","467067","0.0-242.0-0.0","""event"",""trial"",""time""
""fullscreenenter"",""0"",""8459""
","
","
","""event"",""trial"",""time""
""fullscreenenter"",""0"",""8459""
","
","925.6999998092651","run_exp/static/images/Set 6_rs/190a.jpg","78","","","","","","test","TF","3"
"","show_choice","288","467574","0.0-242.0-1.0","""event"",""trial"",""time""
""fullscreenenter"",""0"",""8459""
","
","
","""event"",""trial"",""time""
""fullscreenenter"",""0"",""8459""
","
","null","run_exp/static/images/Set 6_rs/190a.jpg","null","","","","","","test","TF",""
"","html-keyboard-response","289","468089","0.0-242.0-2.0","""event"",""trial"",""time""
""fullscreenenter"",""0"",""8459""
","
","
","""event"",""trial"",""time""
""fullscreenenter"",""0"",""8459""
","
","null","<p></p>","null","","","","","","","",""
"","image","290","469164","0.0-243.0-0.0","""event"",""trial"",""time""
""fullscreenenter"",""0"",""8459""
","
","
","""event"",""trial"",""time""
""fullscreenenter"",""0"",""8459""
","
","1073.1000003814697","run_exp/static/images/Set 6_rs/055b.jpg","66","","","","","","test","TL","4"
"","show_choice","291","469672","0.0-243.0-1.0","""event"",""trial"",""time""
""fullscreenenter"",""0"",""8459""
","
","
","""event"",""trial"",""time""
""fullscreenenter"",""0"",""8459""
","
","null","run_exp/static/images/Set 6_rs/055b.jpg","null","","","","","","test","TL",""
"","html-keyboard-response","292","470173","0.0-243.0-2.0","""event"",""trial"",""time""
""fullscreenenter"",""0"",""8459""
","
","
","""event"",""trial"",""time""
""fullscreenenter"",""0"",""8459""
","
","null","<p></p>","null","","","","","","","",""
"","image","293","471483","0.0-244.0-0.0","""event"",""trial"",""time""
""fullscreenenter"",""0"",""8459""
","
","
","""event"",""trial"",""time""
""fullscreenenter"",""0"",""8459""
","
","1308.8999996185303","run_exp/static/images/Set 6_rs/152a.jpg","86","","","","","","test","TR","2"
"","show_choice","294","471989","0.0-244.0-1.0","""event"",""trial"",""time""
""fullscreenenter"",""0"",""8459""
","
","
","""event"",""trial"",""time""
""fullscreenenter"",""0"",""8459""
","
","null","run_exp/static/images/Set 6_rs/152a.jpg","null","","","","","","test","TR",""
"","html-keyboard-response","295","472490","0.0-244.0-2.0","""event"",""trial"",""time""
""fullscreenenter"",""0"",""8459""
","
","
","""event"",""trial"",""time""
""fullscreenenter"",""0"",""8459""
","
","null","<p></p>","null","","","","","","","",""
"","image","296","473627","0.0-245.0-0.0","""event"",""trial"",""time""
""fullscreenenter"",""0"",""8459""
","
","
","""event"",""trial"",""time""
""fullscreenenter"",""0"",""8459""
","
","1136.3000001907349","run_exp/static/images/Set 6_rs/171a.jpg","78","","","","","","test","TF","1"
"","show_choice","297","474139","0.0-245.0-1.0","""event"",""trial"",""time""
""fullscreenenter"",""0"",""8459""
","
","
","""event"",""trial"",""time""
""fullscreenenter"",""0"",""8459""
","
","null","run_exp/static/images/Set 6_rs/171a.jpg","null","","","","","","test","TF",""
"","html-keyboard-response","298","474640","0.0-245.0-2.0","""event"",""trial"",""time""
""fullscreenenter"",""0"",""8459""
","
","
","""event"",""trial"",""time""
""fullscreenenter"",""0"",""8459""
","
","null","<p></p>","null","","","","","","","",""
"","image","299","475739","0.0-246.0-0.0","""event"",""trial"",""time""
""fullscreenenter"",""0"",""8459""
","
","
","""event"",""trial"",""time""
""fullscreenenter"",""0"",""8459""
","
","1098.5","run_exp/static/images/Set 6_rs/062b.jpg","86","","","","","","test","TL","1"
"","show_choice","300","476240","0.0-246.0-1.0","""event"",""trial"",""time""
""fullscreenenter"",""0"",""8459""
","
","
","""event"",""trial"",""time""
""fullscreenenter"",""0"",""8459""
","
","null","run_exp/static/images/Set 6_rs/062b.jpg","null","","","","","","test","TL",""
"","html-keyboard-response","301","476757","0.0-246.0-2.0","""event"",""trial"",""time""
""fullscreenenter"",""0"",""8459""
","
","
","""event"",""trial"",""time""
""fullscreenenter"",""0"",""8459""
","
","null","<p></p>","null","","","","","","","",""
"","image","302","478347","0.0-247.0-0.0","""event"",""trial"",""time""
""fullscreenenter"",""0"",""8459""
","
","
","""event"",""trial"",""time""
""fullscreenenter"",""0"",""8459""
","
","1589.5","run_exp/static/images/Set 6_rs/052a.jpg","78","","","","","","test","TF","1"
"","show_choice","303","478856","0.0-247.0-1.0","""event"",""trial"",""time""
""fullscreenenter"",""0"",""8459""
","
","
","""event"",""trial"",""time""
""fullscreenenter"",""0"",""8459""
","
","null","run_exp/static/images/Set 6_rs/052a.jpg","null","","","","","","test","TF",""
"","html-keyboard-response","304","479359","0.0-247.0-2.0","""event"",""trial"",""time""
""fullscreenenter"",""0"",""8459""
","
","
","""event"",""trial"",""time""
""fullscreenenter"",""0"",""8459""
","
","null","<p></p>","null","","","","","","","",""
"","image","305","480539","0.0-248.0-0.0","""event"",""trial"",""time""
""fullscreenenter"",""0"",""8459""
","
","
","""event"",""trial"",""time""
""fullscreenenter"",""0"",""8459""
","
","1179.6000003814697","run_exp/static/images/Set 6_rs/050b.jpg","86","","","","","","test","TL","3"
"","show_choice","306","481048","0.0-248.0-1.0","""event"",""trial"",""time""
""fullscreenenter"",""0"",""8459""
","
","
","""event"",""trial"",""time""
""fullscreenenter"",""0"",""8459""
","
","null","run_exp/static/images/Set 6_rs/050b.jpg","null","","","","","","test","TL",""
"","html-keyboard-response","307","481556","0.0-248.0-2.0","""event"",""trial"",""time""
""fullscreenenter"",""0"",""8459""
","
","
","""event"",""trial"",""time""
""fullscreenenter"",""0"",""8459""
","
","null","<p></p>","null","","","","","","","",""
"","image","308","482691","0.0-249.0-0.0","""event"",""trial"",""time""
""fullscreenenter"",""0"",""8459""
","
","
","""event"",""trial"",""time""
""fullscreenenter"",""0"",""8459""
","
","1134.6999998092651","run_exp/static/images/Set 6_rs/024a.jpg","66","","","","","","test","TR","5"
"","show_choice","309","483206","0.0-249.0-1.0","""event"",""trial"",""time""
""fullscreenenter"",""0"",""8459""
","
","
","""event"",""trial"",""time""
""fullscreenenter"",""0"",""8459""
","
","null","run_exp/static/images/Set 6_rs/024a.jpg","null","","","","","","test","TR",""
"","html-keyboard-response","310","483708","0.0-249.0-2.0","""event"",""trial"",""time""
""fullscreenenter"",""0"",""8459""
","
","
","""event"",""trial"",""time""
""fullscreenenter"",""0"",""8459""
","
","null","<p></p>","null","","","","","","","",""
"","image","311","484483","0.0-250.0-0.0","""event"",""trial"",""time""
""fullscreenenter"",""0"",""8459""
","
","
","""event"",""trial"",""time""
""fullscreenenter"",""0"",""8459""
","
","774.6000003814697","run_exp/static/images/Set 6_rs/141a.jpg","66","","","","","","test","TR","2"
"","show_choice","312","484989","0.0-250.0-1.0","""event"",""trial"",""time""
""fullscreenenter"",""0"",""8459""
","
","
","""event"",""trial"",""time""
""fullscreenenter"",""0"",""8459""
","
","null","run_exp/static/images/Set 6_rs/141a.jpg","null","","","","","","test","TR",""
"","html-keyboard-response","313","485506","0.0-250.0-2.0","""event"",""trial"",""time""
""fullscreenenter"",""0"",""8459""
","
","
","""event"",""trial"",""time""
""fullscreenenter"",""0"",""8459""
","
","null","<p></p>","null","","","","","","","",""
"","image","314","486963","0.0-251.0-0.0","""event"",""trial"",""time""
""fullscreenenter"",""0"",""8459""
","
","
","""event"",""trial"",""time""
""fullscreenenter"",""0"",""8459""
","
","1456.8999996185303","run_exp/static/images/Set 6_rs/112a.jpg","86","","","","","","test","TR","5"
"","show_choice","315","487472","0.0-251.0-1.0","""event"",""trial"",""time""
""fullscreenenter"",""0"",""8459""
","
","
","""event"",""trial"",""time""
""fullscreenenter"",""0"",""8459""
","
","null","run_exp/static/images/Set 6_rs/112a.jpg","null","","","","","","test","TR",""
"","html-keyboard-response","316","487974","0.0-251.0-2.0","""event"",""trial"",""time""
""fullscreenenter"",""0"",""8459""
","
","
","""event"",""trial"",""time""
""fullscreenenter"",""0"",""8459""
","
","null","<p></p>","null","","","","","","","",""
"","image","317","488987","0.0-252.0-0.0","""event"",""trial"",""time""
""fullscreenenter"",""0"",""8459""
","
","
","""event"",""trial"",""time""
""fullscreenenter"",""0"",""8459""
","
","1012.1999998092651","run_exp/static/images/Set 6_rs/035a.jpg","78","","","","","","test","TF","4"
"","show_choice","318","489491","0.0-252.0-1.0","""event"",""trial"",""time""
""fullscreenenter"",""0"",""8459""
","
","
","""event"",""trial"",""time""
""fullscreenenter"",""0"",""8459""
","
","null","run_exp/static/images/Set 6_rs/035a.jpg","null","","","","","","test","TF",""
"","html-keyboard-response","319","490006","0.0-252.0-2.0","""event"",""trial"",""time""
""fullscreenenter"",""0"",""8459""
","
","
","""event"",""trial"",""time""
""fullscreenenter"",""0"",""8459""
","
","null","<p></p>","null","","","","","","","",""
"","image","320","490923","0.0-253.0-0.0","""event"",""trial"",""time""
""fullscreenenter"",""0"",""8459""
","
","
","""event"",""trial"",""time""
""fullscreenenter"",""0"",""8459""
","
","916.0999994277954","run_exp/static/images/Set 6_rs/075a.jpg","86","","","","","","test","TR","1"
"","show_choice","321","491439","0.0-253.0-1.0","""event"",""trial"",""time""
""fullscreenenter"",""0"",""8459""
","
","
","""event"",""trial"",""time""
""fullscreenenter"",""0"",""8459""
","
","null","run_exp/static/images/Set 6_rs/075a.jpg","null","","","","","","test","TR",""
"","html-keyboard-response","322","491941","0.0-253.0-2.0","""event"",""trial"",""time""
""fullscreenenter"",""0"",""8459""
","
","
","""event"",""trial"",""time""
""fullscreenenter"",""0"",""8459""
","
","null","<p></p>","null","","","","","","","",""
"","image","323","492731","0.0-254.0-0.0","""event"",""trial"",""time""
""fullscreenenter"",""0"",""8459""
","
","
","""event"",""trial"",""time""
""fullscreenenter"",""0"",""8459""
","
","789.5999994277954","run_exp/static/images/Set 6_rs/178a.jpg","86","","","","","","test","TR","3"
"","show_choice","324","493236","0.0-254.0-1.0","""event"",""trial"",""time""
""fullscreenenter"",""0"",""8459""
","
","
","""event"",""trial"",""time""
""fullscreenenter"",""0"",""8459""
","
","null","run_exp/static/images/Set 6_rs/178a.jpg","null","","","","","","test","TR",""
"","html-keyboard-response","325","493741","0.0-254.0-2.0","""event"",""trial"",""time""
""fullscreenenter"",""0"",""8459""
","
","
","""event"",""trial"",""time""
""fullscreenenter"",""0"",""8459""
","
","null","<p></p>","null","","","","","","","",""
"","image","326","494644","0.0-255.0-0.0","""event"",""trial"",""time""
""fullscreenenter"",""0"",""8459""
","
","
","""event"",""trial"",""time""
""fullscreenenter"",""0"",""8459""
","
","901.3999996185303","run_exp/static/images/Set 6_rs/078a.jpg","78","","","","","","test","TF","1"
"","show_choice","327","495156","0.0-255.0-1.0","""event"",""trial"",""time""
""fullscreenenter"",""0"",""8459""
","
","
","""event"",""trial"",""time""
""fullscreenenter"",""0"",""8459""
","
","null","run_exp/static/images/Set 6_rs/078a.jpg","null","","","","","","test","TF",""
"","html-keyboard-response","328","495660","0.0-255.0-2.0","""event"",""trial"",""time""
""fullscreenenter"",""0"",""8459""
","
","
","""event"",""trial"",""time""
""fullscreenenter"",""0"",""8459""
","
","null","<p></p>","null","","","","","","","",""
"","image","329","496427","0.0-256.0-0.0","""event"",""trial"",""time""
""fullscreenenter"",""0"",""8459""
","
","
","""event"",""trial"",""time""
""fullscreenenter"",""0"",""8459""
","
","766.1000003814697","run_exp/static/images/Set 6_rs/057b.jpg","86","","","","","","test","TL","1"
"","show_choice","330","496940","0.0-256.0-1.0","""event"",""trial"",""time""
""fullscreenenter"",""0"",""8459""
","
","
","""event"",""trial"",""time""
""fullscreenenter"",""0"",""8459""
","
","null","run_exp/static/images/Set 6_rs/057b.jpg","null","","","","","","test","TL",""
"","html-keyboard-response","331","497456","0.0-256.0-2.0","""event"",""trial"",""time""
""fullscreenenter"",""0"",""8459""
","
","
","""event"",""trial"",""time""
""fullscreenenter"",""0"",""8459""
","
","null","<p></p>","null","","","","","","","",""
"","image","332","498243","0.0-257.0-0.0","""event"",""trial"",""time""
""fullscreenenter"",""0"",""8459""
","
","
","""event"",""trial"",""time""
""fullscreenenter"",""0"",""8459""
","
","786.0999994277954","run_exp/static/images/Set 6_rs/063a.jpg","86","","","","","","test","TR","2"
"","show_choice","333","498756","0.0-257.0-1.0","""event"",""trial"",""time""
""fullscreenenter"",""0"",""8459""
","
","
","""event"",""trial"",""time""
""fullscreenenter"",""0"",""8459""
","
","null","run_exp/static/images/Set 6_rs/063a.jpg","null","","","","","","test","TR",""
"","html-keyboard-response","334","499257","0.0-257.0-2.0","""event"",""trial"",""time""
""fullscreenenter"",""0"",""8459""
","
","
","""event"",""trial"",""time""
""fullscreenenter"",""0"",""8459""
","
","null","<p></p>","null","","","","","","","",""
"","image","335","499955","0.0-258.0-0.0","""event"",""trial"",""time""
""fullscreenenter"",""0"",""8459""
","
","
","""event"",""trial"",""time""
""fullscreenenter"",""0"",""8459""
","
","697.4000005722046","run_exp/static/images/Set 6_rs/010a.jpg","86","","","","","","test","TR","5"
"","show_choice","336","500457","0.0-258.0-1.0","""event"",""trial"",""time""
""fullscreenenter"",""0"",""8459""
","
","
","""event"",""trial"",""time""
""fullscreenenter"",""0"",""8459""
","
","null","run_exp/static/images/Set 6_rs/010a.jpg","null","","","","","","test","TR",""
"","html-keyboard-response","337","500973","0.0-258.0-2.0","""event"",""trial"",""time""
""fullscreenenter"",""0"",""8459""
","
","
","""event"",""trial"",""time""
""fullscreenenter"",""0"",""8459""
","
","null","<p></p>","null","","","","","","","",""
