"success","trial_type","trial_index","time_elapsed","internal_node_id","interactions","blur_events","focus_events","fullscreenenter_events","fullscreenexit_events","rt","stimulus","key_press","subject_id","participant_id","age","gender","prompt","phase","condition","lure_bin"
"true","fullscreen","0","3630","0.0-0.0","""event"",""trial"",""time""
""fullscreenenter"",""0"",""2652""
","
","
","""event"",""trial"",""time""
""fullscreenenter"",""0"",""2652""
","
","","","","","","","","","","",""
"","pavlovia","1","3633","0.0-1.0","""event"",""trial"",""time""
""fullscreenenter"",""0"",""2652""
","
","
","""event"",""trial"",""time""
""fullscreenenter"",""0"",""2652""
","
","","","","","","","","","","",""
"","welcome","2","38830","0.0-2.0","""event"",""trial"",""time""
""fullscreenenter"",""0"",""2652""
","
","
","""event"",""trial"",""time""
""fullscreenenter"",""0"",""2652""
","
","null","run_exp/static/audio/clip_1_welcome.m4a","null","488","478","21","Female","<div class='center'><p>Welcome to the third part of the study! First, you'll be shown pictures of items one at a time. For each picture, you have to decide if the item is typically found indoors or outdoors.</p><p>If you think it's usually found indoors, then press <b>v</b> key on your keyboard. If you think it's usually found outdoors, then press the <b>n</b> key.There will be reminders on the screen to help you remember which keys to press. </p><p>If you're not sure whether the item is an indoor item or an outdoor item, go ahead and take a guess but try your best not to skip that choice. </p></div>","","",""
"","html-keyboard-response","3","61851","0.0-3.0","""event"",""trial"",""time""
""fullscreenenter"",""0"",""2652""
","
","
","""event"",""trial"",""time""
""fullscreenenter"",""0"",""2652""
","
","23020.5","<div class='center'><p>Welcome to the third part of the study! First, you'll be shown pictures of items one at a time. For each picture, you have to decide if the item is typically found indoors or outdoors.</p><p>If you think it's usually found indoors, then press <b>v</b> key on your keyboard. If you think it's usually found outdoors, then press the <b>n</b> key.There will be reminders on the screen to help you remember which keys to press. </p><p>If you're not sure whether the item is an indoor item or an outdoor item, go ahead and take a guess but try your best not to skip that choice. </p><div><p><b>[Press the space bar to continue]</b></p></div>","32","","","","","","","",""
"","image","4","63856","0.0-4.0","""event"",""trial"",""time""
""fullscreenenter"",""0"",""2652""
","
","
","""event"",""trial"",""time""
""fullscreenenter"",""0"",""2652""
","
","null","run_exp/static/images/Set 6_rs/123a.jpg","null","","","","","","learn","SL",""
"","show_choice","5","65861","0.0-5.0","""event"",""trial"",""time""
""fullscreenenter"",""0"",""2652""
","
","
","""event"",""trial"",""time""
""fullscreenenter"",""0"",""2652""
","
","null","run_exp/static/images/blank.png","null","","","","","","learn","SL",""
"","html-keyboard-response","6","66366","0.0-6.0","""event"",""trial"",""time""
""fullscreenenter"",""0"",""2652""
","
","
","""event"",""trial"",""time""
""fullscreenenter"",""0"",""2652""
","
","null","<p></p>","null","","","","","","","",""
"","image","7","67352","0.0-7.0","""event"",""trial"",""time""
""fullscreenenter"",""0"",""2652""
","
","
","""event"",""trial"",""time""
""fullscreenenter"",""0"",""2652""
","
","984.1999999880791","run_exp/static/images/Set 6_rs/141a.jpg","78","","","","","","learn","SR",""
"","show_choice","8","68373","0.0-8.0","""event"",""trial"",""time""
""fullscreenenter"",""0"",""2652""
","
","
","""event"",""trial"",""time""
""fullscreenenter"",""0"",""2652""
","
","null","run_exp/static/images/Set 6_rs/141a.jpg","null","","","","","","learn","SR",""
"","html-keyboard-response","9","68877","0.0-9.0","""event"",""trial"",""time""
""fullscreenenter"",""0"",""2652""
","
","
","""event"",""trial"",""time""
""fullscreenenter"",""0"",""2652""
","
","null","<p></p>","null","","","","","","","",""
"","image","10","69922","0.0-10.0","""event"",""trial"",""time""
""fullscreenenter"",""0"",""2652""
","
","
","""event"",""trial"",""time""
""fullscreenenter"",""0"",""2652""
","
","1043","run_exp/static/images/Set 6_rs/132a.jpg","86","","","","","","learn","SR",""
"","show_choice","11","70880","0.0-11.0","""event"",""trial"",""time""
""fullscreenenter"",""0"",""2652""
","
","
","""event"",""trial"",""time""
""fullscreenenter"",""0"",""2652""
","
","null","run_exp/static/images/Set 6_rs/132a.jpg","null","","","","","","learn","SR",""
"","html-keyboard-response","12","71383","0.0-12.0","""event"",""trial"",""time""
""fullscreenenter"",""0"",""2652""
","
","
","""event"",""trial"",""time""
""fullscreenenter"",""0"",""2652""
","
","null","<p></p>","null","","","","","","","",""
"","image","13","72243","0.0-13.0","""event"",""trial"",""time""
""fullscreenenter"",""0"",""2652""
","
","
","""event"",""trial"",""time""
""fullscreenenter"",""0"",""2652""
","
","858.6000000238419","run_exp/static/images/Set 6_rs/066a.jpg","86","","","","","","learn","SL",""
"","show_choice","14","73389","0.0-14.0","""event"",""trial"",""time""
""fullscreenenter"",""0"",""2652""
","
","
","""event"",""trial"",""time""
""fullscreenenter"",""0"",""2652""
","
","null","run_exp/static/images/Set 6_rs/066a.jpg","null","","","","","","learn","SL",""
"","html-keyboard-response","15","73892","0.0-15.0","""event"",""trial"",""time""
""fullscreenenter"",""0"",""2652""
","
","
","""event"",""trial"",""time""
""fullscreenenter"",""0"",""2652""
","
","null","<p></p>","null","","","","","","","",""
"","image","16","74887","0.0-16.0","""event"",""trial"",""time""
""fullscreenenter"",""0"",""2652""
","
","
","""event"",""trial"",""time""
""fullscreenenter"",""0"",""2652""
","
","994.3000000119209","run_exp/static/images/Set 6_rs/019a.jpg","86","","","","","","learn","SL",""
"","show_choice","17","75897","0.0-17.0","""event"",""trial"",""time""
""fullscreenenter"",""0"",""2652""
","
","
","""event"",""trial"",""time""
""fullscreenenter"",""0"",""2652""
","
","null","run_exp/static/images/Set 6_rs/019a.jpg","null","","","","","","learn","SL",""
"","html-keyboard-response","18","76402","0.0-18.0","""event"",""trial"",""time""
""fullscreenenter"",""0"",""2652""
","
","
","""event"",""trial"",""time""
""fullscreenenter"",""0"",""2652""
","
","null","<p></p>","null","","","","","","","",""
"","image","19","77287","0.0-19.0","""event"",""trial"",""time""
""fullscreenenter"",""0"",""2652""
","
","
","""event"",""trial"",""time""
""fullscreenenter"",""0"",""2652""
","
","884","run_exp/static/images/Set 6_rs/062a.jpg","86","","","","","","learn","SL",""
"","show_choice","20","78404","0.0-20.0","""event"",""trial"",""time""
""fullscreenenter"",""0"",""2652""
","
","
","""event"",""trial"",""time""
""fullscreenenter"",""0"",""2652""
","
","null","run_exp/static/images/Set 6_rs/062a.jpg","null","","","","","","learn","SL",""
"","html-keyboard-response","21","78908","0.0-21.0","""event"",""trial"",""time""
""fullscreenenter"",""0"",""2652""
","
","
","""event"",""trial"",""time""
""fullscreenenter"",""0"",""2652""
","
","null","<p></p>","null","","","","","","","",""
"","image","22","79784","0.0-22.0","""event"",""trial"",""time""
""fullscreenenter"",""0"",""2652""
","
","
","""event"",""trial"",""time""
""fullscreenenter"",""0"",""2652""
","
","874.6999999880791","run_exp/static/images/Set 6_rs/057a.jpg","86","","","","","","learn","SL",""
"","show_choice","23","80915","0.0-23.0","""event"",""trial"",""time""
""fullscreenenter"",""0"",""2652""
","
","
","""event"",""trial"",""time""
""fullscreenenter"",""0"",""2652""
","
","null","run_exp/static/images/Set 6_rs/057a.jpg","null","","","","","","learn","SL",""
"","html-keyboard-response","24","81419","0.0-24.0","""event"",""trial"",""time""
""fullscreenenter"",""0"",""2652""
","
","
","""event"",""trial"",""time""
""fullscreenenter"",""0"",""2652""
","
","null","<p></p>","null","","","","","","","",""
"","image","25","82653","0.0-25.0","""event"",""trial"",""time""
""fullscreenenter"",""0"",""2652""
","
","
","""event"",""trial"",""time""
""fullscreenenter"",""0"",""2652""
","
","1233.300000011921","run_exp/static/images/Set 6_rs/075a.jpg","78","","","","","","learn","SR",""
"","show_choice","26","83424","0.0-26.0","""event"",""trial"",""time""
""fullscreenenter"",""0"",""2652""
","
","
","""event"",""trial"",""time""
""fullscreenenter"",""0"",""2652""
","
","null","run_exp/static/images/Set 6_rs/075a.jpg","null","","","","","","learn","SR",""
"","html-keyboard-response","27","83925","0.0-27.0","""event"",""trial"",""time""
""fullscreenenter"",""0"",""2652""
","
","
","""event"",""trial"",""time""
""fullscreenenter"",""0"",""2652""
","
","null","<p></p>","null","","","","","","","",""
"","image","28","84720","0.0-28.0","""event"",""trial"",""time""
""fullscreenenter"",""0"",""2652""
","
","
","""event"",""trial"",""time""
""fullscreenenter"",""0"",""2652""
","
","792.9000000357628","run_exp/static/images/Set 6_rs/095a.jpg","86","","","","","","learn","SL",""
"","show_choice","29","85930","0.0-29.0","""event"",""trial"",""time""
""fullscreenenter"",""0"",""2652""
","
","
","""event"",""trial"",""time""
""fullscreenenter"",""0"",""2652""
","
","null","run_exp/static/images/Set 6_rs/095a.jpg","null","","","","","","learn","SL",""
"","html-keyboard-response","30","86434","0.0-30.0","""event"",""trial"",""time""
""fullscreenenter"",""0"",""2652""
","
","
","""event"",""trial"",""time""
""fullscreenenter"",""0"",""2652""
","
","null","<p></p>","null","","","","","","","",""
"","image","31","87325","0.0-31.0","""event"",""trial"",""time""
""fullscreenenter"",""0"",""2652""
","
","
","""event"",""trial"",""time""
""fullscreenenter"",""0"",""2652""
","
","890.5","run_exp/static/images/Set 6_rs/169a.jpg","86","","","","","","learn","SR",""
"","show_choice","32","88438","0.0-32.0","""event"",""trial"",""time""
""fullscreenenter"",""0"",""2652""
","
","
","""event"",""trial"",""time""
""fullscreenenter"",""0"",""2652""
","
","null","run_exp/static/images/Set 6_rs/169a.jpg","null","","","","","","learn","SR",""
"","html-keyboard-response","33","88942","0.0-33.0","""event"",""trial"",""time""
""fullscreenenter"",""0"",""2652""
","
","
","""event"",""trial"",""time""
""fullscreenenter"",""0"",""2652""
","
","null","<p></p>","null","","","","","","","",""
"","image","34","90579","0.0-34.0","""event"",""trial"",""time""
""fullscreenenter"",""0"",""2652""
","
","
","""event"",""trial"",""time""
""fullscreenenter"",""0"",""2652""
","
","1636.5","run_exp/static/images/Set 6_rs/138a.jpg","78","","","","","","learn","SL",""
"","show_choice","35","90948","0.0-35.0","""event"",""trial"",""time""
""fullscreenenter"",""0"",""2652""
","
","
","""event"",""trial"",""time""
""fullscreenenter"",""0"",""2652""
","
","null","run_exp/static/images/Set 6_rs/138a.jpg","null","","","","","","learn","SL",""
"","html-keyboard-response","36","91451","0.0-36.0","""event"",""trial"",""time""
""fullscreenenter"",""0"",""2652""
","
","
","""event"",""trial"",""time""
""fullscreenenter"",""0"",""2652""
","
","null","<p></p>","null","","","","","","","",""
"","image","37","92211","0.0-37.0","""event"",""trial"",""time""
""fullscreenenter"",""0"",""2652""
","
","
","""event"",""trial"",""time""
""fullscreenenter"",""0"",""2652""
","
","758.3000000119209","run_exp/static/images/Set 6_rs/154a.jpg","86","","","","","","learn","SR",""
"","show_choice","38","93456","0.0-38.0","""event"",""trial"",""time""
""fullscreenenter"",""0"",""2652""
","
","
","""event"",""trial"",""time""
""fullscreenenter"",""0"",""2652""
","
","null","run_exp/static/images/Set 6_rs/154a.jpg","null","","","","","","learn","SR",""
"","html-keyboard-response","39","93957","0.0-39.0","""event"",""trial"",""time""
""fullscreenenter"",""0"",""2652""
","
","
","""event"",""trial"",""time""
""fullscreenenter"",""0"",""2652""
","
","null","<p></p>","null","","","","","","","",""
"","image","40","95403","0.0-40.0","""event"",""trial"",""time""
""fullscreenenter"",""0"",""2652""
","
","
","""event"",""trial"",""time""
""fullscreenenter"",""0"",""2652""
","
","1444.8999999761581","run_exp/static/images/Set 6_rs/116a.jpg","86","","","","","","learn","SL",""
"","show_choice","41","95963","0.0-41.0","""event"",""trial"",""time""
""fullscreenenter"",""0"",""2652""
","
","
","""event"",""trial"",""time""
""fullscreenenter"",""0"",""2652""
","
","null","run_exp/static/images/Set 6_rs/116a.jpg","null","","","","","","learn","SL",""
"","html-keyboard-response","42","96466","0.0-42.0","""event"",""trial"",""time""
""fullscreenenter"",""0"",""2652""
","
","
","""event"",""trial"",""time""
""fullscreenenter"",""0"",""2652""
","
","null","<p></p>","null","","","","","","","",""
"","image","43","98375","0.0-43.0","""event"",""trial"",""time""
""fullscreenenter"",""0"",""2652""
","
","
","""event"",""trial"",""time""
""fullscreenenter"",""0"",""2652""
","
","1907.5","run_exp/static/images/Set 6_rs/167a.jpg","86","","","","","","learn","SL",""
"","show_choice","44","98468","0.0-44.0","""event"",""trial"",""time""
""fullscreenenter"",""0"",""2652""
","
","
","""event"",""trial"",""time""
""fullscreenenter"",""0"",""2652""
","
","null","run_exp/static/images/Set 6_rs/167a.jpg","null","","","","","","learn","SL",""
"","html-keyboard-response","45","98972","0.0-45.0","""event"",""trial"",""time""
""fullscreenenter"",""0"",""2652""
","
","
","""event"",""trial"",""time""
""fullscreenenter"",""0"",""2652""
","
","null","<p></p>","null","","","","","","","",""
"","image","46","100392","0.0-46.0","""event"",""trial"",""time""
""fullscreenenter"",""0"",""2652""
","
","
","""event"",""trial"",""time""
""fullscreenenter"",""0"",""2652""
","
","1419.4000000357628","run_exp/static/images/Set 6_rs/091a.jpg","78","","","","","","learn","SL",""
"","show_choice","47","100974","0.0-47.0","""event"",""trial"",""time""
""fullscreenenter"",""0"",""2652""
","
","
","""event"",""trial"",""time""
""fullscreenenter"",""0"",""2652""
","
","null","run_exp/static/images/Set 6_rs/091a.jpg","null","","","","","","learn","SL",""
"","html-keyboard-response","48","101480","0.0-48.0","""event"",""trial"",""time""
""fullscreenenter"",""0"",""2652""
","
","
","""event"",""trial"",""time""
""fullscreenenter"",""0"",""2652""
","
","null","<p></p>","null","","","","","","","",""
"","image","49","102239","0.0-49.0","""event"",""trial"",""time""
""fullscreenenter"",""0"",""2652""
","
","
","""event"",""trial"",""time""
""fullscreenenter"",""0"",""2652""
","
","757.4000000357628","run_exp/static/images/Set 6_rs/025a.jpg","78","","","","","","learn","SL",""
"","show_choice","50","103483","0.0-50.0","""event"",""trial"",""time""
""fullscreenenter"",""0"",""2652""
","
","
","""event"",""trial"",""time""
""fullscreenenter"",""0"",""2652""
","
","null","run_exp/static/images/Set 6_rs/025a.jpg","null","","","","","","learn","SL",""
"","html-keyboard-response","51","103988","0.0-51.0","""event"",""trial"",""time""
""fullscreenenter"",""0"",""2652""
","
","
","""event"",""trial"",""time""
""fullscreenenter"",""0"",""2652""
","
","null","<p></p>","null","","","","","","","",""
"","image","52","104832","0.0-52.0","""event"",""trial"",""time""
""fullscreenenter"",""0"",""2652""
","
","
","""event"",""trial"",""time""
""fullscreenenter"",""0"",""2652""
","
","843","run_exp/static/images/Set 6_rs/079a.jpg","86","","","","","","learn","SL",""
"","show_choice","53","105991","0.0-53.0","""event"",""trial"",""time""
""fullscreenenter"",""0"",""2652""
","
","
","""event"",""trial"",""time""
""fullscreenenter"",""0"",""2652""
","
","null","run_exp/static/images/Set 6_rs/079a.jpg","null","","","","","","learn","SL",""
"","html-keyboard-response","54","106492","0.0-54.0","""event"",""trial"",""time""
""fullscreenenter"",""0"",""2652""
","
","
","""event"",""trial"",""time""
""fullscreenenter"",""0"",""2652""
","
","null","<p></p>","null","","","","","","","",""
"","image","55","108146","0.0-55.0","""event"",""trial"",""time""
""fullscreenenter"",""0"",""2652""
","
","
","""event"",""trial"",""time""
""fullscreenenter"",""0"",""2652""
","
","1652.800000011921","run_exp/static/images/Set 6_rs/085a.jpg","78","","","","","","learn","SL",""
"","show_choice","56","108498","0.0-56.0","""event"",""trial"",""time""
""fullscreenenter"",""0"",""2652""
","
","
","""event"",""trial"",""time""
""fullscreenenter"",""0"",""2652""
","
","null","run_exp/static/images/Set 6_rs/085a.jpg","null","","","","","","learn","SL",""
"","html-keyboard-response","57","108999","0.0-57.0","""event"",""trial"",""time""
""fullscreenenter"",""0"",""2652""
","
","
","""event"",""trial"",""time""
""fullscreenenter"",""0"",""2652""
","
","null","<p></p>","null","","","","","","","",""
"","image","58","110862","0.0-58.0","""event"",""trial"",""time""
""fullscreenenter"",""0"",""2652""
","
","
","""event"",""trial"",""time""
""fullscreenenter"",""0"",""2652""
","
","1861.5","run_exp/static/images/Set 6_rs/178a.jpg","86","","","","","","learn","SR",""
"","show_choice","59","111006","0.0-59.0","""event"",""trial"",""time""
""fullscreenenter"",""0"",""2652""
","
","
","""event"",""trial"",""time""
""fullscreenenter"",""0"",""2652""
","
","null","run_exp/static/images/Set 6_rs/178a.jpg","null","","","","","","learn","SR",""
"","html-keyboard-response","60","111511","0.0-60.0","""event"",""trial"",""time""
""fullscreenenter"",""0"",""2652""
","
","
","""event"",""trial"",""time""
""fullscreenenter"",""0"",""2652""
","
","null","<p></p>","null","","","","","","","",""
"","image","61","113219","0.0-61.0","""event"",""trial"",""time""
""fullscreenenter"",""0"",""2652""
","
","
","""event"",""trial"",""time""
""fullscreenenter"",""0"",""2652""
","
","1706.5","run_exp/static/images/Set 6_rs/121a.jpg","78","","","","","","learn","SR",""
"","show_choice","62","113518","0.0-62.0","""event"",""trial"",""time""
""fullscreenenter"",""0"",""2652""
","
","
","""event"",""trial"",""time""
""fullscreenenter"",""0"",""2652""
","
","null","run_exp/static/images/Set 6_rs/121a.jpg","null","","","","","","learn","SR",""
"","html-keyboard-response","63","114021","0.0-63.0","""event"",""trial"",""time""
""fullscreenenter"",""0"",""2652""
","
","
","""event"",""trial"",""time""
""fullscreenenter"",""0"",""2652""
","
","null","<p></p>","null","","","","","","","",""
"","image","64","115311","0.0-64.0","""event"",""trial"",""time""
""fullscreenenter"",""0"",""2652""
","
","
","""event"",""trial"",""time""
""fullscreenenter"",""0"",""2652""
","
","1289.5","run_exp/static/images/Set 6_rs/023a.jpg","86","","","","","","learn","SR",""
"","show_choice","65","116027","0.0-65.0","""event"",""trial"",""time""
""fullscreenenter"",""0"",""2652""
","
","
","""event"",""trial"",""time""
""fullscreenenter"",""0"",""2652""
","
","null","run_exp/static/images/Set 6_rs/023a.jpg","null","","","","","","learn","SR",""
"","html-keyboard-response","66","116531","0.0-66.0","""event"",""trial"",""time""
""fullscreenenter"",""0"",""2652""
","
","
","""event"",""trial"",""time""
""fullscreenenter"",""0"",""2652""
","
","null","<p></p>","null","","","","","","","",""
"","image","67","117617","0.0-67.0","""event"",""trial"",""time""
""fullscreenenter"",""0"",""2652""
","
","
","""event"",""trial"",""time""
""fullscreenenter"",""0"",""2652""
","
","1084","run_exp/static/images/Set 6_rs/061a.jpg","78","","","","","","learn","SR",""
"","show_choice","68","118538","0.0-68.0","""event"",""trial"",""time""
""fullscreenenter"",""0"",""2652""
","
","
","""event"",""trial"",""time""
""fullscreenenter"",""0"",""2652""
","
","null","run_exp/static/images/Set 6_rs/061a.jpg","null","","","","","","learn","SR",""
"","html-keyboard-response","69","119041","0.0-69.0","""event"",""trial"",""time""
""fullscreenenter"",""0"",""2652""
","
","
","""event"",""trial"",""time""
""fullscreenenter"",""0"",""2652""
","
","null","<p></p>","null","","","","","","","",""
"","image","70","120742","0.0-70.0","""event"",""trial"",""time""
""fullscreenenter"",""0"",""2652""
","
","
","""event"",""trial"",""time""
""fullscreenenter"",""0"",""2652""
","
","1699.5","run_exp/static/images/Set 6_rs/017a.jpg","78","","","","","","learn","SL",""
"","show_choice","71","121044","0.0-71.0","""event"",""trial"",""time""
""fullscreenenter"",""0"",""2652""
","
","
","""event"",""trial"",""time""
""fullscreenenter"",""0"",""2652""
","
","null","run_exp/static/images/Set 6_rs/017a.jpg","null","","","","","","learn","SL",""
"","html-keyboard-response","72","121549","0.0-72.0","""event"",""trial"",""time""
""fullscreenenter"",""0"",""2652""
","
","
","""event"",""trial"",""time""
""fullscreenenter"",""0"",""2652""
","
","null","<p></p>","null","","","","","","","",""
"","image","73","122302","0.0-73.0","""event"",""trial"",""time""
""fullscreenenter"",""0"",""2652""
","
","
","""event"",""trial"",""time""
""fullscreenenter"",""0"",""2652""
","
","751.8999999761581","run_exp/static/images/Set 6_rs/050a.jpg","86","","","","","","learn","SL",""
"","show_choice","74","123552","0.0-74.0","""event"",""trial"",""time""
""fullscreenenter"",""0"",""2652""
","
","
","""event"",""trial"",""time""
""fullscreenenter"",""0"",""2652""
","
","null","run_exp/static/images/Set 6_rs/050a.jpg","null","","","","","","learn","SL",""
"","html-keyboard-response","75","124054","0.0-75.0","""event"",""trial"",""time""
""fullscreenenter"",""0"",""2652""
","
","
","""event"",""trial"",""time""
""fullscreenenter"",""0"",""2652""
","
","null","<p></p>","null","","","","","","","",""
"","image","76","125642","0.0-76.0","""event"",""trial"",""time""
""fullscreenenter"",""0"",""2652""
","
","
","""event"",""trial"",""time""
""fullscreenenter"",""0"",""2652""
","
","1586.800000011921","run_exp/static/images/Set 6_rs/076a.jpg","78","","","","","","learn","SR",""
"","show_choice","77","126058","0.0-77.0","""event"",""trial"",""time""
""fullscreenenter"",""0"",""2652""
","
","
","""event"",""trial"",""time""
""fullscreenenter"",""0"",""2652""
","
","null","run_exp/static/images/Set 6_rs/076a.jpg","null","","","","","","learn","SR",""
"","html-keyboard-response","78","126563","0.0-78.0","""event"",""trial"",""time""
""fullscreenenter"",""0"",""2652""
","
","
","""event"",""trial"",""time""
""fullscreenenter"",""0"",""2652""
","
","null","<p></p>","null","","","","","","","",""
"","image","79","127311","0.0-79.0","""event"",""trial"",""time""
""fullscreenenter"",""0"",""2652""
","
","
","""event"",""trial"",""time""
""fullscreenenter"",""0"",""2652""
","
","746.5","run_exp/static/images/Set 6_rs/010a.jpg","86","","","","","","learn","SR",""
"","show_choice","80","128566","0.0-80.0","""event"",""trial"",""time""
""fullscreenenter"",""0"",""2652""
","
","
","""event"",""trial"",""time""
""fullscreenenter"",""0"",""2652""
","
","null","run_exp/static/images/Set 6_rs/010a.jpg","null","","","","","","learn","SR",""
"","html-keyboard-response","81","129071","0.0-81.0","""event"",""trial"",""time""
""fullscreenenter"",""0"",""2652""
","
","
","""event"",""trial"",""time""
""fullscreenenter"",""0"",""2652""
","
","null","<p></p>","null","","","","","","","",""
"","image","82","130974","0.0-82.0","""event"",""trial"",""time""
""fullscreenenter"",""0"",""2652""
","
","
","""event"",""trial"",""time""
""fullscreenenter"",""0"",""2652""
","
","1901.199999988079","run_exp/static/images/Set 6_rs/122a.jpg","78","","","","","","learn","SR",""
"","show_choice","83","131076","0.0-83.0","""event"",""trial"",""time""
""fullscreenenter"",""0"",""2652""
","
","
","""event"",""trial"",""time""
""fullscreenenter"",""0"",""2652""
","
","null","run_exp/static/images/Set 6_rs/122a.jpg","null","","","","","","learn","SR",""
"","html-keyboard-response","84","131578","0.0-84.0","""event"",""trial"",""time""
""fullscreenenter"",""0"",""2652""
","
","
","""event"",""trial"",""time""
""fullscreenenter"",""0"",""2652""
","
","null","<p></p>","null","","","","","","","",""
"","image","85","132840","0.0-85.0","""event"",""trial"",""time""
""fullscreenenter"",""0"",""2652""
","
","
","""event"",""trial"",""time""
""fullscreenenter"",""0"",""2652""
","
","1261.2000000476837","run_exp/static/images/Set 6_rs/073a.jpg","86","","","","","","learn","SL",""
"","show_choice","86","133583","0.0-86.0","""event"",""trial"",""time""
""fullscreenenter"",""0"",""2652""
","
","
","""event"",""trial"",""time""
""fullscreenenter"",""0"",""2652""
","
","null","run_exp/static/images/Set 6_rs/073a.jpg","null","","","","","","learn","SL",""
"","html-keyboard-response","87","134087","0.0-87.0","""event"",""trial"",""time""
""fullscreenenter"",""0"",""2652""
","
","
","""event"",""trial"",""time""
""fullscreenenter"",""0"",""2652""
","
","null","<p></p>","null","","","","","","","",""
"","image","88","135291","0.0-88.0","""event"",""trial"",""time""
""fullscreenenter"",""0"",""2652""
","
","
","""event"",""trial"",""time""
""fullscreenenter"",""0"",""2652""
","
","1203","run_exp/static/images/Set 6_rs/166a.jpg","78","","","","","","learn","SR",""
"","show_choice","89","136090","0.0-89.0","""event"",""trial"",""time""
""fullscreenenter"",""0"",""2652""
","
","
","""event"",""trial"",""time""
""fullscreenenter"",""0"",""2652""
","
","null","run_exp/static/images/Set 6_rs/166a.jpg","null","","","","","","learn","SR",""
"","html-keyboard-response","90","136592","0.0-90.0","""event"",""trial"",""time""
""fullscreenenter"",""0"",""2652""
","
","
","""event"",""trial"",""time""
""fullscreenenter"",""0"",""2652""
","
","null","<p></p>","null","","","","","","","",""
"","image","91","138185","0.0-91.0","""event"",""trial"",""time""
""fullscreenenter"",""0"",""2652""
","
","
","""event"",""trial"",""time""
""fullscreenenter"",""0"",""2652""
","
","1591.3999999761581","run_exp/static/images/Set 6_rs/191a.jpg","86","","","","","","learn","SL",""
"","show_choice","92","138598","0.0-92.0","""event"",""trial"",""time""
""fullscreenenter"",""0"",""2652""
","
","
","""event"",""trial"",""time""
""fullscreenenter"",""0"",""2652""
","
","null","run_exp/static/images/Set 6_rs/191a.jpg","null","","","","","","learn","SL",""
"","html-keyboard-response","93","139101","0.0-93.0","""event"",""trial"",""time""
""fullscreenenter"",""0"",""2652""
","
","
","""event"",""trial"",""time""
""fullscreenenter"",""0"",""2652""
","
","null","<p></p>","null","","","","","","","",""
"","image","94","139969","0.0-94.0","""event"",""trial"",""time""
""fullscreenenter"",""0"",""2652""
","
","
","""event"",""trial"",""time""
""fullscreenenter"",""0"",""2652""
","
","867","run_exp/static/images/Set 6_rs/150a.jpg","86","","","","","","learn","SR",""
"","show_choice","95","141106","0.0-95.0","""event"",""trial"",""time""
""fullscreenenter"",""0"",""2652""
","
","
","""event"",""trial"",""time""
""fullscreenenter"",""0"",""2652""
","
","null","run_exp/static/images/Set 6_rs/150a.jpg","null","","","","","","learn","SR",""
"","html-keyboard-response","96","141607","0.0-96.0","""event"",""trial"",""time""
""fullscreenenter"",""0"",""2652""
","
","
","""event"",""trial"",""time""
""fullscreenenter"",""0"",""2652""
","
","null","<p></p>","null","","","","","","","",""
"","image","97","142487","0.0-97.0","""event"",""trial"",""time""
""fullscreenenter"",""0"",""2652""
","
","
","""event"",""trial"",""time""
""fullscreenenter"",""0"",""2652""
","
","878.1000000238419","run_exp/static/images/Set 6_rs/071a.jpg","78","","","","","","learn","SL",""
"","show_choice","98","143614","0.0-98.0","""event"",""trial"",""time""
""fullscreenenter"",""0"",""2652""
","
","
","""event"",""trial"",""time""
""fullscreenenter"",""0"",""2652""
","
","null","run_exp/static/images/Set 6_rs/071a.jpg","null","","","","","","learn","SL",""
"","html-keyboard-response","99","144117","0.0-99.0","""event"",""trial"",""time""
""fullscreenenter"",""0"",""2652""
","
","
","""event"",""trial"",""time""
""fullscreenenter"",""0"",""2652""
","
","null","<p></p>","null","","","","","","","",""
"","image","100","145034","0.0-100.0","""event"",""trial"",""time""
""fullscreenenter"",""0"",""2652""
","
","
","""event"",""trial"",""time""
""fullscreenenter"",""0"",""2652""
","
","915.3999999761581","run_exp/static/images/Set 6_rs/134a.jpg","86","","","","","","learn","SR",""
"","show_choice","101","146120","0.0-101.0","""event"",""trial"",""time""
""fullscreenenter"",""0"",""2652""
","
","
","""event"",""trial"",""time""
""fullscreenenter"",""0"",""2652""
","
","null","run_exp/static/images/Set 6_rs/134a.jpg","null","","","","","","learn","SR",""
"","html-keyboard-response","102","146625","0.0-102.0","""event"",""trial"",""time""
""fullscreenenter"",""0"",""2652""
","
","
","""event"",""trial"",""time""
""fullscreenenter"",""0"",""2652""
","
","null","<p></p>","null","","","","","","","",""
"","image","103","147649","0.0-103.0","""event"",""trial"",""time""
""fullscreenenter"",""0"",""2652""
","
","
","""event"",""trial"",""time""
""fullscreenenter"",""0"",""2652""
","
","1023.2000000476837","run_exp/static/images/Set 6_rs/089a.jpg","86","","","","","","learn","SL",""
"","show_choice","104","148628","0.0-104.0","""event"",""trial"",""time""
""fullscreenenter"",""0"",""2652""
","
","
","""event"",""trial"",""time""
""fullscreenenter"",""0"",""2652""
","
","null","run_exp/static/images/Set 6_rs/089a.jpg","null","","","","","","learn","SL",""
"","html-keyboard-response","105","149134","0.0-105.0","""event"",""trial"",""time""
""fullscreenenter"",""0"",""2652""
","
","
","""event"",""trial"",""time""
""fullscreenenter"",""0"",""2652""
","
","null","<p></p>","null","","","","","","","",""
"","image","106","149842","0.0-106.0","""event"",""trial"",""time""
""fullscreenenter"",""0"",""2652""
","
","
","""event"",""trial"",""time""
""fullscreenenter"",""0"",""2652""
","
","707.2000000476837","run_exp/static/images/Set 6_rs/181a.jpg","78","","","","","","learn","SL",""
"","show_choice","107","151140","0.0-107.0","""event"",""trial"",""time""
""fullscreenenter"",""0"",""2652""
","
","
","""event"",""trial"",""time""
""fullscreenenter"",""0"",""2652""
","
","null","run_exp/static/images/Set 6_rs/181a.jpg","null","","","","","","learn","SL",""
"","html-keyboard-response","108","151641","0.0-108.0","""event"",""trial"",""time""
""fullscreenenter"",""0"",""2652""
","
","
","""event"",""trial"",""time""
""fullscreenenter"",""0"",""2652""
","
","null","<p></p>","null","","","","","","","",""
"","image","109","153260","0.0-109.0","""event"",""trial"",""time""
""fullscreenenter"",""0"",""2652""
","
","
","""event"",""trial"",""time""
""fullscreenenter"",""0"",""2652""
","
","1617.699999988079","run_exp/static/images/Set 6_rs/129a.jpg","86","","","","","","learn","SL",""
"","show_choice","110","153646","0.0-110.0","""event"",""trial"",""time""
""fullscreenenter"",""0"",""2652""
","
","
","""event"",""trial"",""time""
""fullscreenenter"",""0"",""2652""
","
","null","run_exp/static/images/Set 6_rs/129a.jpg","null","","","","","","learn","SL",""
"","html-keyboard-response","111","154151","0.0-111.0","""event"",""trial"",""time""
""fullscreenenter"",""0"",""2652""
","
","
","""event"",""trial"",""time""
""fullscreenenter"",""0"",""2652""
","
","null","<p></p>","null","","","","","","","",""
"","image","112","155329","0.0-112.0","""event"",""trial"",""time""
""fullscreenenter"",""0"",""2652""
","
","
","""event"",""trial"",""time""
""fullscreenenter"",""0"",""2652""
","
","1176.699999988079","run_exp/static/images/Set 6_rs/063a.jpg","86","","","","","","learn","SR",""
"","show_choice","113","156154","0.0-113.0","""event"",""trial"",""time""
""fullscreenenter"",""0"",""2652""
","
","
","""event"",""trial"",""time""
""fullscreenenter"",""0"",""2652""
","
","null","run_exp/static/images/Set 6_rs/063a.jpg","null","","","","","","learn","SR",""
"","html-keyboard-response","114","156660","0.0-114.0","""event"",""trial"",""time""
""fullscreenenter"",""0"",""2652""
","
","
","""event"",""trial"",""time""
""fullscreenenter"",""0"",""2652""
","
","null","<p></p>","null","","","","","","","",""
"","image","115","157477","0.0-115.0","""event"",""trial"",""time""
""fullscreenenter"",""0"",""2652""
","
","
","""event"",""trial"",""time""
""fullscreenenter"",""0"",""2652""
","
","817","run_exp/static/images/Set 6_rs/177a.jpg","78","","","","","","learn","SR",""
"","show_choice","116","158662","0.0-116.0","""event"",""trial"",""time""
""fullscreenenter"",""0"",""2652""
","
","
","""event"",""trial"",""time""
""fullscreenenter"",""0"",""2652""
","
","null","run_exp/static/images/Set 6_rs/177a.jpg","null","","","","","","learn","SR",""
"","html-keyboard-response","117","159167","0.0-117.0","""event"",""trial"",""time""
""fullscreenenter"",""0"",""2652""
","
","
","""event"",""trial"",""time""
""fullscreenenter"",""0"",""2652""
","
","null","<p></p>","null","","","","","","","",""
"","image","118","160594","0.0-118.0","""event"",""trial"",""time""
""fullscreenenter"",""0"",""2652""
","
","
","""event"",""trial"",""time""
""fullscreenenter"",""0"",""2652""
","
","1425.5","run_exp/static/images/Set 6_rs/126a.jpg","78","","","","","","learn","SR",""
"","show_choice","119","161172","0.0-119.0","""event"",""trial"",""time""
""fullscreenenter"",""0"",""2652""
","
","
","""event"",""trial"",""time""
""fullscreenenter"",""0"",""2652""
","
","null","run_exp/static/images/Set 6_rs/126a.jpg","null","","","","","","learn","SR",""
"","html-keyboard-response","120","161674","0.0-120.0","""event"",""trial"",""time""
""fullscreenenter"",""0"",""2652""
","
","
","""event"",""trial"",""time""
""fullscreenenter"",""0"",""2652""
","
","null","<p></p>","null","","","","","","","",""
"","image","121","162554","0.0-121.0","""event"",""trial"",""time""
""fullscreenenter"",""0"",""2652""
","
","
","""event"",""trial"",""time""
""fullscreenenter"",""0"",""2652""
","
","879.1000000238419","run_exp/static/images/Set 6_rs/108a.jpg","78","","","","","","learn","SR",""
"","show_choice","122","163677","0.0-122.0","""event"",""trial"",""time""
""fullscreenenter"",""0"",""2652""
","
","
","""event"",""trial"",""time""
""fullscreenenter"",""0"",""2652""
","
","null","run_exp/static/images/Set 6_rs/108a.jpg","null","","","","","","learn","SR",""
"","html-keyboard-response","123","164183","0.0-123.0","""event"",""trial"",""time""
""fullscreenenter"",""0"",""2652""
","
","
","""event"",""trial"",""time""
""fullscreenenter"",""0"",""2652""
","
","null","<p></p>","null","","","","","","","",""
"","image","124","165448","0.0-124.0","""event"",""trial"",""time""
""fullscreenenter"",""0"",""2652""
","
","
","""event"",""trial"",""time""
""fullscreenenter"",""0"",""2652""
","
","1264","run_exp/static/images/Set 6_rs/008a.jpg","78","","","","","","learn","SL",""
"","show_choice","125","166188","0.0-125.0","""event"",""trial"",""time""
""fullscreenenter"",""0"",""2652""
","
","
","""event"",""trial"",""time""
""fullscreenenter"",""0"",""2652""
","
","null","run_exp/static/images/Set 6_rs/008a.jpg","null","","","","","","learn","SL",""
"","html-keyboard-response","126","166690","0.0-126.0","""event"",""trial"",""time""
""fullscreenenter"",""0"",""2652""
","
","
","""event"",""trial"",""time""
""fullscreenenter"",""0"",""2652""
","
","null","<p></p>","null","","","","","","","",""
"","image","127","167567","0.0-127.0","""event"",""trial"",""time""
""fullscreenenter"",""0"",""2652""
","
","
","""event"",""trial"",""time""
""fullscreenenter"",""0"",""2652""
","
","875.8999999761581","run_exp/static/images/Set 6_rs/112a.jpg","86","","","","","","learn","SR",""
"","show_choice","128","168697","0.0-128.0","""event"",""trial"",""time""
""fullscreenenter"",""0"",""2652""
","
","
","""event"",""trial"",""time""
""fullscreenenter"",""0"",""2652""
","
","null","run_exp/static/images/Set 6_rs/112a.jpg","null","","","","","","learn","SR",""
"","html-keyboard-response","129","169198","0.0-129.0","""event"",""trial"",""time""
""fullscreenenter"",""0"",""2652""
","
","
","""event"",""trial"",""time""
""fullscreenenter"",""0"",""2652""
","
","null","<p></p>","null","","","","","","","",""
"","image","130","170107","0.0-130.0","""event"",""trial"",""time""
""fullscreenenter"",""0"",""2652""
","
","
","""event"",""trial"",""time""
""fullscreenenter"",""0"",""2652""
","
","907.7000000476837","run_exp/static/images/Set 6_rs/187a.jpg","78","","","","","","learn","SR",""
"","show_choice","131","171200","0.0-131.0","""event"",""trial"",""time""
""fullscreenenter"",""0"",""2652""
","
","
","""event"",""trial"",""time""
""fullscreenenter"",""0"",""2652""
","
","null","run_exp/static/images/Set 6_rs/187a.jpg","null","","","","","","learn","SR",""
"","html-keyboard-response","132","171701","0.0-132.0","""event"",""trial"",""time""
""fullscreenenter"",""0"",""2652""
","
","
","""event"",""trial"",""time""
""fullscreenenter"",""0"",""2652""
","
","null","<p></p>","null","","","","","","","",""
"","image","133","172721","0.0-133.0","""event"",""trial"",""time""
""fullscreenenter"",""0"",""2652""
","
","
","""event"",""trial"",""time""
""fullscreenenter"",""0"",""2652""
","
","1019.3000000119209","run_exp/static/images/Set 6_rs/088a.jpg","86","","","","","","learn","SR",""
"","show_choice","134","173707","0.0-134.0","""event"",""trial"",""time""
""fullscreenenter"",""0"",""2652""
","
","
","""event"",""trial"",""time""
""fullscreenenter"",""0"",""2652""
","
","null","run_exp/static/images/Set 6_rs/088a.jpg","null","","","","","","learn","SR",""
"","html-keyboard-response","135","174208","0.0-135.0","""event"",""trial"",""time""
""fullscreenenter"",""0"",""2652""
","
","
","""event"",""trial"",""time""
""fullscreenenter"",""0"",""2652""
","
","null","<p></p>","null","","","","","","","",""
"","image","136","175410","0.0-136.0","""event"",""trial"",""time""
""fullscreenenter"",""0"",""2652""
","
","
","""event"",""trial"",""time""
""fullscreenenter"",""0"",""2652""
","
","1201.199999988079","run_exp/static/images/Set 6_rs/006a.jpg","78","","","","","","learn","SL",""
"","show_choice","137","176209","0.0-137.0","""event"",""trial"",""time""
""fullscreenenter"",""0"",""2652""
","
","
","""event"",""trial"",""time""
""fullscreenenter"",""0"",""2652""
","
","null","run_exp/static/images/Set 6_rs/006a.jpg","null","","","","","","learn","SL",""
"","html-keyboard-response","138","176710","0.0-138.0","""event"",""trial"",""time""
""fullscreenenter"",""0"",""2652""
","
","
","""event"",""trial"",""time""
""fullscreenenter"",""0"",""2652""
","
","null","<p></p>","null","","","","","","","",""
"","image","139","177463","0.0-139.0","""event"",""trial"",""time""
""fullscreenenter"",""0"",""2652""
","
","
","""event"",""trial"",""time""
""fullscreenenter"",""0"",""2652""
","
","751.8000000119209","run_exp/static/images/Set 6_rs/055a.jpg","86","","","","","","learn","SL",""
"","show_choice","140","178715","0.0-140.0","""event"",""trial"",""time""
""fullscreenenter"",""0"",""2652""
","
","
","""event"",""trial"",""time""
""fullscreenenter"",""0"",""2652""
","
","null","run_exp/static/images/Set 6_rs/055a.jpg","null","","","","","","learn","SL",""
"","html-keyboard-response","141","179219","0.0-141.0","""event"",""trial"",""time""
""fullscreenenter"",""0"",""2652""
","
","
","""event"",""trial"",""time""
""fullscreenenter"",""0"",""2652""
","
","null","<p></p>","null","","","","","","","",""
"","image","142","180790","0.0-142.0","""event"",""trial"",""time""
""fullscreenenter"",""0"",""2652""
","
","
","""event"",""trial"",""time""
""fullscreenenter"",""0"",""2652""
","
","1569.9000000357628","run_exp/static/images/Set 6_rs/111a.jpg","86","","","","","","learn","SL",""
"","show_choice","143","181225","0.0-143.0","""event"",""trial"",""time""
""fullscreenenter"",""0"",""2652""
","
","
","""event"",""trial"",""time""
""fullscreenenter"",""0"",""2652""
","
","null","run_exp/static/images/Set 6_rs/111a.jpg","null","","","","","","learn","SL",""
"","html-keyboard-response","144","181730","0.0-144.0","""event"",""trial"",""time""
""fullscreenenter"",""0"",""2652""
","
","
","""event"",""trial"",""time""
""fullscreenenter"",""0"",""2652""
","
","null","<p></p>","null","","","","","","","",""
"","image","145","183642","0.0-145.0","""event"",""trial"",""time""
""fullscreenenter"",""0"",""2652""
","
","
","""event"",""trial"",""time""
""fullscreenenter"",""0"",""2652""
","
","1910.800000011921","run_exp/static/images/Set 6_rs/117a.jpg","78","","","","","","learn","SL",""
"","show_choice","146","183733","0.0-146.0","""event"",""trial"",""time""
""fullscreenenter"",""0"",""2652""
","
","
","""event"",""trial"",""time""
""fullscreenenter"",""0"",""2652""
","
","null","run_exp/static/images/Set 6_rs/117a.jpg","null","","","","","","learn","SL",""
"","html-keyboard-response","147","184237","0.0-147.0","""event"",""trial"",""time""
""fullscreenenter"",""0"",""2652""
","
","
","""event"",""trial"",""time""
""fullscreenenter"",""0"",""2652""
","
","null","<p></p>","null","","","","","","","",""
"","image","148","186167","0.0-148.0","""event"",""trial"",""time""
""fullscreenenter"",""0"",""2652""
","
","
","""event"",""trial"",""time""
""fullscreenenter"",""0"",""2652""
","
","1929.300000011921","run_exp/static/images/Set 6_rs/152a.jpg","78","","","","","","learn","SR",""
"","show_choice","149","186241","0.0-149.0","""event"",""trial"",""time""
""fullscreenenter"",""0"",""2652""
","
","
","""event"",""trial"",""time""
""fullscreenenter"",""0"",""2652""
","
","null","run_exp/static/images/Set 6_rs/152a.jpg","null","","","","","","learn","SR",""
"","html-keyboard-response","150","186743","0.0-150.0","""event"",""trial"",""time""
""fullscreenenter"",""0"",""2652""
","
","
","""event"",""trial"",""time""
""fullscreenenter"",""0"",""2652""
","
","null","<p></p>","null","","","","","","","",""
"","image","151","187484","0.0-151.0","""event"",""trial"",""time""
""fullscreenenter"",""0"",""2652""
","
","
","""event"",""trial"",""time""
""fullscreenenter"",""0"",""2652""
","
","739.6999999880791","run_exp/static/images/Set 6_rs/014a.jpg","86","","","","","","learn","SL",""
"","show_choice","152","188749","0.0-152.0","""event"",""trial"",""time""
""fullscreenenter"",""0"",""2652""
","
","
","""event"",""trial"",""time""
""fullscreenenter"",""0"",""2652""
","
","null","run_exp/static/images/Set 6_rs/014a.jpg","null","","","","","","learn","SL",""
"","html-keyboard-response","153","189254","0.0-153.0","""event"",""trial"",""time""
""fullscreenenter"",""0"",""2652""
","
","
","""event"",""trial"",""time""
""fullscreenenter"",""0"",""2652""
","
","null","<p></p>","null","","","","","","","",""
"","image","154","190168","0.0-154.0","""event"",""trial"",""time""
""fullscreenenter"",""0"",""2652""
","
","
","""event"",""trial"",""time""
""fullscreenenter"",""0"",""2652""
","
","912.6999999880791","run_exp/static/images/Set 6_rs/007a.jpg","86","","","","","","learn","SR",""
"","show_choice","155","191257","0.0-155.0","""event"",""trial"",""time""
""fullscreenenter"",""0"",""2652""
","
","
","""event"",""trial"",""time""
""fullscreenenter"",""0"",""2652""
","
","null","run_exp/static/images/Set 6_rs/007a.jpg","null","","","","","","learn","SR",""
"","html-keyboard-response","156","191761","0.0-156.0","""event"",""trial"",""time""
""fullscreenenter"",""0"",""2652""
","
","
","""event"",""trial"",""time""
""fullscreenenter"",""0"",""2652""
","
","null","<p></p>","null","","","","","","","",""
"","image","157","192576","0.0-157.0","""event"",""trial"",""time""
""fullscreenenter"",""0"",""2652""
","
","
","""event"",""trial"",""time""
""fullscreenenter"",""0"",""2652""
","
","814.3000000119209","run_exp/static/images/Set 6_rs/024a.jpg","86","","","","","","learn","SR",""
"","show_choice","158","193763","0.0-158.0","""event"",""trial"",""time""
""fullscreenenter"",""0"",""2652""
","
","
","""event"",""trial"",""time""
""fullscreenenter"",""0"",""2652""
","
","null","run_exp/static/images/Set 6_rs/024a.jpg","null","","","","","","learn","SR",""
"","html-keyboard-response","159","194267","0.0-159.0","""event"",""trial"",""time""
""fullscreenenter"",""0"",""2652""
","
","
","""event"",""trial"",""time""
""fullscreenenter"",""0"",""2652""
","
","null","<p></p>","null","","","","","","","",""
"","image","160","195352","0.0-160.0","""event"",""trial"",""time""
""fullscreenenter"",""0"",""2652""
","
","
","""event"",""trial"",""time""
""fullscreenenter"",""0"",""2652""
","
","1084.0999999642372","run_exp/static/images/Set 6_rs/064a.jpg","78","","","","","","learn","SR",""
"","show_choice","161","196273","0.0-161.0","""event"",""trial"",""time""
""fullscreenenter"",""0"",""2652""
","
","
","""event"",""trial"",""time""
""fullscreenenter"",""0"",""2652""
","
","null","run_exp/static/images/Set 6_rs/064a.jpg","null","","","","","","learn","SR",""
"","html-keyboard-response","162","196777","0.0-162.0","""event"",""trial"",""time""
""fullscreenenter"",""0"",""2652""
","
","
","""event"",""trial"",""time""
""fullscreenenter"",""0"",""2652""
","
","null","<p></p>","null","","","","","","","",""
"","image","163","197677","0.0-163.0","""event"",""trial"",""time""
""fullscreenenter"",""0"",""2652""
","
","
","""event"",""trial"",""time""
""fullscreenenter"",""0"",""2652""
","
","899.5999999642372","run_exp/static/images/Set 6_rs/045a.jpg","86","","","","","","learn","SR",""
"","show_choice","164","198783","0.0-164.0","""event"",""trial"",""time""
""fullscreenenter"",""0"",""2652""
","
","
","""event"",""trial"",""time""
""fullscreenenter"",""0"",""2652""
","
","null","run_exp/static/images/Set 6_rs/045a.jpg","null","","","","","","learn","SR",""
"","html-keyboard-response","165","199287","0.0-165.0","""event"",""trial"",""time""
""fullscreenenter"",""0"",""2652""
","
","
","""event"",""trial"",""time""
""fullscreenenter"",""0"",""2652""
","
","null","<p></p>","null","","","","","","","",""
"","image","166","200509","0.0-166.0","""event"",""trial"",""time""
""fullscreenenter"",""0"",""2652""
","
","
","""event"",""trial"",""time""
""fullscreenenter"",""0"",""2652""
","
","1221.300000011921","run_exp/static/images/Set 6_rs/172a.jpg","78","","","","","","learn","SR",""
"","show_choice","167","201291","0.0-167.0","""event"",""trial"",""time""
""fullscreenenter"",""0"",""2652""
","
","
","""event"",""trial"",""time""
""fullscreenenter"",""0"",""2652""
","
","null","run_exp/static/images/Set 6_rs/172a.jpg","null","","","","","","learn","SR",""
"","html-keyboard-response","168","201795","0.0-168.0","""event"",""trial"",""time""
""fullscreenenter"",""0"",""2652""
","
","
","""event"",""trial"",""time""
""fullscreenenter"",""0"",""2652""
","
","null","<p></p>","null","","","","","","","",""
"","image","169","202652","0.0-169.0","""event"",""trial"",""time""
""fullscreenenter"",""0"",""2652""
","
","
","""event"",""trial"",""time""
""fullscreenenter"",""0"",""2652""
","
","856.3000000119209","run_exp/static/images/Set 6_rs/036a.jpg","86","","","","","","learn","SL",""
"","show_choice","170","203799","0.0-170.0","""event"",""trial"",""time""
""fullscreenenter"",""0"",""2652""
","
","
","""event"",""trial"",""time""
""fullscreenenter"",""0"",""2652""
","
","null","run_exp/static/images/Set 6_rs/036a.jpg","null","","","","","","learn","SL",""
"","html-keyboard-response","171","204304","0.0-171.0","""event"",""trial"",""time""
""fullscreenenter"",""0"",""2652""
","
","
","""event"",""trial"",""time""
""fullscreenenter"",""0"",""2652""
","
","null","<p></p>","null","","","","","","","",""
"","image","172","205382","0.0-172.0","""event"",""trial"",""time""
""fullscreenenter"",""0"",""2652""
","
","
","""event"",""trial"",""time""
""fullscreenenter"",""0"",""2652""
","
","1077.4000000357628","run_exp/static/images/Set 6_rs/016a.jpg","86","","","","","","learn","SL",""
"","show_choice","173","206305","0.0-173.0","""event"",""trial"",""time""
""fullscreenenter"",""0"",""2652""
","
","
","""event"",""trial"",""time""
""fullscreenenter"",""0"",""2652""
","
","null","run_exp/static/images/Set 6_rs/016a.jpg","null","","","","","","learn","SL",""
"","html-keyboard-response","174","206807","0.0-174.0","""event"",""trial"",""time""
""fullscreenenter"",""0"",""2652""
","
","
","""event"",""trial"",""time""
""fullscreenenter"",""0"",""2652""
","
","null","<p></p>","null","","","","","","","",""
"","image","175","208240","0.0-175.0","""event"",""trial"",""time""
""fullscreenenter"",""0"",""2652""
","
","
","""event"",""trial"",""time""
""fullscreenenter"",""0"",""2652""
","
","1431.199999988079","run_exp/static/images/Set 6_rs/168a.jpg","86","","","","","","learn","SL",""
"","show_choice","176","208811","0.0-176.0","""event"",""trial"",""time""
""fullscreenenter"",""0"",""2652""
","
","
","""event"",""trial"",""time""
""fullscreenenter"",""0"",""2652""
","
","null","run_exp/static/images/Set 6_rs/168a.jpg","null","","","","","","learn","SL",""
"","html-keyboard-response","177","209317","0.0-177.0","""event"",""trial"",""time""
""fullscreenenter"",""0"",""2652""
","
","
","""event"",""trial"",""time""
""fullscreenenter"",""0"",""2652""
","
","null","<p></p>","null","","","","","","","",""
"","image","178","211024","0.0-178.0","""event"",""trial"",""time""
""fullscreenenter"",""0"",""2652""
","
","
","""event"",""trial"",""time""
""fullscreenenter"",""0"",""2652""
","
","1706.2999999523163","run_exp/static/images/Set 6_rs/131a.jpg","86","","","","","","learn","SR",""
"","show_choice","179","211323","0.0-179.0","""event"",""trial"",""time""
""fullscreenenter"",""0"",""2652""
","
","
","""event"",""trial"",""time""
""fullscreenenter"",""0"",""2652""
","
","null","run_exp/static/images/Set 6_rs/131a.jpg","null","","","","","","learn","SR",""
"","html-keyboard-response","180","211828","0.0-180.0","""event"",""trial"",""time""
""fullscreenenter"",""0"",""2652""
","
","
","""event"",""trial"",""time""
""fullscreenenter"",""0"",""2652""
","
","null","<p></p>","null","","","","","","","",""
"","image","181","212519","0.0-181.0","""event"",""trial"",""time""
""fullscreenenter"",""0"",""2652""
","
","
","""event"",""trial"",""time""
""fullscreenenter"",""0"",""2652""
","
","689.8999999761581","run_exp/static/images/Set 6_rs/070a.jpg","86","","","","","","learn","SR",""
"","show_choice","182","213831","0.0-182.0","""event"",""trial"",""time""
""fullscreenenter"",""0"",""2652""
","
","
","""event"",""trial"",""time""
""fullscreenenter"",""0"",""2652""
","
","null","run_exp/static/images/Set 6_rs/070a.jpg","null","","","","","","learn","SR",""
"","html-keyboard-response","183","214337","0.0-183.0","""event"",""trial"",""time""
""fullscreenenter"",""0"",""2652""
","
","
","""event"",""trial"",""time""
""fullscreenenter"",""0"",""2652""
","
","null","<p></p>","null","","","","","","","",""
"","image","184","215204","0.0-184.0","""event"",""trial"",""time""
""fullscreenenter"",""0"",""2652""
","
","
","""event"",""trial"",""time""
""fullscreenenter"",""0"",""2652""
","
","866.6000000238419","run_exp/static/images/Set 6_rs/186a.jpg","86","","","","","","learn","SR",""
"","show_choice","185","216340","0.0-185.0","""event"",""trial"",""time""
""fullscreenenter"",""0"",""2652""
","
","
","""event"",""trial"",""time""
""fullscreenenter"",""0"",""2652""
","
","null","run_exp/static/images/Set 6_rs/186a.jpg","null","","","","","","learn","SR",""
"","html-keyboard-response","186","216844","0.0-186.0","""event"",""trial"",""time""
""fullscreenenter"",""0"",""2652""
","
","
","""event"",""trial"",""time""
""fullscreenenter"",""0"",""2652""
","
","null","<p></p>","null","","","","","","","",""
"","image","187","217724","0.0-187.0","""event"",""trial"",""time""
""fullscreenenter"",""0"",""2652""
","
","
","""event"",""trial"",""time""
""fullscreenenter"",""0"",""2652""
","
","878.6999999880791","run_exp/static/images/Set 6_rs/144a.jpg","86","","","","","","learn","SL",""
"","show_choice","188","218849","0.0-188.0","""event"",""trial"",""time""
""fullscreenenter"",""0"",""2652""
","
","
","""event"",""trial"",""time""
""fullscreenenter"",""0"",""2652""
","
","null","run_exp/static/images/Set 6_rs/144a.jpg","null","","","","","","learn","SL",""
"","html-keyboard-response","189","219351","0.0-189.0","""event"",""trial"",""time""
""fullscreenenter"",""0"",""2652""
","
","
","""event"",""trial"",""time""
""fullscreenenter"",""0"",""2652""
","
","null","<p></p>","null","","","","","","","",""
"","image","190","220494","0.0-190.0","""event"",""trial"",""time""
""fullscreenenter"",""0"",""2652""
","
","
","""event"",""trial"",""time""
""fullscreenenter"",""0"",""2652""
","
","1142.0999999642372","run_exp/static/images/Set 6_rs/074a.jpg","78","","","","","","learn","SL",""
"","show_choice","191","221357","0.0-191.0","""event"",""trial"",""time""
""fullscreenenter"",""0"",""2652""
","
","
","""event"",""trial"",""time""
""fullscreenenter"",""0"",""2652""
","
","null","run_exp/static/images/Set 6_rs/074a.jpg","null","","","","","","learn","SL",""
"","html-keyboard-response","192","221859","0.0-192.0","""event"",""trial"",""time""
""fullscreenenter"",""0"",""2652""
","
","
","""event"",""trial"",""time""
""fullscreenenter"",""0"",""2652""
","
","null","<p></p>","null","","","","","","","",""
"","image","193","222574","0.0-193.0","""event"",""trial"",""time""
""fullscreenenter"",""0"",""2652""
","
","
","""event"",""trial"",""time""
""fullscreenenter"",""0"",""2652""
","
","714.0999999642372","run_exp/static/images/Set 6_rs/012a.jpg","86","","","","","","learn","SR",""
"","show_choice","194","223864","0.0-194.0","""event"",""trial"",""time""
""fullscreenenter"",""0"",""2652""
","
","
","""event"",""trial"",""time""
""fullscreenenter"",""0"",""2652""
","
","null","run_exp/static/images/Set 6_rs/012a.jpg","null","","","","","","learn","SR",""
"","html-keyboard-response","195","224367","0.0-195.0","""event"",""trial"",""time""
""fullscreenenter"",""0"",""2652""
","
","
","""event"",""trial"",""time""
""fullscreenenter"",""0"",""2652""
","
","null","<p></p>","null","","","","","","","",""
"","test_intro","196","261357","0.0-196.0","""event"",""trial"",""time""
""fullscreenenter"",""0"",""2652""
","
","
","""event"",""trial"",""time""
""fullscreenenter"",""0"",""2652""
","
","null","run_exp/static/audio/clip_2_memory.m4a","null","","","","","<div class='center'><p>Now, lets see how much you remember about the items you just saw.  For each item, you need to indicate if it was <b>old</b> by pressing the <b>v</b> key, <b>similar</b> by pressing the <b>b</b> key, or <b>new</b> by pressing the <b>n</b> key.</p><p>Old refers to an item that you saw before in the indoor/outdoor game that you just played, new refers to an item you have <b>not</b> seen before within the indoor/outdoor game, and similar refers to an item that is similar to an item youve seen before but is not exactly the same. </p><p>Before we begin, lets go over some brief demonstrations to make sure you understand.</p></div>","","",""
"","html-keyboard-response","197","265556","0.0-197.0","""event"",""trial"",""time""
""fullscreenenter"",""0"",""2652""
","
","
","""event"",""trial"",""time""
""fullscreenenter"",""0"",""2652""
","
","4197.799999952316","<div class='center'><p>Now, lets see how much you remember about the items you just saw.  For each item, you need to indicate if it was <b>old</b> by pressing the <b>v</b> key, <b>similar</b> by pressing the <b>b</b> key, or <b>new</b> by pressing the <b>n</b> key.</p><p>Old refers to an item that you saw before in the indoor/outdoor game that you just played, new refers to an item you have <b>not</b> seen before within the indoor/outdoor game, and similar refers to an item that is similar to an item youve seen before but is not exactly the same. </p><p>Before we begin, lets go over some brief demonstrations to make sure you understand.</p><div><p><b>[Press the space bar to continue]</b></p></div>","32","","","","","","","",""
"","items","198","273057","0.0-198.0","""event"",""trial"",""time""
""fullscreenenter"",""0"",""2652""
","
","
","""event"",""trial"",""time""
""fullscreenenter"",""0"",""2652""
","
","null","run_exp/static/audio/clip_3_items.m4a","null","","","","","","","",""
"","mop","199","277559","0.0-199.0","""event"",""trial"",""time""
""fullscreenenter"",""0"",""2652""
","
","
","""event"",""trial"",""time""
""fullscreenenter"",""0"",""2652""
","
","null","run_exp/static/audio/clip_4_mop.m4a","null","","","","","","","",""
"","baseball","200","281062","0.0-200.0","""event"",""trial"",""time""
""fullscreenenter"",""0"",""2652""
","
","
","""event"",""trial"",""time""
""fullscreenenter"",""0"",""2652""
","
","null","run_exp/static/audio/clip_5_baseball.m4a","null","","","","","","","",""
"","trumpet","201","284566","0.0-201.0","""event"",""trial"",""time""
""fullscreenenter"",""0"",""2652""
","
","
","""event"",""trial"",""time""
""fullscreenenter"",""0"",""2652""
","
","null","run_exp/static/audio/clip_6_trumpet.m4a","null","","","","","","","",""
"","gummies","202","288068","0.0-202.0","""event"",""trial"",""time""
""fullscreenenter"",""0"",""2652""
","
","
","""event"",""trial"",""time""
""fullscreenenter"",""0"",""2652""
","
","null","run_exp/static/audio/clip_7_gummies.m4a","null","","","","","","","",""
"","osn","203","292569","0.0-203.0","""event"",""trial"",""time""
""fullscreenenter"",""0"",""2652""
","
","
","""event"",""trial"",""time""
""fullscreenenter"",""0"",""2652""
","
","null","run_exp/static/audio/clip_8_osn.m4a","null","","","","","","","",""
"","old_1","204","299076","0.0-204.0","""event"",""trial"",""time""
""fullscreenenter"",""0"",""2652""
","
","
","""event"",""trial"",""time""
""fullscreenenter"",""0"",""2652""
","
","null","run_exp/static/audio/clip_9_old_trumpet.m4a","null","","","","","","","",""
"","new_1","205","306577","0.0-205.0","""event"",""trial"",""time""
""fullscreenenter"",""0"",""2652""
","
","
","""event"",""trial"",""time""
""fullscreenenter"",""0"",""2652""
","
","null","run_exp/static/audio/clip_10_new_balloon.m4a","null","","","","","","","",""
"","similar_1a","206","311082","0.0-206.0","""event"",""trial"",""time""
""fullscreenenter"",""0"",""2652""
","
","
","""event"",""trial"",""time""
""fullscreenenter"",""0"",""2652""
","
","null","run_exp/static/audio/clip_11a_similar_mop.m4a","null","","","","","","","",""
"","similar_1b","207","317586","0.0-207.0","""event"",""trial"",""time""
""fullscreenenter"",""0"",""2652""
","
","
","""event"",""trial"",""time""
""fullscreenenter"",""0"",""2652""
","
","null","run_exp/static/audio/clip_11b_similar_mop.m4a","null","","","","","","","",""
"","new_2","208","321092","0.0-208.0","""event"",""trial"",""time""
""fullscreenenter"",""0"",""2652""
","
","
","""event"",""trial"",""time""
""fullscreenenter"",""0"",""2652""
","
","null","run_exp/static/audio/clip_12_new_stoplight.m4a","null","","","","","","","",""
"","old_2","209","324595","0.0-209.0","""event"",""trial"",""time""
""fullscreenenter"",""0"",""2652""
","
","
","""event"",""trial"",""time""
""fullscreenenter"",""0"",""2652""
","
","null","run_exp/static/audio/clip_13_old_baseball.m4a","null","","","","","","","",""
"","similar_2a","210","328101","0.0-210.0","""event"",""trial"",""time""
""fullscreenenter"",""0"",""2652""
","
","
","""event"",""trial"",""time""
""fullscreenenter"",""0"",""2652""
","
","null","run_exp/static/audio/clip_14a_similar_gummies.m4a","null","","","","","","","",""
"","similar_2b","211","335605","0.0-211.0","""event"",""trial"",""time""
""fullscreenenter"",""0"",""2652""
","
","
","""event"",""trial"",""time""
""fullscreenenter"",""0"",""2652""
","
","null","run_exp/static/audio/clip_14b_similar_gummies.m4a","null","","","","","","","",""
"","practice","212","377886","0.0-212.0","""event"",""trial"",""time""
""fullscreenenter"",""0"",""2652""
","
","
","""event"",""trial"",""time""
""fullscreenenter"",""0"",""2652""
","
","null","run_exp/static/audio/clip_15_practice.m4a","null","","","","","<div class='center'><p>Lets practice a little to make sure you understand the difference between new, similar, and old. Lets say you saw these three items in the indoor/outdoor game.</p><p> Try your best to remember these images because youll soon be tested on them in a practice game. In the practice game, youll be shown images and youll have to say if they are old (one of the three images belows), similar (similar to one of the images below but not exactly the same), or new (are not one of the images below nor similar to them).</p><p>Once you press the space bar youll be shown these images again but one at time. Then youll begin the practice game.</p><p><img src='run_exp/static/images/tutorial/test/three_indoor_outdoor.png' height='300'></p></div>","","",""
"","html-keyboard-response","213","382283","0.0-213.0","""event"",""trial"",""time""
""fullscreenenter"",""0"",""2652""
","
","
","""event"",""trial"",""time""
""fullscreenenter"",""0"",""2652""
","
","4396.099999964237","<div class='center'><p>Lets practice a little to make sure you understand the difference between new, similar, and old. Lets say you saw these three items in the indoor/outdoor game.</p><p> Try your best to remember these images because youll soon be tested on them in a practice game. In the practice game, youll be shown images and youll have to say if they are old (one of the three images belows), similar (similar to one of the images below but not exactly the same), or new (are not one of the images below nor similar to them).</p><p>Once you press the space bar youll be shown these images again but one at time. Then youll begin the practice game.</p><p><img src='run_exp/static/images/tutorial/test/three_indoor_outdoor.png' height='300'></p><div><p><b>[Press the space bar to continue]</b></p></div>","32","","","","","","","",""
"","planet","214","384286","0.0-214.0","""event"",""trial"",""time""
""fullscreenenter"",""0"",""2652""
","
","
","""event"",""trial"",""time""
""fullscreenenter"",""0"",""2652""
","
","null","run_exp/static/images/tutorial/test/008a.jpg","null","","","","","","","",""
"","boot","215","386288","0.0-215.0","""event"",""trial"",""time""
""fullscreenenter"",""0"",""2652""
","
","
","""event"",""trial"",""time""
""fullscreenenter"",""0"",""2652""
","
","null","run_exp/static/images/tutorial/test/011a.jpg","null","","","","","","","",""
"","lemon","216","388292","0.0-216.0","""event"",""trial"",""time""
""fullscreenenter"",""0"",""2652""
","
","
","""event"",""trial"",""time""
""fullscreenenter"",""0"",""2652""
","
","null","run_exp/static/images/tutorial/test/018a.jpg","null","","","","","","","",""
"","practice_q1","217","393606","0.0-217.0","""event"",""trial"",""time""
""fullscreenenter"",""0"",""2652""
","
","
","""event"",""trial"",""time""
""fullscreenenter"",""0"",""2652""
","
","5312.300000011921","run_exp/static/audio/clip_16_practice_question.m4a","78","","","","","","","",""
"","correct","218","395665","0.0-218.0-0.0","""event"",""trial"",""time""
""fullscreenenter"",""0"",""2652""
","
","
","""event"",""trial"",""time""
""fullscreenenter"",""0"",""2652""
","
","null","run_exp/static/audio/clip_17_correct.m4a","null","","","","","<div class='center'><p>That's correct!</p></div>","","",""
"","html-keyboard-response","219","397015","0.0-218.0-1.0","""event"",""trial"",""time""
""fullscreenenter"",""0"",""2652""
","
","
","""event"",""trial"",""time""
""fullscreenenter"",""0"",""2652""
","
","1349.699999988079","<div class='center'><p>That's correct!</p><div><p><b>[Press the space bar to continue]</b></p></div>","32","","","","","","","",""
"","practice_q2","220","398967","0.0-218.0-2.0","""event"",""trial"",""time""
""fullscreenenter"",""0"",""2652""
","
","
","""event"",""trial"",""time""
""fullscreenenter"",""0"",""2652""
","
","1950.199999988079","run_exp/static/audio/clip_16_practice_question.m4a","86","","","","","","","",""
"","correct","221","401025","0.0-219.0-0.0","""event"",""trial"",""time""
""fullscreenenter"",""0"",""2652""
","
","
","""event"",""trial"",""time""
""fullscreenenter"",""0"",""2652""
","
","null","run_exp/static/audio/clip_17_correct.m4a","null","","","","","<div class='center'><p>That's correct!</p></div>","","",""
"","html-keyboard-response","222","401673","0.0-219.0-1.0","""event"",""trial"",""time""
""fullscreenenter"",""0"",""2652""
","
","
","""event"",""trial"",""time""
""fullscreenenter"",""0"",""2652""
","
","647","<div class='center'><p>That's correct!</p><div><p><b>[Press the space bar to continue]</b></p></div>","32","","","","","","","",""
"","practice_q3","223","403614","0.0-219.0-2.0","""event"",""trial"",""time""
""fullscreenenter"",""0"",""2652""
","
","
","""event"",""trial"",""time""
""fullscreenenter"",""0"",""2652""
","
","1940","run_exp/static/audio/clip_16_practice_question.m4a","66","","","","","","","",""
"","correct","224","405805","0.0-220.0-0.0","""event"",""trial"",""time""
""fullscreenenter"",""0"",""2652""
","
","
","""event"",""trial"",""time""
""fullscreenenter"",""0"",""2652""
","
","null","run_exp/static/audio/clip_17_correct.m4a","null","","","","","<div class='center'><p>That's correct!</p></div>","","",""
"","html-keyboard-response","225","406287","0.0-220.0-1.0","""event"",""trial"",""time""
""fullscreenenter"",""0"",""2652""
","
","
","""event"",""trial"",""time""
""fullscreenenter"",""0"",""2652""
","
","480.60000002384186","<div class='center'><p>That's correct!</p><div><p><b>[Press the space bar to continue]</b></p></div>","32","","","","","","","",""
"","begin_text","226","424915","0.0-221.0-0.0","""event"",""trial"",""time""
""fullscreenenter"",""0"",""2652""
","
","
","""event"",""trial"",""time""
""fullscreenenter"",""0"",""2652""
","
","null","run_exp/static/audio/clip_22_begin_test.m4a","null","","","","","<div class='center'><p>On to the real game where well test your memory of items from the indoor/outdoor game. For each item, you need to indicate if the item is <b>old</b> by pressing the <b>v</b> key, <b>similar</b> by pressing the <b>b</b> key, or <b>new</b> by pressing the <b>n</b> key. </p></div>","","",""
"","html-keyboard-response","227","425685","0.0-221.0-1.0","""event"",""trial"",""time""
""fullscreenenter"",""0"",""2652""
","
","
","""event"",""trial"",""time""
""fullscreenenter"",""0"",""2652""
","
","769.2000000476837","<div class='center'><p>On to the real game where well test your memory of items from the indoor/outdoor game. For each item, you need to indicate if the item is <b>old</b> by pressing the <b>v</b> key, <b>similar</b> by pressing the <b>b</b> key, or <b>new</b> by pressing the <b>n</b> key. </p><div><p><b>[Press the space bar to continue]</b></p></div>","32","","","","","","","",""
"","image","228","426982","0.0-222.0-0.0","""event"",""trial"",""time""
""fullscreenenter"",""0"",""2652""
","
","
","""event"",""trial"",""time""
""fullscreenenter"",""0"",""2652""
","
","1295.5","run_exp/static/images/Set 6_rs/070a.jpg","86","","","","","","test","TR","2"
"","show_choice","229","427485","0.0-222.0-1.0","""event"",""trial"",""time""
""fullscreenenter"",""0"",""2652""
","
","
","""event"",""trial"",""time""
""fullscreenenter"",""0"",""2652""
","
","null","run_exp/static/images/Set 6_rs/070a.jpg","null","","","","","","test","TR",""
"","html-keyboard-response","230","427986","0.0-222.0-2.0","""event"",""trial"",""time""
""fullscreenenter"",""0"",""2652""
","
","
","""event"",""trial"",""time""
""fullscreenenter"",""0"",""2652""
","
","null","<p></p>","null","","","","","","","",""
"","image","231","429294","0.0-223.0-0.0","""event"",""trial"",""time""
""fullscreenenter"",""0"",""2652""
","
","
","""event"",""trial"",""time""
""fullscreenenter"",""0"",""2652""
","
","1307.199999988079","run_exp/static/images/Set 6_rs/117b.jpg","66","","","","","","test","TL","5"
"","show_choice","232","429799","0.0-223.0-1.0","""event"",""trial"",""time""
""fullscreenenter"",""0"",""2652""
","
","
","""event"",""trial"",""time""
""fullscreenenter"",""0"",""2652""
","
","null","run_exp/static/images/Set 6_rs/117b.jpg","null","","","","","","test","TL",""
"","html-keyboard-response","233","430304","0.0-223.0-2.0","""event"",""trial"",""time""
""fullscreenenter"",""0"",""2652""
","
","
","""event"",""trial"",""time""
""fullscreenenter"",""0"",""2652""
","
","null","<p></p>","null","","","","","","","",""
"","image","234","431167","0.0-224.0-0.0","""event"",""trial"",""time""
""fullscreenenter"",""0"",""2652""
","
","
","""event"",""trial"",""time""
""fullscreenenter"",""0"",""2652""
","
","861.2000000476837","run_exp/static/images/Set 6_rs/190a.jpg","78","","","","","","test","TF","3"
"","show_choice","235","431672","0.0-224.0-1.0","""event"",""trial"",""time""
""fullscreenenter"",""0"",""2652""
","
","
","""event"",""trial"",""time""
""fullscreenenter"",""0"",""2652""
","
","null","run_exp/static/images/Set 6_rs/190a.jpg","null","","","","","","test","TF",""
"","html-keyboard-response","236","432176","0.0-224.0-2.0","""event"",""trial"",""time""
""fullscreenenter"",""0"",""2652""
","
","
","""event"",""trial"",""time""
""fullscreenenter"",""0"",""2652""
","
","null","<p></p>","null","","","","","","","",""
"","image","237","433143","0.0-225.0-0.0","""event"",""trial"",""time""
""fullscreenenter"",""0"",""2652""
","
","
","""event"",""trial"",""time""
""fullscreenenter"",""0"",""2652""
","
","966","run_exp/static/images/Set 6_rs/076a.jpg","86","","","","","","test","TR","4"
"","show_choice","238","433648","0.0-225.0-1.0","""event"",""trial"",""time""
""fullscreenenter"",""0"",""2652""
","
","
","""event"",""trial"",""time""
""fullscreenenter"",""0"",""2652""
","
","null","run_exp/static/images/Set 6_rs/076a.jpg","null","","","","","","test","TR",""
"","html-keyboard-response","239","434152","0.0-225.0-2.0","""event"",""trial"",""time""
""fullscreenenter"",""0"",""2652""
","
","
","""event"",""trial"",""time""
""fullscreenenter"",""0"",""2652""
","
","null","<p></p>","null","","","","","","","",""
"","image","240","435274","0.0-226.0-0.0","""event"",""trial"",""time""
""fullscreenenter"",""0"",""2652""
","
","
","""event"",""trial"",""time""
""fullscreenenter"",""0"",""2652""
","
","1120.3999999761581","run_exp/static/images/Set 6_rs/021a.jpg","78","","","","","","test","TF","2"
"","show_choice","241","435775","0.0-226.0-1.0","""event"",""trial"",""time""
""fullscreenenter"",""0"",""2652""
","
","
","""event"",""trial"",""time""
""fullscreenenter"",""0"",""2652""
","
","null","run_exp/static/images/Set 6_rs/021a.jpg","null","","","","","","test","TF",""
"","html-keyboard-response","242","436279","0.0-226.0-2.0","""event"",""trial"",""time""
""fullscreenenter"",""0"",""2652""
","
","
","""event"",""trial"",""time""
""fullscreenenter"",""0"",""2652""
","
","null","<p></p>","null","","","","","","","",""
"","image","243","437379","0.0-227.0-0.0","""event"",""trial"",""time""
""fullscreenenter"",""0"",""2652""
","
","
","""event"",""trial"",""time""
""fullscreenenter"",""0"",""2652""
","
","1098.5","run_exp/static/images/Set 6_rs/036b.jpg","66","","","","","","test","TL","4"
"","show_choice","244","437882","0.0-227.0-1.0","""event"",""trial"",""time""
""fullscreenenter"",""0"",""2652""
","
","
","""event"",""trial"",""time""
""fullscreenenter"",""0"",""2652""
","
","null","run_exp/static/images/Set 6_rs/036b.jpg","null","","","","","","test","TL",""
"","html-keyboard-response","245","438385","0.0-227.0-2.0","""event"",""trial"",""time""
""fullscreenenter"",""0"",""2652""
","
","
","""event"",""trial"",""time""
""fullscreenenter"",""0"",""2652""
","
","null","<p></p>","null","","","","","","","",""
"","image","246","439365","0.0-228.0-0.0","""event"",""trial"",""time""
""fullscreenenter"",""0"",""2652""
","
","
","""event"",""trial"",""time""
""fullscreenenter"",""0"",""2652""
","
","978.5999999642372","run_exp/static/images/Set 6_rs/123b.jpg","86","","","","","","test","TL","2"
"","show_choice","247","439866","0.0-228.0-1.0","""event"",""trial"",""time""
""fullscreenenter"",""0"",""2652""
","
","
","""event"",""trial"",""time""
""fullscreenenter"",""0"",""2652""
","
","null","run_exp/static/images/Set 6_rs/123b.jpg","null","","","","","","test","TL",""
"","html-keyboard-response","248","440372","0.0-228.0-2.0","""event"",""trial"",""time""
""fullscreenenter"",""0"",""2652""
","
","
","""event"",""trial"",""time""
""fullscreenenter"",""0"",""2652""
","
","null","<p></p>","null","","","","","","","",""
"","image","249","441175","0.0-229.0-0.0","""event"",""trial"",""time""
""fullscreenenter"",""0"",""2652""
","
","
","""event"",""trial"",""time""
""fullscreenenter"",""0"",""2652""
","
","801.8999999761581","run_exp/static/images/Set 6_rs/015a.jpg","78","","","","","","test","TF","4"
"","show_choice","250","441676","0.0-229.0-1.0","""event"",""trial"",""time""
""fullscreenenter"",""0"",""2652""
","
","
","""event"",""trial"",""time""
""fullscreenenter"",""0"",""2652""
","
","null","run_exp/static/images/Set 6_rs/015a.jpg","null","","","","","","test","TF",""
"","html-keyboard-response","251","442182","0.0-229.0-2.0","""event"",""trial"",""time""
""fullscreenenter"",""0"",""2652""
","
","
","""event"",""trial"",""time""
""fullscreenenter"",""0"",""2652""
","
","null","<p></p>","null","","","","","","","",""
"","image","252","443033","0.0-230.0-0.0","""event"",""trial"",""time""
""fullscreenenter"",""0"",""2652""
","
","
","""event"",""trial"",""time""
""fullscreenenter"",""0"",""2652""
","
","849.8999999761581","run_exp/static/images/Set 6_rs/063a.jpg","86","","","","","","test","TR","2"
"","show_choice","253","443537","0.0-230.0-1.0","""event"",""trial"",""time""
""fullscreenenter"",""0"",""2652""
","
","
","""event"",""trial"",""time""
""fullscreenenter"",""0"",""2652""
","
","null","run_exp/static/images/Set 6_rs/063a.jpg","null","","","","","","test","TR",""
"","html-keyboard-response","254","444038","0.0-230.0-2.0","""event"",""trial"",""time""
""fullscreenenter"",""0"",""2652""
","
","
","""event"",""trial"",""time""
""fullscreenenter"",""0"",""2652""
","
","null","<p></p>","null","","","","","","","",""
"","image","255","444877","0.0-231.0-0.0","""event"",""trial"",""time""
""fullscreenenter"",""0"",""2652""
","
","
","""event"",""trial"",""time""
""fullscreenenter"",""0"",""2652""
","
","837.1000000238419","run_exp/static/images/Set 6_rs/133a.jpg","78","","","","","","test","TF","4"
"","show_choice","256","445382","0.0-231.0-1.0","""event"",""trial"",""time""
""fullscreenenter"",""0"",""2652""
","
","
","""event"",""trial"",""time""
""fullscreenenter"",""0"",""2652""
","
","null","run_exp/static/images/Set 6_rs/133a.jpg","null","","","","","","test","TF",""
"","html-keyboard-response","257","445888","0.0-231.0-2.0","""event"",""trial"",""time""
""fullscreenenter"",""0"",""2652""
","
","
","""event"",""trial"",""time""
""fullscreenenter"",""0"",""2652""
","
","null","<p></p>","null","","","","","","","",""
"","image","258","446991","0.0-232.0-0.0","""event"",""trial"",""time""
""fullscreenenter"",""0"",""2652""
","
","
","""event"",""trial"",""time""
""fullscreenenter"",""0"",""2652""
","
","1102.2999999523163","run_exp/static/images/Set 6_rs/075a.jpg","86","","","","","","test","TR","1"
"","show_choice","259","447494","0.0-232.0-1.0","""event"",""trial"",""time""
""fullscreenenter"",""0"",""2652""
","
","
","""event"",""trial"",""time""
""fullscreenenter"",""0"",""2652""
","
","null","run_exp/static/images/Set 6_rs/075a.jpg","null","","","","","","test","TR",""
"","html-keyboard-response","260","447998","0.0-232.0-2.0","""event"",""trial"",""time""
""fullscreenenter"",""0"",""2652""
","
","
","""event"",""trial"",""time""
""fullscreenenter"",""0"",""2652""
","
","null","<p></p>","null","","","","","","","",""
"","image","261","449235","0.0-233.0-0.0","""event"",""trial"",""time""
""fullscreenenter"",""0"",""2652""
","
","
","""event"",""trial"",""time""
""fullscreenenter"",""0"",""2652""
","
","1235","run_exp/static/images/Set 6_rs/050b.jpg","66","","","","","","test","TL","3"
"","show_choice","262","449738","0.0-233.0-1.0","""event"",""trial"",""time""
""fullscreenenter"",""0"",""2652""
","
","
","""event"",""trial"",""time""
""fullscreenenter"",""0"",""2652""
","
","null","run_exp/static/images/Set 6_rs/050b.jpg","null","","","","","","test","TL",""
"","html-keyboard-response","263","450240","0.0-233.0-2.0","""event"",""trial"",""time""
""fullscreenenter"",""0"",""2652""
","
","
","""event"",""trial"",""time""
""fullscreenenter"",""0"",""2652""
","
","null","<p></p>","null","","","","","","","",""
"","image","264","451044","0.0-234.0-0.0","""event"",""trial"",""time""
""fullscreenenter"",""0"",""2652""
","
","
","""event"",""trial"",""time""
""fullscreenenter"",""0"",""2652""
","
","802.8999999761581","run_exp/static/images/Set 6_rs/056a.jpg","78","","","","","","test","TF","3"
"","show_choice","265","451548","0.0-234.0-1.0","""event"",""trial"",""time""
""fullscreenenter"",""0"",""2652""
","
","
","""event"",""trial"",""time""
""fullscreenenter"",""0"",""2652""
","
","null","run_exp/static/images/Set 6_rs/056a.jpg","null","","","","","","test","TF",""
"","html-keyboard-response","266","452049","0.0-234.0-2.0","""event"",""trial"",""time""
""fullscreenenter"",""0"",""2652""
","
","
","""event"",""trial"",""time""
""fullscreenenter"",""0"",""2652""
","
","null","<p></p>","null","","","","","","","",""
"","image","267","452981","0.0-235.0-0.0","""event"",""trial"",""time""
""fullscreenenter"",""0"",""2652""
","
","
","""event"",""trial"",""time""
""fullscreenenter"",""0"",""2652""
","
","931.1999999880791","run_exp/static/images/Set 6_rs/005a.jpg","78","","","","","","test","TF","5"
"","show_choice","268","453484","0.0-235.0-1.0","""event"",""trial"",""time""
""fullscreenenter"",""0"",""2652""
","
","
","""event"",""trial"",""time""
""fullscreenenter"",""0"",""2652""
","
","null","run_exp/static/images/Set 6_rs/005a.jpg","null","","","","","","test","TF",""
"","html-keyboard-response","269","453988","0.0-235.0-2.0","""event"",""trial"",""time""
""fullscreenenter"",""0"",""2652""
","
","
","""event"",""trial"",""time""
""fullscreenenter"",""0"",""2652""
","
","null","<p></p>","null","","","","","","","",""
"","image","270","455132","0.0-236.0-0.0","""event"",""trial"",""time""
""fullscreenenter"",""0"",""2652""
","
","
","""event"",""trial"",""time""
""fullscreenenter"",""0"",""2652""
","
","1142.800000011921","run_exp/static/images/Set 6_rs/045a.jpg","86","","","","","","test","TR","2"
"","show_choice","271","455636","0.0-236.0-1.0","""event"",""trial"",""time""
""fullscreenenter"",""0"",""2652""
","
","
","""event"",""trial"",""time""
""fullscreenenter"",""0"",""2652""
","
","null","run_exp/static/images/Set 6_rs/045a.jpg","null","","","","","","test","TR",""
"","html-keyboard-response","272","456138","0.0-236.0-2.0","""event"",""trial"",""time""
""fullscreenenter"",""0"",""2652""
","
","
","""event"",""trial"",""time""
""fullscreenenter"",""0"",""2652""
","
","null","<p></p>","null","","","","","","","",""
"","image","273","457773","0.0-237.0-0.0","""event"",""trial"",""time""
""fullscreenenter"",""0"",""2652""
","
","
","""event"",""trial"",""time""
""fullscreenenter"",""0"",""2652""
","
","1633.5","run_exp/static/images/Set 6_rs/140a.jpg","66","","","","","","test","TF","1"
"","show_choice","274","458277","0.0-237.0-1.0","""event"",""trial"",""time""
""fullscreenenter"",""0"",""2652""
","
","
","""event"",""trial"",""time""
""fullscreenenter"",""0"",""2652""
","
","null","run_exp/static/images/Set 6_rs/140a.jpg","null","","","","","","test","TF",""
"","html-keyboard-response","275","458778","0.0-237.0-2.0","""event"",""trial"",""time""
""fullscreenenter"",""0"",""2652""
","
","
","""event"",""trial"",""time""
""fullscreenenter"",""0"",""2652""
","
","null","<p></p>","null","","","","","","","",""
"","image","276","460311","0.0-238.0-0.0","""event"",""trial"",""time""
""fullscreenenter"",""0"",""2652""
","
","
","""event"",""trial"",""time""
""fullscreenenter"",""0"",""2652""
","
","1531.8999999761581","run_exp/static/images/Set 6_rs/178a.jpg","86","","","","","","test","TR","3"
"","show_choice","277","460814","0.0-238.0-1.0","""event"",""trial"",""time""
""fullscreenenter"",""0"",""2652""
","
","
","""event"",""trial"",""time""
""fullscreenenter"",""0"",""2652""
","
","null","run_exp/static/images/Set 6_rs/178a.jpg","null","","","","","","test","TR",""
"","html-keyboard-response","278","461317","0.0-238.0-2.0","""event"",""trial"",""time""
""fullscreenenter"",""0"",""2652""
","
","
","""event"",""trial"",""time""
""fullscreenenter"",""0"",""2652""
","
","null","<p></p>","null","","","","","","","",""
"","image","279","462543","0.0-239.0-0.0","""event"",""trial"",""time""
""fullscreenenter"",""0"",""2652""
","
","
","""event"",""trial"",""time""
""fullscreenenter"",""0"",""2652""
","
","1224.699999988079","run_exp/static/images/Set 6_rs/154a.jpg","86","","","","","","test","TR","3"
"","show_choice","280","463048","0.0-239.0-1.0","""event"",""trial"",""time""
""fullscreenenter"",""0"",""2652""
","
","
","""event"",""trial"",""time""
""fullscreenenter"",""0"",""2652""
","
","null","run_exp/static/images/Set 6_rs/154a.jpg","null","","","","","","test","TR",""
"","html-keyboard-response","281","463550","0.0-239.0-2.0","""event"",""trial"",""time""
""fullscreenenter"",""0"",""2652""
","
","
","""event"",""trial"",""time""
""fullscreenenter"",""0"",""2652""
","
","null","<p></p>","null","","","","","","","",""
"","image","282","465524","0.0-240.0-0.0","""event"",""trial"",""time""
""fullscreenenter"",""0"",""2652""
","
","
","""event"",""trial"",""time""
""fullscreenenter"",""0"",""2652""
","
","1972.199999988079","run_exp/static/images/Set 6_rs/138b.jpg","86","","","","","","test","TL","1"
"","show_choice","283","466025","0.0-240.0-1.0","""event"",""trial"",""time""
""fullscreenenter"",""0"",""2652""
","
","
","""event"",""trial"",""time""
""fullscreenenter"",""0"",""2652""
","
","null","run_exp/static/images/Set 6_rs/138b.jpg","null","","","","","","test","TL",""
"","html-keyboard-response","284","466528","0.0-240.0-2.0","""event"",""trial"",""time""
""fullscreenenter"",""0"",""2652""
","
","
","""event"",""trial"",""time""
""fullscreenenter"",""0"",""2652""
","
","null","<p></p>","null","","","","","","","",""
"","image","285","468152","0.0-241.0-0.0","""event"",""trial"",""time""
""fullscreenenter"",""0"",""2652""
","
","
","""event"",""trial"",""time""
""fullscreenenter"",""0"",""2652""
","
","1623.199999988079","run_exp/static/images/Set 6_rs/100a.jpg","78","","","","","","test","TF","2"
"","show_choice","286","468654","0.0-241.0-1.0","""event"",""trial"",""time""
""fullscreenenter"",""0"",""2652""
","
","
","""event"",""trial"",""time""
""fullscreenenter"",""0"",""2652""
","
","null","run_exp/static/images/Set 6_rs/100a.jpg","null","","","","","","test","TF",""
"","html-keyboard-response","287","469159","0.0-241.0-2.0","""event"",""trial"",""time""
""fullscreenenter"",""0"",""2652""
","
","
","""event"",""trial"",""time""
""fullscreenenter"",""0"",""2652""
","
","null","<p></p>","null","","","","","","","",""
"","image","288","470464","0.0-242.0-0.0","""event"",""trial"",""time""
""fullscreenenter"",""0"",""2652""
","
","
","""event"",""trial"",""time""
""fullscreenenter"",""0"",""2652""
","
","1302","run_exp/static/images/Set 6_rs/155a.jpg","78","","","","","","test","TF","4"
"","show_choice","289","470965","0.0-242.0-1.0","""event"",""trial"",""time""
""fullscreenenter"",""0"",""2652""
","
","
","""event"",""trial"",""time""
""fullscreenenter"",""0"",""2652""
","
","null","run_exp/static/images/Set 6_rs/155a.jpg","null","","","","","","test","TF",""
"","html-keyboard-response","290","471468","0.0-242.0-2.0","""event"",""trial"",""time""
""fullscreenenter"",""0"",""2652""
","
","
","""event"",""trial"",""time""
""fullscreenenter"",""0"",""2652""
","
","null","<p></p>","null","","","","","","","",""
"","image","291","472352","0.0-243.0-0.0","""event"",""trial"",""time""
""fullscreenenter"",""0"",""2652""
","
","
","""event"",""trial"",""time""
""fullscreenenter"",""0"",""2652""
","
","881.9000000357628","run_exp/static/images/Set 6_rs/023a.jpg","86","","","","","","test","TR","3"
"","show_choice","292","472855","0.0-243.0-1.0","""event"",""trial"",""time""
""fullscreenenter"",""0"",""2652""
","
","
","""event"",""trial"",""time""
""fullscreenenter"",""0"",""2652""
","
","null","run_exp/static/images/Set 6_rs/023a.jpg","null","","","","","","test","TR",""
"","html-keyboard-response","293","473357","0.0-243.0-2.0","""event"",""trial"",""time""
""fullscreenenter"",""0"",""2652""
","
","
","""event"",""trial"",""time""
""fullscreenenter"",""0"",""2652""
","
","null","<p></p>","null","","","","","","","",""
"","image","294","474658","0.0-244.0-0.0","""event"",""trial"",""time""
""fullscreenenter"",""0"",""2652""
","
","
","""event"",""trial"",""time""
""fullscreenenter"",""0"",""2652""
","
","1300.3999999761581","run_exp/static/images/Set 6_rs/014b.jpg","66","","","","","","test","TL","5"
"","show_choice","295","475159","0.0-244.0-1.0","""event"",""trial"",""time""
""fullscreenenter"",""0"",""2652""
","
","
","""event"",""trial"",""time""
""fullscreenenter"",""0"",""2652""
","
","null","run_exp/static/images/Set 6_rs/014b.jpg","null","","","","","","test","TL",""
"","html-keyboard-response","296","475664","0.0-244.0-2.0","""event"",""trial"",""time""
""fullscreenenter"",""0"",""2652""
","
","
","""event"",""trial"",""time""
""fullscreenenter"",""0"",""2652""
","
","null","<p></p>","null","","","","","","","",""
"","image","297","477192","0.0-245.0-0.0","""event"",""trial"",""time""
""fullscreenenter"",""0"",""2652""
","
","
","""event"",""trial"",""time""
""fullscreenenter"",""0"",""2652""
","
","1526.5","run_exp/static/images/Set 6_rs/086a.jpg","78","","","","","","test","TF","1"
"","show_choice","298","477693","0.0-245.0-1.0","""event"",""trial"",""time""
""fullscreenenter"",""0"",""2652""
","
","
","""event"",""trial"",""time""
""fullscreenenter"",""0"",""2652""
","
","null","run_exp/static/images/Set 6_rs/086a.jpg","null","","","","","","test","TF",""
"","html-keyboard-response","299","478194","0.0-245.0-2.0","""event"",""trial"",""time""
""fullscreenenter"",""0"",""2652""
","
","
","""event"",""trial"",""time""
""fullscreenenter"",""0"",""2652""
","
","null","<p></p>","null","","","","","","","",""
"","image","300","479461","0.0-246.0-0.0","""event"",""trial"",""time""
""fullscreenenter"",""0"",""2652""
","
","
","""event"",""trial"",""time""
""fullscreenenter"",""0"",""2652""
","
","1265.7999999523163","run_exp/static/images/Set 6_rs/171a.jpg","78","","","","","","test","TF","1"
"","show_choice","301","479964","0.0-246.0-1.0","""event"",""trial"",""time""
""fullscreenenter"",""0"",""2652""
","
","
","""event"",""trial"",""time""
""fullscreenenter"",""0"",""2652""
","
","null","run_exp/static/images/Set 6_rs/171a.jpg","null","","","","","","test","TF",""
"","html-keyboard-response","302","480469","0.0-246.0-2.0","""event"",""trial"",""time""
""fullscreenenter"",""0"",""2652""
","
","
","""event"",""trial"",""time""
""fullscreenenter"",""0"",""2652""
","
","null","<p></p>","null","","","","","","","",""
"","image","303","481524","0.0-247.0-0.0","""event"",""trial"",""time""
""fullscreenenter"",""0"",""2652""
","
","
","""event"",""trial"",""time""
""fullscreenenter"",""0"",""2652""
","
","1053.6000000238419","run_exp/static/images/Set 6_rs/090a.jpg","78","","","","","","test","TF","5"
"","show_choice","304","482027","0.0-247.0-1.0","""event"",""trial"",""time""
""fullscreenenter"",""0"",""2652""
","
","
","""event"",""trial"",""time""
""fullscreenenter"",""0"",""2652""
","
","null","run_exp/static/images/Set 6_rs/090a.jpg","null","","","","","","test","TF",""
"","html-keyboard-response","305","482530","0.0-247.0-2.0","""event"",""trial"",""time""
""fullscreenenter"",""0"",""2652""
","
","
","""event"",""trial"",""time""
""fullscreenenter"",""0"",""2652""
","
","null","<p></p>","null","","","","","","","",""
"","image","306","483793","0.0-248.0-0.0","""event"",""trial"",""time""
""fullscreenenter"",""0"",""2652""
","
","
","""event"",""trial"",""time""
""fullscreenenter"",""0"",""2652""
","
","1261.4000000357628","run_exp/static/images/Set 6_rs/170a.jpg","78","","","","","","test","TF","2"
"","show_choice","307","484297","0.0-248.0-1.0","""event"",""trial"",""time""
""fullscreenenter"",""0"",""2652""
","
","
","""event"",""trial"",""time""
""fullscreenenter"",""0"",""2652""
","
","null","run_exp/static/images/Set 6_rs/170a.jpg","null","","","","","","test","TF",""
"","html-keyboard-response","308","484799","0.0-248.0-2.0","""event"",""trial"",""time""
""fullscreenenter"",""0"",""2652""
","
","
","""event"",""trial"",""time""
""fullscreenenter"",""0"",""2652""
","
","null","<p></p>","null","","","","","","","",""
"","image","309","486034","0.0-249.0-0.0","""event"",""trial"",""time""
""fullscreenenter"",""0"",""2652""
","
","
","""event"",""trial"",""time""
""fullscreenenter"",""0"",""2652""
","
","1234.7000000476837","run_exp/static/images/Set 6_rs/144b.jpg","66","","","","","","test","TL","4"
"","show_choice","310","486537","0.0-249.0-1.0","""event"",""trial"",""time""
""fullscreenenter"",""0"",""2652""
","
","
","""event"",""trial"",""time""
""fullscreenenter"",""0"",""2652""
","
","null","run_exp/static/images/Set 6_rs/144b.jpg","null","","","","","","test","TL",""
"","html-keyboard-response","311","487040","0.0-249.0-2.0","""event"",""trial"",""time""
""fullscreenenter"",""0"",""2652""
","
","
","""event"",""trial"",""time""
""fullscreenenter"",""0"",""2652""
","
","null","<p></p>","null","","","","","","","",""
"","image","312","487994","0.0-250.0-0.0","""event"",""trial"",""time""
""fullscreenenter"",""0"",""2652""
","
","
","""event"",""trial"",""time""
""fullscreenenter"",""0"",""2652""
","
","952.3000000119209","run_exp/static/images/Set 6_rs/064a.jpg","86","","","","","","test","TR","5"
"","show_choice","313","488497","0.0-250.0-1.0","""event"",""trial"",""time""
""fullscreenenter"",""0"",""2652""
","
","
","""event"",""trial"",""time""
""fullscreenenter"",""0"",""2652""
","
","null","run_exp/static/images/Set 6_rs/064a.jpg","null","","","","","","test","TR",""
"","html-keyboard-response","314","489003","0.0-250.0-2.0","""event"",""trial"",""time""
""fullscreenenter"",""0"",""2652""
","
","
","""event"",""trial"",""time""
""fullscreenenter"",""0"",""2652""
","
","null","<p></p>","null","","","","","","","",""
"","image","315","490162","0.0-251.0-0.0","""event"",""trial"",""time""
""fullscreenenter"",""0"",""2652""
","
","
","""event"",""trial"",""time""
""fullscreenenter"",""0"",""2652""
","
","1158.800000011921","run_exp/static/images/Set 6_rs/079b.jpg","78","","","","","","test","TL","5"
"","show_choice","316","490667","0.0-251.0-1.0","""event"",""trial"",""time""
""fullscreenenter"",""0"",""2652""
","
","
","""event"",""trial"",""time""
""fullscreenenter"",""0"",""2652""
","
","null","run_exp/static/images/Set 6_rs/079b.jpg","null","","","","","","test","TL",""
"","html-keyboard-response","317","491173","0.0-251.0-2.0","""event"",""trial"",""time""
""fullscreenenter"",""0"",""2652""
","
","
","""event"",""trial"",""time""
""fullscreenenter"",""0"",""2652""
","
","null","<p></p>","null","","","","","","","",""
"","image","318","492026","0.0-252.0-0.0","""event"",""trial"",""time""
""fullscreenenter"",""0"",""2652""
","
","
","""event"",""trial"",""time""
""fullscreenenter"",""0"",""2652""
","
","851.8999999761581","run_exp/static/images/Set 6_rs/010a.jpg","86","","","","","","test","TR","5"
"","show_choice","319","492529","0.0-252.0-1.0","""event"",""trial"",""time""
""fullscreenenter"",""0"",""2652""
","
","
","""event"",""trial"",""time""
""fullscreenenter"",""0"",""2652""
","
","null","run_exp/static/images/Set 6_rs/010a.jpg","null","","","","","","test","TR",""
"","html-keyboard-response","320","493035","0.0-252.0-2.0","""event"",""trial"",""time""
""fullscreenenter"",""0"",""2652""
","
","
","""event"",""trial"",""time""
""fullscreenenter"",""0"",""2652""
","
","null","<p></p>","null","","","","","","","",""
"","image","321","494261","0.0-253.0-0.0","""event"",""trial"",""time""
""fullscreenenter"",""0"",""2652""
","
","
","""event"",""trial"",""time""
""fullscreenenter"",""0"",""2652""
","
","1226","run_exp/static/images/Set 6_rs/091b.jpg","86","","","","","","test","TL","3"
"","show_choice","322","494763","0.0-253.0-1.0","""event"",""trial"",""time""
""fullscreenenter"",""0"",""2652""
","
","
","""event"",""trial"",""time""
""fullscreenenter"",""0"",""2652""
","
","null","run_exp/static/images/Set 6_rs/091b.jpg","null","","","","","","test","TL",""
"","html-keyboard-response","323","495266","0.0-253.0-2.0","""event"",""trial"",""time""
""fullscreenenter"",""0"",""2652""
","
","
","""event"",""trial"",""time""
""fullscreenenter"",""0"",""2652""
","
","null","<p></p>","null","","","","","","","",""
"","image","324","497130","0.0-254.0-0.0","""event"",""trial"",""time""
""fullscreenenter"",""0"",""2652""
","
","
","""event"",""trial"",""time""
""fullscreenenter"",""0"",""2652""
","
","1863","run_exp/static/images/Set 6_rs/011a.jpg","66","","","","","","test","TF","3"
"","show_choice","325","497633","0.0-254.0-1.0","""event"",""trial"",""time""
""fullscreenenter"",""0"",""2652""
","
","
","""event"",""trial"",""time""
""fullscreenenter"",""0"",""2652""
","
","null","run_exp/static/images/Set 6_rs/011a.jpg","null","","","","","","test","TF",""
"","html-keyboard-response","326","498137","0.0-254.0-2.0","""event"",""trial"",""time""
""fullscreenenter"",""0"",""2652""
","
","
","""event"",""trial"",""time""
""fullscreenenter"",""0"",""2652""
","
","null","<p></p>","null","","","","","","","",""
"","image","327","499193","0.0-255.0-0.0","""event"",""trial"",""time""
""fullscreenenter"",""0"",""2652""
","
","
","""event"",""trial"",""time""
""fullscreenenter"",""0"",""2652""
","
","1055.0999999642372","run_exp/static/images/Set 6_rs/131a.jpg","86","","","","","","test","TR","5"
"","show_choice","328","499696","0.0-255.0-1.0","""event"",""trial"",""time""
""fullscreenenter"",""0"",""2652""
","
","
","""event"",""trial"",""time""
""fullscreenenter"",""0"",""2652""
","
","null","run_exp/static/images/Set 6_rs/131a.jpg","null","","","","","","test","TR",""
"","html-keyboard-response","329","500199","0.0-255.0-2.0","""event"",""trial"",""time""
""fullscreenenter"",""0"",""2652""
","
","
","""event"",""trial"",""time""
""fullscreenenter"",""0"",""2652""
","
","null","<p></p>","null","","","","","","","",""
"","image","330","501258","0.0-256.0-0.0","""event"",""trial"",""time""
""fullscreenenter"",""0"",""2652""
","
","
","""event"",""trial"",""time""
""fullscreenenter"",""0"",""2652""
","
","1058.199999988079","run_exp/static/images/Set 6_rs/168b.jpg","86","","","","","","test","TL","3"
"","show_choice","331","501762","0.0-256.0-1.0","""event"",""trial"",""time""
""fullscreenenter"",""0"",""2652""
","
","
","""event"",""trial"",""time""
""fullscreenenter"",""0"",""2652""
","
","null","run_exp/static/images/Set 6_rs/168b.jpg","null","","","","","","test","TL",""
"","html-keyboard-response","332","502266","0.0-256.0-2.0","""event"",""trial"",""time""
""fullscreenenter"",""0"",""2652""
","
","
","""event"",""trial"",""time""
""fullscreenenter"",""0"",""2652""
","
","null","<p></p>","null","","","","","","","",""
"","image","333","503581","0.0-257.0-0.0","""event"",""trial"",""time""
""fullscreenenter"",""0"",""2652""
","
","
","""event"",""trial"",""time""
""fullscreenenter"",""0"",""2652""
","
","1313.2000000476837","run_exp/static/images/Set 6_rs/191b.jpg","66","","","","","","test","TL","2"
"","show_choice","334","504082","0.0-257.0-1.0","""event"",""trial"",""time""
""fullscreenenter"",""0"",""2652""
","
","
","""event"",""trial"",""time""
""fullscreenenter"",""0"",""2652""
","
","null","run_exp/static/images/Set 6_rs/191b.jpg","null","","","","","","test","TL",""
"","html-keyboard-response","335","504586","0.0-257.0-2.0","""event"",""trial"",""time""
""fullscreenenter"",""0"",""2652""
","
","
","""event"",""trial"",""time""
""fullscreenenter"",""0"",""2652""
","
","null","<p></p>","null","","","","","","","",""
"","image","336","505695","0.0-258.0-0.0","""event"",""trial"",""time""
""fullscreenenter"",""0"",""2652""
","
","
","""event"",""trial"",""time""
""fullscreenenter"",""0"",""2652""
","
","1107.6000000238419","run_exp/static/images/Set 6_rs/089b.jpg","66","","","","","","test","TL","4"
"","show_choice","337","506197","0.0-258.0-1.0","""event"",""trial"",""time""
""fullscreenenter"",""0"",""2652""
","
","
","""event"",""trial"",""time""
""fullscreenenter"",""0"",""2652""
","
","null","run_exp/static/images/Set 6_rs/089b.jpg","null","","","","","","test","TL",""
"","html-keyboard-response","338","506702","0.0-258.0-2.0","""event"",""trial"",""time""
""fullscreenenter"",""0"",""2652""
","
","
","""event"",""trial"",""time""
""fullscreenenter"",""0"",""2652""
","
","null","<p></p>","null","","","","","","","",""
"","image","339","508308","0.0-259.0-0.0","""event"",""trial"",""time""
""fullscreenenter"",""0"",""2652""
","
","
","""event"",""trial"",""time""
""fullscreenenter"",""0"",""2652""
","
","1605.300000011921","run_exp/static/images/Set 6_rs/022a.jpg","78","","","","","","test","TF","4"
"","show_choice","340","508812","0.0-259.0-1.0","""event"",""trial"",""time""
""fullscreenenter"",""0"",""2652""
","
","
","""event"",""trial"",""time""
""fullscreenenter"",""0"",""2652""
","
","null","run_exp/static/images/Set 6_rs/022a.jpg","null","","","","","","test","TF",""
"","html-keyboard-response","341","509314","0.0-259.0-2.0","""event"",""trial"",""time""
""fullscreenenter"",""0"",""2652""
","
","
