"success","trial_type","trial_index","time_elapsed","internal_node_id","interactions","blur_events","focus_events","fullscreenenter_events","fullscreenexit_events","rt","stimulus","key_press","subject_id","participant_id","age","gender","prompt","phase","condition","lure_bin"
"true","fullscreen","0","6794","0.0-0.0","""event"",""trial"",""time""
""fullscreenenter"",""0"",""5844""
","
","
","""event"",""trial"",""time""
""fullscreenenter"",""0"",""5844""
","
","","","","","","","","","","",""
"","pavlovia","1","6800","0.0-1.0","""event"",""trial"",""time""
""fullscreenenter"",""0"",""5844""
""fullscreenexit"",""2"",""8471""
""blur"",""2"",""9842""
""focus"",""2"",""15301""
","""event"",""trial"",""time""
""blur"",""2"",""9842""
","""event"",""trial"",""time""
""focus"",""2"",""15301""
","""event"",""trial"",""time""
""fullscreenenter"",""0"",""5844""
","""event"",""trial"",""time""
""fullscreenexit"",""2"",""8471""
","","","","","","","","","","",""
"","welcome","2","41794","0.0-2.0","""event"",""trial"",""time""
""fullscreenenter"",""0"",""5844""
""fullscreenexit"",""2"",""8471""
""blur"",""2"",""9842""
""focus"",""2"",""15301""
""blur"",""3"",""42290""
""focus"",""3"",""47189""
","""event"",""trial"",""time""
""blur"",""2"",""9842""
""blur"",""3"",""42290""
","""event"",""trial"",""time""
""focus"",""2"",""15301""
""focus"",""3"",""47189""
","""event"",""trial"",""time""
""fullscreenenter"",""0"",""5844""
","""event"",""trial"",""time""
""fullscreenexit"",""2"",""8471""
","null","run_exp/static/audio/clip_1_welcome.m4a","null","492","506","24","Female","<div class='center'><p>Welcome to the third part of the study! First, you'll be shown pictures of items one at a time. For each picture, you have to decide if the item is typically found indoors or outdoors.</p><p>If you think it's usually found indoors, then press <b>v</b> key on your keyboard. If you think it's usually found outdoors, then press the <b>n</b> key.There will be reminders on the screen to help you remember which keys to press. </p><p>If you're not sure whether the item is an indoor item or an outdoor item, go ahead and take a guess but try your best not to skip that choice. </p></div>","","",""
"","html-keyboard-response","3","48517","0.0-3.0","""event"",""trial"",""time""
""fullscreenenter"",""0"",""5844""
""fullscreenexit"",""2"",""8471""
""blur"",""2"",""9842""
""focus"",""2"",""15301""
""blur"",""3"",""42290""
""focus"",""3"",""47189""
","""event"",""trial"",""time""
""blur"",""2"",""9842""
""blur"",""3"",""42290""
","""event"",""trial"",""time""
""focus"",""2"",""15301""
""focus"",""3"",""47189""
","""event"",""trial"",""time""
""fullscreenenter"",""0"",""5844""
","""event"",""trial"",""time""
""fullscreenexit"",""2"",""8471""
","6720.70000000298","<div class='center'><p>Welcome to the third part of the study! First, you'll be shown pictures of items one at a time. For each picture, you have to decide if the item is typically found indoors or outdoors.</p><p>If you think it's usually found indoors, then press <b>v</b> key on your keyboard. If you think it's usually found outdoors, then press the <b>n</b> key.There will be reminders on the screen to help you remember which keys to press. </p><p>If you're not sure whether the item is an indoor item or an outdoor item, go ahead and take a guess but try your best not to skip that choice. </p><div><p><b>[Press the space bar to continue]</b></p></div>","32","","","","","","","",""
"","image","4","50523","0.0-4.0","""event"",""trial"",""time""
""fullscreenenter"",""0"",""5844""
""fullscreenexit"",""2"",""8471""
""blur"",""2"",""9842""
""focus"",""2"",""15301""
""blur"",""3"",""42290""
""focus"",""3"",""47189""
","""event"",""trial"",""time""
""blur"",""2"",""9842""
""blur"",""3"",""42290""
","""event"",""trial"",""time""
""focus"",""2"",""15301""
""focus"",""3"",""47189""
","""event"",""trial"",""time""
""fullscreenenter"",""0"",""5844""
","""event"",""trial"",""time""
""fullscreenexit"",""2"",""8471""
","null","run_exp/static/images/Set 6_rs/091a.jpg","null","","","","","","learn","SL",""
"","show_choice","5","52525","0.0-5.0","""event"",""trial"",""time""
""fullscreenenter"",""0"",""5844""
""fullscreenexit"",""2"",""8471""
""blur"",""2"",""9842""
""focus"",""2"",""15301""
""blur"",""3"",""42290""
""focus"",""3"",""47189""
","""event"",""trial"",""time""
""blur"",""2"",""9842""
""blur"",""3"",""42290""
","""event"",""trial"",""time""
""focus"",""2"",""15301""
""focus"",""3"",""47189""
","""event"",""trial"",""time""
""fullscreenenter"",""0"",""5844""
","""event"",""trial"",""time""
""fullscreenexit"",""2"",""8471""
","null","run_exp/static/images/blank.png","null","","","","","","learn","SL",""
"","html-keyboard-response","6","53027","0.0-6.0","""event"",""trial"",""time""
""fullscreenenter"",""0"",""5844""
""fullscreenexit"",""2"",""8471""
""blur"",""2"",""9842""
""focus"",""2"",""15301""
""blur"",""3"",""42290""
""focus"",""3"",""47189""
","""event"",""trial"",""time""
""blur"",""2"",""9842""
""blur"",""3"",""42290""
","""event"",""trial"",""time""
""focus"",""2"",""15301""
""focus"",""3"",""47189""
","""event"",""trial"",""time""
""fullscreenenter"",""0"",""5844""
","""event"",""trial"",""time""
""fullscreenexit"",""2"",""8471""
","null","<p></p>","null","","","","","","","",""
"","image","7","54100","0.0-7.0","""event"",""trial"",""time""
""fullscreenenter"",""0"",""5844""
""fullscreenexit"",""2"",""8471""
""blur"",""2"",""9842""
""focus"",""2"",""15301""
""blur"",""3"",""42290""
""focus"",""3"",""47189""
","""event"",""trial"",""time""
""blur"",""2"",""9842""
""blur"",""3"",""42290""
","""event"",""trial"",""time""
""focus"",""2"",""15301""
""focus"",""3"",""47189""
","""event"",""trial"",""time""
""fullscreenenter"",""0"",""5844""
","""event"",""trial"",""time""
""fullscreenexit"",""2"",""8471""
","1071.1000000014901","run_exp/static/images/Set 6_rs/191a.jpg","78","","","","","","learn","SL",""
"","show_choice","8","55032","0.0-8.0","""event"",""trial"",""time""
""fullscreenenter"",""0"",""5844""
""fullscreenexit"",""2"",""8471""
""blur"",""2"",""9842""
""focus"",""2"",""15301""
""blur"",""3"",""42290""
""focus"",""3"",""47189""
","""event"",""trial"",""time""
""blur"",""2"",""9842""
""blur"",""3"",""42290""
","""event"",""trial"",""time""
""focus"",""2"",""15301""
""focus"",""3"",""47189""
","""event"",""trial"",""time""
""fullscreenenter"",""0"",""5844""
","""event"",""trial"",""time""
""fullscreenexit"",""2"",""8471""
","null","run_exp/static/images/Set 6_rs/191a.jpg","null","","","","","","learn","SL",""
"","html-keyboard-response","9","55536","0.0-9.0","""event"",""trial"",""time""
""fullscreenenter"",""0"",""5844""
""fullscreenexit"",""2"",""8471""
""blur"",""2"",""9842""
""focus"",""2"",""15301""
""blur"",""3"",""42290""
""focus"",""3"",""47189""
","""event"",""trial"",""time""
""blur"",""2"",""9842""
""blur"",""3"",""42290""
","""event"",""trial"",""time""
""focus"",""2"",""15301""
""focus"",""3"",""47189""
","""event"",""trial"",""time""
""fullscreenenter"",""0"",""5844""
","""event"",""trial"",""time""
""fullscreenexit"",""2"",""8471""
","null","<p></p>","null","","","","","","","",""
"","image","10","56752","0.0-10.0","""event"",""trial"",""time""
""fullscreenenter"",""0"",""5844""
""fullscreenexit"",""2"",""8471""
""blur"",""2"",""9842""
""focus"",""2"",""15301""
""blur"",""3"",""42290""
""focus"",""3"",""47189""
","""event"",""trial"",""time""
""blur"",""2"",""9842""
""blur"",""3"",""42290""
","""event"",""trial"",""time""
""focus"",""2"",""15301""
""focus"",""3"",""47189""
","""event"",""trial"",""time""
""fullscreenenter"",""0"",""5844""
","""event"",""trial"",""time""
""fullscreenexit"",""2"",""8471""
","1213.800000000745","run_exp/static/images/Set 6_rs/108a.jpg","86","","","","","","learn","SR",""
"","show_choice","11","57539","0.0-11.0","""event"",""trial"",""time""
""fullscreenenter"",""0"",""5844""
""fullscreenexit"",""2"",""8471""
""blur"",""2"",""9842""
""focus"",""2"",""15301""
""blur"",""3"",""42290""
""focus"",""3"",""47189""
","""event"",""trial"",""time""
""blur"",""2"",""9842""
""blur"",""3"",""42290""
","""event"",""trial"",""time""
""focus"",""2"",""15301""
""focus"",""3"",""47189""
","""event"",""trial"",""time""
""fullscreenenter"",""0"",""5844""
","""event"",""trial"",""time""
""fullscreenexit"",""2"",""8471""
","null","run_exp/static/images/Set 6_rs/108a.jpg","null","","","","","","learn","SR",""
"","html-keyboard-response","12","58041","0.0-12.0","""event"",""trial"",""time""
""fullscreenenter"",""0"",""5844""
""fullscreenexit"",""2"",""8471""
""blur"",""2"",""9842""
""focus"",""2"",""15301""
""blur"",""3"",""42290""
""focus"",""3"",""47189""
","""event"",""trial"",""time""
""blur"",""2"",""9842""
""blur"",""3"",""42290""
","""event"",""trial"",""time""
""focus"",""2"",""15301""
""focus"",""3"",""47189""
","""event"",""trial"",""time""
""fullscreenenter"",""0"",""5844""
","""event"",""trial"",""time""
""fullscreenexit"",""2"",""8471""
","null","<p></p>","null","","","","","","","",""
"","image","13","58848","0.0-13.0","""event"",""trial"",""time""
""fullscreenenter"",""0"",""5844""
""fullscreenexit"",""2"",""8471""
""blur"",""2"",""9842""
""focus"",""2"",""15301""
""blur"",""3"",""42290""
""focus"",""3"",""47189""
","""event"",""trial"",""time""
""blur"",""2"",""9842""
""blur"",""3"",""42290""
","""event"",""trial"",""time""
""focus"",""2"",""15301""
""focus"",""3"",""47189""
","""event"",""trial"",""time""
""fullscreenenter"",""0"",""5844""
","""event"",""trial"",""time""
""fullscreenexit"",""2"",""8471""
","805.8000000007451","run_exp/static/images/Set 6_rs/187a.jpg","78","","","","","","learn","SR",""
"","show_choice","14","60043","0.0-14.0","""event"",""trial"",""time""
""fullscreenenter"",""0"",""5844""
""fullscreenexit"",""2"",""8471""
""blur"",""2"",""9842""
""focus"",""2"",""15301""
""blur"",""3"",""42290""
""focus"",""3"",""47189""
","""event"",""trial"",""time""
""blur"",""2"",""9842""
""blur"",""3"",""42290""
","""event"",""trial"",""time""
""focus"",""2"",""15301""
""focus"",""3"",""47189""
","""event"",""trial"",""time""
""fullscreenenter"",""0"",""5844""
","""event"",""trial"",""time""
""fullscreenexit"",""2"",""8471""
","null","run_exp/static/images/Set 6_rs/187a.jpg","null","","","","","","learn","SR",""
"","html-keyboard-response","15","60549","0.0-15.0","""event"",""trial"",""time""
""fullscreenenter"",""0"",""5844""
""fullscreenexit"",""2"",""8471""
""blur"",""2"",""9842""
""focus"",""2"",""15301""
""blur"",""3"",""42290""
""focus"",""3"",""47189""
","""event"",""trial"",""time""
""blur"",""2"",""9842""
""blur"",""3"",""42290""
","""event"",""trial"",""time""
""focus"",""2"",""15301""
""focus"",""3"",""47189""
","""event"",""trial"",""time""
""fullscreenenter"",""0"",""5844""
","""event"",""trial"",""time""
""fullscreenexit"",""2"",""8471""
","null","<p></p>","null","","","","","","","",""
"","image","16","61486","0.0-16.0","""event"",""trial"",""time""
""fullscreenenter"",""0"",""5844""
""fullscreenexit"",""2"",""8471""
""blur"",""2"",""9842""
""focus"",""2"",""15301""
""blur"",""3"",""42290""
""focus"",""3"",""47189""
","""event"",""trial"",""time""
""blur"",""2"",""9842""
""blur"",""3"",""42290""
","""event"",""trial"",""time""
""focus"",""2"",""15301""
""focus"",""3"",""47189""
","""event"",""trial"",""time""
""fullscreenenter"",""0"",""5844""
","""event"",""trial"",""time""
""fullscreenexit"",""2"",""8471""
","935.6999999992549","run_exp/static/images/Set 6_rs/144a.jpg","86","","","","","","learn","SL",""
"","show_choice","17","62552","0.0-17.0","""event"",""trial"",""time""
""fullscreenenter"",""0"",""5844""
""fullscreenexit"",""2"",""8471""
""blur"",""2"",""9842""
""focus"",""2"",""15301""
""blur"",""3"",""42290""
""focus"",""3"",""47189""
","""event"",""trial"",""time""
""blur"",""2"",""9842""
""blur"",""3"",""42290""
","""event"",""trial"",""time""
""focus"",""2"",""15301""
""focus"",""3"",""47189""
","""event"",""trial"",""time""
""fullscreenenter"",""0"",""5844""
","""event"",""trial"",""time""
""fullscreenexit"",""2"",""8471""
","null","run_exp/static/images/Set 6_rs/144a.jpg","null","","","","","","learn","SL",""
"","html-keyboard-response","18","63057","0.0-18.0","""event"",""trial"",""time""
""fullscreenenter"",""0"",""5844""
""fullscreenexit"",""2"",""8471""
""blur"",""2"",""9842""
""focus"",""2"",""15301""
""blur"",""3"",""42290""
""focus"",""3"",""47189""
","""event"",""trial"",""time""
""blur"",""2"",""9842""
""blur"",""3"",""42290""
","""event"",""trial"",""time""
""focus"",""2"",""15301""
""focus"",""3"",""47189""
","""event"",""trial"",""time""
""fullscreenenter"",""0"",""5844""
","""event"",""trial"",""time""
""fullscreenexit"",""2"",""8471""
","null","<p></p>","null","","","","","","","",""
"","image","19","63809","0.0-19.0","""event"",""trial"",""time""
""fullscreenenter"",""0"",""5844""
""fullscreenexit"",""2"",""8471""
""blur"",""2"",""9842""
""focus"",""2"",""15301""
""blur"",""3"",""42290""
""focus"",""3"",""47189""
","""event"",""trial"",""time""
""blur"",""2"",""9842""
""blur"",""3"",""42290""
","""event"",""trial"",""time""
""focus"",""2"",""15301""
""focus"",""3"",""47189""
","""event"",""trial"",""time""
""fullscreenenter"",""0"",""5844""
","""event"",""trial"",""time""
""fullscreenexit"",""2"",""8471""
","751","run_exp/static/images/Set 6_rs/152a.jpg","86","","","","","","learn","SR",""
"","show_choice","20","65063","0.0-20.0","""event"",""trial"",""time""
""fullscreenenter"",""0"",""5844""
""fullscreenexit"",""2"",""8471""
""blur"",""2"",""9842""
""focus"",""2"",""15301""
""blur"",""3"",""42290""
""focus"",""3"",""47189""
","""event"",""trial"",""time""
""blur"",""2"",""9842""
""blur"",""3"",""42290""
","""event"",""trial"",""time""
""focus"",""2"",""15301""
""focus"",""3"",""47189""
","""event"",""trial"",""time""
""fullscreenenter"",""0"",""5844""
","""event"",""trial"",""time""
""fullscreenexit"",""2"",""8471""
","null","run_exp/static/images/Set 6_rs/152a.jpg","null","","","","","","learn","SR",""
"","html-keyboard-response","21","65566","0.0-21.0","""event"",""trial"",""time""
""fullscreenenter"",""0"",""5844""
""fullscreenexit"",""2"",""8471""
""blur"",""2"",""9842""
""focus"",""2"",""15301""
""blur"",""3"",""42290""
""focus"",""3"",""47189""
","""event"",""trial"",""time""
""blur"",""2"",""9842""
""blur"",""3"",""42290""
","""event"",""trial"",""time""
""focus"",""2"",""15301""
""focus"",""3"",""47189""
","""event"",""trial"",""time""
""fullscreenenter"",""0"",""5844""
","""event"",""trial"",""time""
""fullscreenexit"",""2"",""8471""
","null","<p></p>","null","","","","","","","",""
"","image","22","66470","0.0-22.0","""event"",""trial"",""time""
""fullscreenenter"",""0"",""5844""
""fullscreenexit"",""2"",""8471""
""blur"",""2"",""9842""
""focus"",""2"",""15301""
""blur"",""3"",""42290""
""focus"",""3"",""47189""
","""event"",""trial"",""time""
""blur"",""2"",""9842""
""blur"",""3"",""42290""
","""event"",""trial"",""time""
""focus"",""2"",""15301""
""focus"",""3"",""47189""
","""event"",""trial"",""time""
""fullscreenenter"",""0"",""5844""
","""event"",""trial"",""time""
""fullscreenexit"",""2"",""8471""
","902.8000000007451","run_exp/static/images/Set 6_rs/178a.jpg","78","","","","","","learn","SR",""
"","show_choice","23","67572","0.0-23.0","""event"",""trial"",""time""
""fullscreenenter"",""0"",""5844""
""fullscreenexit"",""2"",""8471""
""blur"",""2"",""9842""
""focus"",""2"",""15301""
""blur"",""3"",""42290""
""focus"",""3"",""47189""
","""event"",""trial"",""time""
""blur"",""2"",""9842""
""blur"",""3"",""42290""
","""event"",""trial"",""time""
""focus"",""2"",""15301""
""focus"",""3"",""47189""
","""event"",""trial"",""time""
""fullscreenenter"",""0"",""5844""
","""event"",""trial"",""time""
""fullscreenexit"",""2"",""8471""
","null","run_exp/static/images/Set 6_rs/178a.jpg","null","","","","","","learn","SR",""
"","html-keyboard-response","24","68073","0.0-24.0","""event"",""trial"",""time""
""fullscreenenter"",""0"",""5844""
""fullscreenexit"",""2"",""8471""
""blur"",""2"",""9842""
""focus"",""2"",""15301""
""blur"",""3"",""42290""
""focus"",""3"",""47189""
","""event"",""trial"",""time""
""blur"",""2"",""9842""
""blur"",""3"",""42290""
","""event"",""trial"",""time""
""focus"",""2"",""15301""
""focus"",""3"",""47189""
","""event"",""trial"",""time""
""fullscreenenter"",""0"",""5844""
","""event"",""trial"",""time""
""fullscreenexit"",""2"",""8471""
","null","<p></p>","null","","","","","","","",""
"","image","25","68978","0.0-25.0","""event"",""trial"",""time""
""fullscreenenter"",""0"",""5844""
""fullscreenexit"",""2"",""8471""
""blur"",""2"",""9842""
""focus"",""2"",""15301""
""blur"",""3"",""42290""
""focus"",""3"",""47189""
","""event"",""trial"",""time""
""blur"",""2"",""9842""
""blur"",""3"",""42290""
","""event"",""trial"",""time""
""focus"",""2"",""15301""
""focus"",""3"",""47189""
","""event"",""trial"",""time""
""fullscreenenter"",""0"",""5844""
","""event"",""trial"",""time""
""fullscreenexit"",""2"",""8471""
","903","run_exp/static/images/Set 6_rs/073a.jpg","86","","","","","","learn","SL",""
"","show_choice","26","70078","0.0-26.0","""event"",""trial"",""time""
""fullscreenenter"",""0"",""5844""
""fullscreenexit"",""2"",""8471""
""blur"",""2"",""9842""
""focus"",""2"",""15301""
""blur"",""3"",""42290""
""focus"",""3"",""47189""
","""event"",""trial"",""time""
""blur"",""2"",""9842""
""blur"",""3"",""42290""
","""event"",""trial"",""time""
""focus"",""2"",""15301""
""focus"",""3"",""47189""
","""event"",""trial"",""time""
""fullscreenenter"",""0"",""5844""
","""event"",""trial"",""time""
""fullscreenexit"",""2"",""8471""
","null","run_exp/static/images/Set 6_rs/073a.jpg","null","","","","","","learn","SL",""
"","html-keyboard-response","27","70582","0.0-27.0","""event"",""trial"",""time""
""fullscreenenter"",""0"",""5844""
""fullscreenexit"",""2"",""8471""
""blur"",""2"",""9842""
""focus"",""2"",""15301""
""blur"",""3"",""42290""
""focus"",""3"",""47189""
","""event"",""trial"",""time""
""blur"",""2"",""9842""
""blur"",""3"",""42290""
","""event"",""trial"",""time""
""focus"",""2"",""15301""
""focus"",""3"",""47189""
","""event"",""trial"",""time""
""fullscreenenter"",""0"",""5844""
","""event"",""trial"",""time""
""fullscreenexit"",""2"",""8471""
","null","<p></p>","null","","","","","","","",""
"","image","28","71531","0.0-28.0","""event"",""trial"",""time""
""fullscreenenter"",""0"",""5844""
""fullscreenexit"",""2"",""8471""
""blur"",""2"",""9842""
""focus"",""2"",""15301""
""blur"",""3"",""42290""
""focus"",""3"",""47189""
","""event"",""trial"",""time""
""blur"",""2"",""9842""
""blur"",""3"",""42290""
","""event"",""trial"",""time""
""focus"",""2"",""15301""
""focus"",""3"",""47189""
","""event"",""trial"",""time""
""fullscreenenter"",""0"",""5844""
","""event"",""trial"",""time""
""fullscreenexit"",""2"",""8471""
","947.2999999970198","run_exp/static/images/Set 6_rs/088a.jpg","86","","","","","","learn","SR",""
"","show_choice","29","72588","0.0-29.0","""event"",""trial"",""time""
""fullscreenenter"",""0"",""5844""
""fullscreenexit"",""2"",""8471""
""blur"",""2"",""9842""
""focus"",""2"",""15301""
""blur"",""3"",""42290""
""focus"",""3"",""47189""
","""event"",""trial"",""time""
""blur"",""2"",""9842""
""blur"",""3"",""42290""
","""event"",""trial"",""time""
""focus"",""2"",""15301""
""focus"",""3"",""47189""
","""event"",""trial"",""time""
""fullscreenenter"",""0"",""5844""
","""event"",""trial"",""time""
""fullscreenexit"",""2"",""8471""
","null","run_exp/static/images/Set 6_rs/088a.jpg","null","","","","","","learn","SR",""
"","html-keyboard-response","30","73090","0.0-30.0","""event"",""trial"",""time""
""fullscreenenter"",""0"",""5844""
""fullscreenexit"",""2"",""8471""
""blur"",""2"",""9842""
""focus"",""2"",""15301""
""blur"",""3"",""42290""
""focus"",""3"",""47189""
","""event"",""trial"",""time""
""blur"",""2"",""9842""
""blur"",""3"",""42290""
","""event"",""trial"",""time""
""focus"",""2"",""15301""
""focus"",""3"",""47189""
","""event"",""trial"",""time""
""fullscreenenter"",""0"",""5844""
","""event"",""trial"",""time""
""fullscreenexit"",""2"",""8471""
","null","<p></p>","null","","","","","","","",""
"","image","31","74183","0.0-31.0","""event"",""trial"",""time""
""fullscreenenter"",""0"",""5844""
""fullscreenexit"",""2"",""8471""
""blur"",""2"",""9842""
""focus"",""2"",""15301""
""blur"",""3"",""42290""
""focus"",""3"",""47189""
","""event"",""trial"",""time""
""blur"",""2"",""9842""
""blur"",""3"",""42290""
","""event"",""trial"",""time""
""focus"",""2"",""15301""
""focus"",""3"",""47189""
","""event"",""trial"",""time""
""fullscreenenter"",""0"",""5844""
","""event"",""trial"",""time""
""fullscreenexit"",""2"",""8471""
","1090.300000000745","run_exp/static/images/Set 6_rs/061a.jpg","78","","","","","","learn","SR",""
"","show_choice","32","75095","0.0-32.0","""event"",""trial"",""time""
""fullscreenenter"",""0"",""5844""
""fullscreenexit"",""2"",""8471""
""blur"",""2"",""9842""
""focus"",""2"",""15301""
""blur"",""3"",""42290""
""focus"",""3"",""47189""
","""event"",""trial"",""time""
""blur"",""2"",""9842""
""blur"",""3"",""42290""
","""event"",""trial"",""time""
""focus"",""2"",""15301""
""focus"",""3"",""47189""
","""event"",""trial"",""time""
""fullscreenenter"",""0"",""5844""
","""event"",""trial"",""time""
""fullscreenexit"",""2"",""8471""
","null","run_exp/static/images/Set 6_rs/061a.jpg","null","","","","","","learn","SR",""
"","html-keyboard-response","33","75601","0.0-33.0","""event"",""trial"",""time""
""fullscreenenter"",""0"",""5844""
""fullscreenexit"",""2"",""8471""
""blur"",""2"",""9842""
""focus"",""2"",""15301""
""blur"",""3"",""42290""
""focus"",""3"",""47189""
","""event"",""trial"",""time""
""blur"",""2"",""9842""
""blur"",""3"",""42290""
","""event"",""trial"",""time""
""focus"",""2"",""15301""
""focus"",""3"",""47189""
","""event"",""trial"",""time""
""fullscreenenter"",""0"",""5844""
","""event"",""trial"",""time""
""fullscreenexit"",""2"",""8471""
","null","<p></p>","null","","","","","","","",""
"","image","34","76711","0.0-34.0","""event"",""trial"",""time""
""fullscreenenter"",""0"",""5844""
""fullscreenexit"",""2"",""8471""
""blur"",""2"",""9842""
""focus"",""2"",""15301""
""blur"",""3"",""42290""
""focus"",""3"",""47189""
","""event"",""trial"",""time""
""blur"",""2"",""9842""
""blur"",""3"",""42290""
","""event"",""trial"",""time""
""focus"",""2"",""15301""
""focus"",""3"",""47189""
","""event"",""trial"",""time""
""fullscreenenter"",""0"",""5844""
","""event"",""trial"",""time""
""fullscreenexit"",""2"",""8471""
","1108.5","run_exp/static/images/Set 6_rs/006a.jpg","78","","","","","","learn","SL",""
"","show_choice","35","77605","0.0-35.0","""event"",""trial"",""time""
""fullscreenenter"",""0"",""5844""
""fullscreenexit"",""2"",""8471""
""blur"",""2"",""9842""
""focus"",""2"",""15301""
""blur"",""3"",""42290""
""focus"",""3"",""47189""
","""event"",""trial"",""time""
""blur"",""2"",""9842""
""blur"",""3"",""42290""
","""event"",""trial"",""time""
""focus"",""2"",""15301""
""focus"",""3"",""47189""
","""event"",""trial"",""time""
""fullscreenenter"",""0"",""5844""
","""event"",""trial"",""time""
""fullscreenexit"",""2"",""8471""
","null","run_exp/static/images/Set 6_rs/006a.jpg","null","","","","","","learn","SL",""
"","html-keyboard-response","36","78111","0.0-36.0","""event"",""trial"",""time""
""fullscreenenter"",""0"",""5844""
""fullscreenexit"",""2"",""8471""
""blur"",""2"",""9842""
""focus"",""2"",""15301""
""blur"",""3"",""42290""
""focus"",""3"",""47189""
","""event"",""trial"",""time""
""blur"",""2"",""9842""
""blur"",""3"",""42290""
","""event"",""trial"",""time""
""focus"",""2"",""15301""
""focus"",""3"",""47189""
","""event"",""trial"",""time""
""fullscreenenter"",""0"",""5844""
","""event"",""trial"",""time""
""fullscreenexit"",""2"",""8471""
","null","<p></p>","null","","","","","","","",""
"","image","37","78976","0.0-37.0","""event"",""trial"",""time""
""fullscreenenter"",""0"",""5844""
""fullscreenexit"",""2"",""8471""
""blur"",""2"",""9842""
""focus"",""2"",""15301""
""blur"",""3"",""42290""
""focus"",""3"",""47189""
","""event"",""trial"",""time""
""blur"",""2"",""9842""
""blur"",""3"",""42290""
","""event"",""trial"",""time""
""focus"",""2"",""15301""
""focus"",""3"",""47189""
","""event"",""trial"",""time""
""fullscreenenter"",""0"",""5844""
","""event"",""trial"",""time""
""fullscreenexit"",""2"",""8471""
","862.9000000022352","run_exp/static/images/Set 6_rs/134a.jpg","86","","","","","","learn","SR",""
"","show_choice","38","80115","0.0-38.0","""event"",""trial"",""time""
""fullscreenenter"",""0"",""5844""
""fullscreenexit"",""2"",""8471""
""blur"",""2"",""9842""
""focus"",""2"",""15301""
""blur"",""3"",""42290""
""focus"",""3"",""47189""
","""event"",""trial"",""time""
""blur"",""2"",""9842""
""blur"",""3"",""42290""
","""event"",""trial"",""time""
""focus"",""2"",""15301""
""focus"",""3"",""47189""
","""event"",""trial"",""time""
""fullscreenenter"",""0"",""5844""
","""event"",""trial"",""time""
""fullscreenexit"",""2"",""8471""
","null","run_exp/static/images/Set 6_rs/134a.jpg","null","","","","","","learn","SR",""
"","html-keyboard-response","39","80619","0.0-39.0","""event"",""trial"",""time""
""fullscreenenter"",""0"",""5844""
""fullscreenexit"",""2"",""8471""
""blur"",""2"",""9842""
""focus"",""2"",""15301""
""blur"",""3"",""42290""
""focus"",""3"",""47189""
","""event"",""trial"",""time""
""blur"",""2"",""9842""
""blur"",""3"",""42290""
","""event"",""trial"",""time""
""focus"",""2"",""15301""
""focus"",""3"",""47189""
","""event"",""trial"",""time""
""fullscreenenter"",""0"",""5844""
","""event"",""trial"",""time""
""fullscreenexit"",""2"",""8471""
","null","<p></p>","null","","","","","","","",""
"","image","40","82224","0.0-40.0","""event"",""trial"",""time""
""fullscreenenter"",""0"",""5844""
""fullscreenexit"",""2"",""8471""
""blur"",""2"",""9842""
""focus"",""2"",""15301""
""blur"",""3"",""42290""
""focus"",""3"",""47189""
","""event"",""trial"",""time""
""blur"",""2"",""9842""
""blur"",""3"",""42290""
","""event"",""trial"",""time""
""focus"",""2"",""15301""
""focus"",""3"",""47189""
","""event"",""trial"",""time""
""fullscreenenter"",""0"",""5844""
","""event"",""trial"",""time""
""fullscreenexit"",""2"",""8471""
","1604.199999999255","run_exp/static/images/Set 6_rs/123a.jpg","78","","","","","","learn","SL",""
"","show_choice","41","82621","0.0-41.0","""event"",""trial"",""time""
""fullscreenenter"",""0"",""5844""
""fullscreenexit"",""2"",""8471""
""blur"",""2"",""9842""
""focus"",""2"",""15301""
""blur"",""3"",""42290""
""focus"",""3"",""47189""
","""event"",""trial"",""time""
""blur"",""2"",""9842""
""blur"",""3"",""42290""
","""event"",""trial"",""time""
""focus"",""2"",""15301""
""focus"",""3"",""47189""
","""event"",""trial"",""time""
""fullscreenenter"",""0"",""5844""
","""event"",""trial"",""time""
""fullscreenexit"",""2"",""8471""
","null","run_exp/static/images/Set 6_rs/123a.jpg","null","","","","","","learn","SL",""
"","html-keyboard-response","42","83124","0.0-42.0","""event"",""trial"",""time""
""fullscreenenter"",""0"",""5844""
""fullscreenexit"",""2"",""8471""
""blur"",""2"",""9842""
""focus"",""2"",""15301""
""blur"",""3"",""42290""
""focus"",""3"",""47189""
","""event"",""trial"",""time""
""blur"",""2"",""9842""
""blur"",""3"",""42290""
","""event"",""trial"",""time""
""focus"",""2"",""15301""
""focus"",""3"",""47189""
","""event"",""trial"",""time""
""fullscreenenter"",""0"",""5844""
","""event"",""trial"",""time""
""fullscreenexit"",""2"",""8471""
","null","<p></p>","null","","","","","","","",""
"","image","43","84462","0.0-43.0","""event"",""trial"",""time""
""fullscreenenter"",""0"",""5844""
""fullscreenexit"",""2"",""8471""
""blur"",""2"",""9842""
""focus"",""2"",""15301""
""blur"",""3"",""42290""
""focus"",""3"",""47189""
","""event"",""trial"",""time""
""blur"",""2"",""9842""
""blur"",""3"",""42290""
","""event"",""trial"",""time""
""focus"",""2"",""15301""
""focus"",""3"",""47189""
","""event"",""trial"",""time""
""fullscreenenter"",""0"",""5844""
","""event"",""trial"",""time""
""fullscreenexit"",""2"",""8471""
","1336.800000000745","run_exp/static/images/Set 6_rs/129a.jpg","86","","","","","","learn","SL",""
"","show_choice","44","85129","0.0-44.0","""event"",""trial"",""time""
""fullscreenenter"",""0"",""5844""
""fullscreenexit"",""2"",""8471""
""blur"",""2"",""9842""
""focus"",""2"",""15301""
""blur"",""3"",""42290""
""focus"",""3"",""47189""
","""event"",""trial"",""time""
""blur"",""2"",""9842""
""blur"",""3"",""42290""
","""event"",""trial"",""time""
""focus"",""2"",""15301""
""focus"",""3"",""47189""
","""event"",""trial"",""time""
""fullscreenenter"",""0"",""5844""
","""event"",""trial"",""time""
""fullscreenexit"",""2"",""8471""
","null","run_exp/static/images/Set 6_rs/129a.jpg","null","","","","","","learn","SL",""
"","html-keyboard-response","45","85635","0.0-45.0","""event"",""trial"",""time""
""fullscreenenter"",""0"",""5844""
""fullscreenexit"",""2"",""8471""
""blur"",""2"",""9842""
""focus"",""2"",""15301""
""blur"",""3"",""42290""
""focus"",""3"",""47189""
","""event"",""trial"",""time""
""blur"",""2"",""9842""
""blur"",""3"",""42290""
","""event"",""trial"",""time""
""focus"",""2"",""15301""
""focus"",""3"",""47189""
","""event"",""trial"",""time""
""fullscreenenter"",""0"",""5844""
","""event"",""trial"",""time""
""fullscreenexit"",""2"",""8471""
","null","<p></p>","null","","","","","","","",""
"","image","46","86462","0.0-46.0","""event"",""trial"",""time""
""fullscreenenter"",""0"",""5844""
""fullscreenexit"",""2"",""8471""
""blur"",""2"",""9842""
""focus"",""2"",""15301""
""blur"",""3"",""42290""
""focus"",""3"",""47189""
","""event"",""trial"",""time""
""blur"",""2"",""9842""
""blur"",""3"",""42290""
","""event"",""trial"",""time""
""focus"",""2"",""15301""
""focus"",""3"",""47189""
","""event"",""trial"",""time""
""fullscreenenter"",""0"",""5844""
","""event"",""trial"",""time""
""fullscreenexit"",""2"",""8471""
","825.6000000014901","run_exp/static/images/Set 6_rs/166a.jpg","86","","","","","","learn","SR",""
"","show_choice","47","87639","0.0-47.0","""event"",""trial"",""time""
""fullscreenenter"",""0"",""5844""
""fullscreenexit"",""2"",""8471""
""blur"",""2"",""9842""
""focus"",""2"",""15301""
""blur"",""3"",""42290""
""focus"",""3"",""47189""
","""event"",""trial"",""time""
""blur"",""2"",""9842""
""blur"",""3"",""42290""
","""event"",""trial"",""time""
""focus"",""2"",""15301""
""focus"",""3"",""47189""
","""event"",""trial"",""time""
""fullscreenenter"",""0"",""5844""
","""event"",""trial"",""time""
""fullscreenexit"",""2"",""8471""
","null","run_exp/static/images/Set 6_rs/166a.jpg","null","","","","","","learn","SR",""
"","html-keyboard-response","48","88142","0.0-48.0","""event"",""trial"",""time""
""fullscreenenter"",""0"",""5844""
""fullscreenexit"",""2"",""8471""
""blur"",""2"",""9842""
""focus"",""2"",""15301""
""blur"",""3"",""42290""
""focus"",""3"",""47189""
","""event"",""trial"",""time""
""blur"",""2"",""9842""
""blur"",""3"",""42290""
","""event"",""trial"",""time""
""focus"",""2"",""15301""
""focus"",""3"",""47189""
","""event"",""trial"",""time""
""fullscreenenter"",""0"",""5844""
","""event"",""trial"",""time""
""fullscreenexit"",""2"",""8471""
","null","<p></p>","null","","","","","","","",""
"","image","49","88808","0.0-49.0","""event"",""trial"",""time""
""fullscreenenter"",""0"",""5844""
""fullscreenexit"",""2"",""8471""
""blur"",""2"",""9842""
""focus"",""2"",""15301""
""blur"",""3"",""42290""
""focus"",""3"",""47189""
","""event"",""trial"",""time""
""blur"",""2"",""9842""
""blur"",""3"",""42290""
","""event"",""trial"",""time""
""focus"",""2"",""15301""
""focus"",""3"",""47189""
","""event"",""trial"",""time""
""fullscreenenter"",""0"",""5844""
","""event"",""trial"",""time""
""fullscreenexit"",""2"",""8471""
","665.3000000007451","run_exp/static/images/Set 6_rs/089a.jpg","86","","","","","","learn","SL",""
"","show_choice","50","90149","0.0-50.0","""event"",""trial"",""time""
""fullscreenenter"",""0"",""5844""
""fullscreenexit"",""2"",""8471""
""blur"",""2"",""9842""
""focus"",""2"",""15301""
""blur"",""3"",""42290""
""focus"",""3"",""47189""
","""event"",""trial"",""time""
""blur"",""2"",""9842""
""blur"",""3"",""42290""
","""event"",""trial"",""time""
""focus"",""2"",""15301""
""focus"",""3"",""47189""
","""event"",""trial"",""time""
""fullscreenenter"",""0"",""5844""
","""event"",""trial"",""time""
""fullscreenexit"",""2"",""8471""
","null","run_exp/static/images/Set 6_rs/089a.jpg","null","","","","","","learn","SL",""
"","html-keyboard-response","51","90653","0.0-51.0","""event"",""trial"",""time""
""fullscreenenter"",""0"",""5844""
""fullscreenexit"",""2"",""8471""
""blur"",""2"",""9842""
""focus"",""2"",""15301""
""blur"",""3"",""42290""
""focus"",""3"",""47189""
","""event"",""trial"",""time""
""blur"",""2"",""9842""
""blur"",""3"",""42290""
","""event"",""trial"",""time""
""focus"",""2"",""15301""
""focus"",""3"",""47189""
","""event"",""trial"",""time""
""fullscreenenter"",""0"",""5844""
","""event"",""trial"",""time""
""fullscreenexit"",""2"",""8471""
","null","<p></p>","null","","","","","","","",""
"","image","52","91351","0.0-52.0","""event"",""trial"",""time""
""fullscreenenter"",""0"",""5844""
""fullscreenexit"",""2"",""8471""
""blur"",""2"",""9842""
""focus"",""2"",""15301""
""blur"",""3"",""42290""
""focus"",""3"",""47189""
","""event"",""trial"",""time""
""blur"",""2"",""9842""
""blur"",""3"",""42290""
","""event"",""trial"",""time""
""focus"",""2"",""15301""
""focus"",""3"",""47189""
","""event"",""trial"",""time""
""fullscreenenter"",""0"",""5844""
","""event"",""trial"",""time""
""fullscreenexit"",""2"",""8471""
","696.5","run_exp/static/images/Set 6_rs/017a.jpg","86","","","","","","learn","SL",""
"","show_choice","53","92655","0.0-53.0","""event"",""trial"",""time""
""fullscreenenter"",""0"",""5844""
""fullscreenexit"",""2"",""8471""
""blur"",""2"",""9842""
""focus"",""2"",""15301""
""blur"",""3"",""42290""
""focus"",""3"",""47189""
","""event"",""trial"",""time""
""blur"",""2"",""9842""
""blur"",""3"",""42290""
","""event"",""trial"",""time""
""focus"",""2"",""15301""
""focus"",""3"",""47189""
","""event"",""trial"",""time""
""fullscreenenter"",""0"",""5844""
","""event"",""trial"",""time""
""fullscreenexit"",""2"",""8471""
","null","run_exp/static/images/Set 6_rs/017a.jpg","null","","","","","","learn","SL",""
"","html-keyboard-response","54","93160","0.0-54.0","""event"",""trial"",""time""
""fullscreenenter"",""0"",""5844""
""fullscreenexit"",""2"",""8471""
""blur"",""2"",""9842""
""focus"",""2"",""15301""
""blur"",""3"",""42290""
""focus"",""3"",""47189""
","""event"",""trial"",""time""
""blur"",""2"",""9842""
""blur"",""3"",""42290""
","""event"",""trial"",""time""
""focus"",""2"",""15301""
""focus"",""3"",""47189""
","""event"",""trial"",""time""
""fullscreenenter"",""0"",""5844""
","""event"",""trial"",""time""
""fullscreenexit"",""2"",""8471""
","null","<p></p>","null","","","","","","","",""
"","image","55","93941","0.0-55.0","""event"",""trial"",""time""
""fullscreenenter"",""0"",""5844""
""fullscreenexit"",""2"",""8471""
""blur"",""2"",""9842""
""focus"",""2"",""15301""
""blur"",""3"",""42290""
""focus"",""3"",""47189""
","""event"",""trial"",""time""
""blur"",""2"",""9842""
""blur"",""3"",""42290""
","""event"",""trial"",""time""
""focus"",""2"",""15301""
""focus"",""3"",""47189""
","""event"",""trial"",""time""
""fullscreenenter"",""0"",""5844""
","""event"",""trial"",""time""
""fullscreenexit"",""2"",""8471""
","780.1999999992549","run_exp/static/images/Set 6_rs/055a.jpg","86","","","","","","learn","SL",""
"","show_choice","56","95164","0.0-56.0","""event"",""trial"",""time""
""fullscreenenter"",""0"",""5844""
""fullscreenexit"",""2"",""8471""
""blur"",""2"",""9842""
""focus"",""2"",""15301""
""blur"",""3"",""42290""
""focus"",""3"",""47189""
","""event"",""trial"",""time""
""blur"",""2"",""9842""
""blur"",""3"",""42290""
","""event"",""trial"",""time""
""focus"",""2"",""15301""
""focus"",""3"",""47189""
","""event"",""trial"",""time""
""fullscreenenter"",""0"",""5844""
","""event"",""trial"",""time""
""fullscreenexit"",""2"",""8471""
","null","run_exp/static/images/Set 6_rs/055a.jpg","null","","","","","","learn","SL",""
"","html-keyboard-response","57","95669","0.0-57.0","""event"",""trial"",""time""
""fullscreenenter"",""0"",""5844""
""fullscreenexit"",""2"",""8471""
""blur"",""2"",""9842""
""focus"",""2"",""15301""
""blur"",""3"",""42290""
""focus"",""3"",""47189""
","""event"",""trial"",""time""
""blur"",""2"",""9842""
""blur"",""3"",""42290""
","""event"",""trial"",""time""
""focus"",""2"",""15301""
""focus"",""3"",""47189""
","""event"",""trial"",""time""
""fullscreenenter"",""0"",""5844""
","""event"",""trial"",""time""
""fullscreenexit"",""2"",""8471""
","null","<p></p>","null","","","","","","","",""
"","image","58","96439","0.0-58.0","""event"",""trial"",""time""
""fullscreenenter"",""0"",""5844""
""fullscreenexit"",""2"",""8471""
""blur"",""2"",""9842""
""focus"",""2"",""15301""
""blur"",""3"",""42290""
""focus"",""3"",""47189""
","""event"",""trial"",""time""
""blur"",""2"",""9842""
""blur"",""3"",""42290""
","""event"",""trial"",""time""
""focus"",""2"",""15301""
""focus"",""3"",""47189""
","""event"",""trial"",""time""
""fullscreenenter"",""0"",""5844""
","""event"",""trial"",""time""
""fullscreenexit"",""2"",""8471""
","768.7999999970198","run_exp/static/images/Set 6_rs/121a.jpg","86","","","","","","learn","SR",""
"","show_choice","59","97672","0.0-59.0","""event"",""trial"",""time""
""fullscreenenter"",""0"",""5844""
""fullscreenexit"",""2"",""8471""
""blur"",""2"",""9842""
""focus"",""2"",""15301""
""blur"",""3"",""42290""
""focus"",""3"",""47189""
","""event"",""trial"",""time""
""blur"",""2"",""9842""
""blur"",""3"",""42290""
","""event"",""trial"",""time""
""focus"",""2"",""15301""
""focus"",""3"",""47189""
","""event"",""trial"",""time""
""fullscreenenter"",""0"",""5844""
","""event"",""trial"",""time""
""fullscreenexit"",""2"",""8471""
","null","run_exp/static/images/Set 6_rs/121a.jpg","null","","","","","","learn","SR",""
"","html-keyboard-response","60","98176","0.0-60.0","""event"",""trial"",""time""
""fullscreenenter"",""0"",""5844""
""fullscreenexit"",""2"",""8471""
""blur"",""2"",""9842""
""focus"",""2"",""15301""
""blur"",""3"",""42290""
""focus"",""3"",""47189""
","""event"",""trial"",""time""
""blur"",""2"",""9842""
""blur"",""3"",""42290""
","""event"",""trial"",""time""
""focus"",""2"",""15301""
""focus"",""3"",""47189""
","""event"",""trial"",""time""
""fullscreenenter"",""0"",""5844""
","""event"",""trial"",""time""
""fullscreenexit"",""2"",""8471""
","null","<p></p>","null","","","","","","","",""
"","image","61","98748","0.0-61.0","""event"",""trial"",""time""
""fullscreenenter"",""0"",""5844""
""fullscreenexit"",""2"",""8471""
""blur"",""2"",""9842""
""focus"",""2"",""15301""
""blur"",""3"",""42290""
""focus"",""3"",""47189""
","""event"",""trial"",""time""
""blur"",""2"",""9842""
""blur"",""3"",""42290""
","""event"",""trial"",""time""
""focus"",""2"",""15301""
""focus"",""3"",""47189""
","""event"",""trial"",""time""
""fullscreenenter"",""0"",""5844""
","""event"",""trial"",""time""
""fullscreenexit"",""2"",""8471""
","571","run_exp/static/images/Set 6_rs/012a.jpg","86","","","","","","learn","SR",""
"","show_choice","62","100180","0.0-62.0","""event"",""trial"",""time""
""fullscreenenter"",""0"",""5844""
""fullscreenexit"",""2"",""8471""
""blur"",""2"",""9842""
""focus"",""2"",""15301""
""blur"",""3"",""42290""
""focus"",""3"",""47189""
","""event"",""trial"",""time""
""blur"",""2"",""9842""
""blur"",""3"",""42290""
","""event"",""trial"",""time""
""focus"",""2"",""15301""
""focus"",""3"",""47189""
","""event"",""trial"",""time""
""fullscreenenter"",""0"",""5844""
","""event"",""trial"",""time""
""fullscreenexit"",""2"",""8471""
","null","run_exp/static/images/Set 6_rs/012a.jpg","null","","","","","","learn","SR",""
"","html-keyboard-response","63","100684","0.0-63.0","""event"",""trial"",""time""
""fullscreenenter"",""0"",""5844""
""fullscreenexit"",""2"",""8471""
""blur"",""2"",""9842""
""focus"",""2"",""15301""
""blur"",""3"",""42290""
""focus"",""3"",""47189""
","""event"",""trial"",""time""
""blur"",""2"",""9842""
""blur"",""3"",""42290""
","""event"",""trial"",""time""
""focus"",""2"",""15301""
""focus"",""3"",""47189""
","""event"",""trial"",""time""
""fullscreenenter"",""0"",""5844""
","""event"",""trial"",""time""
""fullscreenexit"",""2"",""8471""
","null","<p></p>","null","","","","","","","",""
"","image","64","101363","0.0-64.0","""event"",""trial"",""time""
""fullscreenenter"",""0"",""5844""
""fullscreenexit"",""2"",""8471""
""blur"",""2"",""9842""
""focus"",""2"",""15301""
""blur"",""3"",""42290""
""focus"",""3"",""47189""
","""event"",""trial"",""time""
""blur"",""2"",""9842""
""blur"",""3"",""42290""
","""event"",""trial"",""time""
""focus"",""2"",""15301""
""focus"",""3"",""47189""
","""event"",""trial"",""time""
""fullscreenenter"",""0"",""5844""
","""event"",""trial"",""time""
""fullscreenexit"",""2"",""8471""
","678.3000000007451","run_exp/static/images/Set 6_rs/085a.jpg","86","","","","","","learn","SL",""
"","show_choice","65","102685","0.0-65.0","""event"",""trial"",""time""
""fullscreenenter"",""0"",""5844""
""fullscreenexit"",""2"",""8471""
""blur"",""2"",""9842""
""focus"",""2"",""15301""
""blur"",""3"",""42290""
""focus"",""3"",""47189""
","""event"",""trial"",""time""
""blur"",""2"",""9842""
""blur"",""3"",""42290""
","""event"",""trial"",""time""
""focus"",""2"",""15301""
""focus"",""3"",""47189""
","""event"",""trial"",""time""
""fullscreenenter"",""0"",""5844""
","""event"",""trial"",""time""
""fullscreenexit"",""2"",""8471""
","null","run_exp/static/images/Set 6_rs/085a.jpg","null","","","","","","learn","SL",""
"","html-keyboard-response","66","103188","0.0-66.0","""event"",""trial"",""time""
""fullscreenenter"",""0"",""5844""
""fullscreenexit"",""2"",""8471""
""blur"",""2"",""9842""
""focus"",""2"",""15301""
""blur"",""3"",""42290""
""focus"",""3"",""47189""
","""event"",""trial"",""time""
""blur"",""2"",""9842""
""blur"",""3"",""42290""
","""event"",""trial"",""time""
""focus"",""2"",""15301""
""focus"",""3"",""47189""
","""event"",""trial"",""time""
""fullscreenenter"",""0"",""5844""
","""event"",""trial"",""time""
""fullscreenexit"",""2"",""8471""
","null","<p></p>","null","","","","","","","",""
"","image","67","103808","0.0-67.0","""event"",""trial"",""time""
""fullscreenenter"",""0"",""5844""
""fullscreenexit"",""2"",""8471""
""blur"",""2"",""9842""
""focus"",""2"",""15301""
""blur"",""3"",""42290""
""focus"",""3"",""47189""
","""event"",""trial"",""time""
""blur"",""2"",""9842""
""blur"",""3"",""42290""
","""event"",""trial"",""time""
""focus"",""2"",""15301""
""focus"",""3"",""47189""
","""event"",""trial"",""time""
""fullscreenenter"",""0"",""5844""
","""event"",""trial"",""time""
""fullscreenexit"",""2"",""8471""
","619","run_exp/static/images/Set 6_rs/019a.jpg","86","","","","","","learn","SL",""
"","show_choice","68","105194","0.0-68.0","""event"",""trial"",""time""
""fullscreenenter"",""0"",""5844""
""fullscreenexit"",""2"",""8471""
""blur"",""2"",""9842""
""focus"",""2"",""15301""
""blur"",""3"",""42290""
""focus"",""3"",""47189""
","""event"",""trial"",""time""
""blur"",""2"",""9842""
""blur"",""3"",""42290""
","""event"",""trial"",""time""
""focus"",""2"",""15301""
""focus"",""3"",""47189""
","""event"",""trial"",""time""
""fullscreenenter"",""0"",""5844""
","""event"",""trial"",""time""
""fullscreenexit"",""2"",""8471""
","null","run_exp/static/images/Set 6_rs/019a.jpg","null","","","","","","learn","SL",""
"","html-keyboard-response","69","105698","0.0-69.0","""event"",""trial"",""time""
""fullscreenenter"",""0"",""5844""
""fullscreenexit"",""2"",""8471""
""blur"",""2"",""9842""
""focus"",""2"",""15301""
""blur"",""3"",""42290""
""focus"",""3"",""47189""
","""event"",""trial"",""time""
""blur"",""2"",""9842""
""blur"",""3"",""42290""
","""event"",""trial"",""time""
""focus"",""2"",""15301""
""focus"",""3"",""47189""
","""event"",""trial"",""time""
""fullscreenenter"",""0"",""5844""
","""event"",""trial"",""time""
""fullscreenexit"",""2"",""8471""
","null","<p></p>","null","","","","","","","",""
"","image","70","106424","0.0-70.0","""event"",""trial"",""time""
""fullscreenenter"",""0"",""5844""
""fullscreenexit"",""2"",""8471""
""blur"",""2"",""9842""
""focus"",""2"",""15301""
""blur"",""3"",""42290""
""focus"",""3"",""47189""
","""event"",""trial"",""time""
""blur"",""2"",""9842""
""blur"",""3"",""42290""
","""event"",""trial"",""time""
""focus"",""2"",""15301""
""focus"",""3"",""47189""
","""event"",""trial"",""time""
""fullscreenenter"",""0"",""5844""
","""event"",""trial"",""time""
""fullscreenexit"",""2"",""8471""
","724.1999999992549","run_exp/static/images/Set 6_rs/186a.jpg","86","","","","","","learn","SR",""
"","show_choice","71","107701","0.0-71.0","""event"",""trial"",""time""
""fullscreenenter"",""0"",""5844""
""fullscreenexit"",""2"",""8471""
""blur"",""2"",""9842""
""focus"",""2"",""15301""
""blur"",""3"",""42290""
""focus"",""3"",""47189""
","""event"",""trial"",""time""
""blur"",""2"",""9842""
""blur"",""3"",""42290""
","""event"",""trial"",""time""
""focus"",""2"",""15301""
""focus"",""3"",""47189""
","""event"",""trial"",""time""
""fullscreenenter"",""0"",""5844""
","""event"",""trial"",""time""
""fullscreenexit"",""2"",""8471""
","null","run_exp/static/images/Set 6_rs/186a.jpg","null","","","","","","learn","SR",""
"","html-keyboard-response","72","108207","0.0-72.0","""event"",""trial"",""time""
""fullscreenenter"",""0"",""5844""
""fullscreenexit"",""2"",""8471""
""blur"",""2"",""9842""
""focus"",""2"",""15301""
""blur"",""3"",""42290""
""focus"",""3"",""47189""
","""event"",""trial"",""time""
""blur"",""2"",""9842""
""blur"",""3"",""42290""
","""event"",""trial"",""time""
""focus"",""2"",""15301""
""focus"",""3"",""47189""
","""event"",""trial"",""time""
""fullscreenenter"",""0"",""5844""
","""event"",""trial"",""time""
""fullscreenexit"",""2"",""8471""
","null","<p></p>","null","","","","","","","",""
"","image","73","108742","0.0-73.0","""event"",""trial"",""time""
""fullscreenenter"",""0"",""5844""
""fullscreenexit"",""2"",""8471""
""blur"",""2"",""9842""
""focus"",""2"",""15301""
""blur"",""3"",""42290""
""focus"",""3"",""47189""
","""event"",""trial"",""time""
""blur"",""2"",""9842""
""blur"",""3"",""42290""
","""event"",""trial"",""time""
""focus"",""2"",""15301""
""focus"",""3"",""47189""
","""event"",""trial"",""time""
""fullscreenenter"",""0"",""5844""
","""event"",""trial"",""time""
""fullscreenexit"",""2"",""8471""
","533.5999999977648","run_exp/static/images/Set 6_rs/172a.jpg","86","","","","","","learn","SR",""
"","show_choice","74","110213","0.0-74.0","""event"",""trial"",""time""
""fullscreenenter"",""0"",""5844""
""fullscreenexit"",""2"",""8471""
""blur"",""2"",""9842""
""focus"",""2"",""15301""
""blur"",""3"",""42290""
""focus"",""3"",""47189""
","""event"",""trial"",""time""
""blur"",""2"",""9842""
""blur"",""3"",""42290""
","""event"",""trial"",""time""
""focus"",""2"",""15301""
""focus"",""3"",""47189""
","""event"",""trial"",""time""
""fullscreenenter"",""0"",""5844""
","""event"",""trial"",""time""
""fullscreenexit"",""2"",""8471""
","null","run_exp/static/images/Set 6_rs/172a.jpg","null","","","","","","learn","SR",""
"","html-keyboard-response","75","110717","0.0-75.0","""event"",""trial"",""time""
""fullscreenenter"",""0"",""5844""
""fullscreenexit"",""2"",""8471""
""blur"",""2"",""9842""
""focus"",""2"",""15301""
""blur"",""3"",""42290""
""focus"",""3"",""47189""
","""event"",""trial"",""time""
""blur"",""2"",""9842""
""blur"",""3"",""42290""
","""event"",""trial"",""time""
""focus"",""2"",""15301""
""focus"",""3"",""47189""
","""event"",""trial"",""time""
""fullscreenenter"",""0"",""5844""
","""event"",""trial"",""time""
""fullscreenexit"",""2"",""8471""
","null","<p></p>","null","","","","","","","",""
"","image","76","111625","0.0-76.0","""event"",""trial"",""time""
""fullscreenenter"",""0"",""5844""
""fullscreenexit"",""2"",""8471""
""blur"",""2"",""9842""
""focus"",""2"",""15301""
""blur"",""3"",""42290""
""focus"",""3"",""47189""
","""event"",""trial"",""time""
""blur"",""2"",""9842""
""blur"",""3"",""42290""
","""event"",""trial"",""time""
""focus"",""2"",""15301""
""focus"",""3"",""47189""
","""event"",""trial"",""time""
""fullscreenenter"",""0"",""5844""
","""event"",""trial"",""time""
""fullscreenexit"",""2"",""8471""
","907.4000000022352","run_exp/static/images/Set 6_rs/062a.jpg","86","","","","","","learn","SL",""
"","show_choice","77","112721","0.0-77.0","""event"",""trial"",""time""
""fullscreenenter"",""0"",""5844""
""fullscreenexit"",""2"",""8471""
""blur"",""2"",""9842""
""focus"",""2"",""15301""
""blur"",""3"",""42290""
""focus"",""3"",""47189""
","""event"",""trial"",""time""
""blur"",""2"",""9842""
""blur"",""3"",""42290""
","""event"",""trial"",""time""
""focus"",""2"",""15301""
""focus"",""3"",""47189""
","""event"",""trial"",""time""
""fullscreenenter"",""0"",""5844""
","""event"",""trial"",""time""
""fullscreenexit"",""2"",""8471""
","null","run_exp/static/images/Set 6_rs/062a.jpg","null","","","","","","learn","SL",""
"","html-keyboard-response","78","113226","0.0-78.0","""event"",""trial"",""time""
""fullscreenenter"",""0"",""5844""
""fullscreenexit"",""2"",""8471""
""blur"",""2"",""9842""
""focus"",""2"",""15301""
""blur"",""3"",""42290""
""focus"",""3"",""47189""
","""event"",""trial"",""time""
""blur"",""2"",""9842""
""blur"",""3"",""42290""
","""event"",""trial"",""time""
""focus"",""2"",""15301""
""focus"",""3"",""47189""
","""event"",""trial"",""time""
""fullscreenenter"",""0"",""5844""
","""event"",""trial"",""time""
""fullscreenexit"",""2"",""8471""
","null","<p></p>","null","","","","","","","",""
"","image","79","114146","0.0-79.0","""event"",""trial"",""time""
""fullscreenenter"",""0"",""5844""
""fullscreenexit"",""2"",""8471""
""blur"",""2"",""9842""
""focus"",""2"",""15301""
""blur"",""3"",""42290""
""focus"",""3"",""47189""
","""event"",""trial"",""time""
""blur"",""2"",""9842""
""blur"",""3"",""42290""
","""event"",""trial"",""time""
""focus"",""2"",""15301""
""focus"",""3"",""47189""
","""event"",""trial"",""time""
""fullscreenenter"",""0"",""5844""
","""event"",""trial"",""time""
""fullscreenexit"",""2"",""8471""
","918.3999999985099","run_exp/static/images/Set 6_rs/079a.jpg","86","","","","","","learn","SL",""
"","show_choice","80","115231","0.0-80.0","""event"",""trial"",""time""
""fullscreenenter"",""0"",""5844""
""fullscreenexit"",""2"",""8471""
""blur"",""2"",""9842""
""focus"",""2"",""15301""
""blur"",""3"",""42290""
""focus"",""3"",""47189""
","""event"",""trial"",""time""
""blur"",""2"",""9842""
""blur"",""3"",""42290""
","""event"",""trial"",""time""
""focus"",""2"",""15301""
""focus"",""3"",""47189""
","""event"",""trial"",""time""
""fullscreenenter"",""0"",""5844""
","""event"",""trial"",""time""
""fullscreenexit"",""2"",""8471""
","null","run_exp/static/images/Set 6_rs/079a.jpg","null","","","","","","learn","SL",""
"","html-keyboard-response","81","115734","0.0-81.0","""event"",""trial"",""time""
""fullscreenenter"",""0"",""5844""
""fullscreenexit"",""2"",""8471""
""blur"",""2"",""9842""
""focus"",""2"",""15301""
""blur"",""3"",""42290""
""focus"",""3"",""47189""
","""event"",""trial"",""time""
""blur"",""2"",""9842""
""blur"",""3"",""42290""
","""event"",""trial"",""time""
""focus"",""2"",""15301""
""focus"",""3"",""47189""
","""event"",""trial"",""time""
""fullscreenenter"",""0"",""5844""
","""event"",""trial"",""time""
""fullscreenexit"",""2"",""8471""
","null","<p></p>","null","","","","","","","",""
"","image","82","116467","0.0-82.0","""event"",""trial"",""time""
""fullscreenenter"",""0"",""5844""
""fullscreenexit"",""2"",""8471""
""blur"",""2"",""9842""
""focus"",""2"",""15301""
""blur"",""3"",""42290""
""focus"",""3"",""47189""
","""event"",""trial"",""time""
""blur"",""2"",""9842""
""blur"",""3"",""42290""
","""event"",""trial"",""time""
""focus"",""2"",""15301""
""focus"",""3"",""47189""
","""event"",""trial"",""time""
""fullscreenenter"",""0"",""5844""
","""event"",""trial"",""time""
""fullscreenexit"",""2"",""8471""
","732","run_exp/static/images/Set 6_rs/050a.jpg","86","","","","","","learn","SL",""
"","show_choice","83","117737","0.0-83.0","""event"",""trial"",""time""
""fullscreenenter"",""0"",""5844""
""fullscreenexit"",""2"",""8471""
""blur"",""2"",""9842""
""focus"",""2"",""15301""
""blur"",""3"",""42290""
""focus"",""3"",""47189""
","""event"",""trial"",""time""
""blur"",""2"",""9842""
""blur"",""3"",""42290""
","""event"",""trial"",""time""
""focus"",""2"",""15301""
""focus"",""3"",""47189""
","""event"",""trial"",""time""
""fullscreenenter"",""0"",""5844""
","""event"",""trial"",""time""
""fullscreenexit"",""2"",""8471""
","null","run_exp/static/images/Set 6_rs/050a.jpg","null","","","","","","learn","SL",""
"","html-keyboard-response","84","118241","0.0-84.0","""event"",""trial"",""time""
""fullscreenenter"",""0"",""5844""
""fullscreenexit"",""2"",""8471""
""blur"",""2"",""9842""
""focus"",""2"",""15301""
""blur"",""3"",""42290""
""focus"",""3"",""47189""
","""event"",""trial"",""time""
""blur"",""2"",""9842""
""blur"",""3"",""42290""
","""event"",""trial"",""time""
""focus"",""2"",""15301""
""focus"",""3"",""47189""
","""event"",""trial"",""time""
""fullscreenenter"",""0"",""5844""
","""event"",""trial"",""time""
""fullscreenexit"",""2"",""8471""
","null","<p></p>","null","","","","","","","",""
"","image","85","119426","0.0-85.0","""event"",""trial"",""time""
""fullscreenenter"",""0"",""5844""
""fullscreenexit"",""2"",""8471""
""blur"",""2"",""9842""
""focus"",""2"",""15301""
""blur"",""3"",""42290""
""focus"",""3"",""47189""
","""event"",""trial"",""time""
""blur"",""2"",""9842""
""blur"",""3"",""42290""
","""event"",""trial"",""time""
""focus"",""2"",""15301""
""focus"",""3"",""47189""
","""event"",""trial"",""time""
""fullscreenenter"",""0"",""5844""
","""event"",""trial"",""time""
""fullscreenexit"",""2"",""8471""
","1183.5999999977648","run_exp/static/images/Set 6_rs/075a.jpg","86","","","","","","learn","SR",""
"","show_choice","86","120244","0.0-86.0","""event"",""trial"",""time""
""fullscreenenter"",""0"",""5844""
""fullscreenexit"",""2"",""8471""
""blur"",""2"",""9842""
""focus"",""2"",""15301""
""blur"",""3"",""42290""
""focus"",""3"",""47189""
","""event"",""trial"",""time""
""blur"",""2"",""9842""
""blur"",""3"",""42290""
","""event"",""trial"",""time""
""focus"",""2"",""15301""
""focus"",""3"",""47189""
","""event"",""trial"",""time""
""fullscreenenter"",""0"",""5844""
","""event"",""trial"",""time""
""fullscreenexit"",""2"",""8471""
","null","run_exp/static/images/Set 6_rs/075a.jpg","null","","","","","","learn","SR",""
"","html-keyboard-response","87","120745","0.0-87.0","""event"",""trial"",""time""
""fullscreenenter"",""0"",""5844""
""fullscreenexit"",""2"",""8471""
""blur"",""2"",""9842""
""focus"",""2"",""15301""
""blur"",""3"",""42290""
""focus"",""3"",""47189""
","""event"",""trial"",""time""
""blur"",""2"",""9842""
""blur"",""3"",""42290""
","""event"",""trial"",""time""
""focus"",""2"",""15301""
""focus"",""3"",""47189""
","""event"",""trial"",""time""
""fullscreenenter"",""0"",""5844""
","""event"",""trial"",""time""
""fullscreenexit"",""2"",""8471""
","null","<p></p>","null","","","","","","","",""
"","image","88","121983","0.0-88.0","""event"",""trial"",""time""
""fullscreenenter"",""0"",""5844""
""fullscreenexit"",""2"",""8471""
""blur"",""2"",""9842""
""focus"",""2"",""15301""
""blur"",""3"",""42290""
""focus"",""3"",""47189""
","""event"",""trial"",""time""
""blur"",""2"",""9842""
""blur"",""3"",""42290""
","""event"",""trial"",""time""
""focus"",""2"",""15301""
""focus"",""3"",""47189""
","""event"",""trial"",""time""
""fullscreenenter"",""0"",""5844""
","""event"",""trial"",""time""
""fullscreenexit"",""2"",""8471""
","1236.5","run_exp/static/images/Set 6_rs/117a.jpg","86","","","","","","learn","SL",""
"","show_choice","89","122749","0.0-89.0","""event"",""trial"",""time""
""fullscreenenter"",""0"",""5844""
""fullscreenexit"",""2"",""8471""
""blur"",""2"",""9842""
""focus"",""2"",""15301""
""blur"",""3"",""42290""
""focus"",""3"",""47189""
","""event"",""trial"",""time""
""blur"",""2"",""9842""
""blur"",""3"",""42290""
","""event"",""trial"",""time""
""focus"",""2"",""15301""
""focus"",""3"",""47189""
","""event"",""trial"",""time""
""fullscreenenter"",""0"",""5844""
","""event"",""trial"",""time""
""fullscreenexit"",""2"",""8471""
","null","run_exp/static/images/Set 6_rs/117a.jpg","null","","","","","","learn","SL",""
"","html-keyboard-response","90","123254","0.0-90.0","""event"",""trial"",""time""
""fullscreenenter"",""0"",""5844""
""fullscreenexit"",""2"",""8471""
""blur"",""2"",""9842""
""focus"",""2"",""15301""
""blur"",""3"",""42290""
""focus"",""3"",""47189""
","""event"",""trial"",""time""
""blur"",""2"",""9842""
""blur"",""3"",""42290""
","""event"",""trial"",""time""
""focus"",""2"",""15301""
""focus"",""3"",""47189""
","""event"",""trial"",""time""
""fullscreenenter"",""0"",""5844""
","""event"",""trial"",""time""
""fullscreenexit"",""2"",""8471""
","null","<p></p>","null","","","","","","","",""
"","image","91","124006","0.0-91.0","""event"",""trial"",""time""
""fullscreenenter"",""0"",""5844""
""fullscreenexit"",""2"",""8471""
""blur"",""2"",""9842""
""focus"",""2"",""15301""
""blur"",""3"",""42290""
""focus"",""3"",""47189""
","""event"",""trial"",""time""
""blur"",""2"",""9842""
""blur"",""3"",""42290""
","""event"",""trial"",""time""
""focus"",""2"",""15301""
""focus"",""3"",""47189""
","""event"",""trial"",""time""
""fullscreenenter"",""0"",""5844""
","""event"",""trial"",""time""
""fullscreenexit"",""2"",""8471""
","750.3999999985099","run_exp/static/images/Set 6_rs/024a.jpg","86","","","","","","learn","SR",""
"","show_choice","92","125259","0.0-92.0","""event"",""trial"",""time""
""fullscreenenter"",""0"",""5844""
""fullscreenexit"",""2"",""8471""
""blur"",""2"",""9842""
""focus"",""2"",""15301""
""blur"",""3"",""42290""
""focus"",""3"",""47189""
","""event"",""trial"",""time""
""blur"",""2"",""9842""
""blur"",""3"",""42290""
","""event"",""trial"",""time""
""focus"",""2"",""15301""
""focus"",""3"",""47189""
","""event"",""trial"",""time""
""fullscreenenter"",""0"",""5844""
","""event"",""trial"",""time""
""fullscreenexit"",""2"",""8471""
","null","run_exp/static/images/Set 6_rs/024a.jpg","null","","","","","","learn","SR",""
"","html-keyboard-response","93","125762","0.0-93.0","""event"",""trial"",""time""
""fullscreenenter"",""0"",""5844""
""fullscreenexit"",""2"",""8471""
""blur"",""2"",""9842""
""focus"",""2"",""15301""
""blur"",""3"",""42290""
""focus"",""3"",""47189""
","""event"",""trial"",""time""
""blur"",""2"",""9842""
""blur"",""3"",""42290""
","""event"",""trial"",""time""
""focus"",""2"",""15301""
""focus"",""3"",""47189""
","""event"",""trial"",""time""
""fullscreenenter"",""0"",""5844""
","""event"",""trial"",""time""
""fullscreenexit"",""2"",""8471""
","null","<p></p>","null","","","","","","","",""
"","image","94","126835","0.0-94.0","""event"",""trial"",""time""
""fullscreenenter"",""0"",""5844""
""fullscreenexit"",""2"",""8471""
""blur"",""2"",""9842""
""focus"",""2"",""15301""
""blur"",""3"",""42290""
""focus"",""3"",""47189""
","""event"",""trial"",""time""
""blur"",""2"",""9842""
""blur"",""3"",""42290""
","""event"",""trial"",""time""
""focus"",""2"",""15301""
""focus"",""3"",""47189""
","""event"",""trial"",""time""
""fullscreenenter"",""0"",""5844""
","""event"",""trial"",""time""
""fullscreenexit"",""2"",""8471""
","1071.300000000745","run_exp/static/images/Set 6_rs/141a.jpg","78","","","","","","learn","SR",""
"","show_choice","95","127765","0.0-95.0","""event"",""trial"",""time""
""fullscreenenter"",""0"",""5844""
""fullscreenexit"",""2"",""8471""
""blur"",""2"",""9842""
""focus"",""2"",""15301""
""blur"",""3"",""42290""
""focus"",""3"",""47189""
","""event"",""trial"",""time""
""blur"",""2"",""9842""
""blur"",""3"",""42290""
","""event"",""trial"",""time""
""focus"",""2"",""15301""
""focus"",""3"",""47189""
","""event"",""trial"",""time""
""fullscreenenter"",""0"",""5844""
","""event"",""trial"",""time""
""fullscreenexit"",""2"",""8471""
","null","run_exp/static/images/Set 6_rs/141a.jpg","null","","","","","","learn","SR",""
"","html-keyboard-response","96","128265","0.0-96.0","""event"",""trial"",""time""
""fullscreenenter"",""0"",""5844""
""fullscreenexit"",""2"",""8471""
""blur"",""2"",""9842""
""focus"",""2"",""15301""
""blur"",""3"",""42290""
""focus"",""3"",""47189""
","""event"",""trial"",""time""
""blur"",""2"",""9842""
""blur"",""3"",""42290""
","""event"",""trial"",""time""
""focus"",""2"",""15301""
""focus"",""3"",""47189""
","""event"",""trial"",""time""
""fullscreenenter"",""0"",""5844""
","""event"",""trial"",""time""
""fullscreenexit"",""2"",""8471""
","null","<p></p>","null","","","","","","","",""
"","image","97","129046","0.0-97.0","""event"",""trial"",""time""
""fullscreenenter"",""0"",""5844""
""fullscreenexit"",""2"",""8471""
""blur"",""2"",""9842""
""focus"",""2"",""15301""
""blur"",""3"",""42290""
""focus"",""3"",""47189""
","""event"",""trial"",""time""
""blur"",""2"",""9842""
""blur"",""3"",""42290""
","""event"",""trial"",""time""
""focus"",""2"",""15301""
""focus"",""3"",""47189""
","""event"",""trial"",""time""
""fullscreenenter"",""0"",""5844""
","""event"",""trial"",""time""
""fullscreenexit"",""2"",""8471""
","779.5999999977648","run_exp/static/images/Set 6_rs/111a.jpg","86","","","","","","learn","SL",""
"","show_choice","98","130272","0.0-98.0","""event"",""trial"",""time""
""fullscreenenter"",""0"",""5844""
""fullscreenexit"",""2"",""8471""
""blur"",""2"",""9842""
""focus"",""2"",""15301""
""blur"",""3"",""42290""
""focus"",""3"",""47189""
","""event"",""trial"",""time""
""blur"",""2"",""9842""
""blur"",""3"",""42290""
","""event"",""trial"",""time""
""focus"",""2"",""15301""
""focus"",""3"",""47189""
","""event"",""trial"",""time""
""fullscreenenter"",""0"",""5844""
","""event"",""trial"",""time""
""fullscreenexit"",""2"",""8471""
","null","run_exp/static/images/Set 6_rs/111a.jpg","null","","","","","","learn","SL",""
"","html-keyboard-response","99","130777","0.0-99.0","""event"",""trial"",""time""
""fullscreenenter"",""0"",""5844""
""fullscreenexit"",""2"",""8471""
""blur"",""2"",""9842""
""focus"",""2"",""15301""
""blur"",""3"",""42290""
""focus"",""3"",""47189""
","""event"",""trial"",""time""
""blur"",""2"",""9842""
""blur"",""3"",""42290""
","""event"",""trial"",""time""
""focus"",""2"",""15301""
""focus"",""3"",""47189""
","""event"",""trial"",""time""
""fullscreenenter"",""0"",""5844""
","""event"",""trial"",""time""
""fullscreenexit"",""2"",""8471""
","null","<p></p>","null","","","","","","","",""
"","image","100","132127","0.0-100.0","""event"",""trial"",""time""
""fullscreenenter"",""0"",""5844""
""fullscreenexit"",""2"",""8471""
""blur"",""2"",""9842""
""focus"",""2"",""15301""
""blur"",""3"",""42290""
""focus"",""3"",""47189""
","""event"",""trial"",""time""
""blur"",""2"",""9842""
""blur"",""3"",""42290""
","""event"",""trial"",""time""
""focus"",""2"",""15301""
""focus"",""3"",""47189""
","""event"",""trial"",""time""
""fullscreenenter"",""0"",""5844""
","""event"",""trial"",""time""
""fullscreenexit"",""2"",""8471""
","1348.5","run_exp/static/images/Set 6_rs/008a.jpg","86","","","","","","learn","SL",""
"","show_choice","101","132781","0.0-101.0","""event"",""trial"",""time""
""fullscreenenter"",""0"",""5844""
""fullscreenexit"",""2"",""8471""
""blur"",""2"",""9842""
""focus"",""2"",""15301""
""blur"",""3"",""42290""
""focus"",""3"",""47189""
","""event"",""trial"",""time""
""blur"",""2"",""9842""
""blur"",""3"",""42290""
","""event"",""trial"",""time""
""focus"",""2"",""15301""
""focus"",""3"",""47189""
","""event"",""trial"",""time""
""fullscreenenter"",""0"",""5844""
","""event"",""trial"",""time""
""fullscreenexit"",""2"",""8471""
","null","run_exp/static/images/Set 6_rs/008a.jpg","null","","","","","","learn","SL",""
"","html-keyboard-response","102","133283","0.0-102.0","""event"",""trial"",""time""
""fullscreenenter"",""0"",""5844""
""fullscreenexit"",""2"",""8471""
""blur"",""2"",""9842""
""focus"",""2"",""15301""
""blur"",""3"",""42290""
""focus"",""3"",""47189""
","""event"",""trial"",""time""
""blur"",""2"",""9842""
""blur"",""3"",""42290""
","""event"",""trial"",""time""
""focus"",""2"",""15301""
""focus"",""3"",""47189""
","""event"",""trial"",""time""
""fullscreenenter"",""0"",""5844""
","""event"",""trial"",""time""
""fullscreenexit"",""2"",""8471""
","null","<p></p>","null","","","","","","","",""
"","image","103","134126","0.0-103.0","""event"",""trial"",""time""
""fullscreenenter"",""0"",""5844""
""fullscreenexit"",""2"",""8471""
""blur"",""2"",""9842""
""focus"",""2"",""15301""
""blur"",""3"",""42290""
""focus"",""3"",""47189""
","""event"",""trial"",""time""
""blur"",""2"",""9842""
""blur"",""3"",""42290""
","""event"",""trial"",""time""
""focus"",""2"",""15301""
""focus"",""3"",""47189""
","""event"",""trial"",""time""
""fullscreenenter"",""0"",""5844""
","""event"",""trial"",""time""
""fullscreenexit"",""2"",""8471""
","840.5","run_exp/static/images/Set 6_rs/177a.jpg","78","","","","","","learn","SR",""
"","show_choice","104","135289","0.0-104.0","""event"",""trial"",""time""
""fullscreenenter"",""0"",""5844""
""fullscreenexit"",""2"",""8471""
""blur"",""2"",""9842""
""focus"",""2"",""15301""
""blur"",""3"",""42290""
""focus"",""3"",""47189""
","""event"",""trial"",""time""
""blur"",""2"",""9842""
""blur"",""3"",""42290""
","""event"",""trial"",""time""
""focus"",""2"",""15301""
""focus"",""3"",""47189""
","""event"",""trial"",""time""
""fullscreenenter"",""0"",""5844""
","""event"",""trial"",""time""
""fullscreenexit"",""2"",""8471""
","null","run_exp/static/images/Set 6_rs/177a.jpg","null","","","","","","learn","SR",""
"","html-keyboard-response","105","135793","0.0-105.0","""event"",""trial"",""time""
""fullscreenenter"",""0"",""5844""
""fullscreenexit"",""2"",""8471""
""blur"",""2"",""9842""
""focus"",""2"",""15301""
""blur"",""3"",""42290""
""focus"",""3"",""47189""
","""event"",""trial"",""time""
""blur"",""2"",""9842""
""blur"",""3"",""42290""
","""event"",""trial"",""time""
""focus"",""2"",""15301""
""focus"",""3"",""47189""
","""event"",""trial"",""time""
""fullscreenenter"",""0"",""5844""
","""event"",""trial"",""time""
""fullscreenexit"",""2"",""8471""
","null","<p></p>","null","","","","","","","",""
"","image","106","136565","0.0-106.0","""event"",""trial"",""time""
""fullscreenenter"",""0"",""5844""
""fullscreenexit"",""2"",""8471""
""blur"",""2"",""9842""
""focus"",""2"",""15301""
""blur"",""3"",""42290""
""focus"",""3"",""47189""
","""event"",""trial"",""time""
""blur"",""2"",""9842""
""blur"",""3"",""42290""
","""event"",""trial"",""time""
""focus"",""2"",""15301""
""focus"",""3"",""47189""
","""event"",""trial"",""time""
""fullscreenenter"",""0"",""5844""
","""event"",""trial"",""time""
""fullscreenexit"",""2"",""8471""
","770.1000000014901","run_exp/static/images/Set 6_rs/036a.jpg","86","","","","","","learn","SL",""
"","show_choice","107","137797","0.0-107.0","""event"",""trial"",""time""
""fullscreenenter"",""0"",""5844""
""fullscreenexit"",""2"",""8471""
""blur"",""2"",""9842""
""focus"",""2"",""15301""
""blur"",""3"",""42290""
""focus"",""3"",""47189""
","""event"",""trial"",""time""
""blur"",""2"",""9842""
""blur"",""3"",""42290""
","""event"",""trial"",""time""
""focus"",""2"",""15301""
""focus"",""3"",""47189""
","""event"",""trial"",""time""
""fullscreenenter"",""0"",""5844""
","""event"",""trial"",""time""
""fullscreenexit"",""2"",""8471""
","null","run_exp/static/images/Set 6_rs/036a.jpg","null","","","","","","learn","SL",""
"","html-keyboard-response","108","138302","0.0-108.0","""event"",""trial"",""time""
""fullscreenenter"",""0"",""5844""
""fullscreenexit"",""2"",""8471""
""blur"",""2"",""9842""
""focus"",""2"",""15301""
""blur"",""3"",""42290""
""focus"",""3"",""47189""
","""event"",""trial"",""time""
""blur"",""2"",""9842""
""blur"",""3"",""42290""
","""event"",""trial"",""time""
""focus"",""2"",""15301""
""focus"",""3"",""47189""
","""event"",""trial"",""time""
""fullscreenenter"",""0"",""5844""
","""event"",""trial"",""time""
""fullscreenexit"",""2"",""8471""
","null","<p></p>","null","","","","","","","",""
"","image","109","138807","0.0-109.0","""event"",""trial"",""time""
""fullscreenenter"",""0"",""5844""
""fullscreenexit"",""2"",""8471""
""blur"",""2"",""9842""
""focus"",""2"",""15301""
""blur"",""3"",""42290""
""focus"",""3"",""47189""
","""event"",""trial"",""time""
""blur"",""2"",""9842""
""blur"",""3"",""42290""
","""event"",""trial"",""time""
""focus"",""2"",""15301""
""focus"",""3"",""47189""
","""event"",""trial"",""time""
""fullscreenenter"",""0"",""5844""
","""event"",""trial"",""time""
""fullscreenexit"",""2"",""8471""
","503.4000000022352","run_exp/static/images/Set 6_rs/112a.jpg","86","","","","","","learn","SR",""
"","show_choice","110","140308","0.0-110.0","""event"",""trial"",""time""
""fullscreenenter"",""0"",""5844""
""fullscreenexit"",""2"",""8471""
""blur"",""2"",""9842""
""focus"",""2"",""15301""
""blur"",""3"",""42290""
""focus"",""3"",""47189""
","""event"",""trial"",""time""
""blur"",""2"",""9842""
""blur"",""3"",""42290""
","""event"",""trial"",""time""
""focus"",""2"",""15301""
""focus"",""3"",""47189""
","""event"",""trial"",""time""
""fullscreenenter"",""0"",""5844""
","""event"",""trial"",""time""
""fullscreenexit"",""2"",""8471""
","null","run_exp/static/images/Set 6_rs/112a.jpg","null","","","","","","learn","SR",""
"","html-keyboard-response","111","140813","0.0-111.0","""event"",""trial"",""time""
""fullscreenenter"",""0"",""5844""
""fullscreenexit"",""2"",""8471""
""blur"",""2"",""9842""
""focus"",""2"",""15301""
""blur"",""3"",""42290""
""focus"",""3"",""47189""
","""event"",""trial"",""time""
""blur"",""2"",""9842""
""blur"",""3"",""42290""
","""event"",""trial"",""time""
""focus"",""2"",""15301""
""focus"",""3"",""47189""
","""event"",""trial"",""time""
""fullscreenenter"",""0"",""5844""
","""event"",""trial"",""time""
""fullscreenexit"",""2"",""8471""
","null","<p></p>","null","","","","","","","",""
"","image","112","142222","0.0-112.0","""event"",""trial"",""time""
""fullscreenenter"",""0"",""5844""
""fullscreenexit"",""2"",""8471""
""blur"",""2"",""9842""
""focus"",""2"",""15301""
""blur"",""3"",""42290""
""focus"",""3"",""47189""
","""event"",""trial"",""time""
""blur"",""2"",""9842""
""blur"",""3"",""42290""
","""event"",""trial"",""time""
""focus"",""2"",""15301""
""focus"",""3"",""47189""
","""event"",""trial"",""time""
""fullscreenenter"",""0"",""5844""
","""event"",""trial"",""time""
""fullscreenexit"",""2"",""8471""
","1407.3999999985099","run_exp/static/images/Set 6_rs/131a.jpg","86","","","","","","learn","SR",""
"","show_choice","113","142818","0.0-113.0","""event"",""trial"",""time""
""fullscreenenter"",""0"",""5844""
""fullscreenexit"",""2"",""8471""
""blur"",""2"",""9842""
""focus"",""2"",""15301""
""blur"",""3"",""42290""
""focus"",""3"",""47189""
","""event"",""trial"",""time""
""blur"",""2"",""9842""
""blur"",""3"",""42290""
","""event"",""trial"",""time""
""focus"",""2"",""15301""
""focus"",""3"",""47189""
","""event"",""trial"",""time""
""fullscreenenter"",""0"",""5844""
","""event"",""trial"",""time""
""fullscreenexit"",""2"",""8471""
","null","run_exp/static/images/Set 6_rs/131a.jpg","null","","","","","","learn","SR",""
"","html-keyboard-response","114","143322","0.0-114.0","""event"",""trial"",""time""
""fullscreenenter"",""0"",""5844""
""fullscreenexit"",""2"",""8471""
""blur"",""2"",""9842""
""focus"",""2"",""15301""
""blur"",""3"",""42290""
""focus"",""3"",""47189""
","""event"",""trial"",""time""
""blur"",""2"",""9842""
""blur"",""3"",""42290""
","""event"",""trial"",""time""
""focus"",""2"",""15301""
""focus"",""3"",""47189""
","""event"",""trial"",""time""
""fullscreenenter"",""0"",""5844""
","""event"",""trial"",""time""
""fullscreenexit"",""2"",""8471""
","null","<p></p>","null","","","","","","","",""
"","image","115","145204","0.0-115.0","""event"",""trial"",""time""
""fullscreenenter"",""0"",""5844""
""fullscreenexit"",""2"",""8471""
""blur"",""2"",""9842""
""focus"",""2"",""15301""
""blur"",""3"",""42290""
""focus"",""3"",""47189""
","""event"",""trial"",""time""
""blur"",""2"",""9842""
""blur"",""3"",""42290""
","""event"",""trial"",""time""
""focus"",""2"",""15301""
""focus"",""3"",""47189""
","""event"",""trial"",""time""
""fullscreenenter"",""0"",""5844""
","""event"",""trial"",""time""
""fullscreenexit"",""2"",""8471""
","1880.5999999977648","run_exp/static/images/Set 6_rs/064a.jpg","78","","","","","","learn","SR",""
"","show_choice","116","145325","0.0-116.0","""event"",""trial"",""time""
""fullscreenenter"",""0"",""5844""
""fullscreenexit"",""2"",""8471""
""blur"",""2"",""9842""
""focus"",""2"",""15301""
""blur"",""3"",""42290""
""focus"",""3"",""47189""
","""event"",""trial"",""time""
""blur"",""2"",""9842""
""blur"",""3"",""42290""
","""event"",""trial"",""time""
""focus"",""2"",""15301""
""focus"",""3"",""47189""
","""event"",""trial"",""time""
""fullscreenenter"",""0"",""5844""
","""event"",""trial"",""time""
""fullscreenexit"",""2"",""8471""
","null","run_exp/static/images/Set 6_rs/064a.jpg","null","","","","","","learn","SR",""
"","html-keyboard-response","117","145830","0.0-117.0","""event"",""trial"",""time""
""fullscreenenter"",""0"",""5844""
""fullscreenexit"",""2"",""8471""
""blur"",""2"",""9842""
""focus"",""2"",""15301""
""blur"",""3"",""42290""
""focus"",""3"",""47189""
","""event"",""trial"",""time""
""blur"",""2"",""9842""
""blur"",""3"",""42290""
","""event"",""trial"",""time""
""focus"",""2"",""15301""
""focus"",""3"",""47189""
","""event"",""trial"",""time""
""fullscreenenter"",""0"",""5844""
","""event"",""trial"",""time""
""fullscreenexit"",""2"",""8471""
","null","<p></p>","null","","","","","","","",""
"","image","118","146787","0.0-118.0","""event"",""trial"",""time""
""fullscreenenter"",""0"",""5844""
""fullscreenexit"",""2"",""8471""
""blur"",""2"",""9842""
""focus"",""2"",""15301""
""blur"",""3"",""42290""
""focus"",""3"",""47189""
","""event"",""trial"",""time""
""blur"",""2"",""9842""
""blur"",""3"",""42290""
","""event"",""trial"",""time""
""focus"",""2"",""15301""
""focus"",""3"",""47189""
","""event"",""trial"",""time""
""fullscreenenter"",""0"",""5844""
","""event"",""trial"",""time""
""fullscreenexit"",""2"",""8471""
","955.8999999985099","run_exp/static/images/Set 6_rs/071a.jpg","78","","","","","","learn","SL",""
"","show_choice","119","147835","0.0-119.0","""event"",""trial"",""time""
""fullscreenenter"",""0"",""5844""
""fullscreenexit"",""2"",""8471""
""blur"",""2"",""9842""
""focus"",""2"",""15301""
""blur"",""3"",""42290""
""focus"",""3"",""47189""
","""event"",""trial"",""time""
""blur"",""2"",""9842""
""blur"",""3"",""42290""
","""event"",""trial"",""time""
""focus"",""2"",""15301""
""focus"",""3"",""47189""
","""event"",""trial"",""time""
""fullscreenenter"",""0"",""5844""
","""event"",""trial"",""time""
""fullscreenexit"",""2"",""8471""
","null","run_exp/static/images/Set 6_rs/071a.jpg","null","","","","","","learn","SL",""
"","html-keyboard-response","120","148340","0.0-120.0","""event"",""trial"",""time""
""fullscreenenter"",""0"",""5844""
""fullscreenexit"",""2"",""8471""
""blur"",""2"",""9842""
""focus"",""2"",""15301""
""blur"",""3"",""42290""
""focus"",""3"",""47189""
","""event"",""trial"",""time""
""blur"",""2"",""9842""
""blur"",""3"",""42290""
","""event"",""trial"",""time""
""focus"",""2"",""15301""
""focus"",""3"",""47189""
","""event"",""trial"",""time""
""fullscreenenter"",""0"",""5844""
","""event"",""trial"",""time""
""fullscreenexit"",""2"",""8471""
","null","<p></p>","null","","","","","","","",""
"","image","121","149237","0.0-121.0","""event"",""trial"",""time""
""fullscreenenter"",""0"",""5844""
""fullscreenexit"",""2"",""8471""
""blur"",""2"",""9842""
""focus"",""2"",""15301""
""blur"",""3"",""42290""
""focus"",""3"",""47189""
","""event"",""trial"",""time""
""blur"",""2"",""9842""
""blur"",""3"",""42290""
","""event"",""trial"",""time""
""focus"",""2"",""15301""
""focus"",""3"",""47189""
","""event"",""trial"",""time""
""fullscreenenter"",""0"",""5844""
","""event"",""trial"",""time""
""fullscreenexit"",""2"",""8471""
","896","run_exp/static/images/Set 6_rs/126a.jpg","78","","","","","","learn","SR",""
"","show_choice","122","150343","0.0-122.0","""event"",""trial"",""time""
""fullscreenenter"",""0"",""5844""
""fullscreenexit"",""2"",""8471""
""blur"",""2"",""9842""
""focus"",""2"",""15301""
""blur"",""3"",""42290""
""focus"",""3"",""47189""
","""event"",""trial"",""time""
""blur"",""2"",""9842""
""blur"",""3"",""42290""
","""event"",""trial"",""time""
""focus"",""2"",""15301""
""focus"",""3"",""47189""
","""event"",""trial"",""time""
""fullscreenenter"",""0"",""5844""
","""event"",""trial"",""time""
""fullscreenexit"",""2"",""8471""
","null","run_exp/static/images/Set 6_rs/126a.jpg","null","","","","","","learn","SR",""
"","html-keyboard-response","123","150848","0.0-123.0","""event"",""trial"",""time""
""fullscreenenter"",""0"",""5844""
""fullscreenexit"",""2"",""8471""
""blur"",""2"",""9842""
""focus"",""2"",""15301""
""blur"",""3"",""42290""
""focus"",""3"",""47189""
","""event"",""trial"",""time""
""blur"",""2"",""9842""
""blur"",""3"",""42290""
","""event"",""trial"",""time""
""focus"",""2"",""15301""
""focus"",""3"",""47189""
","""event"",""trial"",""time""
""fullscreenenter"",""0"",""5844""
","""event"",""trial"",""time""
""fullscreenexit"",""2"",""8471""
","null","<p></p>","null","","","","","","","",""
"","image","124","151761","0.0-124.0","""event"",""trial"",""time""
""fullscreenenter"",""0"",""5844""
""fullscreenexit"",""2"",""8471""
""blur"",""2"",""9842""
""focus"",""2"",""15301""
""blur"",""3"",""42290""
""focus"",""3"",""47189""
","""event"",""trial"",""time""
""blur"",""2"",""9842""
""blur"",""3"",""42290""
","""event"",""trial"",""time""
""focus"",""2"",""15301""
""focus"",""3"",""47189""
","""event"",""trial"",""time""
""fullscreenenter"",""0"",""5844""
","""event"",""trial"",""time""
""fullscreenexit"",""2"",""8471""
","911.1000000014901","run_exp/static/images/Set 6_rs/122a.jpg","86","","","","","","learn","SR",""
"","show_choice","125","152852","0.0-125.0","""event"",""trial"",""time""
""fullscreenenter"",""0"",""5844""
""fullscreenexit"",""2"",""8471""
""blur"",""2"",""9842""
""focus"",""2"",""15301""
""blur"",""3"",""42290""
""focus"",""3"",""47189""
","""event"",""trial"",""time""
""blur"",""2"",""9842""
""blur"",""3"",""42290""
","""event"",""trial"",""time""
""focus"",""2"",""15301""
""focus"",""3"",""47189""
","""event"",""trial"",""time""
""fullscreenenter"",""0"",""5844""
","""event"",""trial"",""time""
""fullscreenexit"",""2"",""8471""
","null","run_exp/static/images/Set 6_rs/122a.jpg","null","","","","","","learn","SR",""
"","html-keyboard-response","126","153356","0.0-126.0","""event"",""trial"",""time""
""fullscreenenter"",""0"",""5844""
""fullscreenexit"",""2"",""8471""
""blur"",""2"",""9842""
""focus"",""2"",""15301""
""blur"",""3"",""42290""
""focus"",""3"",""47189""
","""event"",""trial"",""time""
""blur"",""2"",""9842""
""blur"",""3"",""42290""
","""event"",""trial"",""time""
""focus"",""2"",""15301""
""focus"",""3"",""47189""
","""event"",""trial"",""time""
""fullscreenenter"",""0"",""5844""
","""event"",""trial"",""time""
""fullscreenexit"",""2"",""8471""
","null","<p></p>","null","","","","","","","",""
"","image","127","154665","0.0-127.0","""event"",""trial"",""time""
""fullscreenenter"",""0"",""5844""
""fullscreenexit"",""2"",""8471""
""blur"",""2"",""9842""
""focus"",""2"",""15301""
""blur"",""3"",""42290""
""focus"",""3"",""47189""
","""event"",""trial"",""time""
""blur"",""2"",""9842""
""blur"",""3"",""42290""
","""event"",""trial"",""time""
""focus"",""2"",""15301""
""focus"",""3"",""47189""
","""event"",""trial"",""time""
""fullscreenenter"",""0"",""5844""
","""event"",""trial"",""time""
""fullscreenexit"",""2"",""8471""
","1308.300000000745","run_exp/static/images/Set 6_rs/016a.jpg","78","","","","","","learn","SL",""
"","show_choice","128","155359","0.0-128.0","""event"",""trial"",""time""
""fullscreenenter"",""0"",""5844""
""fullscreenexit"",""2"",""8471""
""blur"",""2"",""9842""
""focus"",""2"",""15301""
""blur"",""3"",""42290""
""focus"",""3"",""47189""
","""event"",""trial"",""time""
""blur"",""2"",""9842""
""blur"",""3"",""42290""
","""event"",""trial"",""time""
""focus"",""2"",""15301""
""focus"",""3"",""47189""
","""event"",""trial"",""time""
""fullscreenenter"",""0"",""5844""
","""event"",""trial"",""time""
""fullscreenexit"",""2"",""8471""
","null","run_exp/static/images/Set 6_rs/016a.jpg","null","","","","","","learn","SL",""
"","html-keyboard-response","129","155862","0.0-129.0","""event"",""trial"",""time""
""fullscreenenter"",""0"",""5844""
""fullscreenexit"",""2"",""8471""
""blur"",""2"",""9842""
""focus"",""2"",""15301""
""blur"",""3"",""42290""
""focus"",""3"",""47189""
","""event"",""trial"",""time""
""blur"",""2"",""9842""
""blur"",""3"",""42290""
","""event"",""trial"",""time""
""focus"",""2"",""15301""
""focus"",""3"",""47189""
","""event"",""trial"",""time""
""fullscreenenter"",""0"",""5844""
","""event"",""trial"",""time""
""fullscreenexit"",""2"",""8471""
","null","<p></p>","null","","","","","","","",""
"","image","130","156740","0.0-130.0","""event"",""trial"",""time""
""fullscreenenter"",""0"",""5844""
""fullscreenexit"",""2"",""8471""
""blur"",""2"",""9842""
""focus"",""2"",""15301""
""blur"",""3"",""42290""
""focus"",""3"",""47189""
","""event"",""trial"",""time""
""blur"",""2"",""9842""
""blur"",""3"",""42290""
","""event"",""trial"",""time""
""focus"",""2"",""15301""
""focus"",""3"",""47189""
","""event"",""trial"",""time""
""fullscreenenter"",""0"",""5844""
","""event"",""trial"",""time""
""fullscreenexit"",""2"",""8471""
","876.9000000022352","run_exp/static/images/Set 6_rs/167a.jpg","78","","","","","","learn","SL",""
"","show_choice","131","157864","0.0-131.0","""event"",""trial"",""time""
""fullscreenenter"",""0"",""5844""
""fullscreenexit"",""2"",""8471""
""blur"",""2"",""9842""
""focus"",""2"",""15301""
""blur"",""3"",""42290""
""focus"",""3"",""47189""
","""event"",""trial"",""time""
""blur"",""2"",""9842""
""blur"",""3"",""42290""
","""event"",""trial"",""time""
""focus"",""2"",""15301""
""focus"",""3"",""47189""
","""event"",""trial"",""time""
""fullscreenenter"",""0"",""5844""
","""event"",""trial"",""time""
""fullscreenexit"",""2"",""8471""
","null","run_exp/static/images/Set 6_rs/167a.jpg","null","","","","","","learn","SL",""
"","html-keyboard-response","132","158369","0.0-132.0","""event"",""trial"",""time""
""fullscreenenter"",""0"",""5844""
""fullscreenexit"",""2"",""8471""
""blur"",""2"",""9842""
""focus"",""2"",""15301""
""blur"",""3"",""42290""
""focus"",""3"",""47189""
","""event"",""trial"",""time""
""blur"",""2"",""9842""
""blur"",""3"",""42290""
","""event"",""trial"",""time""
""focus"",""2"",""15301""
""focus"",""3"",""47189""
","""event"",""trial"",""time""
""fullscreenenter"",""0"",""5844""
","""event"",""trial"",""time""
""fullscreenexit"",""2"",""8471""
","null","<p></p>","null","","","","","","","",""
"","image","133","159095","0.0-133.0","""event"",""trial"",""time""
""fullscreenenter"",""0"",""5844""
""fullscreenexit"",""2"",""8471""
""blur"",""2"",""9842""
""focus"",""2"",""15301""
""blur"",""3"",""42290""
""focus"",""3"",""47189""
","""event"",""trial"",""time""
""blur"",""2"",""9842""
""blur"",""3"",""42290""
","""event"",""trial"",""time""
""focus"",""2"",""15301""
""focus"",""3"",""47189""
","""event"",""trial"",""time""
""fullscreenenter"",""0"",""5844""
","""event"",""trial"",""time""
""fullscreenexit"",""2"",""8471""
","725.5","run_exp/static/images/Set 6_rs/095a.jpg","86","","","","","","learn","SL",""
"","show_choice","134","160371","0.0-134.0","""event"",""trial"",""time""
""fullscreenenter"",""0"",""5844""
""fullscreenexit"",""2"",""8471""
""blur"",""2"",""9842""
""focus"",""2"",""15301""
""blur"",""3"",""42290""
""focus"",""3"",""47189""
","""event"",""trial"",""time""
""blur"",""2"",""9842""
""blur"",""3"",""42290""
","""event"",""trial"",""time""
""focus"",""2"",""15301""
""focus"",""3"",""47189""
","""event"",""trial"",""time""
""fullscreenenter"",""0"",""5844""
","""event"",""trial"",""time""
""fullscreenexit"",""2"",""8471""
","null","run_exp/static/images/Set 6_rs/095a.jpg","null","","","","","","learn","SL",""
"","html-keyboard-response","135","160877","0.0-135.0","""event"",""trial"",""time""
""fullscreenenter"",""0"",""5844""
""fullscreenexit"",""2"",""8471""
""blur"",""2"",""9842""
""focus"",""2"",""15301""
""blur"",""3"",""42290""
""focus"",""3"",""47189""
","""event"",""trial"",""time""
""blur"",""2"",""9842""
""blur"",""3"",""42290""
","""event"",""trial"",""time""
""focus"",""2"",""15301""
""focus"",""3"",""47189""
","""event"",""trial"",""time""
""fullscreenenter"",""0"",""5844""
","""event"",""trial"",""time""
""fullscreenexit"",""2"",""8471""
","null","<p></p>","null","","","","","","","",""
"","image","136","162883","0.0-136.0","""event"",""trial"",""time""
""fullscreenenter"",""0"",""5844""
""fullscreenexit"",""2"",""8471""
""blur"",""2"",""9842""
""focus"",""2"",""15301""
""blur"",""3"",""42290""
""focus"",""3"",""47189""
","""event"",""trial"",""time""
""blur"",""2"",""9842""
""blur"",""3"",""42290""
","""event"",""trial"",""time""
""focus"",""2"",""15301""
""focus"",""3"",""47189""
","""event"",""trial"",""time""
""fullscreenenter"",""0"",""5844""
","""event"",""trial"",""time""
""fullscreenexit"",""2"",""8471""
","null","run_exp/static/images/Set 6_rs/132a.jpg","null","","","","","","learn","SR",""
"","show_choice","137","164888","0.0-137.0","""event"",""trial"",""time""
""fullscreenenter"",""0"",""5844""
""fullscreenexit"",""2"",""8471""
""blur"",""2"",""9842""
""focus"",""2"",""15301""
""blur"",""3"",""42290""
""focus"",""3"",""47189""
","""event"",""trial"",""time""
""blur"",""2"",""9842""
""blur"",""3"",""42290""
","""event"",""trial"",""time""
""focus"",""2"",""15301""
""focus"",""3"",""47189""
","""event"",""trial"",""time""
""fullscreenenter"",""0"",""5844""
","""event"",""trial"",""time""
""fullscreenexit"",""2"",""8471""
","null","run_exp/static/images/blank.png","null","","","","","","learn","SR",""
"","html-keyboard-response","138","165394","0.0-138.0","""event"",""trial"",""time""
""fullscreenenter"",""0"",""5844""
""fullscreenexit"",""2"",""8471""
""blur"",""2"",""9842""
""focus"",""2"",""15301""
""blur"",""3"",""42290""
""focus"",""3"",""47189""
","""event"",""trial"",""time""
""blur"",""2"",""9842""
""blur"",""3"",""42290""
","""event"",""trial"",""time""
""focus"",""2"",""15301""
""focus"",""3"",""47189""
","""event"",""trial"",""time""
""fullscreenenter"",""0"",""5844""
","""event"",""trial"",""time""
""fullscreenexit"",""2"",""8471""
","null","<p></p>","null","","","","","","","",""
"","image","139","166023","0.0-139.0","""event"",""trial"",""time""
""fullscreenenter"",""0"",""5844""
""fullscreenexit"",""2"",""8471""
""blur"",""2"",""9842""
""focus"",""2"",""15301""
""blur"",""3"",""42290""
""focus"",""3"",""47189""
","""event"",""trial"",""time""
""blur"",""2"",""9842""
""blur"",""3"",""42290""
","""event"",""trial"",""time""
""focus"",""2"",""15301""
""focus"",""3"",""47189""
","""event"",""trial"",""time""
""fullscreenenter"",""0"",""5844""
","""event"",""trial"",""time""
""fullscreenexit"",""2"",""8471""
","627.3999999985099","run_exp/static/images/Set 6_rs/023a.jpg","86","","","","","","learn","SR",""
"","show_choice","140","167398","0.0-140.0","""event"",""trial"",""time""
""fullscreenenter"",""0"",""5844""
""fullscreenexit"",""2"",""8471""
""blur"",""2"",""9842""
""focus"",""2"",""15301""
""blur"",""3"",""42290""
""focus"",""3"",""47189""
","""event"",""trial"",""time""
""blur"",""2"",""9842""
""blur"",""3"",""42290""
","""event"",""trial"",""time""
""focus"",""2"",""15301""
""focus"",""3"",""47189""
","""event"",""trial"",""time""
""fullscreenenter"",""0"",""5844""
","""event"",""trial"",""time""
""fullscreenexit"",""2"",""8471""
","null","run_exp/static/images/Set 6_rs/023a.jpg","null","","","","","","learn","SR",""
"","html-keyboard-response","141","167903","0.0-141.0","""event"",""trial"",""time""
""fullscreenenter"",""0"",""5844""
""fullscreenexit"",""2"",""8471""
""blur"",""2"",""9842""
""focus"",""2"",""15301""
""blur"",""3"",""42290""
""focus"",""3"",""47189""
","""event"",""trial"",""time""
""blur"",""2"",""9842""
""blur"",""3"",""42290""
","""event"",""trial"",""time""
""focus"",""2"",""15301""
""focus"",""3"",""47189""
","""event"",""trial"",""time""
""fullscreenenter"",""0"",""5844""
","""event"",""trial"",""time""
""fullscreenexit"",""2"",""8471""
","null","<p></p>","null","","","","","","","",""
"","image","142","168677","0.0-142.0","""event"",""trial"",""time""
""fullscreenenter"",""0"",""5844""
""fullscreenexit"",""2"",""8471""
""blur"",""2"",""9842""
""focus"",""2"",""15301""
""blur"",""3"",""42290""
""focus"",""3"",""47189""
","""event"",""trial"",""time""
""blur"",""2"",""9842""
""blur"",""3"",""42290""
","""event"",""trial"",""time""
""focus"",""2"",""15301""
""focus"",""3"",""47189""
","""event"",""trial"",""time""
""fullscreenenter"",""0"",""5844""
","""event"",""trial"",""time""
""fullscreenexit"",""2"",""8471""
","772.5","run_exp/static/images/Set 6_rs/154a.jpg","86","","","","","","learn","SR",""
"","show_choice","143","169907","0.0-143.0","""event"",""trial"",""time""
""fullscreenenter"",""0"",""5844""
""fullscreenexit"",""2"",""8471""
""blur"",""2"",""9842""
""focus"",""2"",""15301""
""blur"",""3"",""42290""
""focus"",""3"",""47189""
","""event"",""trial"",""time""
""blur"",""2"",""9842""
""blur"",""3"",""42290""
","""event"",""trial"",""time""
""focus"",""2"",""15301""
""focus"",""3"",""47189""
","""event"",""trial"",""time""
""fullscreenenter"",""0"",""5844""
","""event"",""trial"",""time""
""fullscreenexit"",""2"",""8471""
","null","run_exp/static/images/Set 6_rs/154a.jpg","null","","","","","","learn","SR",""
"","html-keyboard-response","144","170410","0.0-144.0","""event"",""trial"",""time""
""fullscreenenter"",""0"",""5844""
""fullscreenexit"",""2"",""8471""
""blur"",""2"",""9842""
""focus"",""2"",""15301""
""blur"",""3"",""42290""
""focus"",""3"",""47189""
","""event"",""trial"",""time""
""blur"",""2"",""9842""
""blur"",""3"",""42290""
","""event"",""trial"",""time""
""focus"",""2"",""15301""
""focus"",""3"",""47189""
","""event"",""trial"",""time""
""fullscreenenter"",""0"",""5844""
","""event"",""trial"",""time""
""fullscreenexit"",""2"",""8471""
","null","<p></p>","null","","","","","","","",""
"","image","145","171425","0.0-145.0","""event"",""trial"",""time""
""fullscreenenter"",""0"",""5844""
""fullscreenexit"",""2"",""8471""
""blur"",""2"",""9842""
""focus"",""2"",""15301""
""blur"",""3"",""42290""
""focus"",""3"",""47189""
","""event"",""trial"",""time""
""blur"",""2"",""9842""
""blur"",""3"",""42290""
","""event"",""trial"",""time""
""focus"",""2"",""15301""
""focus"",""3"",""47189""
","""event"",""trial"",""time""
""fullscreenenter"",""0"",""5844""
","""event"",""trial"",""time""
""fullscreenexit"",""2"",""8471""
","1012.6000000014901","run_exp/static/images/Set 6_rs/169a.jpg","78","","","","","","learn","SR",""
"","show_choice","146","172415","0.0-146.0","""event"",""trial"",""time""
""fullscreenenter"",""0"",""5844""
""fullscreenexit"",""2"",""8471""
""blur"",""2"",""9842""
""focus"",""2"",""15301""
""blur"",""3"",""42290""
""focus"",""3"",""47189""
","""event"",""trial"",""time""
""blur"",""2"",""9842""
""blur"",""3"",""42290""
","""event"",""trial"",""time""
""focus"",""2"",""15301""
""focus"",""3"",""47189""
","""event"",""trial"",""time""
""fullscreenenter"",""0"",""5844""
","""event"",""trial"",""time""
""fullscreenexit"",""2"",""8471""
","null","run_exp/static/images/Set 6_rs/169a.jpg","null","","","","","","learn","SR",""
"","html-keyboard-response","147","172921","0.0-147.0","""event"",""trial"",""time""
""fullscreenenter"",""0"",""5844""
""fullscreenexit"",""2"",""8471""
""blur"",""2"",""9842""
""focus"",""2"",""15301""
""blur"",""3"",""42290""
""focus"",""3"",""47189""
","""event"",""trial"",""time""
""blur"",""2"",""9842""
""blur"",""3"",""42290""
","""event"",""trial"",""time""
""focus"",""2"",""15301""
""focus"",""3"",""47189""
","""event"",""trial"",""time""
""fullscreenenter"",""0"",""5844""
","""event"",""trial"",""time""
""fullscreenexit"",""2"",""8471""
","null","<p></p>","null","","","","","","","",""
"","image","148","173611","0.0-148.0","""event"",""trial"",""time""
""fullscreenenter"",""0"",""5844""
""fullscreenexit"",""2"",""8471""
""blur"",""2"",""9842""
""focus"",""2"",""15301""
""blur"",""3"",""42290""
""focus"",""3"",""47189""
","""event"",""trial"",""time""
""blur"",""2"",""9842""
""blur"",""3"",""42290""
","""event"",""trial"",""time""
""focus"",""2"",""15301""
""focus"",""3"",""47189""
","""event"",""trial"",""time""
""fullscreenenter"",""0"",""5844""
","""event"",""trial"",""time""
""fullscreenexit"",""2"",""8471""
","688.6999999992549","run_exp/static/images/Set 6_rs/138a.jpg","78","","","","","","learn","SL",""
"","show_choice","149","174926","0.0-149.0","""event"",""trial"",""time""
""fullscreenenter"",""0"",""5844""
""fullscreenexit"",""2"",""8471""
""blur"",""2"",""9842""
""focus"",""2"",""15301""
""blur"",""3"",""42290""
""focus"",""3"",""47189""
","""event"",""trial"",""time""
""blur"",""2"",""9842""
""blur"",""3"",""42290""
","""event"",""trial"",""time""
""focus"",""2"",""15301""
""focus"",""3"",""47189""
","""event"",""trial"",""time""
""fullscreenenter"",""0"",""5844""
","""event"",""trial"",""time""
""fullscreenexit"",""2"",""8471""
","null","run_exp/static/images/Set 6_rs/138a.jpg","null","","","","","","learn","SL",""
"","html-keyboard-response","150","175427","0.0-150.0","""event"",""trial"",""time""
""fullscreenenter"",""0"",""5844""
""fullscreenexit"",""2"",""8471""
""blur"",""2"",""9842""
""focus"",""2"",""15301""
""blur"",""3"",""42290""
""focus"",""3"",""47189""
","""event"",""trial"",""time""
""blur"",""2"",""9842""
""blur"",""3"",""42290""
","""event"",""trial"",""time""
""focus"",""2"",""15301""
""focus"",""3"",""47189""
","""event"",""trial"",""time""
""fullscreenenter"",""0"",""5844""
","""event"",""trial"",""time""
""fullscreenexit"",""2"",""8471""
","null","<p></p>","null","","","","","","","",""
"","image","151","176121","0.0-151.0","""event"",""trial"",""time""
""fullscreenenter"",""0"",""5844""
""fullscreenexit"",""2"",""8471""
""blur"",""2"",""9842""
""focus"",""2"",""15301""
""blur"",""3"",""42290""
""focus"",""3"",""47189""
","""event"",""trial"",""time""
""blur"",""2"",""9842""
""blur"",""3"",""42290""
","""event"",""trial"",""time""
""focus"",""2"",""15301""
""focus"",""3"",""47189""
","""event"",""trial"",""time""
""fullscreenenter"",""0"",""5844""
","""event"",""trial"",""time""
""fullscreenexit"",""2"",""8471""
","692.1999999992549","run_exp/static/images/Set 6_rs/116a.jpg","86","","","","","","learn","SL",""
"","show_choice","152","177432","0.0-152.0","""event"",""trial"",""time""
""fullscreenenter"",""0"",""5844""
""fullscreenexit"",""2"",""8471""
""blur"",""2"",""9842""
""focus"",""2"",""15301""
""blur"",""3"",""42290""
""focus"",""3"",""47189""
","""event"",""trial"",""time""
""blur"",""2"",""9842""
""blur"",""3"",""42290""
","""event"",""trial"",""time""
""focus"",""2"",""15301""
""focus"",""3"",""47189""
","""event"",""trial"",""time""
""fullscreenenter"",""0"",""5844""
","""event"",""trial"",""time""
""fullscreenexit"",""2"",""8471""
","null","run_exp/static/images/Set 6_rs/116a.jpg","null","","","","","","learn","SL",""
"","html-keyboard-response","153","177936","0.0-153.0","""event"",""trial"",""time""
""fullscreenenter"",""0"",""5844""
""fullscreenexit"",""2"",""8471""
""blur"",""2"",""9842""
""focus"",""2"",""15301""
""blur"",""3"",""42290""
""focus"",""3"",""47189""
","""event"",""trial"",""time""
""blur"",""2"",""9842""
""blur"",""3"",""42290""
","""event"",""trial"",""time""
""focus"",""2"",""15301""
""focus"",""3"",""47189""
","""event"",""trial"",""time""
""fullscreenenter"",""0"",""5844""
","""event"",""trial"",""time""
""fullscreenexit"",""2"",""8471""
","null","<p></p>","null","","","","","","","",""
"","image","154","178497","0.0-154.0","""event"",""trial"",""time""
""fullscreenenter"",""0"",""5844""
""fullscreenexit"",""2"",""8471""
""blur"",""2"",""9842""
""focus"",""2"",""15301""
""blur"",""3"",""42290""
""focus"",""3"",""47189""
","""event"",""trial"",""time""
""blur"",""2"",""9842""
""blur"",""3"",""42290""
","""event"",""trial"",""time""
""focus"",""2"",""15301""
""focus"",""3"",""47189""
","""event"",""trial"",""time""
""fullscreenenter"",""0"",""5844""
","""event"",""trial"",""time""
""fullscreenexit"",""2"",""8471""
","559.3000000007451","run_exp/static/images/Set 6_rs/007a.jpg","86","","","","","","learn","SR",""
"","show_choice","155","179938","0.0-155.0","""event"",""trial"",""time""
