"success","trial_type","trial_index","time_elapsed","internal_node_id","interactions","blur_events","focus_events","fullscreenenter_events","fullscreenexit_events","rt","stimulus","key_press","subject_id","participant_id","age","gender","prompt","phase","condition","lure_bin"
"true","fullscreen","0","3186","0.0-0.0","""event"",""trial"",""time""
""fullscreenenter"",""0"",""2191""
","
","
","""event"",""trial"",""time""
""fullscreenenter"",""0"",""2191""
","
","","","","","","","","","","",""
"","pavlovia","1","3193","0.0-1.0","""event"",""trial"",""time""
""fullscreenenter"",""0"",""2191""
","
","
","""event"",""trial"",""time""
""fullscreenenter"",""0"",""2191""
","
","","","","","","","","","","",""
"","welcome","2","38049","0.0-2.0","""event"",""trial"",""time""
""fullscreenenter"",""0"",""2191""
","
","
","""event"",""trial"",""time""
""fullscreenenter"",""0"",""2191""
","
","null","run_exp/static/audio/clip_1_welcome.m4a","null","584","293","19","Female","<div class='center'><p>Welcome to the third part of the study! First, you'll be shown pictures of items one at a time. For each picture, you have to decide if the item is typically found indoors or outdoors.</p><p>If you think it's usually found indoors, then press <b>v</b> key on your keyboard. If you think it's usually found outdoors, then press the <b>n</b> key.There will be reminders on the screen to help you remember which keys to press. </p><p>If you're not sure whether the item is an indoor item or an outdoor item, go ahead and take a guess but try your best not to skip that choice. </p></div>","","",""
"","html-keyboard-response","3","38110","0.0-3.0","""event"",""trial"",""time""
""fullscreenenter"",""0"",""2191""
","
","
","""event"",""trial"",""time""
""fullscreenenter"",""0"",""2191""
","
","57.20000000111759","<div class='center'><p>Welcome to the third part of the study! First, you'll be shown pictures of items one at a time. For each picture, you have to decide if the item is typically found indoors or outdoors.</p><p>If you think it's usually found indoors, then press <b>v</b> key on your keyboard. If you think it's usually found outdoors, then press the <b>n</b> key.There will be reminders on the screen to help you remember which keys to press. </p><p>If you're not sure whether the item is an indoor item or an outdoor item, go ahead and take a guess but try your best not to skip that choice. </p><div><p><b>[Press the space bar to continue]</b></p></div>","32","","","","","","","",""
"","image","4","39768","0.0-4.0","""event"",""trial"",""time""
""fullscreenenter"",""0"",""2191""
","
","
","""event"",""trial"",""time""
""fullscreenenter"",""0"",""2191""
","
","1656.699999999255","run_exp/static/images/Set 6_rs/138a.jpg","86","","","","","","learn","SL",""
"","show_choice","5","40114","0.0-5.0","""event"",""trial"",""time""
""fullscreenenter"",""0"",""2191""
","
","
","""event"",""trial"",""time""
""fullscreenenter"",""0"",""2191""
","
","null","run_exp/static/images/Set 6_rs/138a.jpg","null","","","","","","learn","SL",""
"","html-keyboard-response","6","40620","0.0-6.0","""event"",""trial"",""time""
""fullscreenenter"",""0"",""2191""
","
","
","""event"",""trial"",""time""
""fullscreenenter"",""0"",""2191""
","
","null","<p></p>","null","","","","","","","",""
"","image","7","41944","0.0-7.0","""event"",""trial"",""time""
""fullscreenenter"",""0"",""2191""
","
","
","""event"",""trial"",""time""
""fullscreenenter"",""0"",""2191""
","
","1322.2999999988824","run_exp/static/images/Set 6_rs/088a.jpg","86","","","","","","learn","SR",""
"","show_choice","8","42623","0.0-8.0","""event"",""trial"",""time""
""fullscreenenter"",""0"",""2191""
","
","
","""event"",""trial"",""time""
""fullscreenenter"",""0"",""2191""
","
","null","run_exp/static/images/Set 6_rs/088a.jpg","null","","","","","","learn","SR",""
"","html-keyboard-response","9","43128","0.0-9.0","""event"",""trial"",""time""
""fullscreenenter"",""0"",""2191""
","
","
","""event"",""trial"",""time""
""fullscreenenter"",""0"",""2191""
","
","null","<p></p>","null","","","","","","","",""
"","image","10","44614","0.0-10.0","""event"",""trial"",""time""
""fullscreenenter"",""0"",""2191""
","
","
","""event"",""trial"",""time""
""fullscreenenter"",""0"",""2191""
","
","1484.199999999255","run_exp/static/images/Set 6_rs/075a.jpg","86","","","","","","learn","SR",""
"","show_choice","11","45133","0.0-11.0","""event"",""trial"",""time""
""fullscreenenter"",""0"",""2191""
","
","
","""event"",""trial"",""time""
""fullscreenenter"",""0"",""2191""
","
","null","run_exp/static/images/Set 6_rs/075a.jpg","null","","","","","","learn","SR",""
"","html-keyboard-response","12","45641","0.0-12.0","""event"",""trial"",""time""
""fullscreenenter"",""0"",""2191""
","
","
","""event"",""trial"",""time""
""fullscreenenter"",""0"",""2191""
","
","null","<p></p>","null","","","","","","","",""
"","image","13","46906","0.0-13.0","""event"",""trial"",""time""
""fullscreenenter"",""0"",""2191""
","
","
","""event"",""trial"",""time""
""fullscreenenter"",""0"",""2191""
","
","1261.3999999985099","run_exp/static/images/Set 6_rs/024a.jpg","86","","","","","","learn","SR",""
"","show_choice","14","47646","0.0-14.0","""event"",""trial"",""time""
""fullscreenenter"",""0"",""2191""
","
","
","""event"",""trial"",""time""
""fullscreenenter"",""0"",""2191""
","
","null","run_exp/static/images/Set 6_rs/024a.jpg","null","","","","","","learn","SR",""
"","html-keyboard-response","15","48155","0.0-15.0","""event"",""trial"",""time""
""fullscreenenter"",""0"",""2191""
","
","
","""event"",""trial"",""time""
""fullscreenenter"",""0"",""2191""
","
","null","<p></p>","null","","","","","","","",""
"","image","16","49305","0.0-16.0","""event"",""trial"",""time""
""fullscreenenter"",""0"",""2191""
","
","
","""event"",""trial"",""time""
""fullscreenenter"",""0"",""2191""
","
","1148.4000000003725","run_exp/static/images/Set 6_rs/019a.jpg","78","","","","","","learn","SL",""
"","show_choice","17","50165","0.0-17.0","""event"",""trial"",""time""
""fullscreenenter"",""0"",""2191""
","
","
","""event"",""trial"",""time""
""fullscreenenter"",""0"",""2191""
","
","null","run_exp/static/images/Set 6_rs/019a.jpg","null","","","","","","learn","SL",""
"","html-keyboard-response","18","50670","0.0-18.0","""event"",""trial"",""time""
""fullscreenenter"",""0"",""2191""
","
","
","""event"",""trial"",""time""
""fullscreenenter"",""0"",""2191""
","
","null","<p></p>","null","","","","","","","",""
"","image","19","51380","0.0-19.0","""event"",""trial"",""time""
""fullscreenenter"",""0"",""2191""
","
","
","""event"",""trial"",""time""
""fullscreenenter"",""0"",""2191""
","
","707.6999999992549","run_exp/static/images/Set 6_rs/074a.jpg","78","","","","","","learn","SL",""
"","show_choice","20","52679","0.0-20.0","""event"",""trial"",""time""
""fullscreenenter"",""0"",""2191""
","
","
","""event"",""trial"",""time""
""fullscreenenter"",""0"",""2191""
","
","null","run_exp/static/images/Set 6_rs/074a.jpg","null","","","","","","learn","SL",""
"","html-keyboard-response","21","53186","0.0-21.0","""event"",""trial"",""time""
""fullscreenenter"",""0"",""2191""
","
","
","""event"",""trial"",""time""
""fullscreenenter"",""0"",""2191""
","
","null","<p></p>","null","","","","","","","",""
"","image","22","54112","0.0-22.0","""event"",""trial"",""time""
""fullscreenenter"",""0"",""2191""
","
","
","""event"",""trial"",""time""
""fullscreenenter"",""0"",""2191""
","
","923.2000000011176","run_exp/static/images/Set 6_rs/055a.jpg","86","","","","","","learn","SL",""
"","show_choice","23","55192","0.0-23.0","""event"",""trial"",""time""
""fullscreenenter"",""0"",""2191""
","
","
","""event"",""trial"",""time""
""fullscreenenter"",""0"",""2191""
","
","null","run_exp/static/images/Set 6_rs/055a.jpg","null","","","","","","learn","SL",""
"","html-keyboard-response","24","55696","0.0-24.0","""event"",""trial"",""time""
""fullscreenenter"",""0"",""2191""
","
","
","""event"",""trial"",""time""
""fullscreenenter"",""0"",""2191""
","
","null","<p></p>","null","","","","","","","",""
"","image","25","56505","0.0-25.0","""event"",""trial"",""time""
""fullscreenenter"",""0"",""2191""
","
","
","""event"",""trial"",""time""
""fullscreenenter"",""0"",""2191""
","
","807.2999999988824","run_exp/static/images/Set 6_rs/111a.jpg","86","","","","","","learn","SL",""
"","show_choice","26","57700","0.0-26.0","""event"",""trial"",""time""
""fullscreenenter"",""0"",""2191""
","
","
","""event"",""trial"",""time""
""fullscreenenter"",""0"",""2191""
","
","null","run_exp/static/images/Set 6_rs/111a.jpg","null","","","","","","learn","SL",""
"","html-keyboard-response","27","58208","0.0-27.0","""event"",""trial"",""time""
""fullscreenenter"",""0"",""2191""
","
","
","""event"",""trial"",""time""
""fullscreenenter"",""0"",""2191""
","
","null","<p></p>","null","","","","","","","",""
"","image","28","59359","0.0-28.0","""event"",""trial"",""time""
""fullscreenenter"",""0"",""2191""
","
","
","""event"",""trial"",""time""
""fullscreenenter"",""0"",""2191""
","
","1148.9000000003725","run_exp/static/images/Set 6_rs/023a.jpg","78","","","","","","learn","SR",""
"","show_choice","29","60211","0.0-29.0","""event"",""trial"",""time""
""fullscreenenter"",""0"",""2191""
","
","
","""event"",""trial"",""time""
""fullscreenenter"",""0"",""2191""
","
","null","run_exp/static/images/Set 6_rs/023a.jpg","null","","","","","","learn","SR",""
"","html-keyboard-response","30","60720","0.0-30.0","""event"",""trial"",""time""
""fullscreenenter"",""0"",""2191""
","
","
","""event"",""trial"",""time""
""fullscreenenter"",""0"",""2191""
","
","null","<p></p>","null","","","","","","","",""
"","image","31","61821","0.0-31.0","""event"",""trial"",""time""
""fullscreenenter"",""0"",""2191""
","
","
","""event"",""trial"",""time""
""fullscreenenter"",""0"",""2191""
","
","1098.9000000003725","run_exp/static/images/Set 6_rs/177a.jpg","78","","","","","","learn","SR",""
"","show_choice","32","62728","0.0-32.0","""event"",""trial"",""time""
""fullscreenenter"",""0"",""2191""
","
","
","""event"",""trial"",""time""
""fullscreenenter"",""0"",""2191""
","
","null","run_exp/static/images/Set 6_rs/177a.jpg","null","","","","","","learn","SR",""
"","html-keyboard-response","33","63235","0.0-33.0","""event"",""trial"",""time""
""fullscreenenter"",""0"",""2191""
","
","
","""event"",""trial"",""time""
""fullscreenenter"",""0"",""2191""
","
","null","<p></p>","null","","","","","","","",""
"","image","34","64494","0.0-34.0","""event"",""trial"",""time""
""fullscreenenter"",""0"",""2191""
","
","
","""event"",""trial"",""time""
""fullscreenenter"",""0"",""2191""
","
","1257.2000000011176","run_exp/static/images/Set 6_rs/187a.jpg","78","","","","","","learn","SR",""
"","show_choice","35","65238","0.0-35.0","""event"",""trial"",""time""
""fullscreenenter"",""0"",""2191""
","
","
","""event"",""trial"",""time""
""fullscreenenter"",""0"",""2191""
","
","null","run_exp/static/images/Set 6_rs/187a.jpg","null","","","","","","learn","SR",""
"","html-keyboard-response","36","65745","0.0-36.0","""event"",""trial"",""time""
""fullscreenenter"",""0"",""2191""
","
","
","""event"",""trial"",""time""
""fullscreenenter"",""0"",""2191""
","
","null","<p></p>","null","","","","","","","",""
"","image","37","66538","0.0-37.0","""event"",""trial"",""time""
""fullscreenenter"",""0"",""2191""
","
","
","""event"",""trial"",""time""
""fullscreenenter"",""0"",""2191""
","
","790.8999999985099","run_exp/static/images/Set 6_rs/134a.jpg","86","","","","","","learn","SR",""
"","show_choice","38","67755","0.0-38.0","""event"",""trial"",""time""
""fullscreenenter"",""0"",""2191""
","
","
","""event"",""trial"",""time""
""fullscreenenter"",""0"",""2191""
","
","null","run_exp/static/images/Set 6_rs/134a.jpg","null","","","","","","learn","SR",""
"","html-keyboard-response","39","68261","0.0-39.0","""event"",""trial"",""time""
""fullscreenenter"",""0"",""2191""
","
","
","""event"",""trial"",""time""
""fullscreenenter"",""0"",""2191""
","
","null","<p></p>","null","","","","","","","",""
"","image","40","69102","0.0-40.0","""event"",""trial"",""time""
""fullscreenenter"",""0"",""2191""
","
","
","""event"",""trial"",""time""
""fullscreenenter"",""0"",""2191""
","
","838.3000000007451","run_exp/static/images/Set 6_rs/091a.jpg","78","","","","","","learn","SL",""
"","show_choice","41","70269","0.0-41.0","""event"",""trial"",""time""
""fullscreenenter"",""0"",""2191""
","
","
","""event"",""trial"",""time""
""fullscreenenter"",""0"",""2191""
","
","null","run_exp/static/images/Set 6_rs/091a.jpg","null","","","","","","learn","SL",""
"","html-keyboard-response","42","70778","0.0-42.0","""event"",""trial"",""time""
""fullscreenenter"",""0"",""2191""
","
","
","""event"",""trial"",""time""
""fullscreenenter"",""0"",""2191""
","
","null","<p></p>","null","","","","","","","",""
"","image","43","72044","0.0-43.0","""event"",""trial"",""time""
""fullscreenenter"",""0"",""2191""
","
","
","""event"",""trial"",""time""
""fullscreenenter"",""0"",""2191""
","
","1263.300000000745","run_exp/static/images/Set 6_rs/168a.jpg","86","","","","","","learn","SL",""
"","show_choice","44","72786","0.0-44.0","""event"",""trial"",""time""
""fullscreenenter"",""0"",""2191""
","
","
","""event"",""trial"",""time""
""fullscreenenter"",""0"",""2191""
","
","null","run_exp/static/images/Set 6_rs/168a.jpg","null","","","","","","learn","SL",""
"","html-keyboard-response","45","73288","0.0-45.0","""event"",""trial"",""time""
""fullscreenenter"",""0"",""2191""
","
","
","""event"",""trial"",""time""
""fullscreenenter"",""0"",""2191""
","
","null","<p></p>","null","","","","","","","",""
"","image","46","74740","0.0-46.0","""event"",""trial"",""time""
""fullscreenenter"",""0"",""2191""
","
","
","""event"",""trial"",""time""
""fullscreenenter"",""0"",""2191""
","
","1449.199999999255","run_exp/static/images/Set 6_rs/144a.jpg","86","","","","","","learn","SL",""
"","show_choice","47","75292","0.0-47.0","""event"",""trial"",""time""
""fullscreenenter"",""0"",""2191""
","
","
","""event"",""trial"",""time""
""fullscreenenter"",""0"",""2191""
","
","null","run_exp/static/images/Set 6_rs/144a.jpg","null","","","","","","learn","SL",""
"","html-keyboard-response","48","75800","0.0-48.0","""event"",""trial"",""time""
""fullscreenenter"",""0"",""2191""
","
","
","""event"",""trial"",""time""
""fullscreenenter"",""0"",""2191""
","
","null","<p></p>","null","","","","","","","",""
"","image","49","76541","0.0-49.0","""event"",""trial"",""time""
""fullscreenenter"",""0"",""2191""
","
","
","""event"",""trial"",""time""
""fullscreenenter"",""0"",""2191""
","
","738.1999999992549","run_exp/static/images/Set 6_rs/186a.jpg","86","","","","","","learn","SR",""
"","show_choice","50","77810","0.0-50.0","""event"",""trial"",""time""
""fullscreenenter"",""0"",""2191""
","
","
","""event"",""trial"",""time""
""fullscreenenter"",""0"",""2191""
","
","null","run_exp/static/images/Set 6_rs/186a.jpg","null","","","","","","learn","SR",""
"","html-keyboard-response","51","78313","0.0-51.0","""event"",""trial"",""time""
""fullscreenenter"",""0"",""2191""
","
","
","""event"",""trial"",""time""
""fullscreenenter"",""0"",""2191""
","
","null","<p></p>","null","","","","","","","",""
"","image","52","79232","0.0-52.0","""event"",""trial"",""time""
""fullscreenenter"",""0"",""2191""
","
","
","""event"",""trial"",""time""
""fullscreenenter"",""0"",""2191""
","
","917.0999999996275","run_exp/static/images/Set 6_rs/036a.jpg","78","","","","","","learn","SL",""
"","show_choice","53","80320","0.0-53.0","""event"",""trial"",""time""
""fullscreenenter"",""0"",""2191""
","
","
","""event"",""trial"",""time""
""fullscreenenter"",""0"",""2191""
","
","null","run_exp/static/images/Set 6_rs/036a.jpg","null","","","","","","learn","SL",""
"","html-keyboard-response","54","80829","0.0-54.0","""event"",""trial"",""time""
""fullscreenenter"",""0"",""2191""
","
","
","""event"",""trial"",""time""
""fullscreenenter"",""0"",""2191""
","
","null","<p></p>","null","","","","","","","",""
"","image","55","81796","0.0-55.0","""event"",""trial"",""time""
""fullscreenenter"",""0"",""2191""
","
","
","""event"",""trial"",""time""
""fullscreenenter"",""0"",""2191""
","
","964.6000000014901","run_exp/static/images/Set 6_rs/172a.jpg","78","","","","","","learn","SR",""
"","show_choice","56","82837","0.0-56.0","""event"",""trial"",""time""
""fullscreenenter"",""0"",""2191""
","
","
","""event"",""trial"",""time""
""fullscreenenter"",""0"",""2191""
","
","null","run_exp/static/images/Set 6_rs/172a.jpg","null","","","","","","learn","SR",""
"","html-keyboard-response","57","83340","0.0-57.0","""event"",""trial"",""time""
""fullscreenenter"",""0"",""2191""
","
","
","""event"",""trial"",""time""
""fullscreenenter"",""0"",""2191""
","
","null","<p></p>","null","","","","","","","",""
"","image","58","84104","0.0-58.0","""event"",""trial"",""time""
""fullscreenenter"",""0"",""2191""
","
","
","""event"",""trial"",""time""
""fullscreenenter"",""0"",""2191""
","
","761.4000000003725","run_exp/static/images/Set 6_rs/070a.jpg","86","","","","","","learn","SR",""
"","show_choice","59","85347","0.0-59.0","""event"",""trial"",""time""
""fullscreenenter"",""0"",""2191""
","
","
","""event"",""trial"",""time""
""fullscreenenter"",""0"",""2191""
","
","null","run_exp/static/images/Set 6_rs/070a.jpg","null","","","","","","learn","SR",""
"","html-keyboard-response","60","85856","0.0-60.0","""event"",""trial"",""time""
""fullscreenenter"",""0"",""2191""
","
","
","""event"",""trial"",""time""
""fullscreenenter"",""0"",""2191""
","
","null","<p></p>","null","","","","","","","",""
"","image","61","86881","0.0-61.0","""event"",""trial"",""time""
""fullscreenenter"",""0"",""2191""
","
","
","""event"",""trial"",""time""
""fullscreenenter"",""0"",""2191""
","
","1023.0999999996275","run_exp/static/images/Set 6_rs/126a.jpg","78","","","","","","learn","SR",""
"","show_choice","62","87861","0.0-62.0","""event"",""trial"",""time""
""fullscreenenter"",""0"",""2191""
","
","
","""event"",""trial"",""time""
""fullscreenenter"",""0"",""2191""
","
","null","run_exp/static/images/Set 6_rs/126a.jpg","null","","","","","","learn","SR",""
"","html-keyboard-response","63","88366","0.0-63.0","""event"",""trial"",""time""
""fullscreenenter"",""0"",""2191""
","
","
","""event"",""trial"",""time""
""fullscreenenter"",""0"",""2191""
","
","null","<p></p>","null","","","","","","","",""
"","image","64","89514","0.0-64.0","""event"",""trial"",""time""
""fullscreenenter"",""0"",""2191""
","
","
","""event"",""trial"",""time""
""fullscreenenter"",""0"",""2191""
","
","1145.7999999988824","run_exp/static/images/Set 6_rs/063a.jpg","86","","","","","","learn","SR",""
"","show_choice","65","90370","0.0-65.0","""event"",""trial"",""time""
""fullscreenenter"",""0"",""2191""
","
","
","""event"",""trial"",""time""
""fullscreenenter"",""0"",""2191""
","
","null","run_exp/static/images/Set 6_rs/063a.jpg","null","","","","","","learn","SR",""
"","html-keyboard-response","66","90876","0.0-66.0","""event"",""trial"",""time""
""fullscreenenter"",""0"",""2191""
","
","
","""event"",""trial"",""time""
""fullscreenenter"",""0"",""2191""
","
","null","<p></p>","null","","","","","","","",""
"","image","67","91717","0.0-67.0","""event"",""trial"",""time""
""fullscreenenter"",""0"",""2191""
","
","
","""event"",""trial"",""time""
""fullscreenenter"",""0"",""2191""
","
","838.7999999988824","run_exp/static/images/Set 6_rs/191a.jpg","78","","","","","","learn","SL",""
"","show_choice","68","92882","0.0-68.0","""event"",""trial"",""time""
""fullscreenenter"",""0"",""2191""
","
","
","""event"",""trial"",""time""
""fullscreenenter"",""0"",""2191""
","
","null","run_exp/static/images/Set 6_rs/191a.jpg","null","","","","","","learn","SL",""
"","html-keyboard-response","69","93390","0.0-69.0","""event"",""trial"",""time""
""fullscreenenter"",""0"",""2191""
","
","
","""event"",""trial"",""time""
""fullscreenenter"",""0"",""2191""
","
","null","<p></p>","null","","","","","","","",""
"","image","70","94194","0.0-70.0","""event"",""trial"",""time""
""fullscreenenter"",""0"",""2191""
","
","
","""event"",""trial"",""time""
""fullscreenenter"",""0"",""2191""
","
","801.1999999992549","run_exp/static/images/Set 6_rs/050a.jpg","86","","","","","","learn","SL",""
"","show_choice","71","95398","0.0-71.0","""event"",""trial"",""time""
""fullscreenenter"",""0"",""2191""
","
","
","""event"",""trial"",""time""
""fullscreenenter"",""0"",""2191""
","
","null","run_exp/static/images/Set 6_rs/050a.jpg","null","","","","","","learn","SL",""
"","html-keyboard-response","72","95902","0.0-72.0","""event"",""trial"",""time""
""fullscreenenter"",""0"",""2191""
","
","
","""event"",""trial"",""time""
""fullscreenenter"",""0"",""2191""
","
","null","<p></p>","null","","","","","","","",""
"","image","73","97089","0.0-73.0","""event"",""trial"",""time""
""fullscreenenter"",""0"",""2191""
","
","
","""event"",""trial"",""time""
""fullscreenenter"",""0"",""2191""
","
","1184.4000000003725","run_exp/static/images/Set 6_rs/167a.jpg","78","","","","","","learn","SL",""
"","show_choice","74","97910","0.0-74.0","""event"",""trial"",""time""
""fullscreenenter"",""0"",""2191""
","
","
","""event"",""trial"",""time""
""fullscreenenter"",""0"",""2191""
","
","null","run_exp/static/images/Set 6_rs/167a.jpg","null","","","","","","learn","SL",""
"","html-keyboard-response","75","98413","0.0-75.0","""event"",""trial"",""time""
""fullscreenenter"",""0"",""2191""
","
","
","""event"",""trial"",""time""
""fullscreenenter"",""0"",""2191""
","
","null","<p></p>","null","","","","","","","",""
"","image","76","99567","0.0-76.0","""event"",""trial"",""time""
""fullscreenenter"",""0"",""2191""
","
","
","""event"",""trial"",""time""
""fullscreenenter"",""0"",""2191""
","
","1151.7000000011176","run_exp/static/images/Set 6_rs/012a.jpg","86","","","","","","learn","SR",""
"","show_choice","77","100417","0.0-77.0","""event"",""trial"",""time""
""fullscreenenter"",""0"",""2191""
","
","
","""event"",""trial"",""time""
""fullscreenenter"",""0"",""2191""
","
","null","run_exp/static/images/Set 6_rs/012a.jpg","null","","","","","","learn","SR",""
"","html-keyboard-response","78","100924","0.0-78.0","""event"",""trial"",""time""
""fullscreenenter"",""0"",""2191""
","
","
","""event"",""trial"",""time""
""fullscreenenter"",""0"",""2191""
","
","null","<p></p>","null","","","","","","","",""
"","image","79","102070","0.0-79.0","""event"",""trial"",""time""
""fullscreenenter"",""0"",""2191""
","
","
","""event"",""trial"",""time""
""fullscreenenter"",""0"",""2191""
","
","1144.1000000014901","run_exp/static/images/Set 6_rs/025a.jpg","78","","","","","","learn","SL",""
"","show_choice","80","102930","0.0-80.0","""event"",""trial"",""time""
""fullscreenenter"",""0"",""2191""
","
","
","""event"",""trial"",""time""
""fullscreenenter"",""0"",""2191""
","
","null","run_exp/static/images/Set 6_rs/025a.jpg","null","","","","","","learn","SL",""
"","html-keyboard-response","81","103431","0.0-81.0","""event"",""trial"",""time""
""fullscreenenter"",""0"",""2191""
","
","
","""event"",""trial"",""time""
""fullscreenenter"",""0"",""2191""
","
","null","<p></p>","null","","","","","","","",""
"","image","82","104083","0.0-82.0","""event"",""trial"",""time""
""fullscreenenter"",""0"",""2191""
","
","
","""event"",""trial"",""time""
""fullscreenenter"",""0"",""2191""
","
","650.4000000003725","run_exp/static/images/Set 6_rs/076a.jpg","78","","","","","","learn","SR",""
"","show_choice","83","105435","0.0-83.0","""event"",""trial"",""time""
""fullscreenenter"",""0"",""2191""
","
","
","""event"",""trial"",""time""
""fullscreenenter"",""0"",""2191""
","
","null","run_exp/static/images/Set 6_rs/076a.jpg","null","","","","","","learn","SR",""
"","html-keyboard-response","84","105939","0.0-84.0","""event"",""trial"",""time""
""fullscreenenter"",""0"",""2191""
","
","
","""event"",""trial"",""time""
""fullscreenenter"",""0"",""2191""
","
","null","<p></p>","null","","","","","","","",""
"","image","85","106912","0.0-85.0","""event"",""trial"",""time""
""fullscreenenter"",""0"",""2191""
","
","
","""event"",""trial"",""time""
""fullscreenenter"",""0"",""2191""
","
","971.2000000011176","run_exp/static/images/Set 6_rs/141a.jpg","86","","","","","","learn","SR",""
"","show_choice","86","107942","0.0-86.0","""event"",""trial"",""time""
""fullscreenenter"",""0"",""2191""
","
","
","""event"",""trial"",""time""
""fullscreenenter"",""0"",""2191""
","
","null","run_exp/static/images/Set 6_rs/141a.jpg","null","","","","","","learn","SR",""
"","html-keyboard-response","87","108451","0.0-87.0","""event"",""trial"",""time""
""fullscreenenter"",""0"",""2191""
","
","
","""event"",""trial"",""time""
""fullscreenenter"",""0"",""2191""
","
","null","<p></p>","null","","","","","","","",""
"","image","88","109212","0.0-88.0","""event"",""trial"",""time""
""fullscreenenter"",""0"",""2191""
","
","
","""event"",""trial"",""time""
""fullscreenenter"",""0"",""2191""
","
","758.4000000003725","run_exp/static/images/Set 6_rs/016a.jpg","86","","","","","","learn","SL",""
"","show_choice","89","110454","0.0-89.0","""event"",""trial"",""time""
""fullscreenenter"",""0"",""2191""
","
","
","""event"",""trial"",""time""
""fullscreenenter"",""0"",""2191""
","
","null","run_exp/static/images/Set 6_rs/016a.jpg","null","","","","","","learn","SL",""
"","html-keyboard-response","90","110960","0.0-90.0","""event"",""trial"",""time""
""fullscreenenter"",""0"",""2191""
","
","
","""event"",""trial"",""time""
""fullscreenenter"",""0"",""2191""
","
","null","<p></p>","null","","","","","","","",""
"","image","91","111565","0.0-91.0","""event"",""trial"",""time""
""fullscreenenter"",""0"",""2191""
","
","
","""event"",""trial"",""time""
""fullscreenenter"",""0"",""2191""
","
","603.4000000003725","run_exp/static/images/Set 6_rs/008a.jpg","78","","","","","","learn","SL",""
"","show_choice","92","112964","0.0-92.0","""event"",""trial"",""time""
""fullscreenenter"",""0"",""2191""
","
","
","""event"",""trial"",""time""
""fullscreenenter"",""0"",""2191""
","
","null","run_exp/static/images/Set 6_rs/008a.jpg","null","","","","","","learn","SL",""
"","html-keyboard-response","93","113473","0.0-93.0","""event"",""trial"",""time""
""fullscreenenter"",""0"",""2191""
","
","
","""event"",""trial"",""time""
""fullscreenenter"",""0"",""2191""
","
","null","<p></p>","null","","","","","","","",""
"","image","94","114272","0.0-94.0","""event"",""trial"",""time""
""fullscreenenter"",""0"",""2191""
","
","
","""event"",""trial"",""time""
""fullscreenenter"",""0"",""2191""
","
","797.3999999985099","run_exp/static/images/Set 6_rs/061a.jpg","78","","","","","","learn","SR",""
"","show_choice","95","115478","0.0-95.0","""event"",""trial"",""time""
""fullscreenenter"",""0"",""2191""
","
","
","""event"",""trial"",""time""
""fullscreenenter"",""0"",""2191""
","
","null","run_exp/static/images/Set 6_rs/061a.jpg","null","","","","","","learn","SR",""
"","html-keyboard-response","96","115983","0.0-96.0","""event"",""trial"",""time""
""fullscreenenter"",""0"",""2191""
","
","
","""event"",""trial"",""time""
""fullscreenenter"",""0"",""2191""
","
","null","<p></p>","null","","","","","","","",""
"","image","97","116611","0.0-97.0","""event"",""trial"",""time""
""fullscreenenter"",""0"",""2191""
","
","
","""event"",""trial"",""time""
""fullscreenenter"",""0"",""2191""
","
","625.2000000011176","run_exp/static/images/Set 6_rs/112a.jpg","86","","","","","","learn","SR",""
"","show_choice","98","117987","0.0-98.0","""event"",""trial"",""time""
""fullscreenenter"",""0"",""2191""
","
","
","""event"",""trial"",""time""
""fullscreenenter"",""0"",""2191""
","
","null","run_exp/static/images/Set 6_rs/112a.jpg","null","","","","","","learn","SR",""
"","html-keyboard-response","99","118491","0.0-99.0","""event"",""trial"",""time""
""fullscreenenter"",""0"",""2191""
","
","
","""event"",""trial"",""time""
""fullscreenenter"",""0"",""2191""
","
","null","<p></p>","null","","","","","","","",""
"","image","100","119243","0.0-100.0","""event"",""trial"",""time""
""fullscreenenter"",""0"",""2191""
","
","
","""event"",""trial"",""time""
""fullscreenenter"",""0"",""2191""
","
","749.5","run_exp/static/images/Set 6_rs/014a.jpg","86","","","","","","learn","SL",""
"","show_choice","101","120495","0.0-101.0","""event"",""trial"",""time""
""fullscreenenter"",""0"",""2191""
","
","
","""event"",""trial"",""time""
""fullscreenenter"",""0"",""2191""
","
","null","run_exp/static/images/Set 6_rs/014a.jpg","null","","","","","","learn","SL",""
"","html-keyboard-response","102","120996","0.0-102.0","""event"",""trial"",""time""
""fullscreenenter"",""0"",""2191""
","
","
","""event"",""trial"",""time""
""fullscreenenter"",""0"",""2191""
","
","null","<p></p>","null","","","","","","","",""
"","image","103","122017","0.0-103.0","""event"",""trial"",""time""
""fullscreenenter"",""0"",""2191""
","
","
","""event"",""trial"",""time""
""fullscreenenter"",""0"",""2191""
","
","1019.2999999988824","run_exp/static/images/Set 6_rs/129a.jpg","86","","","","","","learn","SL",""
"","show_choice","104","122999","0.0-104.0","""event"",""trial"",""time""
""fullscreenenter"",""0"",""2191""
","
","
","""event"",""trial"",""time""
""fullscreenenter"",""0"",""2191""
","
","null","run_exp/static/images/Set 6_rs/129a.jpg","null","","","","","","learn","SL",""
"","html-keyboard-response","105","123502","0.0-105.0","""event"",""trial"",""time""
""fullscreenenter"",""0"",""2191""
","
","
","""event"",""trial"",""time""
""fullscreenenter"",""0"",""2191""
","
","null","<p></p>","null","","","","","","","",""
"","image","106","124590","0.0-106.0","""event"",""trial"",""time""
""fullscreenenter"",""0"",""2191""
","
","
","""event"",""trial"",""time""
""fullscreenenter"",""0"",""2191""
","
","1085.5","run_exp/static/images/Set 6_rs/007a.jpg","86","","","","","","learn","SR",""
"","show_choice","107","125508","0.0-107.0","""event"",""trial"",""time""
""fullscreenenter"",""0"",""2191""
","
","
","""event"",""trial"",""time""
""fullscreenenter"",""0"",""2191""
","
","null","run_exp/static/images/Set 6_rs/007a.jpg","null","","","","","","learn","SR",""
"","html-keyboard-response","108","126013","0.0-108.0","""event"",""trial"",""time""
""fullscreenenter"",""0"",""2191""
","
","
","""event"",""trial"",""time""
""fullscreenenter"",""0"",""2191""
","
","null","<p></p>","null","","","","","","","",""
"","image","109","127549","0.0-109.0","""event"",""trial"",""time""
""fullscreenenter"",""0"",""2191""
","
","
","""event"",""trial"",""time""
""fullscreenenter"",""0"",""2191""
","
","1534.4000000003725","run_exp/static/images/Set 6_rs/122a.jpg","86","","","","","","learn","SR",""
"","show_choice","110","128016","0.0-110.0","""event"",""trial"",""time""
""fullscreenenter"",""0"",""2191""
","
","
","""event"",""trial"",""time""
""fullscreenenter"",""0"",""2191""
","
","null","run_exp/static/images/Set 6_rs/122a.jpg","null","","","","","","learn","SR",""
"","html-keyboard-response","111","128521","0.0-111.0","""event"",""trial"",""time""
""fullscreenenter"",""0"",""2191""
","
","
","""event"",""trial"",""time""
""fullscreenenter"",""0"",""2191""
","
","null","<p></p>","null","","","","","","","",""
"","image","112","129303","0.0-112.0","""event"",""trial"",""time""
""fullscreenenter"",""0"",""2191""
","
","
","""event"",""trial"",""time""
""fullscreenenter"",""0"",""2191""
","
","779.6000000014901","run_exp/static/images/Set 6_rs/073a.jpg","86","","","","","","learn","SL",""
"","show_choice","113","130528","0.0-113.0","""event"",""trial"",""time""
""fullscreenenter"",""0"",""2191""
","
","
","""event"",""trial"",""time""
""fullscreenenter"",""0"",""2191""
","
","null","run_exp/static/images/Set 6_rs/073a.jpg","null","","","","","","learn","SL",""
"","html-keyboard-response","114","131031","0.0-114.0","""event"",""trial"",""time""
""fullscreenenter"",""0"",""2191""
","
","
","""event"",""trial"",""time""
""fullscreenenter"",""0"",""2191""
","
","null","<p></p>","null","","","","","","","",""
"","image","115","132142","0.0-115.0","""event"",""trial"",""time""
""fullscreenenter"",""0"",""2191""
","
","
","""event"",""trial"",""time""
""fullscreenenter"",""0"",""2191""
","
","1108.6000000014901","run_exp/static/images/Set 6_rs/121a.jpg","86","","","","","","learn","SR",""
"","show_choice","116","133035","0.0-116.0","""event"",""trial"",""time""
""fullscreenenter"",""0"",""2191""
","
","
","""event"",""trial"",""time""
""fullscreenenter"",""0"",""2191""
","
","null","run_exp/static/images/Set 6_rs/121a.jpg","null","","","","","","learn","SR",""
"","html-keyboard-response","117","133537","0.0-117.0","""event"",""trial"",""time""
""fullscreenenter"",""0"",""2191""
","
","
","""event"",""trial"",""time""
""fullscreenenter"",""0"",""2191""
","
","null","<p></p>","null","","","","","","","",""
"","image","118","134190","0.0-118.0","""event"",""trial"",""time""
""fullscreenenter"",""0"",""2191""
","
","
","""event"",""trial"",""time""
""fullscreenenter"",""0"",""2191""
","
","651.4000000003725","run_exp/static/images/Set 6_rs/057a.jpg","78","","","","","","learn","SL",""
"","show_choice","119","135546","0.0-119.0","""event"",""trial"",""time""
""fullscreenenter"",""0"",""2191""
","
","
","""event"",""trial"",""time""
""fullscreenenter"",""0"",""2191""
","
","null","run_exp/static/images/Set 6_rs/057a.jpg","null","","","","","","learn","SL",""
"","html-keyboard-response","120","136049","0.0-120.0","""event"",""trial"",""time""
""fullscreenenter"",""0"",""2191""
","
","
","""event"",""trial"",""time""
""fullscreenenter"",""0"",""2191""
","
","null","<p></p>","null","","","","","","","",""
"","image","121","136921","0.0-121.0","""event"",""trial"",""time""
""fullscreenenter"",""0"",""2191""
","
","
","""event"",""trial"",""time""
""fullscreenenter"",""0"",""2191""
","
","870.4000000003725","run_exp/static/images/Set 6_rs/117a.jpg","78","","","","","","learn","SL",""
"","show_choice","122","138052","0.0-122.0","""event"",""trial"",""time""
""fullscreenenter"",""0"",""2191""
","
","
","""event"",""trial"",""time""
""fullscreenenter"",""0"",""2191""
","
","null","run_exp/static/images/Set 6_rs/117a.jpg","null","","","","","","learn","SL",""
"","html-keyboard-response","123","138553","0.0-123.0","""event"",""trial"",""time""
""fullscreenenter"",""0"",""2191""
","
","
","""event"",""trial"",""time""
""fullscreenenter"",""0"",""2191""
","
","null","<p></p>","null","","","","","","","",""
"","image","124","139190","0.0-124.0","""event"",""trial"",""time""
""fullscreenenter"",""0"",""2191""
","
","
","""event"",""trial"",""time""
""fullscreenenter"",""0"",""2191""
","
","634","run_exp/static/images/Set 6_rs/017a.jpg","86","","","","","","learn","SL",""
"","show_choice","125","140562","0.0-125.0","""event"",""trial"",""time""
""fullscreenenter"",""0"",""2191""
","
","
","""event"",""trial"",""time""
""fullscreenenter"",""0"",""2191""
","
","null","run_exp/static/images/Set 6_rs/017a.jpg","null","","","","","","learn","SL",""
"","html-keyboard-response","126","141068","0.0-126.0","""event"",""trial"",""time""
""fullscreenenter"",""0"",""2191""
","
","
","""event"",""trial"",""time""
""fullscreenenter"",""0"",""2191""
","
","null","<p></p>","null","","","","","","","",""
"","image","127","141812","0.0-127.0","""event"",""trial"",""time""
""fullscreenenter"",""0"",""2191""
","
","
","""event"",""trial"",""time""
""fullscreenenter"",""0"",""2191""
","
","742.0999999996275","run_exp/static/images/Set 6_rs/181a.jpg","78","","","","","","learn","SL",""
"","show_choice","128","143078","0.0-128.0","""event"",""trial"",""time""
""fullscreenenter"",""0"",""2191""
","
","
","""event"",""trial"",""time""
""fullscreenenter"",""0"",""2191""
","
","null","run_exp/static/images/Set 6_rs/181a.jpg","null","","","","","","learn","SL",""
"","html-keyboard-response","129","143581","0.0-129.0","""event"",""trial"",""time""
""fullscreenenter"",""0"",""2191""
","
","
","""event"",""trial"",""time""
""fullscreenenter"",""0"",""2191""
","
","null","<p></p>","null","","","","","","","",""
"","image","130","144384","0.0-130.0","""event"",""trial"",""time""
""fullscreenenter"",""0"",""2191""
","
","
","""event"",""trial"",""time""
""fullscreenenter"",""0"",""2191""
","
","800.0999999996275","run_exp/static/images/Set 6_rs/095a.jpg","86","","","","","","learn","SL",""
"","show_choice","131","145585","0.0-131.0","""event"",""trial"",""time""
""fullscreenenter"",""0"",""2191""
","
","
","""event"",""trial"",""time""
""fullscreenenter"",""0"",""2191""
","
","null","run_exp/static/images/Set 6_rs/095a.jpg","null","","","","","","learn","SL",""
"","html-keyboard-response","132","146092","0.0-132.0","""event"",""trial"",""time""
""fullscreenenter"",""0"",""2191""
","
","
","""event"",""trial"",""time""
""fullscreenenter"",""0"",""2191""
","
","null","<p></p>","null","","","","","","","",""
"","image","133","146716","0.0-133.0","""event"",""trial"",""time""
""fullscreenenter"",""0"",""2191""
","
","
","""event"",""trial"",""time""
""fullscreenenter"",""0"",""2191""
","
","621.6999999992549","run_exp/static/images/Set 6_rs/108a.jpg","78","","","","","","learn","SR",""
"","show_choice","134","148096","0.0-134.0","""event"",""trial"",""time""
""fullscreenenter"",""0"",""2191""
","
","
","""event"",""trial"",""time""
""fullscreenenter"",""0"",""2191""
","
","null","run_exp/static/images/Set 6_rs/108a.jpg","null","","","","","","learn","SR",""
"","html-keyboard-response","135","148605","0.0-135.0","""event"",""trial"",""time""
""fullscreenenter"",""0"",""2191""
","
","
","""event"",""trial"",""time""
""fullscreenenter"",""0"",""2191""
","
","null","<p></p>","null","","","","","","","",""
"","image","136","149455","0.0-136.0","""event"",""trial"",""time""
""fullscreenenter"",""0"",""2191""
","
","
","""event"",""trial"",""time""
""fullscreenenter"",""0"",""2191""
","
","847.3999999985099","run_exp/static/images/Set 6_rs/116a.jpg","78","","","","","","learn","SL",""
"","show_choice","137","150613","0.0-137.0","""event"",""trial"",""time""
""fullscreenenter"",""0"",""2191""
","
","
","""event"",""trial"",""time""
""fullscreenenter"",""0"",""2191""
","
","null","run_exp/static/images/Set 6_rs/116a.jpg","null","","","","","","learn","SL",""
"","html-keyboard-response","138","151119","0.0-138.0","""event"",""trial"",""time""
""fullscreenenter"",""0"",""2191""
","
","
","""event"",""trial"",""time""
""fullscreenenter"",""0"",""2191""
","
","null","<p></p>","null","","","","","","","",""
"","image","139","151880","0.0-139.0","""event"",""trial"",""time""
""fullscreenenter"",""0"",""2191""
","
","
","""event"",""trial"",""time""
""fullscreenenter"",""0"",""2191""
","
","759.0999999996275","run_exp/static/images/Set 6_rs/045a.jpg","86","","","","","","learn","SR",""
"","show_choice","140","153128","0.0-140.0","""event"",""trial"",""time""
""fullscreenenter"",""0"",""2191""
","
","
","""event"",""trial"",""time""
""fullscreenenter"",""0"",""2191""
","
","null","run_exp/static/images/Set 6_rs/045a.jpg","null","","","","","","learn","SR",""
"","html-keyboard-response","141","153636","0.0-141.0","""event"",""trial"",""time""
""fullscreenenter"",""0"",""2191""
","
","
","""event"",""trial"",""time""
""fullscreenenter"",""0"",""2191""
","
","null","<p></p>","null","","","","","","","",""
"","image","142","154484","0.0-142.0","""event"",""trial"",""time""
""fullscreenenter"",""0"",""2191""
","
","
","""event"",""trial"",""time""
""fullscreenenter"",""0"",""2191""
","
","846.0999999996275","run_exp/static/images/Set 6_rs/010a.jpg","86","","","","","","learn","SR",""
"","show_choice","143","155646","0.0-143.0","""event"",""trial"",""time""
""fullscreenenter"",""0"",""2191""
","
","
","""event"",""trial"",""time""
""fullscreenenter"",""0"",""2191""
","
","null","run_exp/static/images/Set 6_rs/010a.jpg","null","","","","","","learn","SR",""
"","html-keyboard-response","144","156154","0.0-144.0","""event"",""trial"",""time""
""fullscreenenter"",""0"",""2191""
","
","
","""event"",""trial"",""time""
""fullscreenenter"",""0"",""2191""
","
","null","<p></p>","null","","","","","","","",""
"","image","145","156974","0.0-145.0","""event"",""trial"",""time""
""fullscreenenter"",""0"",""2191""
","
","
","""event"",""trial"",""time""
""fullscreenenter"",""0"",""2191""
","
","817.5","run_exp/static/images/Set 6_rs/064a.jpg","78","","","","","","learn","SR",""
"","show_choice","146","158157","0.0-146.0","""event"",""trial"",""time""
""fullscreenenter"",""0"",""2191""
","
","
","""event"",""trial"",""time""
""fullscreenenter"",""0"",""2191""
","
","null","run_exp/static/images/Set 6_rs/064a.jpg","null","","","","","","learn","SR",""
"","html-keyboard-response","147","158660","0.0-147.0","""event"",""trial"",""time""
""fullscreenenter"",""0"",""2191""
","
","
","""event"",""trial"",""time""
""fullscreenenter"",""0"",""2191""
","
","null","<p></p>","null","","","","","","","",""
"","image","148","159801","0.0-148.0","""event"",""trial"",""time""
""fullscreenenter"",""0"",""2191""
","
","
","""event"",""trial"",""time""
""fullscreenenter"",""0"",""2191""
","
","1138.699999999255","run_exp/static/images/Set 6_rs/131a.jpg","86","","","","","","learn","SR",""
"","show_choice","149","160670","0.0-149.0","""event"",""trial"",""time""
""fullscreenenter"",""0"",""2191""
","
","
","""event"",""trial"",""time""
""fullscreenenter"",""0"",""2191""
","
","null","run_exp/static/images/Set 6_rs/131a.jpg","null","","","","","","learn","SR",""
"","html-keyboard-response","150","161179","0.0-150.0","""event"",""trial"",""time""
""fullscreenenter"",""0"",""2191""
","
","
","""event"",""trial"",""time""
""fullscreenenter"",""0"",""2191""
","
","null","<p></p>","null","","","","","","","",""
"","image","151","162799","0.0-151.0","""event"",""trial"",""time""
""fullscreenenter"",""0"",""2191""
","
","
","""event"",""trial"",""time""
""fullscreenenter"",""0"",""2191""
","
","1617.800000000745","run_exp/static/images/Set 6_rs/154a.jpg","86","","","","","","learn","SR",""
"","show_choice","152","163184","0.0-152.0","""event"",""trial"",""time""
""fullscreenenter"",""0"",""2191""
","
","
","""event"",""trial"",""time""
""fullscreenenter"",""0"",""2191""
","
","null","run_exp/static/images/Set 6_rs/154a.jpg","null","","","","","","learn","SR",""
"","html-keyboard-response","153","163691","0.0-153.0","""event"",""trial"",""time""
""fullscreenenter"",""0"",""2191""
","
","
","""event"",""trial"",""time""
""fullscreenenter"",""0"",""2191""
","
","null","<p></p>","null","","","","","","","",""
"","image","154","164492","0.0-154.0","""event"",""trial"",""time""
""fullscreenenter"",""0"",""2191""
","
","
","""event"",""trial"",""time""
""fullscreenenter"",""0"",""2191""
","
","798.6000000014901","run_exp/static/images/Set 6_rs/166a.jpg","78","","","","","","learn","SR",""
"","show_choice","155","165698","0.0-155.0","""event"",""trial"",""time""
""fullscreenenter"",""0"",""2191""
","
","
","""event"",""trial"",""time""
""fullscreenenter"",""0"",""2191""
","
","null","run_exp/static/images/Set 6_rs/166a.jpg","null","","","","","","learn","SR",""
"","html-keyboard-response","156","166205","0.0-156.0","""event"",""trial"",""time""
""fullscreenenter"",""0"",""2191""
","
","
","""event"",""trial"",""time""
""fullscreenenter"",""0"",""2191""
","
","null","<p></p>","null","","","","","","","",""
"","image","157","167027","0.0-157.0","""event"",""trial"",""time""
""fullscreenenter"",""0"",""2191""
","
","
","""event"",""trial"",""time""
""fullscreenenter"",""0"",""2191""
","
","820.2999999988824","run_exp/static/images/Set 6_rs/079a.jpg","86","","","","","","learn","SL",""
"","show_choice","158","168215","0.0-158.0","""event"",""trial"",""time""
""fullscreenenter"",""0"",""2191""
","
","
","""event"",""trial"",""time""
""fullscreenenter"",""0"",""2191""
","
","null","run_exp/static/images/Set 6_rs/079a.jpg","null","","","","","","learn","SL",""
"","html-keyboard-response","159","168716","0.0-159.0","""event"",""trial"",""time""
""fullscreenenter"",""0"",""2191""
","
","
","""event"",""trial"",""time""
""fullscreenenter"",""0"",""2191""
","
","null","<p></p>","null","","","","","","","",""
"","image","160","169855","0.0-160.0","""event"",""trial"",""time""
""fullscreenenter"",""0"",""2191""
","
","
","""event"",""trial"",""time""
""fullscreenenter"",""0"",""2191""
","
","1136.4000000003725","run_exp/static/images/Set 6_rs/178a.jpg","78","","","","","","learn","SR",""
"","show_choice","161","170726","0.0-161.0","""event"",""trial"",""time""
""fullscreenenter"",""0"",""2191""
","
","
","""event"",""trial"",""time""
""fullscreenenter"",""0"",""2191""
","
","null","run_exp/static/images/Set 6_rs/178a.jpg","null","","","","","","learn","SR",""
"","html-keyboard-response","162","171232","0.0-162.0","""event"",""trial"",""time""
""fullscreenenter"",""0"",""2191""
","
","
","""event"",""trial"",""time""
""fullscreenenter"",""0"",""2191""
","
","null","<p></p>","null","","","","","","","",""
"","image","163","171880","0.0-163.0","""event"",""trial"",""time""
""fullscreenenter"",""0"",""2191""
","
","
","""event"",""trial"",""time""
""fullscreenenter"",""0"",""2191""
","
","645.6999999992549","run_exp/static/images/Set 6_rs/062a.jpg","86","","","","","","learn","SL",""
"","show_choice","164","173242","0.0-164.0","""event"",""trial"",""time""
""fullscreenenter"",""0"",""2191""
","
","
","""event"",""trial"",""time""
""fullscreenenter"",""0"",""2191""
","
","null","run_exp/static/images/Set 6_rs/062a.jpg","null","","","","","","learn","SL",""
"","html-keyboard-response","165","173744","0.0-165.0","""event"",""trial"",""time""
""fullscreenenter"",""0"",""2191""
","
","
","""event"",""trial"",""time""
""fullscreenenter"",""0"",""2191""
","
","null","<p></p>","null","","","","","","","",""
"","image","166","174420","0.0-166.0","""event"",""trial"",""time""
""fullscreenenter"",""0"",""2191""
","
","
","""event"",""trial"",""time""
""fullscreenenter"",""0"",""2191""
","
","673.6000000014901","run_exp/static/images/Set 6_rs/152a.jpg","78","","","","","","learn","SR",""
"","show_choice","167","175752","0.0-167.0","""event"",""trial"",""time""
""fullscreenenter"",""0"",""2191""
","
","
","""event"",""trial"",""time""
""fullscreenenter"",""0"",""2191""
","
","null","run_exp/static/images/Set 6_rs/152a.jpg","null","","","","","","learn","SR",""
"","html-keyboard-response","168","176258","0.0-168.0","""event"",""trial"",""time""
""fullscreenenter"",""0"",""2191""
","
","
","""event"",""trial"",""time""
""fullscreenenter"",""0"",""2191""
","
","null","<p></p>","null","","","","","","","",""
"","image","169","177214","0.0-169.0","""event"",""trial"",""time""
""fullscreenenter"",""0"",""2191""
","
","
","""event"",""trial"",""time""
""fullscreenenter"",""0"",""2191""
","
","953.4000000003725","run_exp/static/images/Set 6_rs/066a.jpg","78","","","","","","learn","SL",""
"","show_choice","170","178266","0.0-170.0","""event"",""trial"",""time""
""fullscreenenter"",""0"",""2191""
","
","
","""event"",""trial"",""time""
""fullscreenenter"",""0"",""2191""
","
","null","run_exp/static/images/Set 6_rs/066a.jpg","null","","","","","","learn","SL",""
"","html-keyboard-response","171","178768","0.0-171.0","""event"",""trial"",""time""
""fullscreenenter"",""0"",""2191""
","
","
","""event"",""trial"",""time""
""fullscreenenter"",""0"",""2191""
","
","null","<p></p>","null","","","","","","","",""
"","image","172","179772","0.0-172.0","""event"",""trial"",""time""
""fullscreenenter"",""0"",""2191""
","
","
","""event"",""trial"",""time""
""fullscreenenter"",""0"",""2191""
","
","1001.6999999992549","run_exp/static/images/Set 6_rs/085a.jpg","86","","","","","","learn","SL",""
"","show_choice","173","180777","0.0-173.0","""event"",""trial"",""time""
""fullscreenenter"",""0"",""2191""
","
","
","""event"",""trial"",""time""
""fullscreenenter"",""0"",""2191""
","
","null","run_exp/static/images/Set 6_rs/085a.jpg","null","","","","","","learn","SL",""
"","html-keyboard-response","174","181283","0.0-174.0","""event"",""trial"",""time""
""fullscreenenter"",""0"",""2191""
","
","
","""event"",""trial"",""time""
""fullscreenenter"",""0"",""2191""
","
","null","<p></p>","null","","","","","","","",""
"","image","175","182242","0.0-175.0","""event"",""trial"",""time""
""fullscreenenter"",""0"",""2191""
","
","
","""event"",""trial"",""time""
""fullscreenenter"",""0"",""2191""
","
","956","run_exp/static/images/Set 6_rs/132a.jpg","78","","","","","","learn","SR",""
"","show_choice","176","183294","0.0-176.0","""event"",""trial"",""time""
""fullscreenenter"",""0"",""2191""
","
","
","""event"",""trial"",""time""
""fullscreenenter"",""0"",""2191""
","
","null","run_exp/static/images/Set 6_rs/132a.jpg","null","","","","","","learn","SR",""
"","html-keyboard-response","177","183796","0.0-177.0","""event"",""trial"",""time""
""fullscreenenter"",""0"",""2191""
","
","
","""event"",""trial"",""time""
""fullscreenenter"",""0"",""2191""
","
","null","<p></p>","null","","","","","","","",""
"","image","178","184587","0.0-178.0","""event"",""trial"",""time""
""fullscreenenter"",""0"",""2191""
","
","
","""event"",""trial"",""time""
""fullscreenenter"",""0"",""2191""
","
","788.6000000014901","run_exp/static/images/Set 6_rs/123a.jpg","86","","","","","","learn","SL",""
"","show_choice","179","185803","0.0-179.0","""event"",""trial"",""time""
""fullscreenenter"",""0"",""2191""
","
","
","""event"",""trial"",""time""
""fullscreenenter"",""0"",""2191""
","
","null","run_exp/static/images/Set 6_rs/123a.jpg","null","","","","","","learn","SL",""
"","html-keyboard-response","180","186310","0.0-180.0","""event"",""trial"",""time""
""fullscreenenter"",""0"",""2191""
","
","
","""event"",""trial"",""time""
""fullscreenenter"",""0"",""2191""
","
","null","<p></p>","null","","","","","","","",""
"","image","181","187296","0.0-181.0","""event"",""trial"",""time""
""fullscreenenter"",""0"",""2191""
","
","
","""event"",""trial"",""time""
""fullscreenenter"",""0"",""2191""
","
","984.0999999996275","run_exp/static/images/Set 6_rs/169a.jpg","78","","","","","","learn","SR",""
"","show_choice","182","188314","0.0-182.0","""event"",""trial"",""time""
""fullscreenenter"",""0"",""2191""
","
","
","""event"",""trial"",""time""
""fullscreenenter"",""0"",""2191""
","
","null","run_exp/static/images/Set 6_rs/169a.jpg","null","","","","","","learn","SR",""
"","html-keyboard-response","183","188817","0.0-183.0","""event"",""trial"",""time""
""fullscreenenter"",""0"",""2191""
","
","
","""event"",""trial"",""time""
""fullscreenenter"",""0"",""2191""
","
","null","<p></p>","null","","","","","","","",""
"","image","184","190056","0.0-184.0","""event"",""trial"",""time""
""fullscreenenter"",""0"",""2191""
","
","
","""event"",""trial"",""time""
""fullscreenenter"",""0"",""2191""
","
","1236","run_exp/static/images/Set 6_rs/089a.jpg","86","","","","","","learn","SL",""
"","show_choice","185","190827","0.0-185.0","""event"",""trial"",""time""
""fullscreenenter"",""0"",""2191""
","
","
","""event"",""trial"",""time""
""fullscreenenter"",""0"",""2191""
","
","null","run_exp/static/images/Set 6_rs/089a.jpg","null","","","","","","learn","SL",""
"","html-keyboard-response","186","191331","0.0-186.0","""event"",""trial"",""time""
""fullscreenenter"",""0"",""2191""
","
","
","""event"",""trial"",""time""
""fullscreenenter"",""0"",""2191""
","
","null","<p></p>","null","","","","","","","",""
"","image","187","192683","0.0-187.0","""event"",""trial"",""time""
""fullscreenenter"",""0"",""2191""
","
","
","""event"",""trial"",""time""
""fullscreenenter"",""0"",""2191""
","
","1349.2999999988824","run_exp/static/images/Set 6_rs/150a.jpg","86","","","","","","learn","SR",""
"","show_choice","188","193341","0.0-188.0","""event"",""trial"",""time""
""fullscreenenter"",""0"",""2191""
","
","
","""event"",""trial"",""time""
""fullscreenenter"",""0"",""2191""
","
","null","run_exp/static/images/Set 6_rs/150a.jpg","null","","","","","","learn","SR",""
"","html-keyboard-response","189","193842","0.0-189.0","""event"",""trial"",""time""
""fullscreenenter"",""0"",""2191""
","
","
","""event"",""trial"",""time""
""fullscreenenter"",""0"",""2191""
","
","null","<p></p>","null","","","","","","","",""
"","image","190","195166","0.0-190.0","""event"",""trial"",""time""
""fullscreenenter"",""0"",""2191""
","
","
","""event"",""trial"",""time""
""fullscreenenter"",""0"",""2191""
","
","1322","run_exp/static/images/Set 6_rs/006a.jpg","86","","","","","","learn","SL",""
"","show_choice","191","195852","0.0-191.0","""event"",""trial"",""time""
""fullscreenenter"",""0"",""2191""
","
","
","""event"",""trial"",""time""
""fullscreenenter"",""0"",""2191""
","
","null","run_exp/static/images/Set 6_rs/006a.jpg","null","","","","","","learn","SL",""
"","html-keyboard-response","192","196356","0.0-192.0","""event"",""trial"",""time""
""fullscreenenter"",""0"",""2191""
","
","
","""event"",""trial"",""time""
""fullscreenenter"",""0"",""2191""
","
","null","<p></p>","null","","","","","","","",""
"","image","193","197059","0.0-193.0","""event"",""trial"",""time""
""fullscreenenter"",""0"",""2191""
","
","
","""event"",""trial"",""time""
""fullscreenenter"",""0"",""2191""
","
","700","run_exp/static/images/Set 6_rs/071a.jpg","78","","","","","","learn","SL",""
"","show_choice","194","198360","0.0-194.0","""event"",""trial"",""time""
""fullscreenenter"",""0"",""2191""
","
","
","""event"",""trial"",""time""
""fullscreenenter"",""0"",""2191""
","
","null","run_exp/static/images/Set 6_rs/071a.jpg","null","","","","","","learn","SL",""
"","html-keyboard-response","195","198862","0.0-195.0","""event"",""trial"",""time""
""fullscreenenter"",""0"",""2191""
","
","
","""event"",""trial"",""time""
""fullscreenenter"",""0"",""2191""
","
","null","<p></p>","null","","","","","","","",""
"","test_intro","196","235755","0.0-196.0","""event"",""trial"",""time""
""fullscreenenter"",""0"",""2191""
","
","
","""event"",""trial"",""time""
""fullscreenenter"",""0"",""2191""
","
","null","run_exp/static/audio/clip_2_memory.m4a","null","","","","","<div class='center'><p>Now, lets see how much you remember about the items you just saw.  For each item, you need to indicate if it was <b>old</b> by pressing the <b>v</b> key, <b>similar</b> by pressing the <b>b</b> key, or <b>new</b> by pressing the <b>n</b> key.</p><p>Old refers to an item that you saw before in the indoor/outdoor game that you just played, new refers to an item you have <b>not</b> seen before within the indoor/outdoor game, and similar refers to an item that is similar to an item youve seen before but is not exactly the same. </p><p>Before we begin, lets go over some brief demonstrations to make sure you understand.</p></div>","","",""
"","html-keyboard-response","197","236529","0.0-197.0","""event"",""trial"",""time""
""fullscreenenter"",""0"",""2191""
","
","
","""event"",""trial"",""time""
""fullscreenenter"",""0"",""2191""
","
","771.0999999996275","<div class='center'><p>Now, lets see how much you remember about the items you just saw.  For each item, you need to indicate if it was <b>old</b> by pressing the <b>v</b> key, <b>similar</b> by pressing the <b>b</b> key, or <b>new</b> by pressing the <b>n</b> key.</p><p>Old refers to an item that you saw before in the indoor/outdoor game that you just played, new refers to an item you have <b>not</b> seen before within the indoor/outdoor game, and similar refers to an item that is similar to an item youve seen before but is not exactly the same. </p><p>Before we begin, lets go over some brief demonstrations to make sure you understand.</p><div><p><b>[Press the space bar to continue]</b></p></div>","32","","","","","","","",""
"","items","198","244032","0.0-198.0","""event"",""trial"",""time""
""fullscreenenter"",""0"",""2191""
","
","
","""event"",""trial"",""time""
""fullscreenenter"",""0"",""2191""
","
","null","run_exp/static/audio/clip_3_items.m4a","null","","","","","","","",""
"","mop","199","248536","0.0-199.0","""event"",""trial"",""time""
""fullscreenenter"",""0"",""2191""
","
","
","""event"",""trial"",""time""
""fullscreenenter"",""0"",""2191""
","
","null","run_exp/static/audio/clip_4_mop.m4a","null","","","","","","","",""
"","baseball","200","252043","0.0-200.0","""event"",""trial"",""time""
""fullscreenenter"",""0"",""2191""
","
","
","""event"",""trial"",""time""
""fullscreenenter"",""0"",""2191""
","
","null","run_exp/static/audio/clip_5_baseball.m4a","null","","","","","","","",""
"","trumpet","201","255549","0.0-201.0","""event"",""trial"",""time""
""fullscreenenter"",""0"",""2191""
","
","
","""event"",""trial"",""time""
""fullscreenenter"",""0"",""2191""
","
","null","run_exp/static/audio/clip_6_trumpet.m4a","null","","","","","","","",""
"","gummies","202","259058","0.0-202.0","""event"",""trial"",""time""
""fullscreenenter"",""0"",""2191""
","
","
","""event"",""trial"",""time""
""fullscreenenter"",""0"",""2191""
","
","null","run_exp/static/audio/clip_7_gummies.m4a","null","","","","","","","",""
"","osn","203","263568","0.0-203.0","""event"",""trial"",""time""
""fullscreenenter"",""0"",""2191""
","
","
","""event"",""trial"",""time""
""fullscreenenter"",""0"",""2191""
","
","null","run_exp/static/audio/clip_8_osn.m4a","null","","","","","","","",""
"","old_1","204","270079","0.0-204.0","""event"",""trial"",""time""
""fullscreenenter"",""0"",""2191""
","
","
","""event"",""trial"",""time""
""fullscreenenter"",""0"",""2191""
","
","null","run_exp/static/audio/clip_9_old_trumpet.m4a","null","","","","","","","",""
"","new_1","205","277588","0.0-205.0","""event"",""trial"",""time""
""fullscreenenter"",""0"",""2191""
","
","
","""event"",""trial"",""time""
""fullscreenenter"",""0"",""2191""
","
","null","run_exp/static/audio/clip_10_new_balloon.m4a","null","","","","","","","",""
"","similar_1a","206","282092","0.0-206.0","""event"",""trial"",""time""
""fullscreenenter"",""0"",""2191""
","
","
","""event"",""trial"",""time""
""fullscreenenter"",""0"",""2191""
","
","null","run_exp/static/audio/clip_11a_similar_mop.m4a","null","","","","","","","",""
"","similar_1b","207","288598","0.0-207.0","""event"",""trial"",""time""
""fullscreenenter"",""0"",""2191""
","
","
","""event"",""trial"",""time""
""fullscreenenter"",""0"",""2191""
","
","null","run_exp/static/audio/clip_11b_similar_mop.m4a","null","","","","","","","",""
"","new_2","208","292104","0.0-208.0","""event"",""trial"",""time""
""fullscreenenter"",""0"",""2191""
","
","
","""event"",""trial"",""time""
""fullscreenenter"",""0"",""2191""
","
","null","run_exp/static/audio/clip_12_new_stoplight.m4a","null","","","","","","","",""
"","old_2","209","295611","0.0-209.0","""event"",""trial"",""time""
""fullscreenenter"",""0"",""2191""
","
","
","""event"",""trial"",""time""
""fullscreenenter"",""0"",""2191""
","
","null","run_exp/static/audio/clip_13_old_baseball.m4a","null","","","","","","","",""
"","similar_2a","210","299121","0.0-210.0","""event"",""trial"",""time""
""fullscreenenter"",""0"",""2191""
","
","
","""event"",""trial"",""time""
""fullscreenenter"",""0"",""2191""
","
","null","run_exp/static/audio/clip_14a_similar_gummies.m4a","null","","","","","","","",""
"","similar_2b","211","306625","0.0-211.0","""event"",""trial"",""time""
""fullscreenenter"",""0"",""2191""
","
","
","""event"",""trial"",""time""
""fullscreenenter"",""0"",""2191""
","
","null","run_exp/static/audio/clip_14b_similar_gummies.m4a","null","","","","","","","",""
"","practice","212","348770","0.0-212.0","""event"",""trial"",""time""
""fullscreenenter"",""0"",""2191""
","
","
","""event"",""trial"",""time""
""fullscreenenter"",""0"",""2191""
","
","null","run_exp/static/audio/clip_15_practice.m4a","null","","","","","<div class='center'><p>Lets practice a little to make sure you understand the difference between new, similar, and old. Lets say you saw these three items in the indoor/outdoor game.</p><p> Try your best to remember these images because youll soon be tested on them in a practice game. In the practice game, youll be shown images and youll have to say if they are old (one of the three images belows), similar (similar to one of the images below but not exactly the same), or new (are not one of the images below nor similar to them).</p><p>Once you press the space bar youll be shown these images again but one at time. Then youll begin the practice game.</p><p><img src='run_exp/static/images/tutorial/test/three_indoor_outdoor.png' height='300'></p></div>","","",""
"","html-keyboard-response","213","348965","0.0-213.0","""event"",""trial"",""time""
""fullscreenenter"",""0"",""2191""
","
","
","""event"",""trial"",""time""
""fullscreenenter"",""0"",""2191""
","
","191.10000000149012","<div class='center'><p>Lets practice a little to make sure you understand the difference between new, similar, and old. Lets say you saw these three items in the indoor/outdoor game.</p><p> Try your best to remember these images because youll soon be tested on them in a practice game. In the practice game, youll be shown images and youll have to say if they are old (one of the three images belows), similar (similar to one of the images below but not exactly the same), or new (are not one of the images below nor similar to them).</p><p>Once you press the space bar youll be shown these images again but one at time. Then youll begin the practice game.</p><p><img src='run_exp/static/images/tutorial/test/three_indoor_outdoor.png' height='300'></p><div><p><b>[Press the space bar to continue]</b></p></div>","32","","","","","","","",""
"","planet","214","350967","0.0-214.0","""event"",""trial"",""time""
""fullscreenenter"",""0"",""2191""
","
","
","""event"",""trial"",""time""
""fullscreenenter"",""0"",""2191""
","
","null","run_exp/static/images/tutorial/test/008a.jpg","null","","","","","","","",""
"","boot","215","352973","0.0-215.0","""event"",""trial"",""time""
""fullscreenenter"",""0"",""2191""
","
","
","""event"",""trial"",""time""
""fullscreenenter"",""0"",""2191""
","
","null","run_exp/static/images/tutorial/test/011a.jpg","null","","","","","","","",""
"","lemon","216","354978","0.0-216.0","""event"",""trial"",""time""
""fullscreenenter"",""0"",""2191""
","
","
","""event"",""trial"",""time""
""fullscreenenter"",""0"",""2191""
","
","null","run_exp/static/images/tutorial/test/018a.jpg","null","","","","","","","",""
"","practice_q1","217","360875","0.0-217.0","""event"",""trial"",""time""
""fullscreenenter"",""0"",""2191""
","
","
","""event"",""trial"",""time""
""fullscreenenter"",""0"",""2191""
","
","5893.300000000745","run_exp/static/audio/clip_16_practice_question.m4a","78","","","","","","","",""
"","correct","218","362808","0.0-218.0-0.0","""event"",""trial"",""time""
""fullscreenenter"",""0"",""2191""
","
","
","""event"",""trial"",""time""
""fullscreenenter"",""0"",""2191""
","
","null","run_exp/static/audio/clip_17_correct.m4a","null","","","","","<div class='center'><p>That's correct!</p></div>","","",""
"","html-keyboard-response","219","363792","0.0-218.0-1.0","""event"",""trial"",""time""
""fullscreenenter"",""0"",""2191""
","
","
","""event"",""trial"",""time""
""fullscreenenter"",""0"",""2191""
","
","983","<div class='center'><p>That's correct!</p><div><p><b>[Press the space bar to continue]</b></p></div>","32","","","","","","","",""
"","practice_q2","220","365292","0.0-218.0-2.0","""event"",""trial"",""time""
""fullscreenenter"",""0"",""2191""
","
","
","""event"",""trial"",""time""
""fullscreenenter"",""0"",""2191""
","
","1497.5","run_exp/static/audio/clip_16_practice_question.m4a","86","","","","","","","",""
"","correct","221","367202","0.0-219.0-0.0","""event"",""trial"",""time""
""fullscreenenter"",""0"",""2191""
","
","
","""event"",""trial"",""time""
""fullscreenenter"",""0"",""2191""
","
","null","run_exp/static/audio/clip_17_correct.m4a","null","","","","","<div class='center'><p>That's correct!</p></div>","","",""
"","html-keyboard-response","222","367363","0.0-219.0-1.0","""event"",""trial"",""time""
""fullscreenenter"",""0"",""2191""
","
","
","""event"",""trial"",""time""
""fullscreenenter"",""0"",""2191""
","
","159.09999999962747","<div class='center'><p>That's correct!</p><div><p><b>[Press the space bar to continue]</b></p></div>","32","","","","","","","",""
"","practice_q3","223","369403","0.0-219.0-2.0","""event"",""trial"",""time""
""fullscreenenter"",""0"",""2191""
","
","
","""event"",""trial"",""time""
""fullscreenenter"",""0"",""2191""
","
","2037.699999999255","run_exp/static/audio/clip_16_practice_question.m4a","66","","","","","","","",""
"","correct","224","371490","0.0-220.0-0.0","""event"",""trial"",""time""
""fullscreenenter"",""0"",""2191""
","
","
","""event"",""trial"",""time""
""fullscreenenter"",""0"",""2191""
","
","null","run_exp/static/audio/clip_17_correct.m4a","null","","","","","<div class='center'><p>That's correct!</p></div>","","",""
"","html-keyboard-response","225","371962","0.0-220.0-1.0","""event"",""trial"",""time""
""fullscreenenter"",""0"",""2191""
","
","
","""event"",""trial"",""time""
""fullscreenenter"",""0"",""2191""
","
","469.40000000037253","<div class='center'><p>That's correct!</p><div><p><b>[Press the space bar to continue]</b></p></div>","32","","","","","","","",""
"","begin_text","226","390476","0.0-221.0-0.0","""event"",""trial"",""time""
""fullscreenenter"",""0"",""2191""
","
","
","""event"",""trial"",""time""
""fullscreenenter"",""0"",""2191""
","
","null","run_exp/static/audio/clip_22_begin_test.m4a","null","","","","","<div class='center'><p>On to the real game where well test your memory of items from the indoor/outdoor game. For each item, you need to indicate if the item is <b>old</b> by pressing the <b>v</b> key, <b>similar</b> by pressing the <b>b</b> key, or <b>new</b> by pressing the <b>n</b> key. </p></div>","","",""
"","html-keyboard-response","227","390935","0.0-221.0-1.0","""event"",""trial"",""time""
""fullscreenenter"",""0"",""2191""
","
","
","""event"",""trial"",""time""
""fullscreenenter"",""0"",""2191""
","
","457.09999999962747","<div class='center'><p>On to the real game where well test your memory of items from the indoor/outdoor game. For each item, you need to indicate if the item is <b>old</b> by pressing the <b>v</b> key, <b>similar</b> by pressing the <b>b</b> key, or <b>new</b> by pressing the <b>n</b> key. </p><div><p><b>[Press the space bar to continue]</b></p></div>","32","","","","","","","",""
"","image","228","392703","0.0-222.0-0.0","""event"",""trial"",""time""
""fullscreenenter"",""0"",""2191""
","
","
","""event"",""trial"",""time""
""fullscreenenter"",""0"",""2191""
","
","1765.4000000003725","run_exp/static/images/Set 6_rs/055b.jpg","78","","","","","","test","TL","4"
"","show_choice","229","393205","0.0-222.0-1.0","""event"",""trial"",""time""
""fullscreenenter"",""0"",""2191""
","
","
","""event"",""trial"",""time""
""fullscreenenter"",""0"",""2191""
","
","null","run_exp/static/images/Set 6_rs/055b.jpg","null","","","","","","test","TL",""
"","html-keyboard-response","230","393707","0.0-222.0-2.0","""event"",""trial"",""time""
""fullscreenenter"",""0"",""2191""
","
","
","""event"",""trial"",""time""
""fullscreenenter"",""0"",""2191""
","
","null","<p></p>","null","","","","","","","",""
"","image","231","395346","0.0-223.0-0.0","""event"",""trial"",""time""
""fullscreenenter"",""0"",""2191""
","
","
","""event"",""trial"",""time""
""fullscreenenter"",""0"",""2191""
","
","1636.2999999988824","run_exp/static/images/Set 6_rs/141a.jpg","86","","","","","","test","TR","2"
"","show_choice","232","395850","0.0-223.0-1.0","""event"",""trial"",""time""
""fullscreenenter"",""0"",""2191""
","
","
","""event"",""trial"",""time""
""fullscreenenter"",""0"",""2191""
","
","null","run_exp/static/images/Set 6_rs/141a.jpg","null","","","","","","test","TR",""
"","html-keyboard-response","233","396353","0.0-223.0-2.0","""event"",""trial"",""time""
""fullscreenenter"",""0"",""2191""
","
","
","""event"",""trial"",""time""
""fullscreenenter"",""0"",""2191""
","
","null","<p></p>","null","","","","","","","",""
"","image","234","397226","0.0-224.0-0.0","""event"",""trial"",""time""
""fullscreenenter"",""0"",""2191""
","
","
","""event"",""trial"",""time""
""fullscreenenter"",""0"",""2191""
","
","871","run_exp/static/images/Set 6_rs/172a.jpg","86","","","","","","test","TR","1"
"","show_choice","235","397728","0.0-224.0-1.0","""event"",""trial"",""time""
""fullscreenenter"",""0"",""2191""
","
","
","""event"",""trial"",""time""
""fullscreenenter"",""0"",""2191""
","
","null","run_exp/static/images/Set 6_rs/172a.jpg","null","","","","","","test","TR",""
"","html-keyboard-response","236","398230","0.0-224.0-2.0","""event"",""trial"",""time""
""fullscreenenter"",""0"",""2191""
","
","
","""event"",""trial"",""time""
""fullscreenenter"",""0"",""2191""
","
","null","<p></p>","null","","","","","","","",""
"","image","237","399256","0.0-225.0-0.0","""event"",""trial"",""time""
""fullscreenenter"",""0"",""2191""
","
","
","""event"",""trial"",""time""
""fullscreenenter"",""0"",""2191""
","
","1023.7999999988824","run_exp/static/images/Set 6_rs/091b.jpg","66","","","","","","test","TL","3"
"","show_choice","238","399759","0.0-225.0-1.0","""event"",""trial"",""time""
""fullscreenenter"",""0"",""2191""
","
","
","""event"",""trial"",""time""
""fullscreenenter"",""0"",""2191""
","
","null","run_exp/static/images/Set 6_rs/091b.jpg","null","","","","","","test","TL",""
"","html-keyboard-response","239","400265","0.0-225.0-2.0","""event"",""trial"",""time""
""fullscreenenter"",""0"",""2191""
","
","
","""event"",""trial"",""time""
""fullscreenenter"",""0"",""2191""
","
","null","<p></p>","null","","","","","","","",""
"","image","240","401294","0.0-226.0-0.0","""event"",""trial"",""time""
""fullscreenenter"",""0"",""2191""
","
","
","""event"",""trial"",""time""
""fullscreenenter"",""0"",""2191""
","
","1026.199999999255","run_exp/static/images/Set 6_rs/150a.jpg","86","","","","","","test","TR","1"
"","show_choice","241","401797","0.0-226.0-1.0","""event"",""trial"",""time""
""fullscreenenter"",""0"",""2191""
","
","
","""event"",""trial"",""time""
""fullscreenenter"",""0"",""2191""
","
","null","run_exp/static/images/Set 6_rs/150a.jpg","null","","","","","","test","TR",""
"","html-keyboard-response","242","402301","0.0-226.0-2.0","""event"",""trial"",""time""
""fullscreenenter"",""0"",""2191""
","
","
","""event"",""trial"",""time""
""fullscreenenter"",""0"",""2191""
","
","null","<p></p>","null","","","","","","","",""
"","image","243","403424","0.0-227.0-0.0","""event"",""trial"",""time""
""fullscreenenter"",""0"",""2191""
","
","
","""event"",""trial"",""time""
""fullscreenenter"",""0"",""2191""
","
","1120.699999999255","run_exp/static/images/Set 6_rs/176a.jpg","78","","","","","","test","TF","4"
"","show_choice","244","403926","0.0-227.0-1.0","""event"",""trial"",""time""
""fullscreenenter"",""0"",""2191""
","
","
","""event"",""trial"",""time""
""fullscreenenter"",""0"",""2191""
","
","null","run_exp/static/images/Set 6_rs/176a.jpg","null","","","","","","test","TF",""
"","html-keyboard-response","245","404432","0.0-227.0-2.0","""event"",""trial"",""time""
""fullscreenenter"",""0"",""2191""
","
","
","""event"",""trial"",""time""
""fullscreenenter"",""0"",""2191""
","
","null","<p></p>","null","","","","","","","",""
"","image","246","405717","0.0-228.0-0.0","""event"",""trial"",""time""
""fullscreenenter"",""0"",""2191""
","
","
","""event"",""trial"",""time""
""fullscreenenter"",""0"",""2191""
","
","1282.8999999985099","run_exp/static/images/Set 6_rs/075a.jpg","66","","","","","","test","TR","1"
"","show_choice","247","406219","0.0-228.0-1.0","""event"",""trial"",""time""
""fullscreenenter"",""0"",""2191""
","
","
","""event"",""trial"",""time""
""fullscreenenter"",""0"",""2191""
","
","null","run_exp/static/images/Set 6_rs/075a.jpg","null","","","","","","test","TR",""
"","html-keyboard-response","248","406724","0.0-228.0-2.0","""event"",""trial"",""time""
""fullscreenenter"",""0"",""2191""
","
","
","""event"",""trial"",""time""
""fullscreenenter"",""0"",""2191""
","
","null","<p></p>","null","","","","","","","",""
"","image","249","407668","0.0-229.0-0.0","""event"",""trial"",""time""
""fullscreenenter"",""0"",""2191""
","
","
","""event"",""trial"",""time""
""fullscreenenter"",""0"",""2191""
","
","941.1000000014901","run_exp/static/images/Set 6_rs/169a.jpg","66","","","","","","test","TR","4"
"","show_choice","250","408169","0.0-229.0-1.0","""event"",""trial"",""time""
""fullscreenenter"",""0"",""2191""
","
","
","""event"",""trial"",""time""
""fullscreenenter"",""0"",""2191""
","
","null","run_exp/static/images/Set 6_rs/169a.jpg","null","","","","","","test","TR",""
"","html-keyboard-response","251","408671","0.0-229.0-2.0","""event"",""trial"",""time""
""fullscreenenter"",""0"",""2191""
","
","
","""event"",""trial"",""time""
""fullscreenenter"",""0"",""2191""
","
","null","<p></p>","null","","","","","","","",""
"","image","252","409757","0.0-230.0-0.0","""event"",""trial"",""time""
""fullscreenenter"",""0"",""2191""
","
","
","""event"",""trial"",""time""
""fullscreenenter"",""0"",""2191""
","
","1082.699999999255","run_exp/static/images/Set 6_rs/022a.jpg","66","","","","","","test","TF","4"
"","show_choice","253","410262","0.0-230.0-1.0","""event"",""trial"",""time""
""fullscreenenter"",""0"",""2191""
","
","
","""event"",""trial"",""time""
""fullscreenenter"",""0"",""2191""
","
","null","run_exp/static/images/Set 6_rs/022a.jpg","null","","","","","","test","TF",""
"","html-keyboard-response","254","410764","0.0-230.0-2.0","""event"",""trial"",""time""
""fullscreenenter"",""0"",""2191""
","
","
","""event"",""trial"",""time""
""fullscreenenter"",""0"",""2191""
","
","null","<p></p>","null","","","","","","","",""
"","image","255","411768","0.0-231.0-0.0","""event"",""trial"",""time""
""fullscreenenter"",""0"",""2191""
","
","
","""event"",""trial"",""time""
""fullscreenenter"",""0"",""2191""
","
","1001.6999999992549","run_exp/static/images/Set 6_rs/063a.jpg","86","","","","","","test","TR","2"
"","show_choice","256","412270","0.0-231.0-1.0","""event"",""trial"",""time""
""fullscreenenter"",""0"",""2191""
","
","
","""event"",""trial"",""time""
""fullscreenenter"",""0"",""2191""
","
","null","run_exp/static/images/Set 6_rs/063a.jpg","null","","","","","","test","TR",""
"","html-keyboard-response","257","412772","0.0-231.0-2.0","""event"",""trial"",""time""
""fullscreenenter"",""0"",""2191""
","
","
","""event"",""trial"",""time""
""fullscreenenter"",""0"",""2191""
","
","null","<p></p>","null","","","","","","","",""
"","image","258","413533","0.0-232.0-0.0","""event"",""trial"",""time""
""fullscreenenter"",""0"",""2191""
","
","
","""event"",""trial"",""time""
""fullscreenenter"",""0"",""2191""
","
","758.7000000011176","run_exp/static/images/Set 6_rs/010a.jpg","86","","","","","","test","TR","5"
"","show_choice","259","414035","0.0-232.0-1.0","""event"",""trial"",""time""
""fullscreenenter"",""0"",""2191""
","
","
","""event"",""trial"",""time""
""fullscreenenter"",""0"",""2191""
","
","null","run_exp/static/images/Set 6_rs/010a.jpg","null","","","","","","test","TR",""
"","html-keyboard-response","260","414539","0.0-232.0-2.0","""event"",""trial"",""time""
""fullscreenenter"",""0"",""2191""
","
","
","""event"",""trial"",""time""
""fullscreenenter"",""0"",""2191""
","
","null","<p></p>","null","","","","","","","",""
"","image","261","415475","0.0-233.0-0.0","""event"",""trial"",""time""
""fullscreenenter"",""0"",""2191""
","
","
","""event"",""trial"",""time""
""fullscreenenter"",""0"",""2191""
","
","933.6999999992549","run_exp/static/images/Set 6_rs/070a.jpg","66","","","","","","test","TR","2"
"","show_choice","262","415980","0.0-233.0-1.0","""event"",""trial"",""time""
""fullscreenenter"",""0"",""2191""
","
","
","""event"",""trial"",""time""
""fullscreenenter"",""0"",""2191""
","
","null","run_exp/static/images/Set 6_rs/070a.jpg","null","","","","","","test","TR",""
"","html-keyboard-response","263","416482","0.0-233.0-2.0","""event"",""trial"",""time""
""fullscreenenter"",""0"",""2191""
","
","
","""event"",""trial"",""time""
""fullscreenenter"",""0"",""2191""
","
","null","<p></p>","null","","","","","","","",""
"","image","264","417374","0.0-234.0-0.0","""event"",""trial"",""time""
""fullscreenenter"",""0"",""2191""
","
","
","""event"",""trial"",""time""
""fullscreenenter"",""0"",""2191""
","
","890.2999999988824","run_exp/static/images/Set 6_rs/187a.jpg","86","","","","","","test","TR","3"
"","show_choice","265","417880","0.0-234.0-1.0","""event"",""trial"",""time""
""fullscreenenter"",""0"",""2191""
","
","
","""event"",""trial"",""time""
""fullscreenenter"",""0"",""2191""
","
","null","run_exp/static/images/Set 6_rs/187a.jpg","null","","","","","","test","TR",""
"","html-keyboard-response","266","418386","0.0-234.0-2.0","""event"",""trial"",""time""
""fullscreenenter"",""0"",""2191""
","
","
","""event"",""trial"",""time""
""fullscreenenter"",""0"",""2191""
","
","null","<p></p>","null","","","","","","","",""
"","image","267","419895","0.0-235.0-0.0","""event"",""trial"",""time""
""fullscreenenter"",""0"",""2191""
","
","
","""event"",""trial"",""time""
""fullscreenenter"",""0"",""2191""
","
","1506.699999999255","run_exp/static/images/Set 6_rs/021a.jpg","66","","","","","","test","TF","2"
"","show_choice","268","420400","0.0-235.0-1.0","""event"",""trial"",""time""
""fullscreenenter"",""0"",""2191""
","
","
","""event"",""trial"",""time""
""fullscreenenter"",""0"",""2191""
","
","null","run_exp/static/images/Set 6_rs/021a.jpg","null","","","","","","test","TF",""
"","html-keyboard-response","269","420903","0.0-235.0-2.0","""event"",""trial"",""time""
""fullscreenenter"",""0"",""2191""
","
","
","""event"",""trial"",""time""
""fullscreenenter"",""0"",""2191""
","
","null","<p></p>","null","","","","","","","",""
"","image","270","422227","0.0-236.0-0.0","""event"",""trial"",""time""
""fullscreenenter"",""0"",""2191""
","
","
","""event"",""trial"",""time""
""fullscreenenter"",""0"",""2191""
","
","1322.0999999996275","run_exp/static/images/Set 6_rs/111b.jpg","86","","","","","","test","TL","3"
"","show_choice","271","422734","0.0-236.0-1.0","""event"",""trial"",""time""
""fullscreenenter"",""0"",""2191""
","
","
","""event"",""trial"",""time""
""fullscreenenter"",""0"",""2191""
","
","null","run_exp/static/images/Set 6_rs/111b.jpg","null","","","","","","test","TL",""
"","html-keyboard-response","272","423243","0.0-236.0-2.0","""event"",""trial"",""time""
""fullscreenenter"",""0"",""2191""
","
","
","""event"",""trial"",""time""
""fullscreenenter"",""0"",""2191""
","
","null","<p></p>","null","","","","","","","",""
"","image","273","424170","0.0-237.0-0.0","""event"",""trial"",""time""
""fullscreenenter"",""0"",""2191""
","
","
","""event"",""trial"",""time""
""fullscreenenter"",""0"",""2191""
","
","924.9000000003725","run_exp/static/images/Set 6_rs/149a.jpg","78","","","","","","test","TF","1"
"","show_choice","274","424677","0.0-237.0-1.0","""event"",""trial"",""time""
""fullscreenenter"",""0"",""2191""
","
","
","""event"",""trial"",""time""
""fullscreenenter"",""0"",""2191""
","
","null","run_exp/static/images/Set 6_rs/149a.jpg","null","","","","","","test","TF",""
"","html-keyboard-response","275","425184","0.0-237.0-2.0","""event"",""trial"",""time""
""fullscreenenter"",""0"",""2191""
","
","
","""event"",""trial"",""time""
""fullscreenenter"",""0"",""2191""
","
","null","<p></p>","null","","","","","","","",""
"","image","276","426100","0.0-238.0-0.0","""event"",""trial"",""time""
""fullscreenenter"",""0"",""2191""
","
","
","""event"",""trial"",""time""
""fullscreenenter"",""0"",""2191""
","
","913.9000000003725","run_exp/static/images/Set 6_rs/186a.jpg","86","","","","","","test","TR","5"
"","show_choice","277","426606","0.0-238.0-1.0","""event"",""trial"",""time""
""fullscreenenter"",""0"",""2191""
","
","
","""event"",""trial"",""time""
""fullscreenenter"",""0"",""2191""
","
","null","run_exp/static/images/Set 6_rs/186a.jpg","null","","","","","","test","TR",""
"","html-keyboard-response","278","427108","0.0-238.0-2.0","""event"",""trial"",""time""
""fullscreenenter"",""0"",""2191""
","
","
","""event"",""trial"",""time""
""fullscreenenter"",""0"",""2191""
","
","null","<p></p>","null","","","","","","","",""
"","image","279","428090","0.0-239.0-0.0","""event"",""trial"",""time""
""fullscreenenter"",""0"",""2191""
","
","
","""event"",""trial"",""time""
""fullscreenenter"",""0"",""2191""
","
","979.4000000003725","run_exp/static/images/Set 6_rs/045a.jpg","86","","","","","","test","TR","2"
"","show_choice","280","428597","0.0-239.0-1.0","""event"",""trial"",""time""
""fullscreenenter"",""0"",""2191""
","
","
","""event"",""trial"",""time""
""fullscreenenter"",""0"",""2191""
","
","null","run_exp/static/images/Set 6_rs/045a.jpg","null","","","","","","test","TR",""
"","html-keyboard-response","281","429099","0.0-239.0-2.0","""event"",""trial"",""time""
""fullscreenenter"",""0"",""2191""
","
","
","""event"",""trial"",""time""
""fullscreenenter"",""0"",""2191""
","
","null","<p></p>","null","","","","","","","",""
"","image","282","429996","0.0-240.0-0.0","""event"",""trial"",""time""
""fullscreenenter"",""0"",""2191""
","
","
","""event"",""trial"",""time""
""fullscreenenter"",""0"",""2191""
","
","896.7000000011176","run_exp/static/images/Set 6_rs/178a.jpg","86","","","","","","test","TR","3"
"","show_choice","283","430502","0.0-240.0-1.0","""event"",""trial"",""time""
""fullscreenenter"",""0"",""2191""
","
","
","""event"",""trial"",""time""
""fullscreenenter"",""0"",""2191""
","
","null","run_exp/static/images/Set 6_rs/178a.jpg","null","","","","","","test","TR",""
"","html-keyboard-response","284","431003","0.0-240.0-2.0","""event"",""trial"",""time""
""fullscreenenter"",""0"",""2191""
","
","
","""event"",""trial"",""time""
""fullscreenenter"",""0"",""2191""
","
","null","<p></p>","null","","","","","","","",""
"","image","285","432056","0.0-241.0-0.0","""event"",""trial"",""time""
""fullscreenenter"",""0"",""2191""
","
","
","""event"",""trial"",""time""
""fullscreenenter"",""0"",""2191""
","
","1050.7000000011176","run_exp/static/images/Set 6_rs/073b.jpg","66","","","","","","test","TL","3"
"","show_choice","286","432560","0.0-241.0-1.0","""event"",""trial"",""time""
""fullscreenenter"",""0"",""2191""
","
","
","""event"",""trial"",""time""
""fullscreenenter"",""0"",""2191""
","
","null","run_exp/static/images/Set 6_rs/073b.jpg","null","","","","","","test","TL",""
"","html-keyboard-response","287","433063","0.0-241.0-2.0","""event"",""trial"",""time""
""fullscreenenter"",""0"",""2191""
","
","
","""event"",""trial"",""time""
""fullscreenenter"",""0"",""2191""
","
","null","<p></p>","null","","","","","","","",""
"","image","288","434251","0.0-242.0-0.0","""event"",""trial"",""time""
""fullscreenenter"",""0"",""2191""
","
","
","""event"",""trial"",""time""
""fullscreenenter"",""0"",""2191""
","
","1185.2999999988824","run_exp/static/images/Set 6_rs/079b.jpg","66","","","","","","test","TL","5"
"","show_choice","289","434756","0.0-242.0-1.0","""event"",""trial"",""time""
""fullscreenenter"",""0"",""2191""
","
","
","""event"",""trial"",""time""
""fullscreenenter"",""0"",""2191""
","
","null","run_exp/static/images/Set 6_rs/079b.jpg","null","","","","","","test","TL",""
"","html-keyboard-response","290","435258","0.0-242.0-2.0","""event"",""trial"",""time""
""fullscreenenter"",""0"",""2191""
","
","
","""event"",""trial"",""time""
""fullscreenenter"",""0"",""2191""
","
","null","<p></p>","null","","","","","","","",""
"","image","291","436207","0.0-243.0-0.0","""event"",""trial"",""time""
""fullscreenenter"",""0"",""2191""
","
","
","""event"",""trial"",""time""
""fullscreenenter"",""0"",""2191""
","
","947.0999999996275","run_exp/static/images/Set 6_rs/024a.jpg","86","","","","","","test","TR","5"
"","show_choice","292","436711","0.0-243.0-1.0","""event"",""trial"",""time""
""fullscreenenter"",""0"",""2191""
","
","
","""event"",""trial"",""time""
""fullscreenenter"",""0"",""2191""
","
","null","run_exp/static/images/Set 6_rs/024a.jpg","null","","","","","","test","TR",""
"","html-keyboard-response","293","437217","0.0-243.0-2.0","""event"",""trial"",""time""
""fullscreenenter"",""0"",""2191""
","
","
","""event"",""trial"",""time""
""fullscreenenter"",""0"",""2191""
","
","null","<p></p>","null","","","","","","","",""
"","image","294","438501","0.0-244.0-0.0","""event"",""trial"",""time""
""fullscreenenter"",""0"",""2191""
","
","
","""event"",""trial"",""time""
""fullscreenenter"",""0"",""2191""
","
","1282.0999999996275","run_exp/static/images/Set 6_rs/074b.jpg","66","","","","","","test","TL","4"
"","show_choice","295","439004","0.0-244.0-1.0","""event"",""trial"",""time""
""fullscreenenter"",""0"",""2191""
","
","
","""event"",""trial"",""time""
""fullscreenenter"",""0"",""2191""
","
","null","run_exp/static/images/Set 6_rs/074b.jpg","null","","","","","","test","TL",""
"","html-keyboard-response","296","439508","0.0-244.0-2.0","""event"",""trial"",""time""
""fullscreenenter"",""0"",""2191""
","
","
","""event"",""trial"",""time""
""fullscreenenter"",""0"",""2191""
","
","null","<p></p>","null","","","","","","","",""
"","image","297","440880","0.0-245.0-0.0","""event"",""trial"",""time""
""fullscreenenter"",""0"",""2191""
","
","
","""event"",""trial"",""time""
""fullscreenenter"",""0"",""2191""
","
","1369.7000000011176","run_exp/static/images/Set 6_rs/048a.jpg","86","","","","","","test","TF","4"
"","show_choice","298","441386","0.0-245.0-1.0","""event"",""trial"",""time""
""fullscreenenter"",""0"",""2191""
","
","
","""event"",""trial"",""time""
""fullscreenenter"",""0"",""2191""
","
","null","run_exp/static/images/Set 6_rs/048a.jpg","null","","","","","","test","TF",""
"","html-keyboard-response","299","441888","0.0-245.0-2.0","""event"",""trial"",""time""
""fullscreenenter"",""0"",""2191""
","
","
","""event"",""trial"",""time""
""fullscreenenter"",""0"",""2191""
","
","null","<p></p>","null","","","","","","","",""
"","image","300","442813","0.0-246.0-0.0","""event"",""trial"",""time""
""fullscreenenter"",""0"",""2191""
","
","
","""event"",""trial"",""time""
""fullscreenenter"",""0"",""2191""
","
","922.7000000011176","run_exp/static/images/Set 6_rs/131a.jpg","86","","","","","","test","TR","5"
"","show_choice","301","443315","0.0-246.0-1.0","""event"",""trial"",""time""
""fullscreenenter"",""0"",""2191""
","
","
","""event"",""trial"",""time""
""fullscreenenter"",""0"",""2191""
","
","null","run_exp/static/images/Set 6_rs/131a.jpg","null","","","","","","test","TR",""
"","html-keyboard-response","302","443822","0.0-246.0-2.0","""event"",""trial"",""time""
""fullscreenenter"",""0"",""2191""
","
","
","""event"",""trial"",""time""
""fullscreenenter"",""0"",""2191""
","
","null","<p></p>","null","","","","","","","",""
"","image","303","445320","0.0-247.0-0.0","""event"",""trial"",""time""
""fullscreenenter"",""0"",""2191""
","
","
","""event"",""trial"",""time""
""fullscreenenter"",""0"",""2191""
","
","1495.5","run_exp/static/images/Set 6_rs/144b.jpg","66","","","","","","test","TL","4"
"","show_choice","304","445825","0.0-247.0-1.0","""event"",""trial"",""time""
""fullscreenenter"",""0"",""2191""
","
","
","""event"",""trial"",""time""
""fullscreenenter"",""0"",""2191""
","
","null","run_exp/static/images/Set 6_rs/144b.jpg","null","","","","","","test","TL",""
"","html-keyboard-response","305","446327","0.0-247.0-2.0","""event"",""trial"",""time""
""fullscreenenter"",""0"",""2191""
","
","
","""event"",""trial"",""time""
""fullscreenenter"",""0"",""2191""
","
","null","<p></p>","null","","","","","","","",""
"","image","306","447471","0.0-248.0-0.0","""event"",""trial"",""time""
""fullscreenenter"",""0"",""2191""
","
","
","""event"",""trial"",""time""
""fullscreenenter"",""0"",""2191""
","
","1141.199999999255","run_exp/static/images/Set 6_rs/140a.jpg","66","","","","","","test","TF","1"
"","show_choice","307","447973","0.0-248.0-1.0","""event"",""trial"",""time""
""fullscreenenter"",""0"",""2191""
","
","
","""event"",""trial"",""time""
""fullscreenenter"",""0"",""2191""
","
","null","run_exp/static/images/Set 6_rs/140a.jpg","null","","","","","","test","TF",""
"","html-keyboard-response","308","448480","0.0-248.0-2.0","""event"",""trial"",""time""
""fullscreenenter"",""0"",""2191""
","
","
","""event"",""trial"",""time""
""fullscreenenter"",""0"",""2191""
","
","null","<p></p>","null","","","","","","","",""
"","image","309","449622","0.0-249.0-0.0","""event"",""trial"",""time""
""fullscreenenter"",""0"",""2191""
","
","
","""event"",""trial"",""time""
""fullscreenenter"",""0"",""2191""
","
","1140.300000000745","run_exp/static/images/Set 6_rs/014b.jpg","66","","","","","","test","TL","5"
"","show_choice","310","450130","0.0-249.0-1.0","""event"",""trial"",""time""
""fullscreenenter"",""0"",""2191""
","
","
","""event"",""trial"",""time""
""fullscreenenter"",""0"",""2191""
","
","null","run_exp/static/images/Set 6_rs/014b.jpg","null","","","","","","test","TL",""
"","html-keyboard-response","311","450633","0.0-249.0-2.0","""event"",""trial"",""time""
""fullscreenenter"",""0"",""2191""
","
","
","""event"",""trial"",""time""
""fullscreenenter"",""0"",""2191""
","
","null","<p></p>","null","","","","","","","",""
"","image","312","451583","0.0-250.0-0.0","""event"",""trial"",""time""
""fullscreenenter"",""0"",""2191""
","
","
","""event"",""trial"",""time""
""fullscreenenter"",""0"",""2191""
","
","948.1999999992549","run_exp/static/images/Set 6_rs/132a.jpg","86","","","","","","test","TR","5"
"","show_choice","313","452085","0.0-250.0-1.0","""event"",""trial"",""time""
""fullscreenenter"",""0"",""2191""
","
","
","""event"",""trial"",""time""
""fullscreenenter"",""0"",""2191""
","
","null","run_exp/static/images/Set 6_rs/132a.jpg","null","","","","","","test","TR",""
"","html-keyboard-response","314","452591","0.0-250.0-2.0","""event"",""trial"",""time""
""fullscreenenter"",""0"",""2191""
","
","
","""event"",""trial"",""time""
""fullscreenenter"",""0"",""2191""
","
","null","<p></p>","null","","","","","","","",""
"","image","315","454033","0.0-251.0-0.0","""event"",""trial"",""time""
""fullscreenenter"",""0"",""2191""
","
","
","""event"",""trial"",""time""
""fullscreenenter"",""0"",""2191""
","
","1439.7000000011176","run_exp/static/images/Set 6_rs/065a.jpg","66","","","","","","test","TF","3"
"","show_choice","316","454538","0.0-251.0-1.0","""event"",""trial"",""time""
""fullscreenenter"",""0"",""2191""
","
","
","""event"",""trial"",""time""
""fullscreenenter"",""0"",""2191""
","
","null","run_exp/static/images/Set 6_rs/065a.jpg","null","","","","","","test","TF",""
"","html-keyboard-response","317","455040","0.0-251.0-2.0","""event"",""trial"",""time""
""fullscreenenter"",""0"",""2191""
","
","
","""event"",""trial"",""time""
""fullscreenenter"",""0"",""2191""
","
","null","<p></p>","null","","","","","","","",""
"","image","318","456176","0.0-252.0-0.0","""event"",""trial"",""time""
""fullscreenenter"",""0"",""2191""
","
","
","""event"",""trial"",""time""
""fullscreenenter"",""0"",""2191""
","
","1133.4000000003725","run_exp/static/images/Set 6_rs/086a.jpg","66","","","","","","test","TF","1"
"","show_choice","319","456681","0.0-252.0-1.0","""event"",""trial"",""time""
""fullscreenenter"",""0"",""2191""
","
","
","""event"",""trial"",""time""
""fullscreenenter"",""0"",""2191""
","
","null","run_exp/static/images/Set 6_rs/086a.jpg","null","","","","","","test","TF",""
"","html-keyboard-response","320","457187","0.0-252.0-2.0","""event"",""trial"",""time""
""fullscreenenter"",""0"",""2191""
","
","
","""event"",""trial"",""time""
""fullscreenenter"",""0"",""2191""
","
","null","<p></p>","null","","","","","","","",""
"","image","321","458031","0.0-253.0-0.0","""event"",""trial"",""time""
""fullscreenenter"",""0"",""2191""
","
","
","""event"",""trial"",""time""
""fullscreenenter"",""0"",""2191""
","
","842.1000000014901","run_exp/static/images/Set 6_rs/090a.jpg","78","","","","","","test","TF","5"
"","show_choice","322","458537","0.0-253.0-1.0","""event"",""trial"",""time""
""fullscreenenter"",""0"",""2191""
","
","
","""event"",""trial"",""time""
""fullscreenenter"",""0"",""2191""
","
","null","run_exp/static/images/Set 6_rs/090a.jpg","null","","","","","","test","TF",""
"","html-keyboard-response","323","459043","0.0-253.0-2.0","""event"",""trial"",""time""
""fullscreenenter"",""0"",""2191""
","
","
","""event"",""trial"",""time""
""fullscreenenter"",""0"",""2191""
","
","null","<p></p>","null","","","","","","","",""
"","image","324","460117","0.0-254.0-0.0","""event"",""trial"",""time""
""fullscreenenter"",""0"",""2191""
","
","
","""event"",""trial"",""time""
""fullscreenenter"",""0"",""2191""
","
","1071.9000000003725","run_exp/static/images/Set 6_rs/122a.jpg","86","","","","","","test","TR","5"
"","show_choice","325","460622","0.0-254.0-1.0","""event"",""trial"",""time""
""fullscreenenter"",""0"",""2191""
","
","
","""event"",""trial"",""time""
""fullscreenenter"",""0"",""2191""
","
","null","run_exp/static/images/Set 6_rs/122a.jpg","null","","","","","","test","TR",""
"","html-keyboard-response","326","461127","0.0-254.0-2.0","""event"",""trial"",""time""
""fullscreenenter"",""0"",""2191""
","
","
","""event"",""trial"",""time""
""fullscreenenter"",""0"",""2191""
","
","null","<p></p>","null","","","","","","","",""
"","image","327","462196","0.0-255.0-0.0","""event"",""trial"",""time""
""fullscreenenter"",""0"",""2191""
","
","
","""event"",""trial"",""time""
""fullscreenenter"",""0"",""2191""
","
","1067.2999999988824","run_exp/static/images/Set 6_rs/077a.jpg","66","","","","","","test","TF","3"
"","show_choice","328","462704","0.0-255.0-1.0","""event"",""trial"",""time""
""fullscreenenter"",""0"",""2191""
","
","
","""event"",""trial"",""time""
""fullscreenenter"",""0"",""2191""
","
","null","run_exp/static/images/Set 6_rs/077a.jpg","null","","","","","","test","TF",""
"","html-keyboard-response","329","463213","0.0-255.0-2.0","""event"",""trial"",""time""
""fullscreenenter"",""0"",""2191""
","
","
","""event"",""trial"",""time""
""fullscreenenter"",""0"",""2191""
","
","null","<p></p>","null","","","","","","","",""
"","image","330","464130","0.0-256.0-0.0","""event"",""trial"",""time""
""fullscreenenter"",""0"",""2191""
","
","
","""event"",""trial"",""time""
""fullscreenenter"",""0"",""2191""
","
","915","run_exp/static/images/Set 6_rs/023a.jpg","86","","","","","","test","TR","3"
"","show_choice","331","464637","0.0-256.0-1.0","""event"",""trial"",""time""
""fullscreenenter"",""0"",""2191""
","
","
","""event"",""trial"",""time""
""fullscreenenter"",""0"",""2191""
","
","null","run_exp/static/images/Set 6_rs/023a.jpg","null","","","","","","test","TR",""
"","html-keyboard-response","332","465139","0.0-256.0-2.0","""event"",""trial"",""time""
""fullscreenenter"",""0"",""2191""
","
","
","""event"",""trial"",""time""
""fullscreenenter"",""0"",""2191""
","
","null","<p></p>","null","","","","","","","",""
"","image","333","466018","0.0-257.0-0.0","""event"",""trial"",""time""
""fullscreenenter"",""0"",""2191""
","
","
","""event"",""trial"",""time""
""fullscreenenter"",""0"",""2191""
","
","876.9000000003725","run_exp/static/images/Set 6_rs/181b.jpg","86","","","","","","test","TL","1"
"","show_choice","334","466521","0.0-257.0-1.0","""event"",""trial"",""time""
""fullscreenenter"",""0"",""2191""
","
","
","""event"",""trial"",""time""
""fullscreenenter"",""0"",""2191""
","
","null","run_exp/static/images/Set 6_rs/181b.jpg","null","","","","","","test","TL",""
"","html-keyboard-response","335","467025","0.0-257.0-2.0","""event"",""trial"",""time""
""fullscreenenter"",""0"",""2191""
","
","
","""event"",""trial"",""time""
""fullscreenenter"",""0"",""2191""
","
","null","<p></p>","null","","","","","","","",""
"","image","336","467973","0.0-258.0-0.0","""event"",""trial"",""time""
""fullscreenenter"",""0"",""2191""
","
","
","""event"",""trial"",""time""
""fullscreenenter"",""0"",""2191""
","
","946.5999999996275","run_exp/static/images/Set 6_rs/076a.jpg","86","","","","","","test","TR","4"
"","show_choice","337","468475","0.0-258.0-1.0","""event"",""trial"",""time""
""fullscreenenter"",""0"",""2191""
","
","
","""event"",""trial"",""time""
""fullscreenenter"",""0"",""2191""
","
","null","run_exp/static/images/Set 6_rs/076a.jpg","null","","","","","","test","TR",""
"","html-keyboard-response","338","468982","0.0-258.0-2.0","""event"",""trial"",""time""
""fullscreenenter"",""0"",""2191""
","
","
","""event"",""trial"",""time""
""fullscreenenter"",""0"",""2191""
","
","null","<p></p>","null","","","","","","","",""
"","image","339","470043","0.0-259.0-0.0","""event"",""trial"",""time""
""fullscreenenter"",""0"",""2191""
","
","
","""event"",""trial"",""time""
""fullscreenenter"",""0"",""2191""
","
","1058.5999999996275","run_exp/static/images/Set 6_rs/011a.jpg","66","","","","","","test","TF","3"
"","show_choice","340","470550","0.0-259.0-1.0","""event"",""trial"",""time""
""fullscreenenter"",""0"",""2191""
","
","
","""event"",""trial"",""time""
""fullscreenenter"",""0"",""2191""
","
