"success","trial_type","trial_index","time_elapsed","internal_node_id","interactions","blur_events","focus_events","fullscreenenter_events","fullscreenexit_events","rt","stimulus","key_press","subject_id","participant_id","age","gender","prompt","phase","condition","lure_bin"
"true","fullscreen","0","8194","0.0-0.0","""event"",""trial"",""time""
""blur"",""0"",""2634""
""focus"",""0"",""5615""
""fullscreenenter"",""0"",""7298""
","""event"",""trial"",""time""
""blur"",""0"",""2634""
","""event"",""trial"",""time""
""focus"",""0"",""5615""
","""event"",""trial"",""time""
""fullscreenenter"",""0"",""7298""
","
","","","","","","","","","","",""
"","pavlovia","1","8201","0.0-1.0","""event"",""trial"",""time""
""blur"",""0"",""2634""
""focus"",""0"",""5615""
""fullscreenenter"",""0"",""7298""
","""event"",""trial"",""time""
""blur"",""0"",""2634""
","""event"",""trial"",""time""
""focus"",""0"",""5615""
","""event"",""trial"",""time""
""fullscreenenter"",""0"",""7298""
","
","","","","","","","","","","",""
"","welcome","2","43196","0.0-2.0","""event"",""trial"",""time""
""blur"",""0"",""2634""
""focus"",""0"",""5615""
""fullscreenenter"",""0"",""7298""
","""event"",""trial"",""time""
""blur"",""0"",""2634""
","""event"",""trial"",""time""
""focus"",""0"",""5615""
","""event"",""trial"",""time""
""fullscreenenter"",""0"",""7298""
","
","null","run_exp/static/audio/clip_1_welcome.m4a","null","539","618","25","Female","<div class='center'><p>Welcome to the third part of the study! First, you'll be shown pictures of items one at a time. For each picture, you have to decide if the item is typically found indoors or outdoors.</p><p>If you think it's usually found indoors, then press <b>v</b> key on your keyboard. If you think it's usually found outdoors, then press the <b>n</b> key.There will be reminders on the screen to help you remember which keys to press. </p><p>If you're not sure whether the item is an indoor item or an outdoor item, go ahead and take a guess but try your best not to skip that choice. </p></div>","","",""
"","html-keyboard-response","3","44288","0.0-3.0","""event"",""trial"",""time""
""blur"",""0"",""2634""
""focus"",""0"",""5615""
""fullscreenenter"",""0"",""7298""
","""event"",""trial"",""time""
""blur"",""0"",""2634""
","""event"",""trial"",""time""
""focus"",""0"",""5615""
","""event"",""trial"",""time""
""fullscreenenter"",""0"",""7298""
","
","1089.4000000953674","<div class='center'><p>Welcome to the third part of the study! First, you'll be shown pictures of items one at a time. For each picture, you have to decide if the item is typically found indoors or outdoors.</p><p>If you think it's usually found indoors, then press <b>v</b> key on your keyboard. If you think it's usually found outdoors, then press the <b>n</b> key.There will be reminders on the screen to help you remember which keys to press. </p><p>If you're not sure whether the item is an indoor item or an outdoor item, go ahead and take a guess but try your best not to skip that choice. </p><div><p><b>[Press the space bar to continue]</b></p></div>","32","","","","","","","",""
"","image","4","46292","0.0-4.0","""event"",""trial"",""time""
""blur"",""0"",""2634""
""focus"",""0"",""5615""
""fullscreenenter"",""0"",""7298""
","""event"",""trial"",""time""
""blur"",""0"",""2634""
","""event"",""trial"",""time""
""focus"",""0"",""5615""
","""event"",""trial"",""time""
""fullscreenenter"",""0"",""7298""
","
","null","run_exp/static/images/Set 6_rs/169a.jpg","null","","","","","","learn","SR",""
"","show_choice","5","48296","0.0-5.0","""event"",""trial"",""time""
""blur"",""0"",""2634""
""focus"",""0"",""5615""
""fullscreenenter"",""0"",""7298""
","""event"",""trial"",""time""
""blur"",""0"",""2634""
","""event"",""trial"",""time""
""focus"",""0"",""5615""
","""event"",""trial"",""time""
""fullscreenenter"",""0"",""7298""
","
","null","run_exp/static/images/blank.png","null","","","","","","learn","SR",""
"","html-keyboard-response","6","48802","0.0-6.0","""event"",""trial"",""time""
""blur"",""0"",""2634""
""focus"",""0"",""5615""
""fullscreenenter"",""0"",""7298""
","""event"",""trial"",""time""
""blur"",""0"",""2634""
","""event"",""trial"",""time""
""focus"",""0"",""5615""
","""event"",""trial"",""time""
""fullscreenenter"",""0"",""7298""
","
","null","<p></p>","null","","","","","","","",""
"","image","7","49429","0.0-7.0","""event"",""trial"",""time""
""blur"",""0"",""2634""
""focus"",""0"",""5615""
""fullscreenenter"",""0"",""7298""
","""event"",""trial"",""time""
""blur"",""0"",""2634""
","""event"",""trial"",""time""
""focus"",""0"",""5615""
","""event"",""trial"",""time""
""fullscreenenter"",""0"",""7298""
","
","625.1999999284744","run_exp/static/images/Set 6_rs/150a.jpg","86","","","","","","learn","SR",""
"","show_choice","8","50807","0.0-8.0","""event"",""trial"",""time""
""blur"",""0"",""2634""
""focus"",""0"",""5615""
""fullscreenenter"",""0"",""7298""
","""event"",""trial"",""time""
""blur"",""0"",""2634""
","""event"",""trial"",""time""
""focus"",""0"",""5615""
","""event"",""trial"",""time""
""fullscreenenter"",""0"",""7298""
","
","null","run_exp/static/images/Set 6_rs/150a.jpg","null","","","","","","learn","SR",""
"","html-keyboard-response","9","51313","0.0-9.0","""event"",""trial"",""time""
""blur"",""0"",""2634""
""focus"",""0"",""5615""
""fullscreenenter"",""0"",""7298""
","""event"",""trial"",""time""
""blur"",""0"",""2634""
","""event"",""trial"",""time""
""focus"",""0"",""5615""
","""event"",""trial"",""time""
""fullscreenenter"",""0"",""7298""
","
","null","<p></p>","null","","","","","","","",""
"","image","10","52104","0.0-10.0","""event"",""trial"",""time""
""blur"",""0"",""2634""
""focus"",""0"",""5615""
""fullscreenenter"",""0"",""7298""
","""event"",""trial"",""time""
""blur"",""0"",""2634""
","""event"",""trial"",""time""
""focus"",""0"",""5615""
","""event"",""trial"",""time""
""fullscreenenter"",""0"",""7298""
","
","788.1000000238419","run_exp/static/images/Set 6_rs/117a.jpg","86","","","","","","learn","SL",""
"","show_choice","11","53317","0.0-11.0","""event"",""trial"",""time""
""blur"",""0"",""2634""
""focus"",""0"",""5615""
""fullscreenenter"",""0"",""7298""
","""event"",""trial"",""time""
""blur"",""0"",""2634""
","""event"",""trial"",""time""
""focus"",""0"",""5615""
","""event"",""trial"",""time""
""fullscreenenter"",""0"",""7298""
","
","null","run_exp/static/images/Set 6_rs/117a.jpg","null","","","","","","learn","SL",""
"","html-keyboard-response","12","53823","0.0-12.0","""event"",""trial"",""time""
""blur"",""0"",""2634""
""focus"",""0"",""5615""
""fullscreenenter"",""0"",""7298""
","""event"",""trial"",""time""
""blur"",""0"",""2634""
","""event"",""trial"",""time""
""focus"",""0"",""5615""
","""event"",""trial"",""time""
""fullscreenenter"",""0"",""7298""
","
","null","<p></p>","null","","","","","","","",""
"","image","13","54595","0.0-13.0","""event"",""trial"",""time""
""blur"",""0"",""2634""
""focus"",""0"",""5615""
""fullscreenenter"",""0"",""7298""
","""event"",""trial"",""time""
""blur"",""0"",""2634""
","""event"",""trial"",""time""
""focus"",""0"",""5615""
","""event"",""trial"",""time""
""fullscreenenter"",""0"",""7298""
","
","769.8000000715256","run_exp/static/images/Set 6_rs/187a.jpg","86","","","","","","learn","SR",""
"","show_choice","14","55830","0.0-14.0","""event"",""trial"",""time""
""blur"",""0"",""2634""
""focus"",""0"",""5615""
""fullscreenenter"",""0"",""7298""
","""event"",""trial"",""time""
""blur"",""0"",""2634""
","""event"",""trial"",""time""
""focus"",""0"",""5615""
","""event"",""trial"",""time""
""fullscreenenter"",""0"",""7298""
","
","null","run_exp/static/images/Set 6_rs/187a.jpg","null","","","","","","learn","SR",""
"","html-keyboard-response","15","56333","0.0-15.0","""event"",""trial"",""time""
""blur"",""0"",""2634""
""focus"",""0"",""5615""
""fullscreenenter"",""0"",""7298""
","""event"",""trial"",""time""
""blur"",""0"",""2634""
","""event"",""trial"",""time""
""focus"",""0"",""5615""
","""event"",""trial"",""time""
""fullscreenenter"",""0"",""7298""
","
","null","<p></p>","null","","","","","","","",""
"","image","16","57007","0.0-16.0","""event"",""trial"",""time""
""blur"",""0"",""2634""
""focus"",""0"",""5615""
""fullscreenenter"",""0"",""7298""
","""event"",""trial"",""time""
""blur"",""0"",""2634""
","""event"",""trial"",""time""
""focus"",""0"",""5615""
","""event"",""trial"",""time""
""fullscreenenter"",""0"",""7298""
","
","672.2999999523163","run_exp/static/images/Set 6_rs/007a.jpg","86","","","","","","learn","SR",""
"","show_choice","17","58337","0.0-17.0","""event"",""trial"",""time""
""blur"",""0"",""2634""
""focus"",""0"",""5615""
""fullscreenenter"",""0"",""7298""
","""event"",""trial"",""time""
""blur"",""0"",""2634""
","""event"",""trial"",""time""
""focus"",""0"",""5615""
","""event"",""trial"",""time""
""fullscreenenter"",""0"",""7298""
","
","null","run_exp/static/images/Set 6_rs/007a.jpg","null","","","","","","learn","SR",""
"","html-keyboard-response","18","58842","0.0-18.0","""event"",""trial"",""time""
""blur"",""0"",""2634""
""focus"",""0"",""5615""
""fullscreenenter"",""0"",""7298""
","""event"",""trial"",""time""
""blur"",""0"",""2634""
","""event"",""trial"",""time""
""focus"",""0"",""5615""
","""event"",""trial"",""time""
""fullscreenenter"",""0"",""7298""
","
","null","<p></p>","null","","","","","","","",""
"","image","19","59859","0.0-19.0","""event"",""trial"",""time""
""blur"",""0"",""2634""
""focus"",""0"",""5615""
""fullscreenenter"",""0"",""7298""
","""event"",""trial"",""time""
""blur"",""0"",""2634""
","""event"",""trial"",""time""
""focus"",""0"",""5615""
","""event"",""trial"",""time""
""fullscreenenter"",""0"",""7298""
","
","1015.2000000476837","run_exp/static/images/Set 6_rs/134a.jpg","86","","","","","","learn","SR",""
"","show_choice","20","60849","0.0-20.0","""event"",""trial"",""time""
""blur"",""0"",""2634""
""focus"",""0"",""5615""
""fullscreenenter"",""0"",""7298""
","""event"",""trial"",""time""
""blur"",""0"",""2634""
","""event"",""trial"",""time""
""focus"",""0"",""5615""
","""event"",""trial"",""time""
""fullscreenenter"",""0"",""7298""
","
","null","run_exp/static/images/Set 6_rs/134a.jpg","null","","","","","","learn","SR",""
"","html-keyboard-response","21","61356","0.0-21.0","""event"",""trial"",""time""
""blur"",""0"",""2634""
""focus"",""0"",""5615""
""fullscreenenter"",""0"",""7298""
","""event"",""trial"",""time""
""blur"",""0"",""2634""
","""event"",""trial"",""time""
""focus"",""0"",""5615""
","""event"",""trial"",""time""
""fullscreenenter"",""0"",""7298""
","
","null","<p></p>","null","","","","","","","",""
"","image","22","62160","0.0-22.0","""event"",""trial"",""time""
""blur"",""0"",""2634""
""focus"",""0"",""5615""
""fullscreenenter"",""0"",""7298""
","""event"",""trial"",""time""
""blur"",""0"",""2634""
","""event"",""trial"",""time""
""focus"",""0"",""5615""
","""event"",""trial"",""time""
""fullscreenenter"",""0"",""7298""
","
","803","run_exp/static/images/Set 6_rs/144a.jpg","86","","","","","","learn","SL",""
"","show_choice","23","63363","0.0-23.0","""event"",""trial"",""time""
""blur"",""0"",""2634""
""focus"",""0"",""5615""
""fullscreenenter"",""0"",""7298""
","""event"",""trial"",""time""
""blur"",""0"",""2634""
","""event"",""trial"",""time""
""focus"",""0"",""5615""
","""event"",""trial"",""time""
""fullscreenenter"",""0"",""7298""
","
","null","run_exp/static/images/Set 6_rs/144a.jpg","null","","","","","","learn","SL",""
"","html-keyboard-response","24","63867","0.0-24.0","""event"",""trial"",""time""
""blur"",""0"",""2634""
""focus"",""0"",""5615""
""fullscreenenter"",""0"",""7298""
","""event"",""trial"",""time""
""blur"",""0"",""2634""
","""event"",""trial"",""time""
""focus"",""0"",""5615""
","""event"",""trial"",""time""
""fullscreenenter"",""0"",""7298""
","
","null","<p></p>","null","","","","","","","",""
"","image","25","64755","0.0-25.0","""event"",""trial"",""time""
""blur"",""0"",""2634""
""focus"",""0"",""5615""
""fullscreenenter"",""0"",""7298""
","""event"",""trial"",""time""
""blur"",""0"",""2634""
","""event"",""trial"",""time""
""focus"",""0"",""5615""
","""event"",""trial"",""time""
""fullscreenenter"",""0"",""7298""
","
","885.5","run_exp/static/images/Set 6_rs/061a.jpg","78","","","","","","learn","SR",""
"","show_choice","26","65874","0.0-26.0","""event"",""trial"",""time""
""blur"",""0"",""2634""
""focus"",""0"",""5615""
""fullscreenenter"",""0"",""7298""
","""event"",""trial"",""time""
""blur"",""0"",""2634""
","""event"",""trial"",""time""
""focus"",""0"",""5615""
","""event"",""trial"",""time""
""fullscreenenter"",""0"",""7298""
","
","null","run_exp/static/images/Set 6_rs/061a.jpg","null","","","","","","learn","SR",""
"","html-keyboard-response","27","66381","0.0-27.0","""event"",""trial"",""time""
""blur"",""0"",""2634""
""focus"",""0"",""5615""
""fullscreenenter"",""0"",""7298""
","""event"",""trial"",""time""
""blur"",""0"",""2634""
","""event"",""trial"",""time""
""focus"",""0"",""5615""
","""event"",""trial"",""time""
""fullscreenenter"",""0"",""7298""
","
","null","<p></p>","null","","","","","","","",""
"","image","28","67204","0.0-28.0","""event"",""trial"",""time""
""blur"",""0"",""2634""
""focus"",""0"",""5615""
""fullscreenenter"",""0"",""7298""
","""event"",""trial"",""time""
""blur"",""0"",""2634""
","""event"",""trial"",""time""
""focus"",""0"",""5615""
","""event"",""trial"",""time""
""fullscreenenter"",""0"",""7298""
","
","821.5","run_exp/static/images/Set 6_rs/116a.jpg","86","","","","","","learn","SL",""
"","show_choice","29","68388","0.0-29.0","""event"",""trial"",""time""
""blur"",""0"",""2634""
""focus"",""0"",""5615""
""fullscreenenter"",""0"",""7298""
","""event"",""trial"",""time""
""blur"",""0"",""2634""
","""event"",""trial"",""time""
""focus"",""0"",""5615""
","""event"",""trial"",""time""
""fullscreenenter"",""0"",""7298""
","
","null","run_exp/static/images/Set 6_rs/116a.jpg","null","","","","","","learn","SL",""
"","html-keyboard-response","30","68895","0.0-30.0","""event"",""trial"",""time""
""blur"",""0"",""2634""
""focus"",""0"",""5615""
""fullscreenenter"",""0"",""7298""
","""event"",""trial"",""time""
""blur"",""0"",""2634""
","""event"",""trial"",""time""
""focus"",""0"",""5615""
","""event"",""trial"",""time""
""fullscreenenter"",""0"",""7298""
","
","null","<p></p>","null","","","","","","","",""
"","image","31","69743","0.0-31.0","""event"",""trial"",""time""
""blur"",""0"",""2634""
""focus"",""0"",""5615""
""fullscreenenter"",""0"",""7298""
","""event"",""trial"",""time""
""blur"",""0"",""2634""
","""event"",""trial"",""time""
""focus"",""0"",""5615""
","""event"",""trial"",""time""
""fullscreenenter"",""0"",""7298""
","
","846.2999999523163","run_exp/static/images/Set 6_rs/074a.jpg","78","","","","","","learn","SL",""
"","show_choice","32","70902","0.0-32.0","""event"",""trial"",""time""
""blur"",""0"",""2634""
""focus"",""0"",""5615""
""fullscreenenter"",""0"",""7298""
","""event"",""trial"",""time""
""blur"",""0"",""2634""
","""event"",""trial"",""time""
""focus"",""0"",""5615""
","""event"",""trial"",""time""
""fullscreenenter"",""0"",""7298""
","
","null","run_exp/static/images/Set 6_rs/074a.jpg","null","","","","","","learn","SL",""
"","html-keyboard-response","33","71408","0.0-33.0","""event"",""trial"",""time""
""blur"",""0"",""2634""
""focus"",""0"",""5615""
""fullscreenenter"",""0"",""7298""
","""event"",""trial"",""time""
""blur"",""0"",""2634""
","""event"",""trial"",""time""
""focus"",""0"",""5615""
","""event"",""trial"",""time""
""fullscreenenter"",""0"",""7298""
","
","null","<p></p>","null","","","","","","","",""
"","image","34","72288","0.0-34.0","""event"",""trial"",""time""
""blur"",""0"",""2634""
""focus"",""0"",""5615""
""fullscreenenter"",""0"",""7298""
","""event"",""trial"",""time""
""blur"",""0"",""2634""
","""event"",""trial"",""time""
""focus"",""0"",""5615""
","""event"",""trial"",""time""
""fullscreenenter"",""0"",""7298""
","
","877.9000000953674","run_exp/static/images/Set 6_rs/088a.jpg","86","","","","","","learn","SR",""
"","show_choice","35","73413","0.0-35.0","""event"",""trial"",""time""
""blur"",""0"",""2634""
""focus"",""0"",""5615""
""fullscreenenter"",""0"",""7298""
","""event"",""trial"",""time""
""blur"",""0"",""2634""
","""event"",""trial"",""time""
""focus"",""0"",""5615""
","""event"",""trial"",""time""
""fullscreenenter"",""0"",""7298""
","
","null","run_exp/static/images/Set 6_rs/088a.jpg","null","","","","","","learn","SR",""
"","html-keyboard-response","36","73915","0.0-36.0","""event"",""trial"",""time""
""blur"",""0"",""2634""
""focus"",""0"",""5615""
""fullscreenenter"",""0"",""7298""
","""event"",""trial"",""time""
""blur"",""0"",""2634""
","""event"",""trial"",""time""
""focus"",""0"",""5615""
","""event"",""trial"",""time""
""fullscreenenter"",""0"",""7298""
","
","null","<p></p>","null","","","","","","","",""
"","image","37","74713","0.0-37.0","""event"",""trial"",""time""
""blur"",""0"",""2634""
""focus"",""0"",""5615""
""fullscreenenter"",""0"",""7298""
","""event"",""trial"",""time""
""blur"",""0"",""2634""
","""event"",""trial"",""time""
""focus"",""0"",""5615""
","""event"",""trial"",""time""
""fullscreenenter"",""0"",""7298""
","
","795.8999999761581","run_exp/static/images/Set 6_rs/012a.jpg","86","","","","","","learn","SR",""
"","show_choice","38","75918","0.0-38.0","""event"",""trial"",""time""
""blur"",""0"",""2634""
""focus"",""0"",""5615""
""fullscreenenter"",""0"",""7298""
","""event"",""trial"",""time""
""blur"",""0"",""2634""
","""event"",""trial"",""time""
""focus"",""0"",""5615""
","""event"",""trial"",""time""
""fullscreenenter"",""0"",""7298""
","
","null","run_exp/static/images/Set 6_rs/012a.jpg","null","","","","","","learn","SR",""
"","html-keyboard-response","39","76420","0.0-39.0","""event"",""trial"",""time""
""blur"",""0"",""2634""
""focus"",""0"",""5615""
""fullscreenenter"",""0"",""7298""
","""event"",""trial"",""time""
""blur"",""0"",""2634""
","""event"",""trial"",""time""
""focus"",""0"",""5615""
","""event"",""trial"",""time""
""fullscreenenter"",""0"",""7298""
","
","null","<p></p>","null","","","","","","","",""
"","image","40","77100","0.0-40.0","""event"",""trial"",""time""
""blur"",""0"",""2634""
""focus"",""0"",""5615""
""fullscreenenter"",""0"",""7298""
","""event"",""trial"",""time""
""blur"",""0"",""2634""
","""event"",""trial"",""time""
""focus"",""0"",""5615""
","""event"",""trial"",""time""
""fullscreenenter"",""0"",""7298""
","
","678.8999999761581","run_exp/static/images/Set 6_rs/126a.jpg","78","","","","","","learn","SR",""
"","show_choice","41","78427","0.0-41.0","""event"",""trial"",""time""
""blur"",""0"",""2634""
""focus"",""0"",""5615""
""fullscreenenter"",""0"",""7298""
","""event"",""trial"",""time""
""blur"",""0"",""2634""
","""event"",""trial"",""time""
""focus"",""0"",""5615""
","""event"",""trial"",""time""
""fullscreenenter"",""0"",""7298""
","
","null","run_exp/static/images/Set 6_rs/126a.jpg","null","","","","","","learn","SR",""
"","html-keyboard-response","42","78929","0.0-42.0","""event"",""trial"",""time""
""blur"",""0"",""2634""
""focus"",""0"",""5615""
""fullscreenenter"",""0"",""7298""
","""event"",""trial"",""time""
""blur"",""0"",""2634""
","""event"",""trial"",""time""
""focus"",""0"",""5615""
","""event"",""trial"",""time""
""fullscreenenter"",""0"",""7298""
","
","null","<p></p>","null","","","","","","","",""
"","image","43","79504","0.0-43.0","""event"",""trial"",""time""
""blur"",""0"",""2634""
""focus"",""0"",""5615""
""fullscreenenter"",""0"",""7298""
","""event"",""trial"",""time""
""blur"",""0"",""2634""
","""event"",""trial"",""time""
""focus"",""0"",""5615""
","""event"",""trial"",""time""
""fullscreenenter"",""0"",""7298""
","
","573.8000000715256","run_exp/static/images/Set 6_rs/070a.jpg","86","","","","","","learn","SR",""
"","show_choice","44","80935","0.0-44.0","""event"",""trial"",""time""
""blur"",""0"",""2634""
""focus"",""0"",""5615""
""fullscreenenter"",""0"",""7298""
","""event"",""trial"",""time""
""blur"",""0"",""2634""
","""event"",""trial"",""time""
""focus"",""0"",""5615""
","""event"",""trial"",""time""
""fullscreenenter"",""0"",""7298""
","
","null","run_exp/static/images/Set 6_rs/070a.jpg","null","","","","","","learn","SR",""
"","html-keyboard-response","45","81441","0.0-45.0","""event"",""trial"",""time""
""blur"",""0"",""2634""
""focus"",""0"",""5615""
""fullscreenenter"",""0"",""7298""
","""event"",""trial"",""time""
""blur"",""0"",""2634""
","""event"",""trial"",""time""
""focus"",""0"",""5615""
","""event"",""trial"",""time""
""fullscreenenter"",""0"",""7298""
","
","null","<p></p>","null","","","","","","","",""
"","image","46","82158","0.0-46.0","""event"",""trial"",""time""
""blur"",""0"",""2634""
""focus"",""0"",""5615""
""fullscreenenter"",""0"",""7298""
","""event"",""trial"",""time""
""blur"",""0"",""2634""
","""event"",""trial"",""time""
""focus"",""0"",""5615""
","""event"",""trial"",""time""
""fullscreenenter"",""0"",""7298""
","
","715","run_exp/static/images/Set 6_rs/085a.jpg","78","","","","","","learn","SL",""
"","show_choice","47","83448","0.0-47.0","""event"",""trial"",""time""
""blur"",""0"",""2634""
""focus"",""0"",""5615""
""fullscreenenter"",""0"",""7298""
","""event"",""trial"",""time""
""blur"",""0"",""2634""
","""event"",""trial"",""time""
""focus"",""0"",""5615""
","""event"",""trial"",""time""
""fullscreenenter"",""0"",""7298""
","
","null","run_exp/static/images/Set 6_rs/085a.jpg","null","","","","","","learn","SL",""
"","html-keyboard-response","48","83954","0.0-48.0","""event"",""trial"",""time""
""blur"",""0"",""2634""
""focus"",""0"",""5615""
""fullscreenenter"",""0"",""7298""
","""event"",""trial"",""time""
""blur"",""0"",""2634""
","""event"",""trial"",""time""
""focus"",""0"",""5615""
","""event"",""trial"",""time""
""fullscreenenter"",""0"",""7298""
","
","null","<p></p>","null","","","","","","","",""
"","image","49","84612","0.0-49.0","""event"",""trial"",""time""
""blur"",""0"",""2634""
""focus"",""0"",""5615""
""fullscreenenter"",""0"",""7298""
","""event"",""trial"",""time""
""blur"",""0"",""2634""
","""event"",""trial"",""time""
""focus"",""0"",""5615""
","""event"",""trial"",""time""
""fullscreenenter"",""0"",""7298""
","
","655.6000000238419","run_exp/static/images/Set 6_rs/055a.jpg","86","","","","","","learn","SL",""
"","show_choice","50","85962","0.0-50.0","""event"",""trial"",""time""
""blur"",""0"",""2634""
""focus"",""0"",""5615""
""fullscreenenter"",""0"",""7298""
","""event"",""trial"",""time""
""blur"",""0"",""2634""
","""event"",""trial"",""time""
""focus"",""0"",""5615""
","""event"",""trial"",""time""
""fullscreenenter"",""0"",""7298""
","
","null","run_exp/static/images/Set 6_rs/055a.jpg","null","","","","","","learn","SL",""
"","html-keyboard-response","51","86468","0.0-51.0","""event"",""trial"",""time""
""blur"",""0"",""2634""
""focus"",""0"",""5615""
""fullscreenenter"",""0"",""7298""
","""event"",""trial"",""time""
""blur"",""0"",""2634""
","""event"",""trial"",""time""
""focus"",""0"",""5615""
","""event"",""trial"",""time""
""fullscreenenter"",""0"",""7298""
","
","null","<p></p>","null","","","","","","","",""
"","image","52","87023","0.0-52.0","""event"",""trial"",""time""
""blur"",""0"",""2634""
""focus"",""0"",""5615""
""fullscreenenter"",""0"",""7298""
","""event"",""trial"",""time""
""blur"",""0"",""2634""
","""event"",""trial"",""time""
""focus"",""0"",""5615""
","""event"",""trial"",""time""
""fullscreenenter"",""0"",""7298""
","
","553.8000000715256","run_exp/static/images/Set 6_rs/079a.jpg","86","","","","","","learn","SL",""
"","show_choice","53","88474","0.0-53.0","""event"",""trial"",""time""
""blur"",""0"",""2634""
""focus"",""0"",""5615""
""fullscreenenter"",""0"",""7298""
","""event"",""trial"",""time""
""blur"",""0"",""2634""
","""event"",""trial"",""time""
""focus"",""0"",""5615""
","""event"",""trial"",""time""
""fullscreenenter"",""0"",""7298""
","
","null","run_exp/static/images/Set 6_rs/079a.jpg","null","","","","","","learn","SL",""
"","html-keyboard-response","54","88979","0.0-54.0","""event"",""trial"",""time""
""blur"",""0"",""2634""
""focus"",""0"",""5615""
""fullscreenenter"",""0"",""7298""
","""event"",""trial"",""time""
""blur"",""0"",""2634""
","""event"",""trial"",""time""
""focus"",""0"",""5615""
","""event"",""trial"",""time""
""fullscreenenter"",""0"",""7298""
","
","null","<p></p>","null","","","","","","","",""
"","image","55","89574","0.0-55.0","""event"",""trial"",""time""
""blur"",""0"",""2634""
""focus"",""0"",""5615""
""fullscreenenter"",""0"",""7298""
","""event"",""trial"",""time""
""blur"",""0"",""2634""
","""event"",""trial"",""time""
""focus"",""0"",""5615""
","""event"",""trial"",""time""
""fullscreenenter"",""0"",""7298""
","
","594.2000000476837","run_exp/static/images/Set 6_rs/050a.jpg","86","","","","","","learn","SL",""
"","show_choice","56","90986","0.0-56.0","""event"",""trial"",""time""
""blur"",""0"",""2634""
""focus"",""0"",""5615""
""fullscreenenter"",""0"",""7298""
","""event"",""trial"",""time""
""blur"",""0"",""2634""
","""event"",""trial"",""time""
""focus"",""0"",""5615""
","""event"",""trial"",""time""
""fullscreenenter"",""0"",""7298""
","
","null","run_exp/static/images/Set 6_rs/050a.jpg","null","","","","","","learn","SL",""
"","html-keyboard-response","57","91492","0.0-57.0","""event"",""trial"",""time""
""blur"",""0"",""2634""
""focus"",""0"",""5615""
""fullscreenenter"",""0"",""7298""
","""event"",""trial"",""time""
""blur"",""0"",""2634""
","""event"",""trial"",""time""
""focus"",""0"",""5615""
","""event"",""trial"",""time""
""fullscreenenter"",""0"",""7298""
","
","null","<p></p>","null","","","","","","","",""
"","image","58","92647","0.0-58.0","""event"",""trial"",""time""
""blur"",""0"",""2634""
""focus"",""0"",""5615""
""fullscreenenter"",""0"",""7298""
","""event"",""trial"",""time""
""blur"",""0"",""2634""
","""event"",""trial"",""time""
""focus"",""0"",""5615""
","""event"",""trial"",""time""
""fullscreenenter"",""0"",""7298""
","
","1153.8999999761581","run_exp/static/images/Set 6_rs/066a.jpg","86","","","","","","learn","SL",""
"","show_choice","59","93499","0.0-59.0","""event"",""trial"",""time""
""blur"",""0"",""2634""
""focus"",""0"",""5615""
""fullscreenenter"",""0"",""7298""
","""event"",""trial"",""time""
""blur"",""0"",""2634""
","""event"",""trial"",""time""
""focus"",""0"",""5615""
","""event"",""trial"",""time""
""fullscreenenter"",""0"",""7298""
","
","null","run_exp/static/images/Set 6_rs/066a.jpg","null","","","","","","learn","SL",""
"","html-keyboard-response","60","94003","0.0-60.0","""event"",""trial"",""time""
""blur"",""0"",""2634""
""focus"",""0"",""5615""
""fullscreenenter"",""0"",""7298""
","""event"",""trial"",""time""
""blur"",""0"",""2634""
","""event"",""trial"",""time""
""focus"",""0"",""5615""
","""event"",""trial"",""time""
""fullscreenenter"",""0"",""7298""
","
","null","<p></p>","null","","","","","","","",""
"","image","61","95042","0.0-61.0","""event"",""trial"",""time""
""blur"",""0"",""2634""
""focus"",""0"",""5615""
""fullscreenenter"",""0"",""7298""
","""event"",""trial"",""time""
""blur"",""0"",""2634""
","""event"",""trial"",""time""
""focus"",""0"",""5615""
","""event"",""trial"",""time""
""fullscreenenter"",""0"",""7298""
","
","1037.3999999761581","run_exp/static/images/Set 6_rs/014a.jpg","86","","","","","","learn","SL",""
"","show_choice","62","96005","0.0-62.0","""event"",""trial"",""time""
""blur"",""0"",""2634""
""focus"",""0"",""5615""
""fullscreenenter"",""0"",""7298""
","""event"",""trial"",""time""
""blur"",""0"",""2634""
","""event"",""trial"",""time""
""focus"",""0"",""5615""
","""event"",""trial"",""time""
""fullscreenenter"",""0"",""7298""
","
","null","run_exp/static/images/Set 6_rs/014a.jpg","null","","","","","","learn","SL",""
"","html-keyboard-response","63","96510","0.0-63.0","""event"",""trial"",""time""
""blur"",""0"",""2634""
""focus"",""0"",""5615""
""fullscreenenter"",""0"",""7298""
","""event"",""trial"",""time""
""blur"",""0"",""2634""
","""event"",""trial"",""time""
""focus"",""0"",""5615""
","""event"",""trial"",""time""
""fullscreenenter"",""0"",""7298""
","
","null","<p></p>","null","","","","","","","",""
"","image","64","97436","0.0-64.0","""event"",""trial"",""time""
""blur"",""0"",""2634""
""focus"",""0"",""5615""
""fullscreenenter"",""0"",""7298""
","""event"",""trial"",""time""
""blur"",""0"",""2634""
","""event"",""trial"",""time""
""focus"",""0"",""5615""
","""event"",""trial"",""time""
""fullscreenenter"",""0"",""7298""
","
","924.1000000238419","run_exp/static/images/Set 6_rs/166a.jpg","78","","","","","","learn","SR",""
"","show_choice","65","98517","0.0-65.0","""event"",""trial"",""time""
""blur"",""0"",""2634""
""focus"",""0"",""5615""
""fullscreenenter"",""0"",""7298""
","""event"",""trial"",""time""
""blur"",""0"",""2634""
","""event"",""trial"",""time""
""focus"",""0"",""5615""
","""event"",""trial"",""time""
""fullscreenenter"",""0"",""7298""
","
","null","run_exp/static/images/Set 6_rs/166a.jpg","null","","","","","","learn","SR",""
"","html-keyboard-response","66","99023","0.0-66.0","""event"",""trial"",""time""
""blur"",""0"",""2634""
""focus"",""0"",""5615""
""fullscreenenter"",""0"",""7298""
","""event"",""trial"",""time""
""blur"",""0"",""2634""
","""event"",""trial"",""time""
""focus"",""0"",""5615""
","""event"",""trial"",""time""
""fullscreenenter"",""0"",""7298""
","
","null","<p></p>","null","","","","","","","",""
"","image","67","99697","0.0-67.0","""event"",""trial"",""time""
""blur"",""0"",""2634""
""focus"",""0"",""5615""
""fullscreenenter"",""0"",""7298""
","""event"",""trial"",""time""
""blur"",""0"",""2634""
","""event"",""trial"",""time""
""focus"",""0"",""5615""
","""event"",""trial"",""time""
""fullscreenenter"",""0"",""7298""
","
","672.7000000476837","run_exp/static/images/Set 6_rs/095a.jpg","86","","","","","","learn","SL",""
"","show_choice","68","101029","0.0-68.0","""event"",""trial"",""time""
""blur"",""0"",""2634""
""focus"",""0"",""5615""
""fullscreenenter"",""0"",""7298""
","""event"",""trial"",""time""
""blur"",""0"",""2634""
","""event"",""trial"",""time""
""focus"",""0"",""5615""
","""event"",""trial"",""time""
""fullscreenenter"",""0"",""7298""
","
","null","run_exp/static/images/Set 6_rs/095a.jpg","null","","","","","","learn","SL",""
"","html-keyboard-response","69","101534","0.0-69.0","""event"",""trial"",""time""
""blur"",""0"",""2634""
""focus"",""0"",""5615""
""fullscreenenter"",""0"",""7298""
","""event"",""trial"",""time""
""blur"",""0"",""2634""
","""event"",""trial"",""time""
""focus"",""0"",""5615""
","""event"",""trial"",""time""
""fullscreenenter"",""0"",""7298""
","
","null","<p></p>","null","","","","","","","",""
"","image","70","102369","0.0-70.0","""event"",""trial"",""time""
""blur"",""0"",""2634""
""focus"",""0"",""5615""
""fullscreenenter"",""0"",""7298""
","""event"",""trial"",""time""
""blur"",""0"",""2634""
","""event"",""trial"",""time""
""focus"",""0"",""5615""
","""event"",""trial"",""time""
""fullscreenenter"",""0"",""7298""
","
","833","run_exp/static/images/Set 6_rs/008a.jpg","78","","","","","","learn","SL",""
"","show_choice","71","103538","0.0-71.0","""event"",""trial"",""time""
""blur"",""0"",""2634""
""focus"",""0"",""5615""
""fullscreenenter"",""0"",""7298""
","""event"",""trial"",""time""
""blur"",""0"",""2634""
","""event"",""trial"",""time""
""focus"",""0"",""5615""
","""event"",""trial"",""time""
""fullscreenenter"",""0"",""7298""
","
","null","run_exp/static/images/Set 6_rs/008a.jpg","null","","","","","","learn","SL",""
"","html-keyboard-response","72","104044","0.0-72.0","""event"",""trial"",""time""
""blur"",""0"",""2634""
""focus"",""0"",""5615""
""fullscreenenter"",""0"",""7298""
","""event"",""trial"",""time""
""blur"",""0"",""2634""
","""event"",""trial"",""time""
""focus"",""0"",""5615""
","""event"",""trial"",""time""
""fullscreenenter"",""0"",""7298""
","
","null","<p></p>","null","","","","","","","",""
"","image","73","104705","0.0-73.0","""event"",""trial"",""time""
""blur"",""0"",""2634""
""focus"",""0"",""5615""
""fullscreenenter"",""0"",""7298""
","""event"",""trial"",""time""
""blur"",""0"",""2634""
","""event"",""trial"",""time""
""focus"",""0"",""5615""
","""event"",""trial"",""time""
""fullscreenenter"",""0"",""7298""
","
","658.7999999523163","run_exp/static/images/Set 6_rs/075a.jpg","86","","","","","","learn","SR",""
"","show_choice","74","106051","0.0-74.0","""event"",""trial"",""time""
""blur"",""0"",""2634""
""focus"",""0"",""5615""
""fullscreenenter"",""0"",""7298""
","""event"",""trial"",""time""
""blur"",""0"",""2634""
","""event"",""trial"",""time""
""focus"",""0"",""5615""
","""event"",""trial"",""time""
""fullscreenenter"",""0"",""7298""
","
","null","run_exp/static/images/Set 6_rs/075a.jpg","null","","","","","","learn","SR",""
"","html-keyboard-response","75","106558","0.0-75.0","""event"",""trial"",""time""
""blur"",""0"",""2634""
""focus"",""0"",""5615""
""fullscreenenter"",""0"",""7298""
","""event"",""trial"",""time""
""blur"",""0"",""2634""
","""event"",""trial"",""time""
""focus"",""0"",""5615""
","""event"",""trial"",""time""
""fullscreenenter"",""0"",""7298""
","
","null","<p></p>","null","","","","","","","",""
"","image","76","107296","0.0-76.0","""event"",""trial"",""time""
""blur"",""0"",""2634""
""focus"",""0"",""5615""
""fullscreenenter"",""0"",""7298""
","""event"",""trial"",""time""
""blur"",""0"",""2634""
","""event"",""trial"",""time""
""focus"",""0"",""5615""
","""event"",""trial"",""time""
""fullscreenenter"",""0"",""7298""
","
","737.1999999284744","run_exp/static/images/Set 6_rs/123a.jpg","78","","","","","","learn","SL",""
"","show_choice","77","108563","0.0-77.0","""event"",""trial"",""time""
""blur"",""0"",""2634""
""focus"",""0"",""5615""
""fullscreenenter"",""0"",""7298""
","""event"",""trial"",""time""
""blur"",""0"",""2634""
","""event"",""trial"",""time""
""focus"",""0"",""5615""
","""event"",""trial"",""time""
""fullscreenenter"",""0"",""7298""
","
","null","run_exp/static/images/Set 6_rs/123a.jpg","null","","","","","","learn","SL",""
"","html-keyboard-response","78","109069","0.0-78.0","""event"",""trial"",""time""
""blur"",""0"",""2634""
""focus"",""0"",""5615""
""fullscreenenter"",""0"",""7298""
","""event"",""trial"",""time""
""blur"",""0"",""2634""
","""event"",""trial"",""time""
""focus"",""0"",""5615""
","""event"",""trial"",""time""
""fullscreenenter"",""0"",""7298""
","
","null","<p></p>","null","","","","","","","",""
"","image","79","109800","0.0-79.0","""event"",""trial"",""time""
""blur"",""0"",""2634""
""focus"",""0"",""5615""
""fullscreenenter"",""0"",""7298""
","""event"",""trial"",""time""
""blur"",""0"",""2634""
","""event"",""trial"",""time""
""focus"",""0"",""5615""
","""event"",""trial"",""time""
""fullscreenenter"",""0"",""7298""
","
","729.6000000238419","run_exp/static/images/Set 6_rs/132a.jpg","86","","","","","","learn","SR",""
"","show_choice","80","111071","0.0-80.0","""event"",""trial"",""time""
""blur"",""0"",""2634""
""focus"",""0"",""5615""
""fullscreenenter"",""0"",""7298""
","""event"",""trial"",""time""
""blur"",""0"",""2634""
","""event"",""trial"",""time""
""focus"",""0"",""5615""
","""event"",""trial"",""time""
""fullscreenenter"",""0"",""7298""
","
","null","run_exp/static/images/Set 6_rs/132a.jpg","null","","","","","","learn","SR",""
"","html-keyboard-response","81","111575","0.0-81.0","""event"",""trial"",""time""
""blur"",""0"",""2634""
""focus"",""0"",""5615""
""fullscreenenter"",""0"",""7298""
","""event"",""trial"",""time""
""blur"",""0"",""2634""
","""event"",""trial"",""time""
""focus"",""0"",""5615""
","""event"",""trial"",""time""
""fullscreenenter"",""0"",""7298""
","
","null","<p></p>","null","","","","","","","",""
"","image","82","112613","0.0-82.0","""event"",""trial"",""time""
""blur"",""0"",""2634""
""focus"",""0"",""5615""
""fullscreenenter"",""0"",""7298""
","""event"",""trial"",""time""
""blur"",""0"",""2634""
","""event"",""trial"",""time""
""focus"",""0"",""5615""
","""event"",""trial"",""time""
""fullscreenenter"",""0"",""7298""
","
","1036.5","run_exp/static/images/Set 6_rs/071a.jpg","78","","","","","","learn","SL",""
"","show_choice","83","113579","0.0-83.0","""event"",""trial"",""time""
""blur"",""0"",""2634""
""focus"",""0"",""5615""
""fullscreenenter"",""0"",""7298""
","""event"",""trial"",""time""
""blur"",""0"",""2634""
","""event"",""trial"",""time""
""focus"",""0"",""5615""
","""event"",""trial"",""time""
""fullscreenenter"",""0"",""7298""
","
","null","run_exp/static/images/Set 6_rs/071a.jpg","null","","","","","","learn","SL",""
"","html-keyboard-response","84","114082","0.0-84.0","""event"",""trial"",""time""
""blur"",""0"",""2634""
""focus"",""0"",""5615""
""fullscreenenter"",""0"",""7298""
","""event"",""trial"",""time""
""blur"",""0"",""2634""
","""event"",""trial"",""time""
""focus"",""0"",""5615""
","""event"",""trial"",""time""
""fullscreenenter"",""0"",""7298""
","
","null","<p></p>","null","","","","","","","",""
"","image","85","115271","0.0-85.0","""event"",""trial"",""time""
""blur"",""0"",""2634""
""focus"",""0"",""5615""
""fullscreenenter"",""0"",""7298""
","""event"",""trial"",""time""
""blur"",""0"",""2634""
","""event"",""trial"",""time""
""focus"",""0"",""5615""
","""event"",""trial"",""time""
""fullscreenenter"",""0"",""7298""
","
","1186.5999999046326","run_exp/static/images/Set 6_rs/073a.jpg","86","","","","","","learn","SL",""
"","show_choice","86","116089","0.0-86.0","""event"",""trial"",""time""
""blur"",""0"",""2634""
""focus"",""0"",""5615""
""fullscreenenter"",""0"",""7298""
","""event"",""trial"",""time""
""blur"",""0"",""2634""
","""event"",""trial"",""time""
""focus"",""0"",""5615""
","""event"",""trial"",""time""
""fullscreenenter"",""0"",""7298""
","
","null","run_exp/static/images/Set 6_rs/073a.jpg","null","","","","","","learn","SL",""
"","html-keyboard-response","87","116592","0.0-87.0","""event"",""trial"",""time""
""blur"",""0"",""2634""
""focus"",""0"",""5615""
""fullscreenenter"",""0"",""7298""
","""event"",""trial"",""time""
""blur"",""0"",""2634""
","""event"",""trial"",""time""
""focus"",""0"",""5615""
","""event"",""trial"",""time""
""fullscreenenter"",""0"",""7298""
","
","null","<p></p>","null","","","","","","","",""
"","image","88","117754","0.0-88.0","""event"",""trial"",""time""
""blur"",""0"",""2634""
""focus"",""0"",""5615""
""fullscreenenter"",""0"",""7298""
","""event"",""trial"",""time""
""blur"",""0"",""2634""
","""event"",""trial"",""time""
""focus"",""0"",""5615""
","""event"",""trial"",""time""
""fullscreenenter"",""0"",""7298""
","
","1160.2999999523163","run_exp/static/images/Set 6_rs/167a.jpg","86","","","","","","learn","SL",""
"","show_choice","89","118599","0.0-89.0","""event"",""trial"",""time""
""blur"",""0"",""2634""
""focus"",""0"",""5615""
""fullscreenenter"",""0"",""7298""
","""event"",""trial"",""time""
""blur"",""0"",""2634""
","""event"",""trial"",""time""
""focus"",""0"",""5615""
","""event"",""trial"",""time""
""fullscreenenter"",""0"",""7298""
","
","null","run_exp/static/images/Set 6_rs/167a.jpg","null","","","","","","learn","SL",""
"","html-keyboard-response","90","119103","0.0-90.0","""event"",""trial"",""time""
""blur"",""0"",""2634""
""focus"",""0"",""5615""
""fullscreenenter"",""0"",""7298""
","""event"",""trial"",""time""
""blur"",""0"",""2634""
","""event"",""trial"",""time""
""focus"",""0"",""5615""
","""event"",""trial"",""time""
""fullscreenenter"",""0"",""7298""
","
","null","<p></p>","null","","","","","","","",""
"","image","91","119835","0.0-91.0","""event"",""trial"",""time""
""blur"",""0"",""2634""
""focus"",""0"",""5615""
""fullscreenenter"",""0"",""7298""
","""event"",""trial"",""time""
""blur"",""0"",""2634""
","""event"",""trial"",""time""
""focus"",""0"",""5615""
","""event"",""trial"",""time""
""fullscreenenter"",""0"",""7298""
","
","730.8999999761581","run_exp/static/images/Set 6_rs/006a.jpg","86","","","","","","learn","SL",""
"","show_choice","92","121110","0.0-92.0","""event"",""trial"",""time""
""blur"",""0"",""2634""
""focus"",""0"",""5615""
""fullscreenenter"",""0"",""7298""
","""event"",""trial"",""time""
""blur"",""0"",""2634""
","""event"",""trial"",""time""
""focus"",""0"",""5615""
","""event"",""trial"",""time""
""fullscreenenter"",""0"",""7298""
","
","null","run_exp/static/images/Set 6_rs/006a.jpg","null","","","","","","learn","SL",""
"","html-keyboard-response","93","121612","0.0-93.0","""event"",""trial"",""time""
""blur"",""0"",""2634""
""focus"",""0"",""5615""
""fullscreenenter"",""0"",""7298""
","""event"",""trial"",""time""
""blur"",""0"",""2634""
","""event"",""trial"",""time""
""focus"",""0"",""5615""
","""event"",""trial"",""time""
""fullscreenenter"",""0"",""7298""
","
","null","<p></p>","null","","","","","","","",""
"","image","94","122577","0.0-94.0","""event"",""trial"",""time""
""blur"",""0"",""2634""
""focus"",""0"",""5615""
""fullscreenenter"",""0"",""7298""
","""event"",""trial"",""time""
""blur"",""0"",""2634""
","""event"",""trial"",""time""
""focus"",""0"",""5615""
","""event"",""trial"",""time""
""fullscreenenter"",""0"",""7298""
","
","963.2999999523163","run_exp/static/images/Set 6_rs/121a.jpg","86","","","","","","learn","SR",""
"","show_choice","95","123619","0.0-95.0","""event"",""trial"",""time""
""blur"",""0"",""2634""
""focus"",""0"",""5615""
""fullscreenenter"",""0"",""7298""
","""event"",""trial"",""time""
""blur"",""0"",""2634""
","""event"",""trial"",""time""
""focus"",""0"",""5615""
","""event"",""trial"",""time""
""fullscreenenter"",""0"",""7298""
","
","null","run_exp/static/images/Set 6_rs/121a.jpg","null","","","","","","learn","SR",""
"","html-keyboard-response","96","124122","0.0-96.0","""event"",""trial"",""time""
""blur"",""0"",""2634""
""focus"",""0"",""5615""
""fullscreenenter"",""0"",""7298""
","""event"",""trial"",""time""
""blur"",""0"",""2634""
","""event"",""trial"",""time""
""focus"",""0"",""5615""
","""event"",""trial"",""time""
""fullscreenenter"",""0"",""7298""
","
","null","<p></p>","null","","","","","","","",""
"","image","97","124870","0.0-97.0","""event"",""trial"",""time""
""blur"",""0"",""2634""
""focus"",""0"",""5615""
""fullscreenenter"",""0"",""7298""
","""event"",""trial"",""time""
""blur"",""0"",""2634""
","""event"",""trial"",""time""
""focus"",""0"",""5615""
","""event"",""trial"",""time""
""fullscreenenter"",""0"",""7298""
","
","746.7000000476837","run_exp/static/images/Set 6_rs/172a.jpg","78","","","","","","learn","SR",""
"","show_choice","98","126125","0.0-98.0","""event"",""trial"",""time""
""blur"",""0"",""2634""
""focus"",""0"",""5615""
""fullscreenenter"",""0"",""7298""
","""event"",""trial"",""time""
""blur"",""0"",""2634""
","""event"",""trial"",""time""
""focus"",""0"",""5615""
","""event"",""trial"",""time""
""fullscreenenter"",""0"",""7298""
","
","null","run_exp/static/images/Set 6_rs/172a.jpg","null","","","","","","learn","SR",""
"","html-keyboard-response","99","126627","0.0-99.0","""event"",""trial"",""time""
""blur"",""0"",""2634""
""focus"",""0"",""5615""
""fullscreenenter"",""0"",""7298""
","""event"",""trial"",""time""
""blur"",""0"",""2634""
","""event"",""trial"",""time""
""focus"",""0"",""5615""
","""event"",""trial"",""time""
""fullscreenenter"",""0"",""7298""
","
","null","<p></p>","null","","","","","","","",""
"","image","100","128143","0.0-100.0","""event"",""trial"",""time""
""blur"",""0"",""2634""
""focus"",""0"",""5615""
""fullscreenenter"",""0"",""7298""
","""event"",""trial"",""time""
""blur"",""0"",""2634""
","""event"",""trial"",""time""
""focus"",""0"",""5615""
","""event"",""trial"",""time""
""fullscreenenter"",""0"",""7298""
","
","1514.7999999523163","run_exp/static/images/Set 6_rs/108a.jpg","86","","","","","","learn","SR",""
"","show_choice","101","128634","0.0-101.0","""event"",""trial"",""time""
""blur"",""0"",""2634""
""focus"",""0"",""5615""
""fullscreenenter"",""0"",""7298""
","""event"",""trial"",""time""
""blur"",""0"",""2634""
","""event"",""trial"",""time""
""focus"",""0"",""5615""
","""event"",""trial"",""time""
""fullscreenenter"",""0"",""7298""
","
","null","run_exp/static/images/Set 6_rs/108a.jpg","null","","","","","","learn","SR",""
"","html-keyboard-response","102","129139","0.0-102.0","""event"",""trial"",""time""
""blur"",""0"",""2634""
""focus"",""0"",""5615""
""fullscreenenter"",""0"",""7298""
","""event"",""trial"",""time""
""blur"",""0"",""2634""
","""event"",""trial"",""time""
""focus"",""0"",""5615""
","""event"",""trial"",""time""
""fullscreenenter"",""0"",""7298""
","
","null","<p></p>","null","","","","","","","",""
"","image","103","129794","0.0-103.0","""event"",""trial"",""time""
""blur"",""0"",""2634""
""focus"",""0"",""5615""
""fullscreenenter"",""0"",""7298""
","""event"",""trial"",""time""
""blur"",""0"",""2634""
","""event"",""trial"",""time""
""focus"",""0"",""5615""
","""event"",""trial"",""time""
""fullscreenenter"",""0"",""7298""
","
","653.1000000238419","run_exp/static/images/Set 6_rs/186a.jpg","86","","","","","","learn","SR",""
"","show_choice","104","131146","0.0-104.0","""event"",""trial"",""time""
""blur"",""0"",""2634""
""focus"",""0"",""5615""
""fullscreenenter"",""0"",""7298""
","""event"",""trial"",""time""
""blur"",""0"",""2634""
","""event"",""trial"",""time""
""focus"",""0"",""5615""
","""event"",""trial"",""time""
""fullscreenenter"",""0"",""7298""
","
","null","run_exp/static/images/Set 6_rs/186a.jpg","null","","","","","","learn","SR",""
"","html-keyboard-response","105","131647","0.0-105.0","""event"",""trial"",""time""
""blur"",""0"",""2634""
""focus"",""0"",""5615""
""fullscreenenter"",""0"",""7298""
","""event"",""trial"",""time""
""blur"",""0"",""2634""
","""event"",""trial"",""time""
""focus"",""0"",""5615""
","""event"",""trial"",""time""
""fullscreenenter"",""0"",""7298""
","
","null","<p></p>","null","","","","","","","",""
"","image","106","132466","0.0-106.0","""event"",""trial"",""time""
""blur"",""0"",""2634""
""focus"",""0"",""5615""
""fullscreenenter"",""0"",""7298""
","""event"",""trial"",""time""
""blur"",""0"",""2634""
","""event"",""trial"",""time""
""focus"",""0"",""5615""
","""event"",""trial"",""time""
""fullscreenenter"",""0"",""7298""
","
","816.5","run_exp/static/images/Set 6_rs/181a.jpg","78","","","","","","learn","SL",""
"","show_choice","107","133653","0.0-107.0","""event"",""trial"",""time""
""blur"",""0"",""2634""
""focus"",""0"",""5615""
""fullscreenenter"",""0"",""7298""
","""event"",""trial"",""time""
""blur"",""0"",""2634""
","""event"",""trial"",""time""
""focus"",""0"",""5615""
","""event"",""trial"",""time""
""fullscreenenter"",""0"",""7298""
","
","null","run_exp/static/images/Set 6_rs/181a.jpg","null","","","","","","learn","SL",""
"","html-keyboard-response","108","134156","0.0-108.0","""event"",""trial"",""time""
""blur"",""0"",""2634""
""focus"",""0"",""5615""
""fullscreenenter"",""0"",""7298""
","""event"",""trial"",""time""
""blur"",""0"",""2634""
","""event"",""trial"",""time""
""focus"",""0"",""5615""
","""event"",""trial"",""time""
""fullscreenenter"",""0"",""7298""
","
","null","<p></p>","null","","","","","","","",""
"","image","109","135051","0.0-109.0","""event"",""trial"",""time""
""blur"",""0"",""2634""
""focus"",""0"",""5615""
""fullscreenenter"",""0"",""7298""
","""event"",""trial"",""time""
""blur"",""0"",""2634""
","""event"",""trial"",""time""
""focus"",""0"",""5615""
","""event"",""trial"",""time""
""fullscreenenter"",""0"",""7298""
","
","892.8999999761581","run_exp/static/images/Set 6_rs/045a.jpg","86","","","","","","learn","SR",""
"","show_choice","110","136163","0.0-110.0","""event"",""trial"",""time""
""blur"",""0"",""2634""
""focus"",""0"",""5615""
""fullscreenenter"",""0"",""7298""
","""event"",""trial"",""time""
""blur"",""0"",""2634""
","""event"",""trial"",""time""
""focus"",""0"",""5615""
","""event"",""trial"",""time""
""fullscreenenter"",""0"",""7298""
","
","null","run_exp/static/images/Set 6_rs/045a.jpg","null","","","","","","learn","SR",""
"","html-keyboard-response","111","136669","0.0-111.0","""event"",""trial"",""time""
""blur"",""0"",""2634""
""focus"",""0"",""5615""
""fullscreenenter"",""0"",""7298""
","""event"",""trial"",""time""
""blur"",""0"",""2634""
","""event"",""trial"",""time""
""focus"",""0"",""5615""
","""event"",""trial"",""time""
""fullscreenenter"",""0"",""7298""
","
","null","<p></p>","null","","","","","","","",""
"","image","112","137629","0.0-112.0","""event"",""trial"",""time""
""blur"",""0"",""2634""
""focus"",""0"",""5615""
""fullscreenenter"",""0"",""7298""
","""event"",""trial"",""time""
""blur"",""0"",""2634""
","""event"",""trial"",""time""
""focus"",""0"",""5615""
","""event"",""trial"",""time""
""fullscreenenter"",""0"",""7298""
","
","958.3999999761581","run_exp/static/images/Set 6_rs/122a.jpg","86","","","","","","learn","SR",""
"","show_choice","113","138672","0.0-113.0","""event"",""trial"",""time""
""blur"",""0"",""2634""
""focus"",""0"",""5615""
""fullscreenenter"",""0"",""7298""
","""event"",""trial"",""time""
""blur"",""0"",""2634""
","""event"",""trial"",""time""
""focus"",""0"",""5615""
","""event"",""trial"",""time""
""fullscreenenter"",""0"",""7298""
","
","null","run_exp/static/images/Set 6_rs/122a.jpg","null","","","","","","learn","SR",""
"","html-keyboard-response","114","139174","0.0-114.0","""event"",""trial"",""time""
""blur"",""0"",""2634""
""focus"",""0"",""5615""
""fullscreenenter"",""0"",""7298""
","""event"",""trial"",""time""
""blur"",""0"",""2634""
","""event"",""trial"",""time""
""focus"",""0"",""5615""
","""event"",""trial"",""time""
""fullscreenenter"",""0"",""7298""
","
","null","<p></p>","null","","","","","","","",""
"","image","115","140243","0.0-115.0","""event"",""trial"",""time""
""blur"",""0"",""2634""
""focus"",""0"",""5615""
""fullscreenenter"",""0"",""7298""
","""event"",""trial"",""time""
""blur"",""0"",""2634""
","""event"",""trial"",""time""
""focus"",""0"",""5615""
","""event"",""trial"",""time""
""fullscreenenter"",""0"",""7298""
","
","1068.3999999761581","run_exp/static/images/Set 6_rs/024a.jpg","86","","","","","","learn","SR",""
"","show_choice","116","141177","0.0-116.0","""event"",""trial"",""time""
""blur"",""0"",""2634""
""focus"",""0"",""5615""
""fullscreenenter"",""0"",""7298""
","""event"",""trial"",""time""
""blur"",""0"",""2634""
","""event"",""trial"",""time""
""focus"",""0"",""5615""
","""event"",""trial"",""time""
""fullscreenenter"",""0"",""7298""
","
","null","run_exp/static/images/Set 6_rs/024a.jpg","null","","","","","","learn","SR",""
"","html-keyboard-response","117","141683","0.0-117.0","""event"",""trial"",""time""
""blur"",""0"",""2634""
""focus"",""0"",""5615""
""fullscreenenter"",""0"",""7298""
","""event"",""trial"",""time""
""blur"",""0"",""2634""
","""event"",""trial"",""time""
""focus"",""0"",""5615""
","""event"",""trial"",""time""
""fullscreenenter"",""0"",""7298""
","
","null","<p></p>","null","","","","","","","",""
"","image","118","142603","0.0-118.0","""event"",""trial"",""time""
""blur"",""0"",""2634""
""focus"",""0"",""5615""
""fullscreenenter"",""0"",""7298""
","""event"",""trial"",""time""
""blur"",""0"",""2634""
","""event"",""trial"",""time""
""focus"",""0"",""5615""
","""event"",""trial"",""time""
""fullscreenenter"",""0"",""7298""
","
","918.5999999046326","run_exp/static/images/Set 6_rs/131a.jpg","86","","","","","","learn","SR",""
"","show_choice","119","143690","0.0-119.0","""event"",""trial"",""time""
""blur"",""0"",""2634""
""focus"",""0"",""5615""
""fullscreenenter"",""0"",""7298""
","""event"",""trial"",""time""
""blur"",""0"",""2634""
","""event"",""trial"",""time""
""focus"",""0"",""5615""
","""event"",""trial"",""time""
""fullscreenenter"",""0"",""7298""
","
","null","run_exp/static/images/Set 6_rs/131a.jpg","null","","","","","","learn","SR",""
"","html-keyboard-response","120","144194","0.0-120.0","""event"",""trial"",""time""
""blur"",""0"",""2634""
""focus"",""0"",""5615""
""fullscreenenter"",""0"",""7298""
","""event"",""trial"",""time""
""blur"",""0"",""2634""
","""event"",""trial"",""time""
""focus"",""0"",""5615""
","""event"",""trial"",""time""
""fullscreenenter"",""0"",""7298""
","
","null","<p></p>","null","","","","","","","",""
"","image","121","145071","0.0-121.0","""event"",""trial"",""time""
""blur"",""0"",""2634""
""focus"",""0"",""5615""
""fullscreenenter"",""0"",""7298""
","""event"",""trial"",""time""
""blur"",""0"",""2634""
","""event"",""trial"",""time""
""focus"",""0"",""5615""
","""event"",""trial"",""time""
""fullscreenenter"",""0"",""7298""
","
","875.3000000715256","run_exp/static/images/Set 6_rs/062a.jpg","86","","","","","","learn","SL",""
"","show_choice","122","146201","0.0-122.0","""event"",""trial"",""time""
""blur"",""0"",""2634""
""focus"",""0"",""5615""
""fullscreenenter"",""0"",""7298""
","""event"",""trial"",""time""
""blur"",""0"",""2634""
","""event"",""trial"",""time""
""focus"",""0"",""5615""
","""event"",""trial"",""time""
""fullscreenenter"",""0"",""7298""
","
","null","run_exp/static/images/Set 6_rs/062a.jpg","null","","","","","","learn","SL",""
"","html-keyboard-response","123","146707","0.0-123.0","""event"",""trial"",""time""
""blur"",""0"",""2634""
""focus"",""0"",""5615""
""fullscreenenter"",""0"",""7298""
","""event"",""trial"",""time""
""blur"",""0"",""2634""
","""event"",""trial"",""time""
""focus"",""0"",""5615""
","""event"",""trial"",""time""
""fullscreenenter"",""0"",""7298""
","
","null","<p></p>","null","","","","","","","",""
"","image","124","147694","0.0-124.0","""event"",""trial"",""time""
""blur"",""0"",""2634""
""focus"",""0"",""5615""
""fullscreenenter"",""0"",""7298""
","""event"",""trial"",""time""
""blur"",""0"",""2634""
","""event"",""trial"",""time""
""focus"",""0"",""5615""
","""event"",""trial"",""time""
""fullscreenenter"",""0"",""7298""
","
","986.1999999284744","run_exp/static/images/Set 6_rs/091a.jpg","78","","","","","","learn","SL",""
"","show_choice","125","148712","0.0-125.0","""event"",""trial"",""time""
""blur"",""0"",""2634""
""focus"",""0"",""5615""
""fullscreenenter"",""0"",""7298""
","""event"",""trial"",""time""
""blur"",""0"",""2634""
","""event"",""trial"",""time""
""focus"",""0"",""5615""
","""event"",""trial"",""time""
""fullscreenenter"",""0"",""7298""
","
","null","run_exp/static/images/Set 6_rs/091a.jpg","null","","","","","","learn","SL",""
"","html-keyboard-response","126","149215","0.0-126.0","""event"",""trial"",""time""
""blur"",""0"",""2634""
""focus"",""0"",""5615""
""fullscreenenter"",""0"",""7298""
","""event"",""trial"",""time""
""blur"",""0"",""2634""
","""event"",""trial"",""time""
""focus"",""0"",""5615""
","""event"",""trial"",""time""
""fullscreenenter"",""0"",""7298""
","
","null","<p></p>","null","","","","","","","",""
"","image","127","149912","0.0-127.0","""event"",""trial"",""time""
""blur"",""0"",""2634""
""focus"",""0"",""5615""
""fullscreenenter"",""0"",""7298""
","""event"",""trial"",""time""
""blur"",""0"",""2634""
","""event"",""trial"",""time""
""focus"",""0"",""5615""
","""event"",""trial"",""time""
""fullscreenenter"",""0"",""7298""
","
","695","run_exp/static/images/Set 6_rs/154a.jpg","86","","","","","","learn","SR",""
"","show_choice","128","151222","0.0-128.0","""event"",""trial"",""time""
""blur"",""0"",""2634""
""focus"",""0"",""5615""
""fullscreenenter"",""0"",""7298""
","""event"",""trial"",""time""
""blur"",""0"",""2634""
","""event"",""trial"",""time""
""focus"",""0"",""5615""
","""event"",""trial"",""time""
""fullscreenenter"",""0"",""7298""
","
","null","run_exp/static/images/Set 6_rs/154a.jpg","null","","","","","","learn","SR",""
"","html-keyboard-response","129","151725","0.0-129.0","""event"",""trial"",""time""
""blur"",""0"",""2634""
""focus"",""0"",""5615""
""fullscreenenter"",""0"",""7298""
","""event"",""trial"",""time""
""blur"",""0"",""2634""
","""event"",""trial"",""time""
""focus"",""0"",""5615""
","""event"",""trial"",""time""
""fullscreenenter"",""0"",""7298""
","
","null","<p></p>","null","","","","","","","",""
"","image","130","152382","0.0-130.0","""event"",""trial"",""time""
""blur"",""0"",""2634""
""focus"",""0"",""5615""
""fullscreenenter"",""0"",""7298""
","""event"",""trial"",""time""
""blur"",""0"",""2634""
","""event"",""trial"",""time""
""focus"",""0"",""5615""
","""event"",""trial"",""time""
""fullscreenenter"",""0"",""7298""
","
","655.7999999523163","run_exp/static/images/Set 6_rs/057a.jpg","86","","","","","","learn","SL",""
"","show_choice","131","153730","0.0-131.0","""event"",""trial"",""time""
""blur"",""0"",""2634""
""focus"",""0"",""5615""
""fullscreenenter"",""0"",""7298""
","""event"",""trial"",""time""
""blur"",""0"",""2634""
","""event"",""trial"",""time""
""focus"",""0"",""5615""
","""event"",""trial"",""time""
""fullscreenenter"",""0"",""7298""
","
","null","run_exp/static/images/Set 6_rs/057a.jpg","null","","","","","","learn","SL",""
"","html-keyboard-response","132","154236","0.0-132.0","""event"",""trial"",""time""
""blur"",""0"",""2634""
""focus"",""0"",""5615""
""fullscreenenter"",""0"",""7298""
","""event"",""trial"",""time""
""blur"",""0"",""2634""
","""event"",""trial"",""time""
""focus"",""0"",""5615""
","""event"",""trial"",""time""
""fullscreenenter"",""0"",""7298""
","
","null","<p></p>","null","","","","","","","",""
"","image","133","154888","0.0-133.0","""event"",""trial"",""time""
""blur"",""0"",""2634""
""focus"",""0"",""5615""
""fullscreenenter"",""0"",""7298""
","""event"",""trial"",""time""
""blur"",""0"",""2634""
","""event"",""trial"",""time""
""focus"",""0"",""5615""
","""event"",""trial"",""time""
""fullscreenenter"",""0"",""7298""
","
","651","run_exp/static/images/Set 6_rs/177a.jpg","78","","","","","","learn","SR",""
"","show_choice","134","156241","0.0-134.0","""event"",""trial"",""time""
""blur"",""0"",""2634""
""focus"",""0"",""5615""
""fullscreenenter"",""0"",""7298""
","""event"",""trial"",""time""
""blur"",""0"",""2634""
","""event"",""trial"",""time""
""focus"",""0"",""5615""
","""event"",""trial"",""time""
""fullscreenenter"",""0"",""7298""
","
","null","run_exp/static/images/Set 6_rs/177a.jpg","null","","","","","","learn","SR",""
"","html-keyboard-response","135","156748","0.0-135.0","""event"",""trial"",""time""
""blur"",""0"",""2634""
""focus"",""0"",""5615""
""fullscreenenter"",""0"",""7298""
","""event"",""trial"",""time""
""blur"",""0"",""2634""
","""event"",""trial"",""time""
""focus"",""0"",""5615""
","""event"",""trial"",""time""
""fullscreenenter"",""0"",""7298""
","
","null","<p></p>","null","","","","","","","",""
"","image","136","157380","0.0-136.0","""event"",""trial"",""time""
""blur"",""0"",""2634""
""focus"",""0"",""5615""
""fullscreenenter"",""0"",""7298""
","""event"",""trial"",""time""
""blur"",""0"",""2634""
","""event"",""trial"",""time""
""focus"",""0"",""5615""
","""event"",""trial"",""time""
""fullscreenenter"",""0"",""7298""
","
","631.2999999523163","run_exp/static/images/Set 6_rs/036a.jpg","86","","","","","","learn","SL",""
"","show_choice","137","158750","0.0-137.0","""event"",""trial"",""time""
""blur"",""0"",""2634""
""focus"",""0"",""5615""
""fullscreenenter"",""0"",""7298""
","""event"",""trial"",""time""
""blur"",""0"",""2634""
","""event"",""trial"",""time""
""focus"",""0"",""5615""
","""event"",""trial"",""time""
""fullscreenenter"",""0"",""7298""
","
","null","run_exp/static/images/Set 6_rs/036a.jpg","null","","","","","","learn","SL",""
"","html-keyboard-response","138","159251","0.0-138.0","""event"",""trial"",""time""
""blur"",""0"",""2634""
""focus"",""0"",""5615""
""fullscreenenter"",""0"",""7298""
","""event"",""trial"",""time""
""blur"",""0"",""2634""
","""event"",""trial"",""time""
""focus"",""0"",""5615""
","""event"",""trial"",""time""
""fullscreenenter"",""0"",""7298""
","
","null","<p></p>","null","","","","","","","",""
"","image","139","159893","0.0-139.0","""event"",""trial"",""time""
""blur"",""0"",""2634""
""focus"",""0"",""5615""
""fullscreenenter"",""0"",""7298""
","""event"",""trial"",""time""
""blur"",""0"",""2634""
","""event"",""trial"",""time""
""focus"",""0"",""5615""
","""event"",""trial"",""time""
""fullscreenenter"",""0"",""7298""
","
","640.1000000238419","run_exp/static/images/Set 6_rs/023a.jpg","86","","","","","","learn","SR",""
"","show_choice","140","161254","0.0-140.0","""event"",""trial"",""time""
""blur"",""0"",""2634""
""focus"",""0"",""5615""
""fullscreenenter"",""0"",""7298""
","""event"",""trial"",""time""
""blur"",""0"",""2634""
","""event"",""trial"",""time""
""focus"",""0"",""5615""
","""event"",""trial"",""time""
""fullscreenenter"",""0"",""7298""
","
","null","run_exp/static/images/Set 6_rs/023a.jpg","null","","","","","","learn","SR",""
"","html-keyboard-response","141","161758","0.0-141.0","""event"",""trial"",""time""
""blur"",""0"",""2634""
""focus"",""0"",""5615""
""fullscreenenter"",""0"",""7298""
","""event"",""trial"",""time""
""blur"",""0"",""2634""
","""event"",""trial"",""time""
""focus"",""0"",""5615""
","""event"",""trial"",""time""
""fullscreenenter"",""0"",""7298""
","
","null","<p></p>","null","","","","","","","",""
"","image","142","162419","0.0-142.0","""event"",""trial"",""time""
""blur"",""0"",""2634""
""focus"",""0"",""5615""
""fullscreenenter"",""0"",""7298""
","""event"",""trial"",""time""
""blur"",""0"",""2634""
","""event"",""trial"",""time""
""focus"",""0"",""5615""
","""event"",""trial"",""time""
""fullscreenenter"",""0"",""7298""
","
","658.7999999523163","run_exp/static/images/Set 6_rs/016a.jpg","86","","","","","","learn","SL",""
"","show_choice","143","163762","0.0-143.0","""event"",""trial"",""time""
""blur"",""0"",""2634""
""focus"",""0"",""5615""
""fullscreenenter"",""0"",""7298""
","""event"",""trial"",""time""
""blur"",""0"",""2634""
","""event"",""trial"",""time""
""focus"",""0"",""5615""
","""event"",""trial"",""time""
""fullscreenenter"",""0"",""7298""
","
","null","run_exp/static/images/Set 6_rs/016a.jpg","null","","","","","","learn","SL",""
"","html-keyboard-response","144","164266","0.0-144.0","""event"",""trial"",""time""
""blur"",""0"",""2634""
""focus"",""0"",""5615""
""fullscreenenter"",""0"",""7298""
","""event"",""trial"",""time""
""blur"",""0"",""2634""
","""event"",""trial"",""time""
""focus"",""0"",""5615""
","""event"",""trial"",""time""
""fullscreenenter"",""0"",""7298""
","
","null","<p></p>","null","","","","","","","",""
"","image","145","165096","0.0-145.0","""event"",""trial"",""time""
""blur"",""0"",""2634""
""focus"",""0"",""5615""
""fullscreenenter"",""0"",""7298""
","""event"",""trial"",""time""
""blur"",""0"",""2634""
","""event"",""trial"",""time""
""focus"",""0"",""5615""
","""event"",""trial"",""time""
""fullscreenenter"",""0"",""7298""
","
","828.0999999046326","run_exp/static/images/Set 6_rs/141a.jpg","78","","","","","","learn","SR",""
"","show_choice","146","166272","0.0-146.0","""event"",""trial"",""time""
""blur"",""0"",""2634""
""focus"",""0"",""5615""
""fullscreenenter"",""0"",""7298""
","""event"",""trial"",""time""
""blur"",""0"",""2634""
","""event"",""trial"",""time""
""focus"",""0"",""5615""
","""event"",""trial"",""time""
""fullscreenenter"",""0"",""7298""
","
","null","run_exp/static/images/Set 6_rs/141a.jpg","null","","","","","","learn","SR",""
"","html-keyboard-response","147","166778","0.0-147.0","""event"",""trial"",""time""
""blur"",""0"",""2634""
""focus"",""0"",""5615""
""fullscreenenter"",""0"",""7298""
","""event"",""trial"",""time""
""blur"",""0"",""2634""
","""event"",""trial"",""time""
""focus"",""0"",""5615""
","""event"",""trial"",""time""
""fullscreenenter"",""0"",""7298""
","
","null","<p></p>","null","","","","","","","",""
"","image","148","167483","0.0-148.0","""event"",""trial"",""time""
""blur"",""0"",""2634""
""focus"",""0"",""5615""
""fullscreenenter"",""0"",""7298""
","""event"",""trial"",""time""
""blur"",""0"",""2634""
","""event"",""trial"",""time""
""focus"",""0"",""5615""
","""event"",""trial"",""time""
""fullscreenenter"",""0"",""7298""
","
","703.4000000953674","run_exp/static/images/Set 6_rs/178a.jpg","78","","","","","","learn","SR",""
"","show_choice","149","168784","0.0-149.0","""event"",""trial"",""time""
""blur"",""0"",""2634""
""focus"",""0"",""5615""
""fullscreenenter"",""0"",""7298""
","""event"",""trial"",""time""
""blur"",""0"",""2634""
","""event"",""trial"",""time""
""focus"",""0"",""5615""
","""event"",""trial"",""time""
""fullscreenenter"",""0"",""7298""
","
","null","run_exp/static/images/Set 6_rs/178a.jpg","null","","","","","","learn","SR",""
"","html-keyboard-response","150","169290","0.0-150.0","""event"",""trial"",""time""
""blur"",""0"",""2634""
""focus"",""0"",""5615""
""fullscreenenter"",""0"",""7298""
","""event"",""trial"",""time""
""blur"",""0"",""2634""
","""event"",""trial"",""time""
""focus"",""0"",""5615""
","""event"",""trial"",""time""
""fullscreenenter"",""0"",""7298""
","
","null","<p></p>","null","","","","","","","",""
"","image","151","169937","0.0-151.0","""event"",""trial"",""time""
""blur"",""0"",""2634""
""focus"",""0"",""5615""
""fullscreenenter"",""0"",""7298""
","""event"",""trial"",""time""
""blur"",""0"",""2634""
","""event"",""trial"",""time""
""focus"",""0"",""5615""
","""event"",""trial"",""time""
""fullscreenenter"",""0"",""7298""
","
","644.6999999284744","run_exp/static/images/Set 6_rs/010a.jpg","86","","","","","","learn","SR",""
"","show_choice","152","171294","0.0-152.0","""event"",""trial"",""time""
""blur"",""0"",""2634""
""focus"",""0"",""5615""
""fullscreenenter"",""0"",""7298""
","""event"",""trial"",""time""
""blur"",""0"",""2634""
","""event"",""trial"",""time""
""focus"",""0"",""5615""
","""event"",""trial"",""time""
""fullscreenenter"",""0"",""7298""
","
","null","run_exp/static/images/Set 6_rs/010a.jpg","null","","","","","","learn","SR",""
"","html-keyboard-response","153","171800","0.0-153.0","""event"",""trial"",""time""
""blur"",""0"",""2634""
""focus"",""0"",""5615""
""fullscreenenter"",""0"",""7298""
","""event"",""trial"",""time""
""blur"",""0"",""2634""
","""event"",""trial"",""time""
""focus"",""0"",""5615""
","""event"",""trial"",""time""
""fullscreenenter"",""0"",""7298""
","
","null","<p></p>","null","","","","","","","",""
"","image","154","172536","0.0-154.0","""event"",""trial"",""time""
""blur"",""0"",""2634""
""focus"",""0"",""5615""
""fullscreenenter"",""0"",""7298""
","""event"",""trial"",""time""
""blur"",""0"",""2634""
","""event"",""trial"",""time""
""focus"",""0"",""5615""
","""event"",""trial"",""time""
""fullscreenenter"",""0"",""7298""
","
","735","run_exp/static/images/Set 6_rs/152a.jpg","86","","","","","","learn","SR",""
"","show_choice","155","173805","0.0-155.0","""event"",""trial"",""time""
""blur"",""0"",""2634""
""focus"",""0"",""5615""
""fullscreenenter"",""0"",""7298""
","""event"",""trial"",""time""
""blur"",""0"",""2634""
","""event"",""trial"",""time""
""focus"",""0"",""5615""
","""event"",""trial"",""time""
""fullscreenenter"",""0"",""7298""
","
","null","run_exp/static/images/Set 6_rs/152a.jpg","null","","","","","","learn","SR",""
"","html-keyboard-response","156","174306","0.0-156.0","""event"",""trial"",""time""
""blur"",""0"",""2634""
""focus"",""0"",""5615""
""fullscreenenter"",""0"",""7298""
","""event"",""trial"",""time""
""blur"",""0"",""2634""
","""event"",""trial"",""time""
""focus"",""0"",""5615""
","""event"",""trial"",""time""
""fullscreenenter"",""0"",""7298""
","
","null","<p></p>","null","","","","","","","",""
"","image","157","175450","0.0-157.0","""event"",""trial"",""time""
""blur"",""0"",""2634""
""focus"",""0"",""5615""
""fullscreenenter"",""0"",""7298""
","""event"",""trial"",""time""
""blur"",""0"",""2634""
","""event"",""trial"",""time""
""focus"",""0"",""5615""
","""event"",""trial"",""time""
""fullscreenenter"",""0"",""7298""
","
","1141.7000000476837","run_exp/static/images/Set 6_rs/191a.jpg","78","","","","","","learn","SL",""
"","show_choice","158","176309","0.0-158.0","""event"",""trial"",""time""
""blur"",""0"",""2634""
""focus"",""0"",""5615""
""fullscreenenter"",""0"",""7298""
","""event"",""trial"",""time""
""blur"",""0"",""2634""
","""event"",""trial"",""time""
""focus"",""0"",""5615""
","""event"",""trial"",""time""
""fullscreenenter"",""0"",""7298""
","
","null","run_exp/static/images/Set 6_rs/191a.jpg","null","","","","","","learn","SL",""
"","html-keyboard-response","159","176815","0.0-159.0","""event"",""trial"",""time""
""blur"",""0"",""2634""
""focus"",""0"",""5615""
""fullscreenenter"",""0"",""7298""
","""event"",""trial"",""time""
""blur"",""0"",""2634""
","""event"",""trial"",""time""
""focus"",""0"",""5615""
","""event"",""trial"",""time""
""fullscreenenter"",""0"",""7298""
","
","null","<p></p>","null","","","","","","","",""
"","image","160","177629","0.0-160.0","""event"",""trial"",""time""
""blur"",""0"",""2634""
""focus"",""0"",""5615""
""fullscreenenter"",""0"",""7298""
","""event"",""trial"",""time""
""blur"",""0"",""2634""
","""event"",""trial"",""time""
""focus"",""0"",""5615""
","""event"",""trial"",""time""
""fullscreenenter"",""0"",""7298""
","
","812.2000000476837","run_exp/static/images/Set 6_rs/025a.jpg","78","","","","","","learn","SL",""
"","show_choice","161","178820","0.0-161.0","""event"",""trial"",""time""
""blur"",""0"",""2634""
""focus"",""0"",""5615""
""fullscreenenter"",""0"",""7298""
","""event"",""trial"",""time""
""blur"",""0"",""2634""
","""event"",""trial"",""time""
""focus"",""0"",""5615""
","""event"",""trial"",""time""
""fullscreenenter"",""0"",""7298""
","
","null","run_exp/static/images/Set 6_rs/025a.jpg","null","","","","","","learn","SL",""
"","html-keyboard-response","162","179321","0.0-162.0","""event"",""trial"",""time""
""blur"",""0"",""2634""
""focus"",""0"",""5615""
""fullscreenenter"",""0"",""7298""
","""event"",""trial"",""time""
""blur"",""0"",""2634""
","""event"",""trial"",""time""
""focus"",""0"",""5615""
","""event"",""trial"",""time""
""fullscreenenter"",""0"",""7298""
","
","null","<p></p>","null","","","","","","","",""
"","image","163","180435","0.0-163.0","""event"",""trial"",""time""
""blur"",""0"",""2634""
""focus"",""0"",""5615""
""fullscreenenter"",""0"",""7298""
","""event"",""trial"",""time""
""blur"",""0"",""2634""
","""event"",""trial"",""time""
""focus"",""0"",""5615""
","""event"",""trial"",""time""
""fullscreenenter"",""0"",""7298""
","
","1112.3999999761581","run_exp/static/images/Set 6_rs/017a.jpg","86","","","","","","learn","SL",""
"","show_choice","164","181324","0.0-164.0","""event"",""trial"",""time""
""blur"",""0"",""2634""
""focus"",""0"",""5615""
""fullscreenenter"",""0"",""7298""
","""event"",""trial"",""time""
""blur"",""0"",""2634""
","""event"",""trial"",""time""
""focus"",""0"",""5615""
","""event"",""trial"",""time""
""fullscreenenter"",""0"",""7298""
","
","null","run_exp/static/images/Set 6_rs/017a.jpg","null","","","","","","learn","SL",""
"","html-keyboard-response","165","181830","0.0-165.0","""event"",""trial"",""time""
""blur"",""0"",""2634""
""focus"",""0"",""5615""
""fullscreenenter"",""0"",""7298""
","""event"",""trial"",""time""
""blur"",""0"",""2634""
","""event"",""trial"",""time""
""focus"",""0"",""5615""
","""event"",""trial"",""time""
""fullscreenenter"",""0"",""7298""
","
","null","<p></p>","null","","","","","","","",""
"","image","166","182527","0.0-166.0","""event"",""trial"",""time""
""blur"",""0"",""2634""
""focus"",""0"",""5615""
""fullscreenenter"",""0"",""7298""
","""event"",""trial"",""time""
""blur"",""0"",""2634""
","""event"",""trial"",""time""
""focus"",""0"",""5615""
","""event"",""trial"",""time""
""fullscreenenter"",""0"",""7298""
","
","695.9000000953674","run_exp/static/images/Set 6_rs/129a.jpg","86","","","","","","learn","SL",""
"","show_choice","167","183837","0.0-167.0","""event"",""trial"",""time""
""blur"",""0"",""2634""
""focus"",""0"",""5615""
""fullscreenenter"",""0"",""7298""
","""event"",""trial"",""time""
""blur"",""0"",""2634""
","""event"",""trial"",""time""
""focus"",""0"",""5615""
","""event"",""trial"",""time""
""fullscreenenter"",""0"",""7298""
","
","null","run_exp/static/images/Set 6_rs/129a.jpg","null","","","","","","learn","SL",""
"","html-keyboard-response","168","184341","0.0-168.0","""event"",""trial"",""time""
""blur"",""0"",""2634""
""focus"",""0"",""5615""
""fullscreenenter"",""0"",""7298""
","""event"",""trial"",""time""
""blur"",""0"",""2634""
","""event"",""trial"",""time""
""focus"",""0"",""5615""
","""event"",""trial"",""time""
""fullscreenenter"",""0"",""7298""
","
","null","<p></p>","null","","","","","","","",""
"","image","169","185161","0.0-169.0","""event"",""trial"",""time""
""blur"",""0"",""2634""
""focus"",""0"",""5615""
""fullscreenenter"",""0"",""7298""
","""event"",""trial"",""time""
""blur"",""0"",""2634""
","""event"",""trial"",""time""
""focus"",""0"",""5615""
","""event"",""trial"",""time""
""fullscreenenter"",""0"",""7298""
","
","818.1000000238419","run_exp/static/images/Set 6_rs/076a.jpg","78","","","","","","learn","SR",""
"","show_choice","170","186348","0.0-170.0","""event"",""trial"",""time""
""blur"",""0"",""2634""
""focus"",""0"",""5615""
""fullscreenenter"",""0"",""7298""
","""event"",""trial"",""time""
""blur"",""0"",""2634""
","""event"",""trial"",""time""
""focus"",""0"",""5615""
","""event"",""trial"",""time""
""fullscreenenter"",""0"",""7298""
","
","null","run_exp/static/images/Set 6_rs/076a.jpg","null","","","","","","learn","SR",""
"","html-keyboard-response","171","186854","0.0-171.0","""event"",""trial"",""time""
""blur"",""0"",""2634""
""focus"",""0"",""5615""
""fullscreenenter"",""0"",""7298""
","""event"",""trial"",""time""
""blur"",""0"",""2634""
","""event"",""trial"",""time""
""focus"",""0"",""5615""
","""event"",""trial"",""time""
""fullscreenenter"",""0"",""7298""
","
","null","<p></p>","null","","","","","","","",""
"","image","172","187741","0.0-172.0","""event"",""trial"",""time""
""blur"",""0"",""2634""
""focus"",""0"",""5615""
""fullscreenenter"",""0"",""7298""
","""event"",""trial"",""time""
""blur"",""0"",""2634""
","""event"",""trial"",""time""
""focus"",""0"",""5615""
","""event"",""trial"",""time""
""fullscreenenter"",""0"",""7298""
","
","885.1999999284744","run_exp/static/images/Set 6_rs/138a.jpg","78","","","","","","learn","SL",""
"","show_choice","173","188861","0.0-173.0","""event"",""trial"",""time""
""blur"",""0"",""2634""
""focus"",""0"",""5615""
""fullscreenenter"",""0"",""7298""
","""event"",""trial"",""time""
""blur"",""0"",""2634""
","""event"",""trial"",""time""
""focus"",""0"",""5615""
","""event"",""trial"",""time""
""fullscreenenter"",""0"",""7298""
","
","null","run_exp/static/images/Set 6_rs/138a.jpg","null","","","","","","learn","SL",""
"","html-keyboard-response","174","189367","0.0-174.0","""event"",""trial"",""time""
""blur"",""0"",""2634""
""focus"",""0"",""5615""
""fullscreenenter"",""0"",""7298""
","""event"",""trial"",""time""
""blur"",""0"",""2634""
","""event"",""trial"",""time""
""focus"",""0"",""5615""
","""event"",""trial"",""time""
""fullscreenenter"",""0"",""7298""
","
","null","<p></p>","null","","","","","","","",""
"","image","175","190451","0.0-175.0","""event"",""trial"",""time""
""blur"",""0"",""2634""
""focus"",""0"",""5615""
""fullscreenenter"",""0"",""7298""
","""event"",""trial"",""time""
""blur"",""0"",""2634""
","""event"",""trial"",""time""
""focus"",""0"",""5615""
","""event"",""trial"",""time""
""fullscreenenter"",""0"",""7298""
","
","1081.6000000238419","run_exp/static/images/Set 6_rs/064a.jpg","86","","","","","","learn","SR",""
"","show_choice","176","191374","0.0-176.0","""event"",""trial"",""time""
""blur"",""0"",""2634""
""focus"",""0"",""5615""
""fullscreenenter"",""0"",""7298""
","""event"",""trial"",""time""
""blur"",""0"",""2634""
","""event"",""trial"",""time""
""focus"",""0"",""5615""
","""event"",""trial"",""time""
""fullscreenenter"",""0"",""7298""
","
","null","run_exp/static/images/Set 6_rs/064a.jpg","null","","","","","","learn","SR",""
"","html-keyboard-response","177","191877","0.0-177.0","""event"",""trial"",""time""
""blur"",""0"",""2634""
""focus"",""0"",""5615""
""fullscreenenter"",""0"",""7298""
","""event"",""trial"",""time""
""blur"",""0"",""2634""
","""event"",""trial"",""time""
""focus"",""0"",""5615""
","""event"",""trial"",""time""
""fullscreenenter"",""0"",""7298""
","
","null","<p></p>","null","","","","","","","",""
"","image","178","192609","0.0-178.0","""event"",""trial"",""time""
""blur"",""0"",""2634""
""focus"",""0"",""5615""
""fullscreenenter"",""0"",""7298""
","""event"",""trial"",""time""
""blur"",""0"",""2634""
","""event"",""trial"",""time""
""focus"",""0"",""5615""
","""event"",""trial"",""time""
""fullscreenenter"",""0"",""7298""
","
","730.4000000953674","run_exp/static/images/Set 6_rs/168a.jpg","86","","","","","","learn","SL",""
"","show_choice","179","193886","0.0-179.0","""event"",""trial"",""time""
""blur"",""0"",""2634""
""focus"",""0"",""5615""
""fullscreenenter"",""0"",""7298""
","""event"",""trial"",""time""
""blur"",""0"",""2634""
","""event"",""trial"",""time""
""focus"",""0"",""5615""
","""event"",""trial"",""time""
""fullscreenenter"",""0"",""7298""
","
","null","run_exp/static/images/Set 6_rs/168a.jpg","null","","","","","","learn","SL",""
"","html-keyboard-response","180","194405","0.0-180.0","""event"",""trial"",""time""
""blur"",""0"",""2634""
""focus"",""0"",""5615""
""fullscreenenter"",""0"",""7298""
","""event"",""trial"",""time""
""blur"",""0"",""2634""
","""event"",""trial"",""time""
""focus"",""0"",""5615""
","""event"",""trial"",""time""
""fullscreenenter"",""0"",""7298""
","
","null","<p></p>","null","","","","","","","",""
"","image","181","195123","0.0-181.0","""event"",""trial"",""time""
""blur"",""0"",""2634""
""focus"",""0"",""5615""
""fullscreenenter"",""0"",""7298""
","""event"",""trial"",""time""
""blur"",""0"",""2634""
","""event"",""trial"",""time""
""focus"",""0"",""5615""
","""event"",""trial"",""time""
""fullscreenenter"",""0"",""7298""
","
","712","run_exp/static/images/Set 6_rs/111a.jpg","86","","","","","","learn","SL",""
"","show_choice","182","196416","0.0-182.0","""event"",""trial"",""time""
""blur"",""0"",""2634""
""focus"",""0"",""5615""
""fullscreenenter"",""0"",""7298""
","""event"",""trial"",""time""
""blur"",""0"",""2634""
","""event"",""trial"",""time""
""focus"",""0"",""5615""
","""event"",""trial"",""time""
""fullscreenenter"",""0"",""7298""
","
","null","run_exp/static/images/Set 6_rs/111a.jpg","null","","","","","","learn","SL",""
"","html-keyboard-response","183","196926","0.0-183.0","""event"",""trial"",""time""
""blur"",""0"",""2634""
""focus"",""0"",""5615""
""fullscreenenter"",""0"",""7298""
","""event"",""trial"",""time""
""blur"",""0"",""2634""
","""event"",""trial"",""time""
""focus"",""0"",""5615""
","""event"",""trial"",""time""
""fullscreenenter"",""0"",""7298""
","
","null","<p></p>","null","","","","","","","",""
"","image","184","197501","0.0-184.0","""event"",""trial"",""time""
""blur"",""0"",""2634""
""focus"",""0"",""5615""
""fullscreenenter"",""0"",""7298""
","""event"",""trial"",""time""
""blur"",""0"",""2634""
","""event"",""trial"",""time""
""focus"",""0"",""5615""
","""event"",""trial"",""time""
""fullscreenenter"",""0"",""7298""
","
","574.1000000238419","run_exp/static/images/Set 6_rs/063a.jpg","78","","","","","","learn","SR",""
"","show_choice","185","198928","0.0-185.0","""event"",""trial"",""time""
""blur"",""0"",""2634""
""focus"",""0"",""5615""
""fullscreenenter"",""0"",""7298""
","""event"",""trial"",""time""
""blur"",""0"",""2634""
","""event"",""trial"",""time""
""focus"",""0"",""5615""
","""event"",""trial"",""time""
""fullscreenenter"",""0"",""7298""
","
","null","run_exp/static/images/Set 6_rs/063a.jpg","null","","","","","","learn","SR",""
"","html-keyboard-response","186","199435","0.0-186.0","""event"",""trial"",""time""
""blur"",""0"",""2634""
""focus"",""0"",""5615""
""fullscreenenter"",""0"",""7298""
","""event"",""trial"",""time""
""blur"",""0"",""2634""
","""event"",""trial"",""time""
""focus"",""0"",""5615""
","""event"",""trial"",""time""
""fullscreenenter"",""0"",""7298""
","
","null","<p></p>","null","","","","","","","",""
"","image","187","200002","0.0-187.0","""event"",""trial"",""time""
""blur"",""0"",""2634""
""focus"",""0"",""5615""
""fullscreenenter"",""0"",""7298""
","""event"",""trial"",""time""
""blur"",""0"",""2634""
","""event"",""trial"",""time""
""focus"",""0"",""5615""
","""event"",""trial"",""time""
""fullscreenenter"",""0"",""7298""
","
","566","run_exp/static/images/Set 6_rs/112a.jpg","86","","","","","","learn","SR",""
"","show_choice","188","201440","0.0-188.0","""event"",""trial"",""time""
""blur"",""0"",""2634""
""focus"",""0"",""5615""
""fullscreenenter"",""0"",""7298""
","""event"",""trial"",""time""
""blur"",""0"",""2634""
","""event"",""trial"",""time""
""focus"",""0"",""5615""
","""event"",""trial"",""time""
""fullscreenenter"",""0"",""7298""
","
","null","run_exp/static/images/Set 6_rs/112a.jpg","null","","","","","","learn","SR",""
"","html-keyboard-response","189","201945","0.0-189.0","""event"",""trial"",""time""
""blur"",""0"",""2634""
""focus"",""0"",""5615""
""fullscreenenter"",""0"",""7298""
","""event"",""trial"",""time""
""blur"",""0"",""2634""
","""event"",""trial"",""time""
""focus"",""0"",""5615""
","""event"",""trial"",""time""
""fullscreenenter"",""0"",""7298""
","
","null","<p></p>","null","","","","","","","",""
"","image","190","202639","0.0-190.0","""event"",""trial"",""time""
""blur"",""0"",""2634""
""focus"",""0"",""5615""
""fullscreenenter"",""0"",""7298""
","""event"",""trial"",""time""
""blur"",""0"",""2634""
","""event"",""trial"",""time""
""focus"",""0"",""5615""
","""event"",""trial"",""time""
""fullscreenenter"",""0"",""7298""
","
","691.6999999284744","run_exp/static/images/Set 6_rs/019a.jpg","86","","","","","","learn","SL",""
"","show_choice","191","203952","0.0-191.0","""event"",""trial"",""time""
""blur"",""0"",""2634""
""focus"",""0"",""5615""
""fullscreenenter"",""0"",""7298""
","""event"",""trial"",""time""
""blur"",""0"",""2634""
","""event"",""trial"",""time""
""focus"",""0"",""5615""
","""event"",""trial"",""time""
""fullscreenenter"",""0"",""7298""
","
","null","run_exp/static/images/Set 6_rs/019a.jpg","null","","","","","","learn","SL",""
"","html-keyboard-response","192","204458","0.0-192.0","""event"",""trial"",""time""
""blur"",""0"",""2634""
""focus"",""0"",""5615""
""fullscreenenter"",""0"",""7298""
","""event"",""trial"",""time""
""blur"",""0"",""2634""
","""event"",""trial"",""time""
""focus"",""0"",""5615""
","""event"",""trial"",""time""
""fullscreenenter"",""0"",""7298""
","
","null","<p></p>","null","","","","","","","",""
"","image","193","205572","0.0-193.0","""event"",""trial"",""time""
""blur"",""0"",""2634""
""focus"",""0"",""5615""
""fullscreenenter"",""0"",""7298""
","""event"",""trial"",""time""
""blur"",""0"",""2634""
","""event"",""trial"",""time""
""focus"",""0"",""5615""
","""event"",""trial"",""time""
""fullscreenenter"",""0"",""7298""
","
","1112.3999999761581","run_exp/static/images/Set 6_rs/089a.jpg","86","","","","","","learn","SL",""
"","show_choice","194","206460","0.0-194.0","""event"",""trial"",""time""
""blur"",""0"",""2634""
""focus"",""0"",""5615""
""fullscreenenter"",""0"",""7298""
","""event"",""trial"",""time""
""blur"",""0"",""2634""
","""event"",""trial"",""time""
""focus"",""0"",""5615""
","""event"",""trial"",""time""
""fullscreenenter"",""0"",""7298""
","
","null","run_exp/static/images/Set 6_rs/089a.jpg","null","","","","","","learn","SL",""
"","html-keyboard-response","195","206966","0.0-195.0","""event"",""trial"",""time""
""blur"",""0"",""2634""
""focus"",""0"",""5615""
""fullscreenenter"",""0"",""7298""
","""event"",""trial"",""time""
""blur"",""0"",""2634""
","""event"",""trial"",""time""
""focus"",""0"",""5615""
","""event"",""trial"",""time""
""fullscreenenter"",""0"",""7298""
","
","null","<p></p>","null","","","","","","","",""
"","test_intro","196","243882","0.0-196.0","""event"",""trial"",""time""
""blur"",""0"",""2634""
""focus"",""0"",""5615""
""fullscreenenter"",""0"",""7298""
","""event"",""trial"",""time""
""blur"",""0"",""2634""
","""event"",""trial"",""time""
""focus"",""0"",""5615""
","""event"",""trial"",""time""
""fullscreenenter"",""0"",""7298""
","
","null","run_exp/static/audio/clip_2_memory.m4a","null","","","","","<div class='center'><p>Now, lets see how much you remember about the items you just saw.  For each item, you need to indicate if it was <b>old</b> by pressing the <b>v</b> key, <b>similar</b> by pressing the <b>b</b> key, or <b>new</b> by pressing the <b>n</b> key.</p><p>Old refers to an item that you saw before in the indoor/outdoor game that you just played, new refers to an item you have <b>not</b> seen before within the indoor/outdoor game, and similar refers to an item that is similar to an item youve seen before but is not exactly the same. </p><p>Before we begin, lets go over some brief demonstrations to make sure you understand.</p></div>","","",""
"","html-keyboard-response","197","248425","0.0-197.0","""event"",""trial"",""time""
""blur"",""0"",""2634""
""focus"",""0"",""5615""
""fullscreenenter"",""0"",""7298""
","""event"",""trial"",""time""
""blur"",""0"",""2634""
","""event"",""trial"",""time""
""focus"",""0"",""5615""
","""event"",""trial"",""time""
""fullscreenenter"",""0"",""7298""
","
","4540.299999952316","<div class='center'><p>Now, lets see how much you remember about the items you just saw.  For each item, you need to indicate if it was <b>old</b> by pressing the <b>v</b> key, <b>similar</b> by pressing the <b>b</b> key, or <b>new</b> by pressing the <b>n</b> key.</p><p>Old refers to an item that you saw before in the indoor/outdoor game that you just played, new refers to an item you have <b>not</b> seen before within the indoor/outdoor game, and similar refers to an item that is similar to an item youve seen before but is not exactly the same. </p><p>Before we begin, lets go over some brief demonstrations to make sure you understand.</p><div><p><b>[Press the space bar to continue]</b></p></div>","32","","","","","","","",""
"","items","198","255929","0.0-198.0","""event"",""trial"",""time""
""blur"",""0"",""2634""
""focus"",""0"",""5615""
""fullscreenenter"",""0"",""7298""
","""event"",""trial"",""time""
""blur"",""0"",""2634""
","""event"",""trial"",""time""
""focus"",""0"",""5615""
","""event"",""trial"",""time""
""fullscreenenter"",""0"",""7298""
","
","null","run_exp/static/audio/clip_3_items.m4a","null","","","","","","","",""
"","mop","199","260437","0.0-199.0","""event"",""trial"",""time""
""blur"",""0"",""2634""
""focus"",""0"",""5615""
""fullscreenenter"",""0"",""7298""
","""event"",""trial"",""time""
""blur"",""0"",""2634""
","""event"",""trial"",""time""
""focus"",""0"",""5615""
","""event"",""trial"",""time""
""fullscreenenter"",""0"",""7298""
","
","null","run_exp/static/audio/clip_4_mop.m4a","null","","","","","","","",""
"","baseball","200","263944","0.0-200.0","""event"",""trial"",""time""
""blur"",""0"",""2634""
""focus"",""0"",""5615""
""fullscreenenter"",""0"",""7298""
","""event"",""trial"",""time""
""blur"",""0"",""2634""
","""event"",""trial"",""time""
""focus"",""0"",""5615""
","""event"",""trial"",""time""
""fullscreenenter"",""0"",""7298""
","
","null","run_exp/static/audio/clip_5_baseball.m4a","null","","","","","","","",""
"","trumpet","201","267451","0.0-201.0","""event"",""trial"",""time""
""blur"",""0"",""2634""
""focus"",""0"",""5615""
""fullscreenenter"",""0"",""7298""
","""event"",""trial"",""time""
""blur"",""0"",""2634""
","""event"",""trial"",""time""
""focus"",""0"",""5615""
","""event"",""trial"",""time""
""fullscreenenter"",""0"",""7298""
","
","null","run_exp/static/audio/clip_6_trumpet.m4a","null","","","","","","","",""
"","gummies","202","270954","0.0-202.0","""event"",""trial"",""time""
""blur"",""0"",""2634""
""focus"",""0"",""5615""
""fullscreenenter"",""0"",""7298""
","""event"",""trial"",""time""
""blur"",""0"",""2634""
","""event"",""trial"",""time""
""focus"",""0"",""5615""
","""event"",""trial"",""time""
""fullscreenenter"",""0"",""7298""
","
","null","run_exp/static/audio/clip_7_gummies.m4a","null","","","","","","","",""
"","osn","203","275457","0.0-203.0","""event"",""trial"",""time""
""blur"",""0"",""2634""
""focus"",""0"",""5615""
""fullscreenenter"",""0"",""7298""
","""event"",""trial"",""time""
""blur"",""0"",""2634""
","""event"",""trial"",""time""
""focus"",""0"",""5615""
","""event"",""trial"",""time""
""fullscreenenter"",""0"",""7298""
","
","null","run_exp/static/audio/clip_8_osn.m4a","null","","","","","","","",""
"","old_1","204","281962","0.0-204.0","""event"",""trial"",""time""
""blur"",""0"",""2634""
""focus"",""0"",""5615""
""fullscreenenter"",""0"",""7298""
","""event"",""trial"",""time""
""blur"",""0"",""2634""
","""event"",""trial"",""time""
""focus"",""0"",""5615""
","""event"",""trial"",""time""
""fullscreenenter"",""0"",""7298""
","
","null","run_exp/static/audio/clip_9_old_trumpet.m4a","null","","","","","","","",""
"","new_1","205","289467","0.0-205.0","""event"",""trial"",""time""
""blur"",""0"",""2634""
""focus"",""0"",""5615""
""fullscreenenter"",""0"",""7298""
","""event"",""trial"",""time""
""blur"",""0"",""2634""
","""event"",""trial"",""time""
""focus"",""0"",""5615""
","""event"",""trial"",""time""
""fullscreenenter"",""0"",""7298""
","
","null","run_exp/static/audio/clip_10_new_balloon.m4a","null","","","","","","","",""
"","similar_1a","206","293973","0.0-206.0","""event"",""trial"",""time""
""blur"",""0"",""2634""
""focus"",""0"",""5615""
""fullscreenenter"",""0"",""7298""
","""event"",""trial"",""time""
""blur"",""0"",""2634""
","""event"",""trial"",""time""
""focus"",""0"",""5615""
","""event"",""trial"",""time""
""fullscreenenter"",""0"",""7298""
","
","null","run_exp/static/audio/clip_11a_similar_mop.m4a","null","","","","","","","",""
"","similar_1b","207","300480","0.0-207.0","""event"",""trial"",""time""
""blur"",""0"",""2634""
""focus"",""0"",""5615""
""fullscreenenter"",""0"",""7298""
","""event"",""trial"",""time""
""blur"",""0"",""2634""
","""event"",""trial"",""time""
""focus"",""0"",""5615""
","""event"",""trial"",""time""
""fullscreenenter"",""0"",""7298""
","
","null","run_exp/static/audio/clip_11b_similar_mop.m4a","null","","","","","","","",""
"","new_2","208","303985","0.0-208.0","""event"",""trial"",""time""
""blur"",""0"",""2634""
""focus"",""0"",""5615""
""fullscreenenter"",""0"",""7298""
","""event"",""trial"",""time""
""blur"",""0"",""2634""
","""event"",""trial"",""time""
""focus"",""0"",""5615""
","""event"",""trial"",""time""
""fullscreenenter"",""0"",""7298""
","
","null","run_exp/static/audio/clip_12_new_stoplight.m4a","null","","","","","","","",""
"","old_2","209","307488","0.0-209.0","""event"",""trial"",""time""
""blur"",""0"",""2634""
""focus"",""0"",""5615""
""fullscreenenter"",""0"",""7298""
","""event"",""trial"",""time""
""blur"",""0"",""2634""
","""event"",""trial"",""time""
""focus"",""0"",""5615""
","""event"",""trial"",""time""
""fullscreenenter"",""0"",""7298""
","
","null","run_exp/static/audio/clip_13_old_baseball.m4a","null","","","","","","","",""
"","similar_2a","210","310993","0.0-210.0","""event"",""trial"",""time""
""blur"",""0"",""2634""
""focus"",""0"",""5615""
""fullscreenenter"",""0"",""7298""
","""event"",""trial"",""time""
""blur"",""0"",""2634""
","""event"",""trial"",""time""
""focus"",""0"",""5615""
","""event"",""trial"",""time""
""fullscreenenter"",""0"",""7298""
","
","null","run_exp/static/audio/clip_14a_similar_gummies.m4a","null","","","","","","","",""
"","similar_2b","211","318496","0.0-211.0","""event"",""trial"",""time""
""blur"",""0"",""2634""
""focus"",""0"",""5615""
""fullscreenenter"",""0"",""7298""
","""event"",""trial"",""time""
""blur"",""0"",""2634""
","""event"",""trial"",""time""
""focus"",""0"",""5615""
","""event"",""trial"",""time""
""fullscreenenter"",""0"",""7298""
","
","null","run_exp/static/audio/clip_14b_similar_gummies.m4a","null","","","","","","","",""
"","practice","212","360641","0.0-212.0","""event"",""trial"",""time""
""blur"",""0"",""2634""
""focus"",""0"",""5615""
""fullscreenenter"",""0"",""7298""
","""event"",""trial"",""time""
""blur"",""0"",""2634""
","""event"",""trial"",""time""
""focus"",""0"",""5615""
","""event"",""trial"",""time""
""fullscreenenter"",""0"",""7298""
","
","null","run_exp/static/audio/clip_15_practice.m4a","null","","","","","<div class='center'><p>Lets practice a little to make sure you understand the difference between new, similar, and old. Lets say you saw these three items in the indoor/outdoor game.</p><p> Try your best to remember these images because youll soon be tested on them in a practice game. In the practice game, youll be shown images and youll have to say if they are old (one of the three images belows), similar (similar to one of the images below but not exactly the same), or new (are not one of the images below nor similar to them).</p><p>Once you press the space bar youll be shown these images again but one at time. Then youll begin the practice game.</p><p><img src='run_exp/static/images/tutorial/test/three_indoor_outdoor.png' height='300'></p></div>","","",""
"","html-keyboard-response","213","361150","0.0-213.0","""event"",""trial"",""time""
""blur"",""0"",""2634""
""focus"",""0"",""5615""
""fullscreenenter"",""0"",""7298""
","""event"",""trial"",""time""
""blur"",""0"",""2634""
","""event"",""trial"",""time""
""focus"",""0"",""5615""
","""event"",""trial"",""time""
""fullscreenenter"",""0"",""7298""
","
","507.60000002384186","<div class='center'><p>Lets practice a little to make sure you understand the difference between new, similar, and old. Lets say you saw these three items in the indoor/outdoor game.</p><p> Try your best to remember these images because youll soon be tested on them in a practice game. In the practice game, youll be shown images and youll have to say if they are old (one of the three images belows), similar (similar to one of the images below but not exactly the same), or new (are not one of the images below nor similar to them).</p><p>Once you press the space bar youll be shown these images again but one at time. Then youll begin the practice game.</p><p><img src='run_exp/static/images/tutorial/test/three_indoor_outdoor.png' height='300'></p><div><p><b>[Press the space bar to continue]</b></p></div>","32","","","","","","","",""
"","planet","214","363155","0.0-214.0","""event"",""trial"",""time""
""blur"",""0"",""2634""
""focus"",""0"",""5615""
""fullscreenenter"",""0"",""7298""
","""event"",""trial"",""time""
""blur"",""0"",""2634""
","""event"",""trial"",""time""
""focus"",""0"",""5615""
","""event"",""trial"",""time""
""fullscreenenter"",""0"",""7298""
","
","null","run_exp/static/images/tutorial/test/008a.jpg","null","","","","","","","",""
"","boot","215","365161","0.0-215.0","""event"",""trial"",""time""
""blur"",""0"",""2634""
""focus"",""0"",""5615""
""fullscreenenter"",""0"",""7298""
","""event"",""trial"",""time""
""blur"",""0"",""2634""
","""event"",""trial"",""time""
""focus"",""0"",""5615""
","""event"",""trial"",""time""
""fullscreenenter"",""0"",""7298""
","
","null","run_exp/static/images/tutorial/test/011a.jpg","null","","","","","","","",""
"","lemon","216","367168","0.0-216.0","""event"",""trial"",""time""
""blur"",""0"",""2634""
""focus"",""0"",""5615""
""fullscreenenter"",""0"",""7298""
","""event"",""trial"",""time""
""blur"",""0"",""2634""
","""event"",""trial"",""time""
""focus"",""0"",""5615""
","""event"",""trial"",""time""
""fullscreenenter"",""0"",""7298""
","
","null","run_exp/static/images/tutorial/test/018a.jpg","null","","","","","","","",""
"","practice_q1","217","372567","0.0-217.0","""event"",""trial"",""time""
""blur"",""0"",""2634""
""focus"",""0"",""5615""
""fullscreenenter"",""0"",""7298""
","""event"",""trial"",""time""
""blur"",""0"",""2634""
","""event"",""trial"",""time""
""focus"",""0"",""5615""
","""event"",""trial"",""time""
""fullscreenenter"",""0"",""7298""
","
","5396.600000023842","run_exp/static/audio/clip_16_practice_question.m4a","78","","","","","","","",""
"","correct","218","374488","0.0-218.0-0.0","""event"",""trial"",""time""
""blur"",""0"",""2634""
""focus"",""0"",""5615""
""fullscreenenter"",""0"",""7298""
","""event"",""trial"",""time""
""blur"",""0"",""2634""
","""event"",""trial"",""time""
""focus"",""0"",""5615""
","""event"",""trial"",""time""
""fullscreenenter"",""0"",""7298""
","
","null","run_exp/static/audio/clip_17_correct.m4a","null","","","","","<div class='center'><p>That's correct!</p></div>","","",""
"","html-keyboard-response","219","375417","0.0-218.0-1.0","""event"",""trial"",""time""
""blur"",""0"",""2634""
""focus"",""0"",""5615""
""fullscreenenter"",""0"",""7298""
","""event"",""trial"",""time""
""blur"",""0"",""2634""
","""event"",""trial"",""time""
""focus"",""0"",""5615""
","""event"",""trial"",""time""
""fullscreenenter"",""0"",""7298""
","
","927.8999999761581","<div class='center'><p>That's correct!</p><div><p><b>[Press the space bar to continue]</b></p></div>","32","","","","","","","",""
"","practice_q2","220","380594","0.0-218.0-2.0","""event"",""trial"",""time""
""blur"",""0"",""2634""
""focus"",""0"",""5615""
""fullscreenenter"",""0"",""7298""
