"trial_type","trial_index","time_elapsed","internal_node_id","participant_id","subject_id","age","gender","rocket_sides","red_planet_first_rocket","red_display_order","purple_display_order","interactions","blur_events","focus_events","fullscreenenter_events","fullscreenexit_events","rt","stimulus","key_press","button_pressed","success","duration","valid_pressed","rts","keys","planet_text","right_text","left_text","center_text","chosen_text","reward_text","trial_stage","practice_trial","transition_type","choice","transition","reward","timestamp"
"pavlovia","0","4","0.0-0.0","3158","4978","19","Male","true","true","false","true","
","
","
","
","
","","","","","","","","","","","","","","","","","","","","","",""
"html-keyboard-response","1","2240","0.0-1.0","3158","4978","19","Male","true","true","false","true","
","
","
","
","
","2235.2000000476837","Welcome! Press the space bar to begin.","32","","","","","","","","","","","","","","","","","","",""
"audio-keyboard-response","2","5046","0.0-2.0","3158","4978","19","Male","true","true","false","true","
","
","
","
","
","2804","audio/beep_loop.wav","32","","","","","","","","","","","","","","","","","","",""
"audio-button-response","3","7642","0.0-3.0","3158","4978","19","Male","true","true","false","true","
","
","
","
","
","NaN","audio/fish.mp3","","1","","","","","","","","","","","","","","","","","",""
"audio-button-response","4","10411","0.0-4.0","3158","4978","19","Male","true","true","false","true","""event"",""trial"",""time""
""fullscreenenter"",""5"",""14151""
","
","
","""event"",""trial"",""time""
""fullscreenenter"",""5"",""14151""
","
","NaN","audio/tiger.mp3","","4","","","","","","","","","","","","","","","","","",""
"fullscreen","5","15147","0.0-5.0","3158","4978","19","Male","true","true","false","true","""event"",""trial"",""time""
""fullscreenenter"",""5"",""14151""
","
","
","""event"",""trial"",""time""
""fullscreenenter"",""5"",""14151""
","
","","","","","true","","","","","","","","","","","","","","","","",""
"d3-instructions","6","21856","0.0-6.0","3158","4978","19","Male","true","true","false","true","""event"",""trial"",""time""
""fullscreenenter"",""5"",""14151""
","
","
","""event"",""trial"",""time""
""fullscreenenter"",""5"",""14151""
","
","","","","","","","","","","","","","","","","","","","","","",""
"d3-instructions","7","25652","0.0-7.0","3158","4978","19","Male","true","true","false","true","""event"",""trial"",""time""
""fullscreenenter"",""5"",""14151""
","
","
","""event"",""trial"",""time""
""fullscreenenter"",""5"",""14151""
","
","","","","","","","","","","","","","","","","","","","","","",""
"d3-instructions","8","28476","0.0-8.0","3158","4978","19","Male","true","true","false","true","""event"",""trial"",""time""
""fullscreenenter"",""5"",""14151""
","
","
","""event"",""trial"",""time""
""fullscreenenter"",""5"",""14151""
","
","","","","","","","","","","","","","","","","","","","","","",""
"d3-instructions","9","33986","0.0-9.0","3158","4978","19","Male","true","true","false","true","""event"",""trial"",""time""
""fullscreenenter"",""5"",""14151""
","
","
","""event"",""trial"",""time""
""fullscreenenter"",""5"",""14151""
","
","","","","","","","","","","","","","","","","","","","","","",""
"d3-instructions","10","44164","0.0-10.0","3158","4978","19","Male","true","true","false","true","""event"",""trial"",""time""
""fullscreenenter"",""5"",""14151""
","
","
","""event"",""trial"",""time""
""fullscreenenter"",""5"",""14151""
","
","","","","","","","","","","","","","","","","","","","","","",""
"d3-animate-choice","11","48363","0.0-11.0","3158","4978","19","Male","true","true","false","true","""event"",""trial"",""time""
""fullscreenenter"",""5"",""14151""
","
","
","""event"",""trial"",""time""
""fullscreenenter"",""5"",""14151""
","
","2187.7000000476837","","49","","","3000","1","","","images/tutgreenplanet.jpg","images/tutalien1","images/tutalien2","null","images/tutalien2","","NA","practice","null","","","",""
"d3-animate-choice","12","51099","0.0-12.0","3158","4978","19","Male","true","true","false","true","""event"",""trial"",""time""
""fullscreenenter"",""5"",""14151""
","
","
","""event"",""trial"",""time""
""fullscreenenter"",""5"",""14151""
","
","730.3999999761581","","48","","","3000","1","","","images/tutgreenplanet.jpg","images/tutalien1","images/tutalien2","null","images/tutalien1","","NA","practice","null","","","",""
"d3-animate-choice","13","53595","0.0-13.0","3158","4978","19","Male","true","true","false","true","""event"",""trial"",""time""
""fullscreenenter"",""5"",""14151""
","
","
","""event"",""trial"",""time""
""fullscreenenter"",""5"",""14151""
","
","486","","49","","","3000","1","","","images/tutgreenplanet.jpg","images/tutalien1","images/tutalien2","null","images/tutalien2","","NA","practice","null","","","",""
"d3-animate-choice","14","55939","0.0-14.0","3158","4978","19","Male","true","true","false","true","""event"",""trial"",""time""
""fullscreenenter"",""5"",""14151""
","
","
","""event"",""trial"",""time""
""fullscreenenter"",""5"",""14151""
","
","333.0999999642372","","49","","","3000","1","","","images/tutgreenplanet.jpg","images/tutalien1","images/tutalien2","null","images/tutalien2","","NA","practice","null","","","",""
"d3-instructions","15","60307","0.0-15.0","3158","4978","19","Male","true","true","false","true","""event"",""trial"",""time""
""fullscreenenter"",""5"",""14151""
","
","
","""event"",""trial"",""time""
""fullscreenenter"",""5"",""14151""
","
","","","","","","","","","","","","","","","","","","","","","",""
"d3-instructions","16","61810","0.0-16.0","3158","4978","19","Male","true","true","false","true","""event"",""trial"",""time""
""fullscreenenter"",""5"",""14151""
","
","
","""event"",""trial"",""time""
""fullscreenenter"",""5"",""14151""
","
","","","","","","","","","","","","","","","","","","","","","",""
"d3-instructions","17","65576","0.0-17.0","3158","4978","19","Male","true","true","false","true","""event"",""trial"",""time""
""fullscreenenter"",""5"",""14151""
","
","
","""event"",""trial"",""time""
""fullscreenenter"",""5"",""14151""
","
","","","","","","","","","","","","","","","","","","","","","",""
"d3-instructions","18","70033","0.0-18.0","3158","4978","19","Male","true","true","false","true","""event"",""trial"",""time""
""fullscreenenter"",""5"",""14151""
","
","
","""event"",""trial"",""time""
""fullscreenenter"",""5"",""14151""
","
","","","","","","","","","","","","","","","","","","","","","",""
"d3-instructions","19","76358","0.0-19.0","3158","4978","19","Male","true","true","false","true","""event"",""trial"",""time""
""fullscreenenter"",""5"",""14151""
","
","
","""event"",""trial"",""time""
""fullscreenenter"",""5"",""14151""
","
","","","","","","","","","","","","","","","","","","","","","",""
"d3-animate-choice","20","79619","0.0-20.0","3158","4978","19","Male","true","true","false","true","""event"",""trial"",""time""
""fullscreenenter"",""5"",""14151""
","
","
","""event"",""trial"",""time""
""fullscreenenter"",""5"",""14151""
","
","1253.3999999761581","","49","","","3000","1","2373.599999964237","49","images/tutyellowplanet.jpg","null","images/tutalien3","null","images/tutalien3","images/t.png","NA","practice","null","","","",""
"d3-animate-choice","21","81714","0.0-21.0","3158","4978","19","Male","true","true","false","true","""event"",""trial"",""time""
""fullscreenenter"",""5"",""14151""
","
","
","""event"",""trial"",""time""
""fullscreenenter"",""5"",""14151""
","
","90.20000004768372","","49","","","3000","1","1646.1000000238419,2034.800000011921","49,49","images/tutyellowplanet.jpg","null","images/tutalien3","null","images/tutalien3","images/t.png","NA","practice","null","","","",""
"d3-animate-choice","22","83971","0.0-22.0","3158","4978","19","Male","true","true","false","true","""event"",""trial"",""time""
""fullscreenenter"",""5"",""14151""
","
","
","""event"",""trial"",""time""
""fullscreenenter"",""5"",""14151""
","
","249.60000002384186","","49","","","3000","1","","","images/tutyellowplanet.jpg","null","images/tutalien3","null","images/tutalien3","images/nothing.png","NA","practice","null","","","",""
"d3-animate-choice","23","86369","0.0-23.0","3158","4978","19","Male","true","true","false","true","""event"",""trial"",""time""
""fullscreenenter"",""5"",""14151""
","
","
","""event"",""trial"",""time""
""fullscreenenter"",""5"",""14151""
","
","388.2000000476837","","49","","","3000","1","","","images/tutyellowplanet.jpg","null","images/tutalien3","null","images/tutalien3","images/nothing.png","NA","practice","null","","","",""
"d3-animate-choice","24","88634","0.0-24.0","3158","4978","19","Male","true","true","false","true","""event"",""trial"",""time""
""fullscreenenter"",""5"",""14151""
","
","
","""event"",""trial"",""time""
""fullscreenenter"",""5"",""14151""
","
","255.70000004768372","","49","","","3000","1","","","images/tutyellowplanet.jpg","null","images/tutalien3","null","images/tutalien3","images/t.png","NA","practice","null","","","",""
"d3-animate-choice","25","91018","0.0-25.0","3158","4978","19","Male","true","true","false","true","""event"",""trial"",""time""
""fullscreenenter"",""5"",""14151""
","
","
","""event"",""trial"",""time""
""fullscreenenter"",""5"",""14151""
","
","375.4000000357628","","49","","","3000","1","","","images/tutyellowplanet.jpg","null","images/tutalien3","null","images/tutalien3","images/nothing.png","NA","practice","null","","","",""
"d3-animate-choice","26","93826","0.0-26.0","3158","4978","19","Male","true","true","false","true","""event"",""trial"",""time""
""fullscreenenter"",""5"",""14151""
","
","
","""event"",""trial"",""time""
""fullscreenenter"",""5"",""14151""
","
","803.3999999761581","","49","","","3000","1","","","images/tutyellowplanet.jpg","null","images/tutalien3","null","images/tutalien3","images/nothing.png","NA","practice","null","","","",""
"d3-animate-choice","27","96170","0.0-27.0","3158","4978","19","Male","true","true","false","true","""event"",""trial"",""time""
""fullscreenenter"",""5"",""14151""
","
","
","""event"",""trial"",""time""
""fullscreenenter"",""5"",""14151""
","
","338.2999999523163","","49","","","3000","1","1804.7999999523163","49","images/tutyellowplanet.jpg","null","images/tutalien3","null","images/tutalien3","images/t.png","NA","practice","null","","","",""
"d3-animate-choice","28","98252","0.0-28.0","3158","4978","19","Male","true","true","false","true","""event"",""trial"",""time""
""fullscreenenter"",""5"",""14151""
","
","
","""event"",""trial"",""time""
""fullscreenenter"",""5"",""14151""
","
","69.59999996423721","","49","","","3000","1","","","images/tutyellowplanet.jpg","null","images/tutalien3","null","images/tutalien3","images/t.png","NA","practice","null","","","",""
"d3-animate-choice","29","100570","0.0-29.0","3158","4978","19","Male","true","true","false","true","""event"",""trial"",""time""
""fullscreenenter"",""5"",""14151""
","
","
","""event"",""trial"",""time""
""fullscreenenter"",""5"",""14151""
","
","306.30000001192093","","49","","","3000","1","","","images/tutyellowplanet.jpg","null","images/tutalien3","null","images/tutalien3","images/t.png","NA","practice","null","","","",""
"d3-instructions","30","105738","0.0-30.0","3158","4978","19","Male","true","true","false","true","""event"",""trial"",""time""
""fullscreenenter"",""5"",""14151""
","
","
","""event"",""trial"",""time""
""fullscreenenter"",""5"",""14151""
","
","","","","","","","","","","","","","","","","","","","","","",""
"d3-instructions","31","111745","0.0-31.0","3158","4978","19","Male","true","true","false","true","""event"",""trial"",""time""
""fullscreenenter"",""5"",""14151""
","
","
","""event"",""trial"",""time""
""fullscreenenter"",""5"",""14151""
","
","","","","","","","","","","","","","","","","","","","","","",""
"d3-instructions","32","115878","0.0-32.0","3158","4978","19","Male","true","true","false","true","""event"",""trial"",""time""
""fullscreenenter"",""5"",""14151""
","
","
","""event"",""trial"",""time""
""fullscreenenter"",""5"",""14151""
","
","","","","","","","","","","","","","","","","","","","","","",""
"d3-instructions","33","121024","0.0-33.0","3158","4978","19","Male","true","true","false","true","""event"",""trial"",""time""
""fullscreenenter"",""5"",""14151""
","
","
","""event"",""trial"",""time""
""fullscreenenter"",""5"",""14151""
","
","","","","","","","","","","","","","","","","","","","","","",""
"d3-animate-choice","34","124106","0.0-34.0","3158","4978","19","Male","true","true","false","true","""event"",""trial"",""time""
""fullscreenenter"",""5"",""14151""
","
","
","""event"",""trial"",""time""
""fullscreenenter"",""5"",""14151""
","
","1073.199999988079","","49","","","3000","1","","","images/tutgreenplanet.jpg","images/tutalien1","images/tutalien2","null","images/tutalien2","images/t.png","NA","practice","null","","","",""
"d3-animate-choice","35","127058","0.0-35.0","3158","4978","19","Male","true","true","false","true","""event"",""trial"",""time""
""fullscreenenter"",""5"",""14151""
","
","
","""event"",""trial"",""time""
""fullscreenenter"",""5"",""14151""
","
","942.6000000238419","","49","","","3000","1","","","images/tutgreenplanet.jpg","images/tutalien1","images/tutalien2","null","images/tutalien2","images/t.png","NA","practice","null","","","",""
"d3-animate-choice","36","129289","0.0-36.0","3158","4978","19","Male","true","true","false","true","""event"",""trial"",""time""
""fullscreenenter"",""5"",""14151""
","
","
","""event"",""trial"",""time""
""fullscreenenter"",""5"",""14151""
","
","222.0999999642372","","49","","","3000","1","1593.699999988079,1882.199999988079,2153.2999999523163","49,49,49","images/tutgreenplanet.jpg","images/tutalien1","images/tutalien2","null","images/tutalien2","images/t.png","NA","practice","null","","","",""
"d3-animate-choice","37","131460","0.0-37.0","3158","4978","19","Male","true","true","false","true","""event"",""trial"",""time""
""fullscreenenter"",""5"",""14151""
","
","
","""event"",""trial"",""time""
""fullscreenenter"",""5"",""14151""
","
","161.0999999642372","","49","","","3000","1","423.30000001192093,717.8000000119209,1017.0999999642372,1304.5,1580.699999988079,1870.0999999642372","49,49,49,49,49,49","images/tutgreenplanet.jpg","images/tutalien1","images/tutalien2","null","images/tutalien2","images/nothing.png","NA","practice","null","","","",""
"d3-animate-choice","38","133465","0.0-38.0","3158","4978","19","Male","true","true","false","true","""event"",""trial"",""time""
""fullscreenenter"",""5"",""14151""
","
","
","""event"",""trial"",""time""
""fullscreenenter"",""5"",""14151""
","
","0.8999999761581421","","49","","","3000","1","278.60000002384186,611.3000000119209,1406.800000011921","49,49,49","images/tutgreenplanet.jpg","images/tutalien1","images/tutalien2","null","images/tutalien2","images/nothing.png","NA","practice","null","","","",""
"d3-animate-choice","39","135521","0.0-39.0","3158","4978","19","Male","true","true","false","true","""event"",""trial"",""time""
""fullscreenenter"",""5"",""14151""
","
","
","""event"",""trial"",""time""
""fullscreenenter"",""5"",""14151""
","
","50.30000001192093","","49","","","3000","1","340.19999998807907,1607.300000011921","49,49","images/tutgreenplanet.jpg","images/tutalien1","images/tutalien2","null","images/tutalien2","images/t.png","NA","practice","null","","","",""
"d3-animate-choice","40","137666","0.0-40.0","3158","4978","19","Male","true","true","false","true","""event"",""trial"",""time""
""fullscreenenter"",""5"",""14151""
","
","
","""event"",""trial"",""time""
""fullscreenenter"",""5"",""14151""
","
","136.80000001192093","","49","","","3000","1","1053.3999999761581,1573.199999988079,2036.300000011921","49,49,49","images/tutgreenplanet.jpg","images/tutalien1","images/tutalien2","null","images/tutalien2","images/t.png","NA","practice","null","","","",""
"d3-animate-choice","41","139817","0.0-41.0","3158","4978","19","Male","true","true","false","true","""event"",""trial"",""time""
""fullscreenenter"",""5"",""14151""
","
","
","""event"",""trial"",""time""
""fullscreenenter"",""5"",""14151""
","
","141.89999997615814","","49","","","3000","1","409.0999999642372,808,1119,1360.0999999642372,1813.199999988079,2114.099999964237","49,49,49,49,49,49","images/tutgreenplanet.jpg","images/tutalien1","images/tutalien2","null","images/tutalien2","images/t.png","NA","practice","null","","","",""
"d3-animate-choice","42","142281","0.0-42.0","3158","4978","19","Male","true","true","false","true","""event"",""trial"",""time""
""fullscreenenter"",""5"",""14151""
","
","
","""event"",""trial"",""time""
""fullscreenenter"",""5"",""14151""
","
","455.9000000357628","","49","","","3000","1","724.4000000357628,1139.2000000476837,1657.300000011921,2051.600000023842","49,49,49,49","images/tutgreenplanet.jpg","images/tutalien1","images/tutalien2","null","images/tutalien2","images/t.png","NA","practice","null","","","",""
"d3-animate-choice","43","144441","0.0-43.0","3158","4978","19","Male","true","true","false","true","""event"",""trial"",""time""
""fullscreenenter"",""5"",""14151""
","
","
","""event"",""trial"",""time""
""fullscreenenter"",""5"",""14151""
","
","148.89999997615814","","49","","","3000","1","1444.800000011921,2025.3999999761581","49,49","images/tutgreenplanet.jpg","images/tutalien1","images/tutalien2","null","images/tutalien2","images/t.png","NA","practice","null","","","",""
"d3-instructions","44","147147","0.0-44.0","3158","4978","19","Male","true","true","false","true","""event"",""trial"",""time""
""fullscreenenter"",""5"",""14151""
","
","
","""event"",""trial"",""time""
""fullscreenenter"",""5"",""14151""
","
","","","","","","","","","","","","","","","","","","","","","",""
"d3-instructions","45","149108","0.0-45.0","3158","4978","19","Male","true","true","false","true","""event"",""trial"",""time""
""fullscreenenter"",""5"",""14151""
","
","
","""event"",""trial"",""time""
""fullscreenenter"",""5"",""14151""
","
","","","","","","","","","","","","","","","","","","","","","",""
"d3-instructions","46","151398","0.0-46.0","3158","4978","19","Male","true","true","false","true","""event"",""trial"",""time""
""fullscreenenter"",""5"",""14151""
","
","
","""event"",""trial"",""time""
""fullscreenenter"",""5"",""14151""
","
","","","","","","","","","","","","","","","","","","","","","",""
"d3-instructions","47","159146","0.0-47.0","3158","4978","19","Male","true","true","false","true","""event"",""trial"",""time""
""fullscreenenter"",""5"",""14151""
","
","
","""event"",""trial"",""time""
""fullscreenenter"",""5"",""14151""
","
","","","","","","","","","","","","","","","","","","","","","",""
"d3-instructions","48","161202","0.0-48.0","3158","4978","19","Male","true","true","false","true","""event"",""trial"",""time""
""fullscreenenter"",""5"",""14151""
","
","
","""event"",""trial"",""time""
""fullscreenenter"",""5"",""14151""
","
","","","","","","","","","","","","","","","","","","","","","",""
"d3-instructions","49","164406","0.0-49.0","3158","4978","19","Male","true","true","false","true","""event"",""trial"",""time""
""fullscreenenter"",""5"",""14151""
","
","
","""event"",""trial"",""time""
""fullscreenenter"",""5"",""14151""
","
","","","","","","","","","","","","","","","","","","","","","",""
"d3-instructions","50","168102","0.0-50.0","3158","4978","19","Male","true","true","false","true","""event"",""trial"",""time""
""fullscreenenter"",""5"",""14151""
","
","
","""event"",""trial"",""time""
""fullscreenenter"",""5"",""14151""
","
","","","","","","","","","","","","","","","","","","","","","",""
"d3-instructions","51","169297","0.0-51.0","3158","4978","19","Male","true","true","false","true","""event"",""trial"",""time""
""fullscreenenter"",""5"",""14151""
","
","
","""event"",""trial"",""time""
""fullscreenenter"",""5"",""14151""
","
","","","","","","","","","","","","","","","","","","","","","",""
"d3-instructions","52","170490","0.0-52.0","3158","4978","19","Male","true","true","false","true","""event"",""trial"",""time""
""fullscreenenter"",""5"",""14151""
","
","
","""event"",""trial"",""time""
""fullscreenenter"",""5"",""14151""
","
","","","","","","","","","","","","","","","","","","","","","",""
"d3-instructions","53","173821","0.0-53.0","3158","4978","19","Male","true","true","false","true","""event"",""trial"",""time""
""fullscreenenter"",""5"",""14151""
","
","
","""event"",""trial"",""time""
""fullscreenenter"",""5"",""14151""
","
","","","","","","","","","","","","","","","","","","","","","",""
"d3-instructions","54","182513","0.0-54.0","3158","4978","19","Male","true","true","false","true","""event"",""trial"",""time""
""fullscreenenter"",""5"",""14151""
","
","
","""event"",""trial"",""time""
""fullscreenenter"",""5"",""14151""
","
","","","","","","","","","","","","","","","","","","","","","",""
"d3-instructions","55","186146","0.0-55.0","3158","4978","19","Male","true","true","false","true","""event"",""trial"",""time""
""fullscreenenter"",""5"",""14151""
","
","
","""event"",""trial"",""time""
""fullscreenenter"",""5"",""14151""
","
","","","","","","","","","","","","","","","","","","","","","",""
"d3-instructions","56","187603","0.0-56.0","3158","4978","19","Male","true","true","false","true","""event"",""trial"",""time""
""fullscreenenter"",""5"",""14151""
","
","
","""event"",""trial"",""time""
""fullscreenenter"",""5"",""14151""
","
","","","","","","","","","","","","","","","","","","","","","",""
"d3-instructions","57","193165","0.0-57.0","3158","4978","19","Male","true","true","false","true","""event"",""trial"",""time""
""fullscreenenter"",""5"",""14151""
","
","
","""event"",""trial"",""time""
""fullscreenenter"",""5"",""14151""
","
","","","","","","","","","","","","","","","","","","","","","",""
"d3-instructions","58","195591","0.0-58.0","3158","4978","19","Male","true","true","false","true","""event"",""trial"",""time""
""fullscreenenter"",""5"",""14151""
","
","
","""event"",""trial"",""time""
""fullscreenenter"",""5"",""14151""
","
","","","","","","","","","","","","","","","","","","","","","",""
"d3-instructions","59","197483","0.0-59.0","3158","4978","19","Male","true","true","false","true","""event"",""trial"",""time""
""fullscreenenter"",""5"",""14151""
","
","
","""event"",""trial"",""time""
""fullscreenenter"",""5"",""14151""
","
","","","","","","","","","","","","","","","","","","","","","",""
"d3-instructions","60","199130","0.0-60.0","3158","4978","19","Male","true","true","false","true","""event"",""trial"",""time""
""fullscreenenter"",""5"",""14151""
","
","
","""event"",""trial"",""time""
""fullscreenenter"",""5"",""14151""
","
","","","","","","","","","","","","","","","","","","","","","",""
"d3-animate-choice","61","202376","0.0-61.0-0.0","3158","4978","19","Male","true","true","false","true","""event"",""trial"",""time""
""fullscreenenter"",""5"",""14151""
","
","
","""event"",""trial"",""time""
""fullscreenenter"",""5"",""14151""
","
","1239.800000011921","","48","","","3000","1","","","images/earth.jpg","images/tutrocket1","images/tutrocket2","null","images/tutrocket1","","1","practice","null","2","","",""
"d3-animate-choice","62","205376","0.0-61.0-1.0","3158","4978","19","Male","true","true","false","true","""event"",""trial"",""time""
""fullscreenenter"",""5"",""14151""
","
","
","""event"",""trial"",""time""
""fullscreenenter"",""5"",""14151""
","
","988.4000000357628","","48","","","3000","1","","","images/tutgreenplanet.jpg","images/tutalien2","images/tutalien1","images/tutrocket1","images/tutalien2","images/nothing.png","2","practice","true","2","common","0","2022-12-06 06:46:18.994"
"two-step-fixation","63","206384","0.0-61.0-2.0","3158","4978","19","Male","true","true","false","true","""event"",""trial"",""time""
""fullscreenenter"",""5"",""14151""
","
","
","""event"",""trial"",""time""
""fullscreenenter"",""5"",""14151""
","
","","images/earth.jpg","","","","","","","","","","","","","","fixation","","","","","",""
"d3-animate-choice","64","208695","0.0-61.0-0.1","3158","4978","19","Male","true","true","false","true","""event"",""trial"",""time""
""fullscreenenter"",""5"",""14151""
","
","
","""event"",""trial"",""time""
""fullscreenenter"",""5"",""14151""
","
","298.60000002384186","","48","","","3000","1","","","images/earth.jpg","images/tutrocket1","images/tutrocket2","null","images/tutrocket1","","1","practice","null","2","","",""
"d3-animate-choice","65","211216","0.0-61.0-1.1","3158","4978","19","Male","true","true","false","true","""event"",""trial"",""time""
""fullscreenenter"",""5"",""14151""
","
","
","""event"",""trial"",""time""
""fullscreenenter"",""5"",""14151""
","
","516.3999999761581","","49","","","3000","1","","","images/tutyellowplanet.jpg","images/tutalien4","images/tutalien3","images/tutrocket1","images/tutalien3","images/nothing.png","2","practice","false","1","rare","0","2022-12-06 06:46:24.834"
"two-step-fixation","66","212224","0.0-61.0-2.1","3158","4978","19","Male","true","true","false","true","""event"",""trial"",""time""
""fullscreenenter"",""5"",""14151""
","
","
","""event"",""trial"",""time""
""fullscreenenter"",""5"",""14151""
","
","","images/earth.jpg","","","","","","","","","","","","","","fixation","","","","","",""
"d3-animate-choice","67","214432","0.0-61.0-0.2","3158","4978","19","Male","true","true","false","true","""event"",""trial"",""time""
""fullscreenenter"",""5"",""14151""
","
","
","""event"",""trial"",""time""
""fullscreenenter"",""5"",""14151""
","
","196.19999998807907","","48","","","3000","1","","","images/earth.jpg","images/tutrocket1","images/tutrocket2","null","images/tutrocket1","","1","practice","null","2","","",""
"d3-animate-choice","68","217687","0.0-61.0-1.2","3158","4978","19","Male","true","true","false","true","""event"",""trial"",""time""
""fullscreenenter"",""5"",""14151""
","
","
","""event"",""trial"",""time""
""fullscreenenter"",""5"",""14151""
","
","1244.800000011921","","49","","","3000","1","","","images/tutgreenplanet.jpg","images/tutalien2","images/tutalien1","images/tutrocket1","images/tutalien1","images/nothing.png","2","practice","true","1","common","0","2022-12-06 06:46:31.305"
"two-step-fixation","69","218696","0.0-61.0-2.2","3158","4978","19","Male","true","true","false","true","""event"",""trial"",""time""
""fullscreenenter"",""5"",""14151""
","
","
","""event"",""trial"",""time""
""fullscreenenter"",""5"",""14151""
","
","","images/earth.jpg","","","","","","","","","","","","","","fixation","","","","","",""
"d3-animate-choice","70","220975","0.0-61.0-0.3","3158","4978","19","Male","true","true","false","true","""event"",""trial"",""time""
""fullscreenenter"",""5"",""14151""
","
","
","""event"",""trial"",""time""
""fullscreenenter"",""5"",""14151""
","
","269.80000001192093","","49","","","3000","1","","","images/earth.jpg","images/tutrocket1","images/tutrocket2","null","images/tutrocket2","","1","practice","null","1","","",""
"d3-animate-choice","71","223368","0.0-61.0-1.3","3158","4978","19","Male","true","true","false","true","""event"",""trial"",""time""
""fullscreenenter"",""5"",""14151""
","
","
","""event"",""trial"",""time""
""fullscreenenter"",""5"",""14151""
","
","383.39999997615814","","48","","","3000","1","","","images/tutyellowplanet.jpg","images/tutalien4","images/tutalien3","images/tutrocket2","images/tutalien4","images/t.png","2","practice","true","2","common","1","2022-12-06 06:46:36.986"
"two-step-fixation","72","224376","0.0-61.0-2.3","3158","4978","19","Male","true","true","false","true","""event"",""trial"",""time""
""fullscreenenter"",""5"",""14151""
","
","
","""event"",""trial"",""time""
""fullscreenenter"",""5"",""14151""
","
","","images/earth.jpg","","","","","","","","","","","","","","fixation","","","","","",""
"d3-animate-choice","73","226744","0.0-61.0-0.4","3158","4978","19","Male","true","true","false","true","""event"",""trial"",""time""
""fullscreenenter"",""5"",""14151""
","
","
","""event"",""trial"",""time""
""fullscreenenter"",""5"",""14151""
","
","354.5999999642372","","49","","","3000","1","","","images/earth.jpg","images/tutrocket1","images/tutrocket2","null","images/tutrocket2","","1","practice","null","1","","",""
"d3-animate-choice","74","229199","0.0-61.0-1.4","3158","4978","19","Male","true","true","false","true","""event"",""trial"",""time""
""fullscreenenter"",""5"",""14151""
","
","
","""event"",""trial"",""time""
""fullscreenenter"",""5"",""14151""
","
","443.5","","48","","","3000","1","","","images/tutgreenplanet.jpg","images/tutalien2","images/tutalien1","images/tutrocket2","images/tutalien2","images/nothing.png","2","practice","false","2","rare","0","2022-12-06 06:46:42.817"
"two-step-fixation","75","230209","0.0-61.0-2.4","3158","4978","19","Male","true","true","false","true","""event"",""trial"",""time""
""fullscreenenter"",""5"",""14151""
","
","
","""event"",""trial"",""time""
""fullscreenenter"",""5"",""14151""
","
","","images/earth.jpg","","","","","","","","","","","","","","fixation","","","","","",""
"d3-animate-choice","76","232271","0.0-61.0-0.5","3158","4978","19","Male","true","true","false","true","""event"",""trial"",""time""
""fullscreenenter"",""5"",""14151""
","
","
","""event"",""trial"",""time""
""fullscreenenter"",""5"",""14151""
","
","51.69999998807907","","49","","","3000","1","","","images/earth.jpg","images/tutrocket1","images/tutrocket2","null","images/tutrocket2","","1","practice","null","1","","",""
"d3-animate-choice","77","234727","0.0-61.0-1.5","3158","4978","19","Male","true","true","false","true","""event"",""trial"",""time""
""fullscreenenter"",""5"",""14151""
","
","
","""event"",""trial"",""time""
""fullscreenenter"",""5"",""14151""
","
","444.30000001192093","","48","","","3000","1","","","images/tutgreenplanet.jpg","images/tutalien2","images/tutalien1","images/tutrocket2","images/tutalien2","images/nothing.png","2","practice","false","2","rare","0","2022-12-06 06:46:48.345"
"two-step-fixation","78","235734","0.0-61.0-2.5","3158","4978","19","Male","true","true","false","true","""event"",""trial"",""time""
""fullscreenenter"",""5"",""14151""
","
","
","""event"",""trial"",""time""
""fullscreenenter"",""5"",""14151""
","
","","images/earth.jpg","","","","","","","","","","","","","","fixation","","","","","",""
"d3-animate-choice","79","238071","0.0-61.0-0.6","3158","4978","19","Male","true","true","false","true","""event"",""trial"",""time""
""fullscreenenter"",""5"",""14151""
","
","
","""event"",""trial"",""time""
""fullscreenenter"",""5"",""14151""
","
","331.19999998807907","","49","","","3000","1","","","images/earth.jpg","images/tutrocket1","images/tutrocket2","null","images/tutrocket2","","1","practice","null","1","","",""
"d3-animate-choice","80","241217","0.0-61.0-1.6","3158","4978","19","Male","true","true","false","true","""event"",""trial"",""time""
""fullscreenenter"",""5"",""14151""
","
","
","""event"",""trial"",""time""
""fullscreenenter"",""5"",""14151""
","
","1133.6000000238419","","48","","","3000","1","","","images/tutyellowplanet.jpg","images/tutalien4","images/tutalien3","images/tutrocket2","images/tutalien4","images/nothing.png","2","practice","true","2","common","0","2022-12-06 06:46:54.836"
"two-step-fixation","81","242231","0.0-61.0-2.6","3158","4978","19","Male","true","true","false","true","""event"",""trial"",""time""
""fullscreenenter"",""5"",""14151""
","
","
","""event"",""trial"",""time""
""fullscreenenter"",""5"",""14151""
","
","","images/earth.jpg","","","","","","","","","","","","","","fixation","","","","","",""
"d3-animate-choice","82","244735","0.0-61.0-0.7","3158","4978","19","Male","true","true","false","true","""event"",""trial"",""time""
""fullscreenenter"",""5"",""14151""
","
","
","""event"",""trial"",""time""
""fullscreenenter"",""5"",""14151""
","
","494.5","","49","","","3000","1","","","images/earth.jpg","images/tutrocket1","images/tutrocket2","null","images/tutrocket2","","1","practice","null","1","","",""
"d3-animate-choice","83","247718","0.0-61.0-1.7","3158","4978","19","Male","true","true","false","true","""event"",""trial"",""time""
""fullscreenenter"",""5"",""14151""
","
","
","""event"",""trial"",""time""
""fullscreenenter"",""5"",""14151""
","
","976.3999999761581","","48","","","3000","1","","","images/tutyellowplanet.jpg","images/tutalien4","images/tutalien3","images/tutrocket2","images/tutalien4","images/t.png","2","practice","true","2","common","1","2022-12-06 06:47:01.336"
"two-step-fixation","84","248726","0.0-61.0-2.7","3158","4978","19","Male","true","true","false","true","""event"",""trial"",""time""
""fullscreenenter"",""5"",""14151""
","
","
","""event"",""trial"",""time""
""fullscreenenter"",""5"",""14151""
","
","","images/earth.jpg","","","","","","","","","","","","","","fixation","","","","","",""
"d3-animate-choice","85","251375","0.0-61.0-0.8","3158","4978","19","Male","true","true","false","true","""event"",""trial"",""time""
""fullscreenenter"",""5"",""14151""
","
","
","""event"",""trial"",""time""
""fullscreenenter"",""5"",""14151""
","
","643.1000000238419","","49","","","3000","1","","","images/earth.jpg","images/tutrocket1","images/tutrocket2","null","images/tutrocket2","","1","practice","null","1","","",""
"d3-animate-choice","86","254446","0.0-61.0-1.8","3158","4978","19","Male","true","true","false","true","""event"",""trial"",""time""
""fullscreenenter"",""5"",""14151""
","
","
","""event"",""trial"",""time""
""fullscreenenter"",""5"",""14151""
","
","1059.5","","48","","","3000","1","","","images/tutyellowplanet.jpg","images/tutalien4","images/tutalien3","images/tutrocket2","images/tutalien4","images/t.png","2","practice","true","2","common","1","2022-12-06 06:47:08.064"
"two-step-fixation","87","255458","0.0-61.0-2.8","3158","4978","19","Male","true","true","false","true","""event"",""trial"",""time""
""fullscreenenter"",""5"",""14151""
","
","
","""event"",""trial"",""time""
""fullscreenenter"",""5"",""14151""
","
","","images/earth.jpg","","","","","","","","","","","","","","fixation","","","","","",""
"d3-animate-choice","88","258458","0.0-61.0-0.9","3158","4978","19","Male","true","true","false","true","""event"",""trial"",""time""
""fullscreenenter"",""5"",""14151""
","
","
","""event"",""trial"",""time""
""fullscreenenter"",""5"",""14151""
","
","983.5","","49","","","3000","1","","","images/earth.jpg","images/tutrocket1","images/tutrocket2","null","images/tutrocket2","","1","practice","null","1","","",""
"d3-animate-choice","89","262078","0.0-61.0-1.9","3158","4978","19","Male","true","true","false","true","""event"",""trial"",""time""
""fullscreenenter"",""5"",""14151""
","
","
","""event"",""trial"",""time""
""fullscreenenter"",""5"",""14151""
","
","1609.199999988079","","49","","","3000","1","","","images/tutgreenplanet.jpg","images/tutalien2","images/tutalien1","images/tutrocket2","images/tutalien1","images/t.png","2","practice","false","1","rare","1","2022-12-06 06:47:15.696"
"two-step-fixation","90","263086","0.0-61.0-2.9","3158","4978","19","Male","true","true","false","true","""event"",""trial"",""time""
""fullscreenenter"",""5"",""14151""
","
","
","""event"",""trial"",""time""
""fullscreenenter"",""5"",""14151""
","
","","images/earth.jpg","","","","","","","","","","","","","","fixation","","","","","",""
"d3-animate-choice","91","266614","0.0-61.0-0.10","3158","4978","19","Male","true","true","false","true","""event"",""trial"",""time""
""fullscreenenter"",""5"",""14151""
","
","
","""event"",""trial"",""time""
""fullscreenenter"",""5"",""14151""
","
","846.6000000238419","","57","","","3000","1","1520.699999988079","48","images/earth.jpg","images/tutrocket1","images/tutrocket2","null","images/tutrocket1","","1","practice","null","","","",""
"d3-animate-choice","92","269078","0.0-61.0-1.10","3158","4978","19","Male","true","true","false","true","""event"",""trial"",""time""
""fullscreenenter"",""5"",""14151""
","
","
","""event"",""trial"",""time""
""fullscreenenter"",""5"",""14151""
","
","455.39999997615814","","49","","","3000","1","","","images/tutgreenplanet.jpg","images/tutalien2","images/tutalien1","images/tutrocket1","images/tutalien1","images/t.png","2","practice","true","1","common","1","2022-12-06 06:47:22.696"
"two-step-fixation","93","270086","0.0-61.0-2.10","3158","4978","19","Male","true","true","false","true","""event"",""trial"",""time""
""fullscreenenter"",""5"",""14151""
","
","
","""event"",""trial"",""time""
""fullscreenenter"",""5"",""14151""
","
","","images/earth.jpg","","","","","","","","","","","","","","fixation","","","","","",""
"d3-animate-choice","94","272494","0.0-61.0-0.11","3158","4978","19","Male","true","true","false","true","""event"",""trial"",""time""
""fullscreenenter"",""5"",""14151""
","
","
","""event"",""trial"",""time""
""fullscreenenter"",""5"",""14151""
","
","397.5999999642372","","48","","","3000","1","","","images/earth.jpg","images/tutrocket1","images/tutrocket2","null","images/tutrocket1","","1","practice","null","2","","",""
"d3-animate-choice","95","275134","0.0-61.0-1.11","3158","4978","19","Male","true","true","false","true","""event"",""trial"",""time""
""fullscreenenter"",""5"",""14151""
","
","
","""event"",""trial"",""time""
""fullscreenenter"",""5"",""14151""
","
","634.8000000119209","","49","","","3000","1","","","images/tutgreenplanet.jpg","images/tutalien2","images/tutalien1","images/tutrocket1","images/tutalien1","images/t.png","2","practice","true","1","common","1","2022-12-06 06:47:28.752"
"two-step-fixation","96","276142","0.0-61.0-2.11","3158","4978","19","Male","true","true","false","true","""event"",""trial"",""time""
""fullscreenenter"",""5"",""14151""
","
","
","""event"",""trial"",""time""
""fullscreenenter"",""5"",""14151""
","
","","images/earth.jpg","","","","","","","","","","","","","","fixation","","","","","",""
"d3-animate-choice","97","278518","0.0-61.0-0.12","3158","4978","19","Male","true","true","false","true","""event"",""trial"",""time""
""fullscreenenter"",""5"",""14151""
","
","
","""event"",""trial"",""time""
""fullscreenenter"",""5"",""14151""
","
","370.4000000357628","","48","","","3000","1","","","images/earth.jpg","images/tutrocket1","images/tutrocket2","null","images/tutrocket1","","1","practice","null","2","","",""
"d3-animate-choice","98","280989","0.0-61.0-1.12","3158","4978","19","Male","true","true","false","true","""event"",""trial"",""time""
""fullscreenenter"",""5"",""14151""
","
","
","""event"",""trial"",""time""
""fullscreenenter"",""5"",""14151""
","
","464.5","","49","","","3000","1","","","images/tutgreenplanet.jpg","images/tutalien2","images/tutalien1","images/tutrocket1","images/tutalien1","images/nothing.png","2","practice","true","1","common","0","2022-12-06 06:47:34.607"
"two-step-fixation","99","282001","0.0-61.0-2.12","3158","4978","19","Male","true","true","false","true","""event"",""trial"",""time""
""fullscreenenter"",""5"",""14151""
","
","
","""event"",""trial"",""time""
""fullscreenenter"",""5"",""14151""
","
","","images/earth.jpg","","","","","","","","","","","","","","fixation","","","","","",""
"d3-animate-choice","100","284350","0.0-61.0-0.13","3158","4978","19","Male","true","true","false","true","""event"",""trial"",""time""
""fullscreenenter"",""5"",""14151""
","
","
","""event"",""trial"",""time""
""fullscreenenter"",""5"",""14151""
","
","341.60000002384186","","48","","","3000","1","","","images/earth.jpg","images/tutrocket1","images/tutrocket2","null","images/tutrocket1","","1","practice","null","2","","",""
"d3-animate-choice","101","286949","0.0-61.0-1.13","3158","4978","19","Male","true","true","false","true","""event"",""trial"",""time""
""fullscreenenter"",""5"",""14151""
","
","
","""event"",""trial"",""time""
""fullscreenenter"",""5"",""14151""
","
","591.7000000476837","","49","","","3000","1","","","images/tutgreenplanet.jpg","images/tutalien2","images/tutalien1","images/tutrocket1","images/tutalien1","images/nothing.png","2","practice","true","1","common","0","2022-12-06 06:47:40.568"
"two-step-fixation","102","287957","0.0-61.0-2.13","3158","4978","19","Male","true","true","false","true","""event"",""trial"",""time""
""fullscreenenter"",""5"",""14151""
","
","
","""event"",""trial"",""time""
""fullscreenenter"",""5"",""14151""
","
","","images/earth.jpg","","","","","","","","","","","","","","fixation","","","","","",""
"d3-animate-choice","103","290221","0.0-61.0-0.14","3158","4978","19","Male","true","true","false","true","""event"",""trial"",""time""
""fullscreenenter"",""5"",""14151""
","
","
","""event"",""trial"",""time""
""fullscreenenter"",""5"",""14151""
","
","256.39999997615814","","49","","","3000","1","","","images/earth.jpg","images/tutrocket1","images/tutrocket2","null","images/tutrocket2","","1","practice","null","1","","",""
"d3-animate-choice","104","292587","0.0-61.0-1.14","3158","4978","19","Male","true","true","false","true","""event"",""trial"",""time""
""fullscreenenter"",""5"",""14151""
","
","
","""event"",""trial"",""time""
""fullscreenenter"",""5"",""14151""
","
","357.19999998807907","","48","","","3000","1","","","images/tutyellowplanet.jpg","images/tutalien4","images/tutalien3","images/tutrocket2","images/tutalien4","images/t.png","2","practice","true","2","common","1","2022-12-06 06:47:46.205"
"two-step-fixation","105","293599","0.0-61.0-2.14","3158","4978","19","Male","true","true","false","true","""event"",""trial"",""time""
""fullscreenenter"",""5"",""14151""
","
","
","""event"",""trial"",""time""
""fullscreenenter"",""5"",""14151""
","
","","images/earth.jpg","","","","","","","","","","","","","","fixation","","","","","",""
"d3-animate-choice","106","295920","0.0-61.0-0.15","3158","4978","19","Male","true","true","false","true","""event"",""trial"",""time""
""fullscreenenter"",""5"",""14151""
","
","
","""event"",""trial"",""time""
""fullscreenenter"",""5"",""14151""
","
","314.19999998807907","","49","","","3000","1","","","images/earth.jpg","images/tutrocket1","images/tutrocket2","null","images/tutrocket2","","1","practice","null","1","","",""
"d3-animate-choice","107","298869","0.0-61.0-1.15","3158","4978","19","Male","true","true","false","true","""event"",""trial"",""time""
""fullscreenenter"",""5"",""14151""
","
","
","""event"",""trial"",""time""
""fullscreenenter"",""5"",""14151""
","
","942.5999999642372","","48","","","3000","1","","","images/tutyellowplanet.jpg","images/tutalien4","images/tutalien3","images/tutrocket2","images/tutalien4","images/t.png","2","practice","true","2","common","1","2022-12-06 06:47:52.487"
"two-step-fixation","108","299877","0.0-61.0-2.15","3158","4978","19","Male","true","true","false","true","""event"",""trial"",""time""
""fullscreenenter"",""5"",""14151""
","
","
","""event"",""trial"",""time""
""fullscreenenter"",""5"",""14151""
","
","","images/earth.jpg","","","","","","","","","","","","","","fixation","","","","","",""
"d3-animate-choice","109","302238","0.0-61.0-0.16","3158","4978","19","Male","true","true","false","true","""event"",""trial"",""time""
""fullscreenenter"",""5"",""14151""
","
","
","""event"",""trial"",""time""
""fullscreenenter"",""5"",""14151""
","
","356.19999998807907","","49","","","3000","1","1442.800000011921","48","images/earth.jpg","images/tutrocket1","images/tutrocket2","null","images/tutrocket2","","1","practice","null","1","","",""
"d3-animate-choice","110","304607","0.0-61.0-1.16","3158","4978","19","Male","true","true","false","true","""event"",""trial"",""time""
""fullscreenenter"",""5"",""14151""
","
","
","""event"",""trial"",""time""
""fullscreenenter"",""5"",""14151""
","
","360.30000001192093","","48","","","3000","1","","","images/tutyellowplanet.jpg","images/tutalien4","images/tutalien3","images/tutrocket2","images/tutalien4","images/nothing.png","2","practice","true","2","common","0","2022-12-06 06:47:58.225"
"two-step-fixation","111","305613","0.0-61.0-2.16","3158","4978","19","Male","true","true","false","true","""event"",""trial"",""time""
""fullscreenenter"",""5"",""14151""
","
","
","""event"",""trial"",""time""
""fullscreenenter"",""5"",""14151""
","
","","images/earth.jpg","","","","","","","","","","","","","","fixation","","","","","",""
"d3-animate-choice","112","307957","0.0-61.0-0.17","3158","4978","19","Male","true","true","false","true","""event"",""trial"",""time""
""fullscreenenter"",""5"",""14151""
","
","
","""event"",""trial"",""time""
""fullscreenenter"",""5"",""14151""
","
","338.30000001192093","","49","","","3000","1","","","images/earth.jpg","images/tutrocket1","images/tutrocket2","null","images/tutrocket2","","1","practice","null","1","","",""
"d3-animate-choice","113","310293","0.0-61.0-1.17","3158","4978","19","Male","true","true","false","true","""event"",""trial"",""time""
""fullscreenenter"",""5"",""14151""
","
","
","""event"",""trial"",""time""
""fullscreenenter"",""5"",""14151""
","
","330.5","","48","","","3000","1","","","images/tutyellowplanet.jpg","images/tutalien4","images/tutalien3","images/tutrocket2","images/tutalien4","images/nothing.png","2","practice","true","2","common","0","2022-12-06 06:48:03.911"
"two-step-fixation","114","311301","0.0-61.0-2.17","3158","4978","19","Male","true","true","false","true","""event"",""trial"",""time""
""fullscreenenter"",""5"",""14151""
","
","
","""event"",""trial"",""time""
""fullscreenenter"",""5"",""14151""
","
","","images/earth.jpg","","","","","","","","","","","","","","fixation","","","","","",""
"d3-animate-choice","115","313637","0.0-61.0-0.18","3158","4978","19","Male","true","true","false","true","""event"",""trial"",""time""
""fullscreenenter"",""5"",""14151""
","
","
","""event"",""trial"",""time""
""fullscreenenter"",""5"",""14151""
","
","330.5999999642372","","48","","","3000","1","","","images/earth.jpg","images/tutrocket1","images/tutrocket2","null","images/tutrocket1","","1","practice","null","2","","",""
"d3-animate-choice","116","315997","0.0-61.0-1.18","3158","4978","19","Male","true","true","false","true","""event"",""trial"",""time""
""fullscreenenter"",""5"",""14151""
","
","
","""event"",""trial"",""time""
""fullscreenenter"",""5"",""14151""
","
","351.2000000476837","","49","","","3000","1","","","images/tutgreenplanet.jpg","images/tutalien2","images/tutalien1","images/tutrocket1","images/tutalien1","images/nothing.png","2","practice","true","1","common","0","2022-12-06 06:48:09.615"
"two-step-fixation","117","317007","0.0-61.0-2.18","3158","4978","19","Male","true","true","false","true","""event"",""trial"",""time""
""fullscreenenter"",""5"",""14151""
","
","
","""event"",""trial"",""time""
""fullscreenenter"",""5"",""14151""
","
","","images/earth.jpg","","","","","","","","","","","","","","fixation","","","","","",""
"d3-animate-choice","118","319469","0.0-61.0-0.19","3158","4978","19","Male","true","true","false","true","""event"",""trial"",""time""
""fullscreenenter"",""5"",""14151""
","
","
","""event"",""trial"",""time""
""fullscreenenter"",""5"",""14151""
","
","454","","48","","","3000","1","1946.199999988079,2251.5","48,48","images/earth.jpg","images/tutrocket1","images/tutrocket2","null","images/tutrocket1","","1","practice","null","2","","",""
"d3-animate-choice","119","321588","0.0-61.0-1.19","3158","4978","19","Male","true","true","false","true","""event"",""trial"",""time""
""fullscreenenter"",""5"",""14151""
","
","
","""event"",""trial"",""time""
""fullscreenenter"",""5"",""14151""
","
","111","","48","","","3000","1","544.1000000238419","48","images/tutgreenplanet.jpg","images/tutalien2","images/tutalien1","images/tutrocket1","images/tutalien2","images/t.png","2","practice","true","2","common","1","2022-12-06 06:48:15.206"
"two-step-fixation","120","322597","0.0-61.0-2.19","3158","4978","19","Male","true","true","false","true","""event"",""trial"",""time""
""fullscreenenter"",""5"",""14151""
","
","
","""event"",""trial"",""time""
""fullscreenenter"",""5"",""14151""
","
","","images/earth.jpg","","","","","","","","","","","","","","fixation","","","","","",""
"d3-instructions","121","324990","0.0-62.0","3158","4978","19","Male","true","true","false","true","""event"",""trial"",""time""
""fullscreenenter"",""5"",""14151""
","
","
","""event"",""trial"",""time""
""fullscreenenter"",""5"",""14151""
","
","","","","","","","","","","","","","","","","","","","","","",""
"audio-keyboard-response","122","326545","0.0-63.0","3158","4978","19","Male","true","true","false","true","""event"",""trial"",""time""
""fullscreenenter"",""5"",""14151""
","
","
","""event"",""trial"",""time""
""fullscreenenter"",""5"",""14151""
","
","1556","audio/instructions/treasure_feedback.wav","32","","","","","","","","","","","","","","","","","","",""
"d3-instructions","123","331043","0.0-64.0","3158","4978","19","Male","true","true","false","true","""event"",""trial"",""time""
""fullscreenenter"",""5"",""14151""
","
","
","""event"",""trial"",""time""
""fullscreenenter"",""5"",""14151""
","
","","","","","","","","","","","","","","","","","","","","","",""
"d3-instructions","124","332978","0.0-65.0","3158","4978","19","Male","true","true","false","true","""event"",""trial"",""time""
""fullscreenenter"",""5"",""14151""
","
","
","""event"",""trial"",""time""
""fullscreenenter"",""5"",""14151""
","
","","","","","","","","","","","","","","","","","","","","","",""
"d3-instructions","125","334589","0.0-66.0","3158","4978","19","Male","true","true","false","true","""event"",""trial"",""time""
""fullscreenenter"",""5"",""14151""
","
","
","""event"",""trial"",""time""
""fullscreenenter"",""5"",""14151""
","
","","","","","","","","","","","","","","","","","","","","","",""
"d3-instructions","126","336878","0.0-67.0","3158","4978","19","Male","true","true","false","true","""event"",""trial"",""time""
""fullscreenenter"",""5"",""14151""
","
","
","""event"",""trial"",""time""
""fullscreenenter"",""5"",""14151""
","
","","","","","","","","","","","","","","","","","","","","","",""
"d3-instructions","127","339252","0.0-68.0","3158","4978","19","Male","true","true","false","true","""event"",""trial"",""time""
""fullscreenenter"",""5"",""14151""
","
","
","""event"",""trial"",""time""
""fullscreenenter"",""5"",""14151""
","
","","","","","","","","","","","","","","","","","","","","","",""
"instructions-quiz","128","343548","0.0-69.0","3158","4978","19","Male","true","true","false","true","""event"",""trial"",""time""
""fullscreenenter"",""5"",""14151""
","
","
","""event"",""trial"",""time""
""fullscreenenter"",""5"",""14151""
","
","4294.300000011921","audio/quiz/Q1_Prompt.wav","","1","","","","","","","","","","","","","","","","","",""
"audio-keyboard-response","129","344335","0.0-70.0","3158","4978","19","Male","true","true","false","true","""event"",""trial"",""time""
""fullscreenenter"",""5"",""14151""
","
","
","""event"",""trial"",""time""
""fullscreenenter"",""5"",""14151""
","
","784","audio/quiz/Q1_Correct.wav","32","","","","","","","","","","","","","","","","","","",""
"instructions-quiz","130","349915","0.0-71.0","3158","4978","19","Male","true","true","false","true","""event"",""trial"",""time""
""fullscreenenter"",""5"",""14151""
","
","
","""event"",""trial"",""time""
""fullscreenenter"",""5"",""14151""
","
","5578.300000011921","audio/quiz/Q2_Prompt.wav","","0","","","","","","","","","","","","","","","","","",""
"audio-keyboard-response","131","350591","0.0-72.0","3158","4978","19","Male","true","true","false","true","""event"",""trial"",""time""
""fullscreenenter"",""5"",""14151""
","
","
","""event"",""trial"",""time""
""fullscreenenter"",""5"",""14151""
","
","673","audio/quiz/Q2_Correct.wav","32","","","","","","","","","","","","","","","","","","",""
"instructions-quiz","132","353313","0.0-73.0","3158","4978","19","Male","true","true","false","true","""event"",""trial"",""time""
""fullscreenenter"",""5"",""14151""
","
","
","""event"",""trial"",""time""
""fullscreenenter"",""5"",""14151""
","
","2720.800000011921","audio/quiz/Q3_Prompt.wav","","1","","","","","","","","","","","","","","","","","",""
"audio-keyboard-response","133","353782","0.0-74.0","3158","4978","19","Male","true","true","false","true","""event"",""trial"",""time""
""fullscreenenter"",""5"",""14151""
","
","
","""event"",""trial"",""time""
""fullscreenenter"",""5"",""14151""
","
","470","audio/quiz/Q3_Correct.wav","32","","","","","","","","","","","","","","","","","","",""
"d3-instructions","134","358242","0.0-75.0","3158","4978","19","Male","true","true","false","true","""event"",""trial"",""time""
""fullscreenenter"",""5"",""14151""
","
","
","""event"",""trial"",""time""
""fullscreenenter"",""5"",""14151""
","
","","","","","","","","","","","","","","","","","","","","","",""
"d3-animate-choice","135","361309","0.0-76.0-0.0","3158","4978","19","Male","true","true","false","true","""event"",""trial"",""time""
""fullscreenenter"",""5"",""14151""
","
","
","""event"",""trial"",""time""
""fullscreenenter"",""5"",""14151""
","
","1056.699999988079","","49","","","3000","1","","","images/earth.jpg","images/rocket2","images/rocket1","null","images/rocket1","","1","real","null","1","","",""
"d3-animate-choice","136","363925","0.0-76.0-1.0","3158","4978","19","Male","true","true","false","true","""event"",""trial"",""time""
""fullscreenenter"",""5"",""14151""
","
","
","""event"",""trial"",""time""
""fullscreenenter"",""5"",""14151""
","
","610.1999999880791","","49","","","3000","1","","","images/redplanet1.jpg","images/alien2","images/alien1","images/rocket1","images/alien1","images/nothing.png","2","real","true","1","common","0","2022-12-06 06:48:57.543"
"two-step-fixation","137","364933","0.0-76.0-2.0","3158","4978","19","Male","true","true","false","true","""event"",""trial"",""time""
""fullscreenenter"",""5"",""14151""
","
","
","""event"",""trial"",""time""
""fullscreenenter"",""5"",""14151""
","
","","images/earth.jpg","","","","","","","","","","","","","","fixation","","","","","",""
"d3-animate-choice","138","367061","0.0-76.0-0.1","3158","4978","19","Male","true","true","false","true","""event"",""trial"",""time""
""fullscreenenter"",""5"",""14151""
","
","
","""event"",""trial"",""time""
""fullscreenenter"",""5"",""14151""
","
","122.59999996423721","","48","","","3000","1","","","images/earth.jpg","images/rocket2","images/rocket1","null","images/rocket2","","1","real","null","2","","",""
"d3-animate-choice","139","369365","0.0-76.0-1.1","3158","4978","19","Male","true","true","false","true","""event"",""trial"",""time""
""fullscreenenter"",""5"",""14151""
","
","
","""event"",""trial"",""time""
""fullscreenenter"",""5"",""14151""
","
","292","","49","","","3000","1","824.2000000476837","49","images/purpleplanet.jpg","images/alien4","images/alien3","images/rocket2","images/alien3","images/nothing.png","2","real","true","1","common","0","2022-12-06 06:49:02.983"
"two-step-fixation","140","370372","0.0-76.0-2.1","3158","4978","19","Male","true","true","false","true","""event"",""trial"",""time""
""fullscreenenter"",""5"",""14151""
","
","
","""event"",""trial"",""time""
""fullscreenenter"",""5"",""14151""
","
","","images/earth.jpg","","","","","","","","","","","","","","fixation","","","","","",""
"d3-animate-choice","141","372748","0.0-76.0-0.2","3158","4978","19","Male","true","true","false","true","""event"",""trial"",""time""
""fullscreenenter"",""5"",""14151""
","
","
","""event"",""trial"",""time""
""fullscreenenter"",""5"",""14151""
","
","368","","49","","","3000","1","","","images/earth.jpg","images/rocket2","images/rocket1","null","images/rocket1","","1","real","null","1","","",""
"d3-animate-choice","142","375141","0.0-76.0-1.2","3158","4978","19","Male","true","true","false","true","""event"",""trial"",""time""
""fullscreenenter"",""5"",""14151""
","
","
","""event"",""trial"",""time""
""fullscreenenter"",""5"",""14151""
","
","384.30000001192093","","48","","","3000","1","","","images/redplanet1.jpg","images/alien2","images/alien1","images/rocket1","images/alien2","images/nothing.png","2","real","true","2","common","0","2022-12-06 06:49:08.759"
"two-step-fixation","143","376145","0.0-76.0-2.2","3158","4978","19","Male","true","true","false","true","""event"",""trial"",""time""
""fullscreenenter"",""5"",""14151""
","
","
","""event"",""trial"",""time""
""fullscreenenter"",""5"",""14151""
","
","","images/earth.jpg","","","","","","","","","","","","","","fixation","","","","","",""
"d3-animate-choice","144","378517","0.0-76.0-0.3","3158","4978","19","Male","true","true","false","true","""event"",""trial"",""time""
""fullscreenenter"",""5"",""14151""
","
","
","""event"",""trial"",""time""
""fullscreenenter"",""5"",""14151""
","
","361.80000001192093","","48","","","3000","1","","","images/earth.jpg","images/rocket2","images/rocket1","null","images/rocket2","","1","real","null","2","","",""
"d3-animate-choice","145","380909","0.0-76.0-1.3","3158","4978","19","Male","true","true","false","true","""event"",""trial"",""time""
""fullscreenenter"",""5"",""14151""
","
","
","""event"",""trial"",""time""
""fullscreenenter"",""5"",""14151""
","
","381","","48","","","3000","1","","","images/purpleplanet.jpg","images/alien4","images/alien3","images/rocket2","images/alien4","images/t.png","2","real","true","2","common","1","2022-12-06 06:49:14.527"
"two-step-fixation","146","381916","0.0-76.0-2.3","3158","4978","19","Male","true","true","false","true","""event"",""trial"",""time""
""fullscreenenter"",""5"",""14151""
","
","
","""event"",""trial"",""time""
""fullscreenenter"",""5"",""14151""
","
","","images/earth.jpg","","","","","","","","","","","","","","fixation","","","","","",""
"d3-animate-choice","147","384069","0.0-76.0-0.4","3158","4978","19","Male","true","true","false","true","""event"",""trial"",""time""
""fullscreenenter"",""5"",""14151""
","
","
","""event"",""trial"",""time""
""fullscreenenter"",""5"",""14151""
","
","140.5","","48","","","3000","1","","","images/earth.jpg","images/rocket2","images/rocket1","null","images/rocket2","","1","real","null","2","","",""
"d3-animate-choice","148","387933","0.0-76.0-1.4","3158","4978","19","Male","true","true","false","true","""event"",""trial"",""time""
""fullscreenenter"",""5"",""14151""
","
","
","""event"",""trial"",""time""
""fullscreenenter"",""5"",""14151""
","
","1850.199999988079","","49","","","3000","1","","","images/redplanet1.jpg","images/alien2","images/alien1","images/rocket2","images/alien1","images/nothing.png","2","real","false","1","rare","0","2022-12-06 06:49:21.551"
"two-step-fixation","149","388938","0.0-76.0-2.4","3158","4978","19","Male","true","true","false","true","""event"",""trial"",""time""
""fullscreenenter"",""5"",""14151""
","
","
","""event"",""trial"",""time""
""fullscreenenter"",""5"",""14151""
","
","","images/earth.jpg","","","","","","","","","","","","","","fixation","","","","","",""
"d3-animate-choice","150","391228","0.0-76.0-0.5","3158","4978","19","Male","true","true","false","true","""event"",""trial"",""time""
""fullscreenenter"",""5"",""14151""
","
","
","""event"",""trial"",""time""
""fullscreenenter"",""5"",""14151""
","
","281.60000002384186","","48","","","3000","1","","","images/earth.jpg","images/rocket2","images/rocket1","null","images/rocket2","","1","real","null","2","","",""
"d3-animate-choice","151","394355","0.0-76.0-1.5","3158","4978","19","Male","true","true","false","true","""event"",""trial"",""time""
""fullscreenenter"",""5"",""14151""
","
","
","""event"",""trial"",""time""
""fullscreenenter"",""5"",""14151""
","
","1114.8999999761581","","48","","","3000","1","","","images/purpleplanet.jpg","images/alien4","images/alien3","images/rocket2","images/alien4","images/t.png","2","real","true","2","common","1","2022-12-06 06:49:27.973"
"two-step-fixation","152","395364","0.0-76.0-2.5","3158","4978","19","Male","true","true","false","true","""event"",""trial"",""time""
""fullscreenenter"",""5"",""14151""
","
","
","""event"",""trial"",""time""
""fullscreenenter"",""5"",""14151""
","
","","images/earth.jpg","","","","","","","","","","","","","","fixation","","","","","",""
"d3-animate-choice","153","397972","0.0-76.0-0.6","3158","4978","19","Male","true","true","false","true","""event"",""trial"",""time""
""fullscreenenter"",""5"",""14151""
","
","
","""event"",""trial"",""time""
""fullscreenenter"",""5"",""14151""
","
","596.0999999642372","","48","","","3000","1","","","images/earth.jpg","images/rocket2","images/rocket1","null","images/rocket2","","1","real","null","2","","",""
"d3-animate-choice","154","400571","0.0-76.0-1.6","3158","4978","19","Male","true","true","false","true","""event"",""trial"",""time""
""fullscreenenter"",""5"",""14151""
","
","
","""event"",""trial"",""time""
""fullscreenenter"",""5"",""14151""
","
","587.4000000357628","","48","","","3000","1","","","images/redplanet1.jpg","images/alien2","images/alien1","images/rocket2","images/alien2","images/t.png","2","real","false","2","rare","1","2022-12-06 06:49:34.190"
"two-step-fixation","155","401580","0.0-76.0-2.6","3158","4978","19","Male","true","true","false","true","""event"",""trial"",""time""
""fullscreenenter"",""5"",""14151""
","
","
","""event"",""trial"",""time""
""fullscreenenter"",""5"",""14151""
","
","","images/earth.jpg","","","","","","","","","","","","","","fixation","","","","","",""
"d3-animate-choice","156","404524","0.0-76.0-0.7","3158","4978","19","Male","true","true","false","true","""event"",""trial"",""time""
""fullscreenenter"",""5"",""14151""
","
","
","""event"",""trial"",""time""
""fullscreenenter"",""5"",""14151""
","
","930.5999999642372","","48","","","3000","1","","","images/earth.jpg","images/rocket2","images/rocket1","null","images/rocket2","","1","real","null","2","","",""
"d3-animate-choice","157","407212","0.0-76.0-1.7","3158","4978","19","Male","true","true","false","true","""event"",""trial"",""time""
""fullscreenenter"",""5"",""14151""
","
","
","""event"",""trial"",""time""
""fullscreenenter"",""5"",""14151""
","
","677.6999999880791","","48","","","3000","1","","","images/redplanet1.jpg","images/alien2","images/alien1","images/rocket2","images/alien2","images/t.png","2","real","false","2","rare","1","2022-12-06 06:49:40.830"
"two-step-fixation","158","408220","0.0-76.0-2.7","3158","4978","19","Male","true","true","false","true","""event"",""trial"",""time""
""fullscreenenter"",""5"",""14151""
","
","
","""event"",""trial"",""time""
""fullscreenenter"",""5"",""14151""
","
","","images/earth.jpg","","","","","","","","","","","","","","fixation","","","","","",""
"d3-animate-choice","159","410484","0.0-76.0-0.8","3158","4978","19","Male","true","true","false","true","""event"",""trial"",""time""
""fullscreenenter"",""5"",""14151""
","
","
","""event"",""trial"",""time""
""fullscreenenter"",""5"",""14151""
","
","252.69999998807907","","48","","","3000","1","","","images/earth.jpg","images/rocket2","images/rocket1","null","images/rocket2","","1","real","null","2","","",""
"d3-animate-choice","160","412938","0.0-76.0-1.8","3158","4978","19","Male","true","true","false","true","""event"",""trial"",""time""
""fullscreenenter"",""5"",""14151""
","
","
","""event"",""trial"",""time""
""fullscreenenter"",""5"",""14151""
","
","447.30000001192093","","48","","","3000","1","","","images/purpleplanet.jpg","images/alien4","images/alien3","images/rocket2","images/alien4","images/t.png","2","real","true","2","common","1","2022-12-06 06:49:46.556"
"two-step-fixation","161","413948","0.0-76.0-2.8","3158","4978","19","Male","true","true","false","true","""event"",""trial"",""time""
""fullscreenenter"",""5"",""14151""
","
","
","""event"",""trial"",""time""
""fullscreenenter"",""5"",""14151""
","
","","images/earth.jpg","","","","","","","","","","","","","","fixation","","","","","",""
"d3-animate-choice","162","416236","0.0-76.0-0.9","3158","4978","19","Male","true","true","false","true","""event"",""trial"",""time""
""fullscreenenter"",""5"",""14151""
","
","
","""event"",""trial"",""time""
""fullscreenenter"",""5"",""14151""
","
","279.19999998807907","","48","","","3000","1","","","images/earth.jpg","images/rocket2","images/rocket1","null","images/rocket2","","1","real","null","2","","",""
"d3-animate-choice","163","419947","0.0-76.0-1.9","3158","4978","19","Male","true","true","false","true","""event"",""trial"",""time""
""fullscreenenter"",""5"",""14151""
","
","
","""event"",""trial"",""time""
""fullscreenenter"",""5"",""14151""
","
","1705.199999988079","","48","","","3000","1","","","images/purpleplanet.jpg","images/alien4","images/alien3","images/rocket2","images/alien4","images/t.png","2","real","true","2","common","1","2022-12-06 06:49:53.565"
"two-step-fixation","164","420955","0.0-76.0-2.9","3158","4978","19","Male","true","true","false","true","""event"",""trial"",""time""
""fullscreenenter"",""5"",""14151""
","
","
","""event"",""trial"",""time""
""fullscreenenter"",""5"",""14151""
","
","","images/earth.jpg","","","","","","","","","","","","","","fixation","","","","","",""
"d3-animate-choice","165","423238","0.0-76.0-0.10","3158","4978","19","Male","true","true","false","true","""event"",""trial"",""time""
""fullscreenenter"",""5"",""14151""
","
","
","""event"",""trial"",""time""
""fullscreenenter"",""5"",""14151""
","
","275.19999998807907","","48","","","3000","1","","","images/earth.jpg","images/rocket2","images/rocket1","null","images/rocket2","","1","real","null","2","","",""
"d3-animate-choice","166","425731","0.0-76.0-1.10","3158","4978","19","Male","true","true","false","true","""event"",""trial"",""time""
""fullscreenenter"",""5"",""14151""
","
","
","""event"",""trial"",""time""
""fullscreenenter"",""5"",""14151""
","
","483.5","","48","","","3000","1","","","images/purpleplanet.jpg","images/alien4","images/alien3","images/rocket2","images/alien4","images/nothing.png","2","real","true","2","common","0","2022-12-06 06:49:59.350"
"two-step-fixation","167","426739","0.0-76.0-2.10","3158","4978","19","Male","true","true","false","true","""event"",""trial"",""time""
""fullscreenenter"",""5"",""14151""
","
","
","""event"",""trial"",""time""
""fullscreenenter"",""5"",""14151""
","
","","images/earth.jpg","","","","","","","","","","","","","","fixation","","","","","",""
"d3-animate-choice","168","429051","0.0-76.0-0.11","3158","4978","19","Male","true","true","false","true","""event"",""trial"",""time""
""fullscreenenter"",""5"",""14151""
","
","
","""event"",""trial"",""time""
""fullscreenenter"",""5"",""14151""
","
","300.89999997615814","","48","","","3000","1","","","images/earth.jpg","images/rocket2","images/rocket1","null","images/rocket2","","1","real","null","2","","",""
"d3-animate-choice","169","431387","0.0-76.0-1.11","3158","4978","19","Male","true","true","false","true","""event"",""trial"",""time""
""fullscreenenter"",""5"",""14151""
","
","
","""event"",""trial"",""time""
""fullscreenenter"",""5"",""14151""
","
","326","","48","","","3000","1","","","images/redplanet1.jpg","images/alien2","images/alien1","images/rocket2","images/alien2","images/nothing.png","2","real","false","2","rare","0","2022-12-06 06:50:05.005"
"two-step-fixation","170","432395","0.0-76.0-2.11","3158","4978","19","Male","true","true","false","true","""event"",""trial"",""time""
""fullscreenenter"",""5"",""14151""
","
","
","""event"",""trial"",""time""
""fullscreenenter"",""5"",""14151""
","
","","images/earth.jpg","","","","","","","","","","","","","","fixation","","","","","",""
"d3-animate-choice","171","434682","0.0-76.0-0.12","3158","4978","19","Male","true","true","false","true","""event"",""trial"",""time""
""fullscreenenter"",""5"",""14151""
","
","
","""event"",""trial"",""time""
""fullscreenenter"",""5"",""14151""
","
","274.30000001192093","","48","","","3000","1","","","images/earth.jpg","images/rocket2","images/rocket1","null","images/rocket2","","1","real","null","2","","",""
"d3-animate-choice","172","437162","0.0-76.0-1.12","3158","4978","19","Male","true","true","false","true","""event"",""trial"",""time""
""fullscreenenter"",""5"",""14151""
","
","
","""event"",""trial"",""time""
""fullscreenenter"",""5"",""14151""
","
","467.5","","48","","","3000","1","","","images/purpleplanet.jpg","images/alien4","images/alien3","images/rocket2","images/alien4","images/t.png","2","real","true","2","common","1","2022-12-06 06:50:10.780"
"two-step-fixation","173","438170","0.0-76.0-2.12","3158","4978","19","Male","true","true","false","true","""event"",""trial"",""time""
""fullscreenenter"",""5"",""14151""
","
","
","""event"",""trial"",""time""
""fullscreenenter"",""5"",""14151""
","
","","images/earth.jpg","","","","","","","","","","","","","","fixation","","","","","",""
"d3-animate-choice","174","440698","0.0-76.0-0.13","3158","4978","19","Male","true","true","false","true","""event"",""trial"",""time""
""fullscreenenter"",""5"",""14151""
","
","
","""event"",""trial"",""time""
""fullscreenenter"",""5"",""14151""
","
","520.6000000238419","","48","","","3000","1","","","images/earth.jpg","images/rocket2","images/rocket1","null","images/rocket2","","1","real","null","2","","",""
"d3-animate-choice","175","443314","0.0-76.0-1.13","3158","4978","19","Male","true","true","false","true","""event"",""trial"",""time""
""fullscreenenter"",""5"",""14151""
","
","
","""event"",""trial"",""time""
""fullscreenenter"",""5"",""14151""
","
","609.1999999880791","","48","","","3000","1","","","images/purpleplanet.jpg","images/alien4","images/alien3","images/rocket2","images/alien4","images/t.png","2","real","true","2","common","1","2022-12-06 06:50:16.932"
"two-step-fixation","176","444321","0.0-76.0-2.13","3158","4978","19","Male","true","true","false","true","""event"",""trial"",""time""
""fullscreenenter"",""5"",""14151""
","
","
","""event"",""trial"",""time""
""fullscreenenter"",""5"",""14151""
","
","","images/earth.jpg","","","","","","","","","","","","","","fixation","","","","","",""
"d3-animate-choice","177","446530","0.0-76.0-0.14","3158","4978","19","Male","true","true","false","true","""event"",""trial"",""time""
""fullscreenenter"",""5"",""14151""
","
","
","""event"",""trial"",""time""
""fullscreenenter"",""5"",""14151""
","
","201.19999998807907","","48","","","3000","1","","","images/earth.jpg","images/rocket2","images/rocket1","null","images/rocket2","","1","real","null","2","","",""
"d3-animate-choice","178","449490","0.0-76.0-1.14","3158","4978","19","Male","true","true","false","true","""event"",""trial"",""time""
""fullscreenenter"",""5"",""14151""
","
","
","""event"",""trial"",""time""
""fullscreenenter"",""5"",""14151""
","
","950.3000000119209","","48","","","3000","1","","","images/redplanet1.jpg","images/alien2","images/alien1","images/rocket2","images/alien2","images/t.png","2","real","false","2","rare","1","2022-12-06 06:50:23.108"
"two-step-fixation","179","450498","0.0-76.0-2.14","3158","4978","19","Male","true","true","false","true","""event"",""trial"",""time""
""fullscreenenter"",""5"",""14151""
","
","
","""event"",""trial"",""time""
""fullscreenenter"",""5"",""14151""
","
","","images/earth.jpg","","","","","","","","","","","","","","fixation","","","","","",""
"d3-animate-choice","180","453221","0.0-76.0-0.15","3158","4978","19","Male","true","true","false","true","""event"",""trial"",""time""
""fullscreenenter"",""5"",""14151""
","
","
","""event"",""trial"",""time""
""fullscreenenter"",""5"",""14151""
","
","715.1999999880791","","48","","","3000","1","","","images/earth.jpg","images/rocket2","images/rocket1","null","images/rocket2","","1","real","null","2","","",""
"d3-animate-choice","181","456804","0.0-76.0-1.15","3158","4978","19","Male","true","true","false","true","""event"",""trial"",""time""
""fullscreenenter"",""5"",""14151""
","
","
","""event"",""trial"",""time""
""fullscreenenter"",""5"",""14151""
","
","1570.5","","48","","","3000","1","","","images/redplanet1.jpg","images/alien2","images/alien1","images/rocket2","images/alien2","images/t.png","2","real","false","2","rare","1","2022-12-06 06:50:30.422"
"two-step-fixation","182","457809","0.0-76.0-2.15","3158","4978","19","Male","true","true","false","true","""event"",""trial"",""time""
""fullscreenenter"",""5"",""14151""
","
","
","""event"",""trial"",""time""
""fullscreenenter"",""5"",""14151""
","
","","images/earth.jpg","","","","","","","","","","","","","","fixation","","","","","",""
"d3-animate-choice","183","460105","0.0-76.0-0.16","3158","4978","19","Male","true","true","false","true","""event"",""trial"",""time""
""fullscreenenter"",""5"",""14151""
","
","
","""event"",""trial"",""time""
""fullscreenenter"",""5"",""14151""
","
","286.7000000476837","","48","","","3000","1","","","images/earth.jpg","images/rocket2","images/rocket1","null","images/rocket2","","1","real","null","2","","",""
"d3-animate-choice","184","462570","0.0-76.0-1.16","3158","4978","19","Male","true","true","false","true","""event"",""trial"",""time""
""fullscreenenter"",""5"",""14151""
","
","
","""event"",""trial"",""time""
""fullscreenenter"",""5"",""14151""
","
","452.19999998807907","","48","","","3000","1","","","images/purpleplanet.jpg","images/alien4","images/alien3","images/rocket2","images/alien4","images/t.png","2","real","true","2","common","1","2022-12-06 06:50:36.188"
"two-step-fixation","185","463578","0.0-76.0-2.16","3158","4978","19","Male","true","true","false","true","""event"",""trial"",""time""
""fullscreenenter"",""5"",""14151""
","
","
","""event"",""trial"",""time""
""fullscreenenter"",""5"",""14151""
","
","","images/earth.jpg","","","","","","","","","","","","","","fixation","","","","","",""
"d3-animate-choice","186","465937","0.0-76.0-0.17","3158","4978","19","Male","true","true","false","true","""event"",""trial"",""time""
""fullscreenenter"",""5"",""14151""
","
","
","""event"",""trial"",""time""
""fullscreenenter"",""5"",""14151""
","
","348.10000002384186","","48","","","3000","1","","","images/earth.jpg","images/rocket2","images/rocket1","null","images/rocket2","","1","real","null","2","","",""
"d3-animate-choice","187","468721","0.0-76.0-1.17","3158","4978","19","Male","true","true","false","true","""event"",""trial"",""time""
""fullscreenenter"",""5"",""14151""
","
","
","""event"",""trial"",""time""
""fullscreenenter"",""5"",""14151""
","
","774.3000000119209","","48","","","3000","1","","","images/redplanet1.jpg","images/alien2","images/alien1","images/rocket2","images/alien2","images/t.png","2","real","false","2","rare","1","2022-12-06 06:50:42.339"
"two-step-fixation","188","469730","0.0-76.0-2.17","3158","4978","19","Male","true","true","false","true","""event"",""trial"",""time""
""fullscreenenter"",""5"",""14151""
","
","
","""event"",""trial"",""time""
""fullscreenenter"",""5"",""14151""
","
","","images/earth.jpg","","","","","","","","","","","","","","fixation","","","","","",""
"d3-animate-choice","189","471818","0.0-76.0-0.18","3158","4978","19","Male","true","true","false","true","""event"",""trial"",""time""
""fullscreenenter"",""5"",""14151""
","
","
","""event"",""trial"",""time""
""fullscreenenter"",""5"",""14151""
","
","79.5","","48","","","3000","1","","","images/earth.jpg","images/rocket2","images/rocket1","null","images/rocket2","","1","real","null","2","","",""
"d3-animate-choice","190","474210","0.0-76.0-1.18","3158","4978","19","Male","true","true","false","true","""event"",""trial"",""time""
""fullscreenenter"",""5"",""14151""
","
","
","""event"",""trial"",""time""
""fullscreenenter"",""5"",""14151""
","
","381.80000001192093","","48","","","3000","1","","","images/redplanet1.jpg","images/alien2","images/alien1","images/rocket2","images/alien2","images/t.png","2","real","false","2","rare","1","2022-12-06 06:50:47.828"
"two-step-fixation","191","475218","0.0-76.0-2.18","3158","4978","19","Male","true","true","false","true","""event"",""trial"",""time""
""fullscreenenter"",""5"",""14151""
","
","
","""event"",""trial"",""time""
""fullscreenenter"",""5"",""14151""
","
","","images/earth.jpg","","","","","","","","","","","","","","fixation","","","","","",""
"d3-animate-choice","192","477778","0.0-76.0-0.19","3158","4978","19","Male","true","true","false","true","""event"",""trial"",""time""
""fullscreenenter"",""5"",""14151""
","
","
","""event"",""trial"",""time""
""fullscreenenter"",""5"",""14151""
","
","547.8999999761581","","49","","","3000","1","","","images/earth.jpg","images/rocket2","images/rocket1","null","images/rocket1","","1","real","null","1","","",""
"d3-animate-choice","193","480162","0.0-76.0-1.19","3158","4978","19","Male","true","true","false","true","""event"",""trial"",""time""
""fullscreenenter"",""5"",""14151""
","
","
","""event"",""trial"",""time""
""fullscreenenter"",""5"",""14151""
","
","372","","48","","","3000","1","","","images/redplanet1.jpg","images/alien2","images/alien1","images/rocket1","images/alien2","images/t.png","2","real","true","2","common","1","2022-12-06 06:50:53.780"
"two-step-fixation","194","481170","0.0-76.0-2.19","3158","4978","19","Male","true","true","false","true","""event"",""trial"",""time""
""fullscreenenter"",""5"",""14151""
","
","
","""event"",""trial"",""time""
""fullscreenenter"",""5"",""14151""
","
","","images/earth.jpg","","","","","","","","","","","","","","fixation","","","","","",""
"d3-animate-choice","195","483537","0.0-76.0-0.20","3158","4978","19","Male","true","true","false","true","""event"",""trial"",""time""
""fullscreenenter"",""5"",""14151""
","
","
","""event"",""trial"",""time""
""fullscreenenter"",""5"",""14151""
","
","357.39999997615814","","49","","","3000","1","","","images/earth.jpg","images/rocket2","images/rocket1","null","images/rocket1","","1","real","null","1","","",""
"d3-animate-choice","196","486561","0.0-76.0-1.20","3158","4978","19","Male","true","true","false","true","""event"",""trial"",""time""
""fullscreenenter"",""5"",""14151""
","
","
","""event"",""trial"",""time""
""fullscreenenter"",""5"",""14151""
","
","1019","","48","","","3000","1","","","images/purpleplanet.jpg","images/alien4","images/alien3","images/rocket1","images/alien4","images/nothing.png","2","real","false","2","rare","0","2022-12-06 06:51:00.180"
"two-step-fixation","197","487569","0.0-76.0-2.20","3158","4978","19","Male","true","true","false","true","""event"",""trial"",""time""
""fullscreenenter"",""5"",""14151""
","
","
","""event"",""trial"",""time""
""fullscreenenter"",""5"",""14151""
","
","","images/earth.jpg","","","","","","","","","","","","","","fixation","","","","","",""
"d3-animate-choice","198","489977","0.0-76.0-0.21","3158","4978","19","Male","true","true","false","true","""event"",""trial"",""time""
""fullscreenenter"",""5"",""14151""
","
","
","""event"",""trial"",""time""
""fullscreenenter"",""5"",""14151""
","
","400.39999997615814","","49","","","3000","1","","","images/earth.jpg","images/rocket2","images/rocket1","null","images/rocket1","","1","real","null","1","","",""
"d3-animate-choice","199","492505","0.0-76.0-1.21","3158","4978","19","Male","true","true","false","true","""event"",""trial"",""time""
""fullscreenenter"",""5"",""14151""
","
","
","""event"",""trial"",""time""
""fullscreenenter"",""5"",""14151""
","
","515.9000000357628","","48","","","3000","1","","","images/redplanet1.jpg","images/alien2","images/alien1","images/rocket1","images/alien2","images/t.png","2","real","true","2","common","1","2022-12-06 06:51:06.123"
"two-step-fixation","200","493513","0.0-76.0-2.21","3158","4978","19","Male","true","true","false","true","""event"",""trial"",""time""
""fullscreenenter"",""5"",""14151""
","
","
","""event"",""trial"",""time""
""fullscreenenter"",""5"",""14151""
","
","","images/earth.jpg","","","","","","","","","","","","","","fixation","","","","","",""
"d3-animate-choice","201","497193","0.0-76.0-0.22","3158","4978","19","Male","true","true","false","true","""event"",""trial"",""time""
""fullscreenenter"",""5"",""14151""
","
","
","""event"",""trial"",""time""
""fullscreenenter"",""5"",""14151""
","
","1667.699999988079","","49","","","3000","1","","","images/earth.jpg","images/rocket2","images/rocket1","null","images/rocket1","","1","real","null","1","","",""
"d3-animate-choice","202","499641","0.0-76.0-1.22","3158","4978","19","Male","true","true","false","true","""event"",""trial"",""time""
""fullscreenenter"",""5"",""14151""
","
","
","""event"",""trial"",""time""
""fullscreenenter"",""5"",""14151""
","
","437.30000001192093","","48","","","3000","1","","","images/redplanet1.jpg","images/alien2","images/alien1","images/rocket1","images/alien2","images/t.png","2","real","true","2","common","1","2022-12-06 06:51:13.259"
"two-step-fixation","203","500653","0.0-76.0-2.22","3158","4978","19","Male","true","true","false","true","""event"",""trial"",""time""
""fullscreenenter"",""5"",""14151""
","
","
","""event"",""trial"",""time""
""fullscreenenter"",""5"",""14151""
","
","","images/earth.jpg","","","","","","","","","","","","","","fixation","","","","","",""
"d3-animate-choice","204","503105","0.0-76.0-0.23","3158","4978","19","Male","true","true","false","true","""event"",""trial"",""time""
""fullscreenenter"",""5"",""14151""
","
","
","""event"",""trial"",""time""
""fullscreenenter"",""5"",""14151""
","
","441.19999998807907","","49","","","3000","1","","","images/earth.jpg","images/rocket2","images/rocket1","null","images/rocket1","","1","real","null","1","","",""
"d3-animate-choice","205","505555","0.0-76.0-1.23","3158","4978","19","Male","true","true","false","true","""event"",""trial"",""time""
""fullscreenenter"",""5"",""14151""
","
","
","""event"",""trial"",""time""
""fullscreenenter"",""5"",""14151""
","
","445.0999999642372","","48","","","3000","1","","","images/redplanet1.jpg","images/alien2","images/alien1","images/rocket1","images/alien2","images/nothing.png","2","real","true","2","common","0","2022-12-06 06:51:19.173"
"two-step-fixation","206","506561","0.0-76.0-2.23","3158","4978","19","Male","true","true","false","true","""event"",""trial"",""time""
""fullscreenenter"",""5"",""14151""
","
","
","""event"",""trial"",""time""
""fullscreenenter"",""5"",""14151""
","
","","images/earth.jpg","","","","","","","","","","","","","","fixation","","","","","",""
"d3-animate-choice","207","508897","0.0-76.0-0.24","3158","4978","19","Male","true","true","false","true","""event"",""trial"",""time""
""fullscreenenter"",""5"",""14151""
","
","
","""event"",""trial"",""time""
""fullscreenenter"",""5"",""14151""
","
","326.89999997615814","","49","","","3000","1","","","images/earth.jpg","images/rocket2","images/rocket1","null","images/rocket1","","1","real","null","1","","",""
"d3-animate-choice","208","511853","0.0-76.0-1.24","3158","4978","19","Male","true","true","false","true","""event"",""trial"",""time""
""fullscreenenter"",""5"",""14151""
","
","
","""event"",""trial"",""time""
""fullscreenenter"",""5"",""14151""
","
","947.6000000238419","","48","","","3000","1","","","images/redplanet1.jpg","images/alien2","images/alien1","images/rocket1","images/alien2","images/nothing.png","2","real","true","2","common","0","2022-12-06 06:51:25.471"
"two-step-fixation","209","512865","0.0-76.0-2.24","3158","4978","19","Male","true","true","false","true","""event"",""trial"",""time""
""fullscreenenter"",""5"",""14151""
","
","
","""event"",""trial"",""time""
""fullscreenenter"",""5"",""14151""
","
","","images/earth.jpg","","","","","","","","","","","","","","fixation","","","","","",""
"d3-animate-choice","210","516571","0.0-76.0-0.25","3158","4978","19","Male","true","true","false","true","""event"",""trial"",""time""
""fullscreenenter"",""5"",""14151""
","
","
","""event"",""trial"",""time""
""fullscreenenter"",""5"",""14151""
","
","1701","","49","","","3000","1","","","images/earth.jpg","images/rocket2","images/rocket1","null","images/rocket1","","1","real","null","1","","",""
"d3-animate-choice","211","519241","0.0-76.0-1.25","3158","4978","19","Male","true","true","false","true","""event"",""trial"",""time""
""fullscreenenter"",""5"",""14151""
","
","
","""event"",""trial"",""time""
""fullscreenenter"",""5"",""14151""
","
","663.7000000476837","","49","","","3000","1","","","images/purpleplanet.jpg","images/alien4","images/alien3","images/rocket1","images/alien3","images/nothing.png","2","real","false","1","rare","0","2022-12-06 06:51:32.859"
"two-step-fixation","212","520253","0.0-76.0-2.25","3158","4978","19","Male","true","true","false","true","""event"",""trial"",""time""
""fullscreenenter"",""5"",""14151""
","
","
","""event"",""trial"",""time""
""fullscreenenter"",""5"",""14151""
","
","","images/earth.jpg","","","","","","","","","","","","","","fixation","","","","","",""
"d3-animate-choice","213","524273","0.0-76.0-0.26","3158","4978","19","Male","true","true","false","true","""event"",""trial"",""time""
""fullscreenenter"",""5"",""14151""
","
","
","""event"",""trial"",""time""
""fullscreenenter"",""5"",""14151""
","
","2596.300000011921","","49","","","3000","1","","","images/earth.jpg","images/rocket2","images/rocket1","null","images/rocket1","","1","real","null","1","","",""
"d3-animate-choice","214","526705","0.0-76.0-1.26","3158","4978","19","Male","true","true","false","true","""event"",""trial"",""time""
""fullscreenenter"",""5"",""14151""
","
","
","""event"",""trial"",""time""
""fullscreenenter"",""5"",""14151""
","
","426.9000000357628","","48","","","3000","1","","","images/redplanet1.jpg","images/alien2","images/alien1","images/rocket1","images/alien2","images/nothing.png","2","real","true","2","common","0","2022-12-06 06:51:40.323"
"two-step-fixation","215","527713","0.0-76.0-2.26","3158","4978","19","Male","true","true","false","true","""event"",""trial"",""time""
""fullscreenenter"",""5"",""14151""
","
","
","""event"",""trial"",""time""
""fullscreenenter"",""5"",""14151""
","
","","images/earth.jpg","","","","","","","","","","","","","","fixation","","","","","",""
"d3-animate-choice","216","529905","0.0-76.0-0.27","3158","4978","19","Male","true","true","false","true","""event"",""trial"",""time""
""fullscreenenter"",""5"",""14151""
","
","
","""event"",""trial"",""time""
""fullscreenenter"",""5"",""14151""
","
","186.10000002384186","","48","","","3000","1","","","images/earth.jpg","images/rocket2","images/rocket1","null","images/rocket2","","1","real","null","2","","",""
"d3-animate-choice","217","532202","0.0-76.0-1.27","3158","4978","19","Male","true","true","false","true","""event"",""trial"",""time""
""fullscreenenter"",""5"",""14151""
","
","
","""event"",""trial"",""time""
""fullscreenenter"",""5"",""14151""
","
","283.2000000476837","","49","","","3000","1","","","images/redplanet1.jpg","images/alien2","images/alien1","images/rocket2","images/alien1","images/t.png","2","real","false","1","rare","1","2022-12-06 06:51:45.820"
"two-step-fixation","218","533210","0.0-76.0-2.27","3158","4978","19","Male","true","true","false","true","""event"",""trial"",""time""
""fullscreenenter"",""5"",""14151""
","
","
","""event"",""trial"",""time""
""fullscreenenter"",""5"",""14151""
","
","","images/earth.jpg","","","","","","","","","","","","","","fixation","","","","","",""
"d3-animate-choice","219","535464","0.0-76.0-0.28","3158","4978","19","Male","true","true","false","true","""event"",""trial"",""time""
""fullscreenenter"",""5"",""14151""
","
","
","""event"",""trial"",""time""
""fullscreenenter"",""5"",""14151""
","
","247.19999998807907","","49","","","3000","1","","","images/earth.jpg","images/rocket2","images/rocket1","null","images/rocket1","","1","real","null","1","","",""
"d3-animate-choice","220","537809","0.0-76.0-1.28","3158","4978","19","Male","true","true","false","true","""event"",""trial"",""time""
""fullscreenenter"",""5"",""14151""
","
","
","""event"",""trial"",""time""
""fullscreenenter"",""5"",""14151""
","
","339.5","","49","","","3000","1","","","images/purpleplanet.jpg","images/alien4","images/alien3","images/rocket1","images/alien3","images/nothing.png","2","real","false","1","rare","0","2022-12-06 06:51:51.427"
"two-step-fixation","221","538816","0.0-76.0-2.28","3158","4978","19","Male","true","true","false","true","""event"",""trial"",""time""
""fullscreenenter"",""5"",""14151""
","
","
","""event"",""trial"",""time""
""fullscreenenter"",""5"",""14151""
","
","","images/earth.jpg","","","","","","","","","","","","","","fixation","","","","","",""
"d3-animate-choice","222","540984","0.0-76.0-0.29","3158","4978","19","Male","true","true","false","true","""event"",""trial"",""time""
""fullscreenenter"",""5"",""14151""
","
","
","""event"",""trial"",""time""
""fullscreenenter"",""5"",""14151""
","
","154.30000001192093","","49","","","3000","1","","","images/earth.jpg","images/rocket2","images/rocket1","null","images/rocket1","","1","real","null","1","","",""
"d3-animate-choice","223","543252","0.0-76.0-1.29","3158","4978","19","Male","true","true","false","true","""event"",""trial"",""time""
""fullscreenenter"",""5"",""14151""
","
","
","""event"",""trial"",""time""
""fullscreenenter"",""5"",""14151""
","
","258.0999999642372","","49","","","3000","1","","","images/redplanet1.jpg","images/alien2","images/alien1","images/rocket1","images/alien1","images/nothing.png","2","real","true","1","common","0","2022-12-06 06:51:56.870"
"two-step-fixation","224","544264","0.0-76.0-2.29","3158","4978","19","Male","true","true","false","true","""event"",""trial"",""time""
""fullscreenenter"",""5"",""14151""
","
","
","""event"",""trial"",""time""
""fullscreenenter"",""5"",""14151""
","
","","images/earth.jpg","","","","","","","","","","","","","","fixation","","","","","",""
"d3-animate-choice","225","546752","0.0-76.0-0.30","3158","4978","19","Male","true","true","false","true","""event"",""trial"",""time""
""fullscreenenter"",""5"",""14151""
","
","
","""event"",""trial"",""time""
""fullscreenenter"",""5"",""14151""
","
","475.80000001192093","","49","","","3000","1","","","images/earth.jpg","images/rocket2","images/rocket1","null","images/rocket1","","1","real","null","1","","",""
"d3-animate-choice","226","549216","0.0-76.0-1.30","3158","4978","19","Male","true","true","false","true","""event"",""trial"",""time""
""fullscreenenter"",""5"",""14151""
","
","
","""event"",""trial"",""time""
""fullscreenenter"",""5"",""14151""
","
","454.69999998807907","","49","","","3000","1","","","images/redplanet1.jpg","images/alien2","images/alien1","images/rocket1","images/alien1","images/nothing.png","2","real","true","1","common","0","2022-12-06 06:52:02.834"
"two-step-fixation","227","550222","0.0-76.0-2.30","3158","4978","19","Male","true","true","false","true","""event"",""trial"",""time""
""fullscreenenter"",""5"",""14151""
","
","
","""event"",""trial"",""time""
""fullscreenenter"",""5"",""14151""
","
","","images/earth.jpg","","","","","","","","","","","","","","fixation","","","","","",""
"d3-animate-choice","228","552455","0.0-76.0-0.31","3158","4978","19","Male","true","true","false","true","""event"",""trial"",""time""
""fullscreenenter"",""5"",""14151""
","
","
","""event"",""trial"",""time""
""fullscreenenter"",""5"",""14151""
","
","221.79999995231628","","49","","","3000","1","","","images/earth.jpg","images/rocket2","images/rocket1","null","images/rocket1","","1","real","null","1","","",""
"d3-animate-choice","229","554696","0.0-76.0-1.31","3158","4978","19","Male","true","true","false","true","""event"",""trial"",""time""
""fullscreenenter"",""5"",""14151""
","
","
","""event"",""trial"",""time""
""fullscreenenter"",""5"",""14151""
","
","235.10000002384186","","49","","","3000","1","714.6000000238419","49","images/redplanet1.jpg","images/alien2","images/alien1","images/rocket1","images/alien1","images/t.png","2","real","true","1","common","1","2022-12-06 06:52:08.314"
"two-step-fixation","230","555704","0.0-76.0-2.31","3158","4978","19","Male","true","true","false","true","""event"",""trial"",""time""
""fullscreenenter"",""5"",""14151""
","
","
","""event"",""trial"",""time""
""fullscreenenter"",""5"",""14151""
","
","","images/earth.jpg","","","","","","","","","","","","","","fixation","","","","","",""
"d3-animate-choice","231","558104","0.0-76.0-0.32","3158","4978","19","Male","true","true","false","true","""event"",""trial"",""time""
""fullscreenenter"",""5"",""14151""
","
","
","""event"",""trial"",""time""
""fullscreenenter"",""5"",""14151""
","
","394.30000001192093","","49","","","3000","1","","","images/earth.jpg","images/rocket2","images/rocket1","null","images/rocket1","","1","real","null","1","","",""
"d3-animate-choice","232","562112","0.0-76.0-1.32","3158","4978","19","Male","true","true","false","true","""event"",""trial"",""time""
""fullscreenenter"",""5"",""14151""
","
","
","""event"",""trial"",""time""
""fullscreenenter"",""5"",""14151""
","
","2381.899999976158","","80","","","3000","1","2545.399999976158","48","images/purpleplanet.jpg","images/alien4","images/alien3","images/rocket1","images/alien4","images/t.png","2","real","false","","rare","1","2022-12-06 06:52:15.730"
"two-step-fixation","233","563120","0.0-76.0-2.32","3158","4978","19","Male","true","true","false","true","""event"",""trial"",""time""
""fullscreenenter"",""5"",""14151""
","
","
","""event"",""trial"",""time""
""fullscreenenter"",""5"",""14151""
","
","","images/earth.jpg","","","","","","","","","","","","","","fixation","","","","","",""
"d3-animate-choice","234","565605","0.0-76.0-0.33","3158","4978","19","Male","true","true","false","true","""event"",""trial"",""time""
""fullscreenenter"",""5"",""14151""
","
","
","""event"",""trial"",""time""
""fullscreenenter"",""5"",""14151""
","
","478.30000001192093","","48","","","3000","1","","","images/earth.jpg","images/rocket2","images/rocket1","null","images/rocket2","","1","real","null","2","","",""
"d3-animate-choice","235","568188","0.0-76.0-1.33","3158","4978","19","Male","true","true","false","true","""event"",""trial"",""time""
""fullscreenenter"",""5"",""14151""
","
","
","""event"",""trial"",""time""
""fullscreenenter"",""5"",""14151""
","
","575.1999999880791","","48","","","3000","1","","","images/purpleplanet.jpg","images/alien4","images/alien3","images/rocket2","images/alien4","images/t.png","2","real","true","2","common","1","2022-12-06 06:52:21.806"
"two-step-fixation","236","569202","0.0-76.0-2.33","3158","4978","19","Male","true","true","false","true","""event"",""trial"",""time""
""fullscreenenter"",""5"",""14151""
","
","
","""event"",""trial"",""time""
""fullscreenenter"",""5"",""14151""
","
","","images/earth.jpg","","","","","","","","","","","","","","fixation","","","","","",""
"d3-animate-choice","237","571923","0.0-76.0-0.34","3158","4978","19","Male","true","true","false","true","""event"",""trial"",""time""
""fullscreenenter"",""5"",""14151""
","
","
","""event"",""trial"",""time""
""fullscreenenter"",""5"",""14151""
","
","714.8999999761581","","48","","","3000","1","","","images/earth.jpg","images/rocket2","images/rocket1","null","images/rocket2","","1","real","null","2","","",""
"d3-animate-choice","238","574640","0.0-76.0-1.34","3158","4978","19","Male","true","true","false","true","""event"",""trial"",""time""
""fullscreenenter"",""5"",""14151""
","
","
","""event"",""trial"",""time""
""fullscreenenter"",""5"",""14151""
","
","709.8000000119209","","48","","","3000","1","","","images/purpleplanet.jpg","images/alien4","images/alien3","images/rocket2","images/alien4","images/t.png","2","real","true","2","common","1","2022-12-06 06:52:28.258"
"two-step-fixation","239","575651","0.0-76.0-2.34","3158","4978","19","Male","true","true","false","true","""event"",""trial"",""time""
""fullscreenenter"",""5"",""14151""
","
","
","""event"",""trial"",""time""
""fullscreenenter"",""5"",""14151""
","
","","images/earth.jpg","","","","","","","","","","","","","","fixation","","","","","",""
"d3-animate-choice","240","577664","0.0-76.0-0.35","3158","4978","19","Male","true","true","false","true","""event"",""trial"",""time""
""fullscreenenter"",""5"",""14151""
","
","
","""event"",""trial"",""time""
""fullscreenenter"",""5"",""14151""
","
","4.5","","48","","","3000","1","","","images/earth.jpg","images/rocket2","images/rocket1","null","images/rocket2","","1","real","null","2","","",""
"d3-animate-choice","241","581272","0.0-76.0-1.35","3158","4978","19","Male","true","true","false","true","""event"",""trial"",""time""
""fullscreenenter"",""5"",""14151""
","
","
","""event"",""trial"",""time""
""fullscreenenter"",""5"",""14151""
","
","1598.1000000238419","","49","","","3000","1","","","images/redplanet1.jpg","images/alien2","images/alien1","images/rocket2","images/alien1","images/t.png","2","real","false","1","rare","1","2022-12-06 06:52:34.890"
"two-step-fixation","242","582280","0.0-76.0-2.35","3158","4978","19","Male","true","true","false","true","""event"",""trial"",""time""
""fullscreenenter"",""5"",""14151""
","
","
","""event"",""trial"",""time""
""fullscreenenter"",""5"",""14151""
","
","","images/earth.jpg","","","","","","","","","","","","","","fixation","","","","","",""
"d3-animate-choice","243","584689","0.0-76.0-0.36","3158","4978","19","Male","true","true","false","true","""event"",""trial"",""time""
""fullscreenenter"",""5"",""14151""
","
","
","""event"",""trial"",""time""
""fullscreenenter"",""5"",""14151""
","
","404.39999997615814","","49","","","3000","1","","","images/earth.jpg","images/rocket2","images/rocket1","null","images/rocket1","","1","real","null","1","","",""
"d3-animate-choice","244","587056","0.0-76.0-1.36","3158","4978","19","Male","true","true","false","true","""event"",""trial"",""time""
""fullscreenenter"",""5"",""14151""
","
","
","""event"",""trial"",""time""
""fullscreenenter"",""5"",""14151""
","
","356.7999999523163","","49","","","3000","1","","","images/redplanet1.jpg","images/alien2","images/alien1","images/rocket1","images/alien1","images/t.png","2","real","true","1","common","1","2022-12-06 06:52:40.674"
"two-step-fixation","245","588064","0.0-76.0-2.36","3158","4978","19","Male","true","true","false","true","""event"",""trial"",""time""
""fullscreenenter"",""5"",""14151""
","
","
