"trial_type","trial_index","time_elapsed","internal_node_id","participant_id","subject_id","age","gender","rocket_sides","red_planet_first_rocket","red_display_order","purple_display_order","interactions","blur_events","focus_events","fullscreenenter_events","fullscreenexit_events","rt","stimulus","key_press","button_pressed","success","duration","valid_pressed","rts","keys","planet_text","right_text","left_text","center_text","chosen_text","reward_text","trial_stage","practice_trial","transition_type","choice","transition","reward","timestamp"
"pavlovia","0","7","0.0-0.0","1758","5228","24","Female","false","false","true","true","
","
","
","
","
","","","","","","","","","","","","","","","","","","","","","",""
"html-keyboard-response","1","2248","0.0-1.0","1758","5228","24","Female","false","false","true","true","
","
","
","
","
","2240.70000000007","Welcome! Press the space bar to begin.","32","","","","","","","","","","","","","","","","","","",""
"audio-keyboard-response","2","4790","0.0-2.0","1758","5228","24","Female","false","false","true","true","
","
","
","
","
","2426","audio/beep_loop.wav","32","","","","","","","","","","","","","","","","","","",""
"audio-button-response","3","7186","0.0-3.0","1758","5228","24","Female","false","false","true","true","
","
","
","
","
","NaN","audio/fish.mp3","","1","","","","","","","","","","","","","","","","","",""
"audio-button-response","4","9748","0.0-4.0","1758","5228","24","Female","false","false","true","true","""event"",""trial"",""time""
""fullscreenenter"",""5"",""14013""
","
","
","""event"",""trial"",""time""
""fullscreenenter"",""5"",""14013""
","
","NaN","audio/tiger.mp3","","4","","","","","","","","","","","","","","","","","",""
"fullscreen","5","15004","0.0-5.0","1758","5228","24","Female","false","false","true","true","""event"",""trial"",""time""
""fullscreenenter"",""5"",""14013""
","
","
","""event"",""trial"",""time""
""fullscreenenter"",""5"",""14013""
","
","","","","","true","","","","","","","","","","","","","","","","",""
"d3-instructions","6","29584","0.0-6.0","1758","5228","24","Female","false","false","true","true","""event"",""trial"",""time""
""fullscreenenter"",""5"",""14013""
","
","
","""event"",""trial"",""time""
""fullscreenenter"",""5"",""14013""
","
","","","","","","","","","","","","","","","","","","","","","",""
"d3-instructions","7","37142","0.0-7.0","1758","5228","24","Female","false","false","true","true","""event"",""trial"",""time""
""fullscreenenter"",""5"",""14013""
","
","
","""event"",""trial"",""time""
""fullscreenenter"",""5"",""14013""
","
","","","","","","","","","","","","","","","","","","","","","",""
"d3-instructions","8","39961","0.0-8.0","1758","5228","24","Female","false","false","true","true","""event"",""trial"",""time""
""fullscreenenter"",""5"",""14013""
","
","
","""event"",""trial"",""time""
""fullscreenenter"",""5"",""14013""
","
","","","","","","","","","","","","","","","","","","","","","",""
"d3-instructions","9","44399","0.0-9.0","1758","5228","24","Female","false","false","true","true","""event"",""trial"",""time""
""fullscreenenter"",""5"",""14013""
","
","
","""event"",""trial"",""time""
""fullscreenenter"",""5"",""14013""
","
","","","","","","","","","","","","","","","","","","","","","",""
"d3-instructions","10","56304","0.0-10.0","1758","5228","24","Female","false","false","true","true","""event"",""trial"",""time""
""fullscreenenter"",""5"",""14013""
","
","
","""event"",""trial"",""time""
""fullscreenenter"",""5"",""14013""
","
","","","","","","","","","","","","","","","","","","","","","",""
"d3-animate-choice","11","58936","0.0-11.0","1758","5228","24","Female","false","false","true","true","""event"",""trial"",""time""
""fullscreenenter"",""5"",""14013""
","
","
","""event"",""trial"",""time""
""fullscreenenter"",""5"",""14013""
","
","623.1000000000931","","49","","","3000","1","1710.3000000000466,2335.20000000007","49,48","images/tutgreenplanet.jpg","images/tutalien1","images/tutalien2","null","images/tutalien2","","NA","practice","null","","","",""
"d3-animate-choice","12","61754","0.0-12.0","1758","5228","24","Female","false","false","true","true","""event"",""trial"",""time""
""fullscreenenter"",""5"",""14013""
","
","
","""event"",""trial"",""time""
""fullscreenenter"",""5"",""14013""
","
","813","","48","","","3000","1","1894.6999999999534","32","images/tutgreenplanet.jpg","images/tutalien1","images/tutalien2","null","images/tutalien1","","NA","practice","null","","","",""
"d3-animate-choice","13","64422","0.0-13.0","1758","5228","24","Female","false","false","true","true","""event"",""trial"",""time""
""fullscreenenter"",""5"",""14013""
","
","
","""event"",""trial"",""time""
""fullscreenenter"",""5"",""14013""
","
","660.6999999999534","","49","","","3000","1","1294.6999999999534,1921.0999999999767","32,32","images/tutgreenplanet.jpg","images/tutalien1","images/tutalien2","null","images/tutalien2","","NA","practice","null","","","",""
"d3-animate-choice","14","66785","0.0-14.0","1758","5228","24","Female","false","false","true","true","""event"",""trial"",""time""
""fullscreenenter"",""5"",""14013""
","
","
","""event"",""trial"",""time""
""fullscreenenter"",""5"",""14013""
","
","357.10000000009313","","49","","","3000","1","880.1000000000931,1239.9000000000233","49,32","images/tutgreenplanet.jpg","images/tutalien1","images/tutalien2","null","images/tutalien2","","NA","practice","null","","","",""
"d3-instructions","15","70525","0.0-15.0","1758","5228","24","Female","false","false","true","true","""event"",""trial"",""time""
""fullscreenenter"",""5"",""14013""
","
","
","""event"",""trial"",""time""
""fullscreenenter"",""5"",""14013""
","
","","","","","","","","","","","","","","","","","","","","","",""
"d3-instructions","16","72458","0.0-16.0","1758","5228","24","Female","false","false","true","true","""event"",""trial"",""time""
""fullscreenenter"",""5"",""14013""
","
","
","""event"",""trial"",""time""
""fullscreenenter"",""5"",""14013""
","
","","","","","","","","","","","","","","","","","","","","","",""
"d3-instructions","17","76990","0.0-17.0","1758","5228","24","Female","false","false","true","true","""event"",""trial"",""time""
""fullscreenenter"",""5"",""14013""
","
","
","""event"",""trial"",""time""
""fullscreenenter"",""5"",""14013""
","
","","","","","","","","","","","","","","","","","","","","","",""
"d3-instructions","18","84339","0.0-18.0","1758","5228","24","Female","false","false","true","true","""event"",""trial"",""time""
""fullscreenenter"",""5"",""14013""
","
","
","""event"",""trial"",""time""
""fullscreenenter"",""5"",""14013""
","
","","","","","","","","","","","","","","","","","","","","","",""
"d3-instructions","19","93577","0.0-19.0","1758","5228","24","Female","false","false","true","true","""event"",""trial"",""time""
""fullscreenenter"",""5"",""14013""
","
","
","""event"",""trial"",""time""
""fullscreenenter"",""5"",""14013""
","
","","","","","","","","","","","","","","","","","","","","","",""
"d3-animate-choice","20","96378","0.0-20.0","1758","5228","24","Female","false","false","true","true","""event"",""trial"",""time""
""fullscreenenter"",""5"",""14013""
","
","
","""event"",""trial"",""time""
""fullscreenenter"",""5"",""14013""
","
","795.5","","49","","","3000","1","1446.2999999999302,1947.3999999999069","49,32","images/tutyellowplanet.jpg","null","images/tutalien3","null","images/tutalien3","images/t.png","NA","practice","null","","","",""
"d3-animate-choice","21","98741","0.0-21.0","1758","5228","24","Female","false","false","true","true","""event"",""trial"",""time""
""fullscreenenter"",""5"",""14013""
","
","
","""event"",""trial"",""time""
""fullscreenenter"",""5"",""14013""
","
","358.0999999999767","","49","","","3000","1","723.3000000000466,1221","32,32","images/tutyellowplanet.jpg","null","images/tutalien3","null","images/tutalien3","images/t.png","NA","practice","null","","","",""
"d3-animate-choice","22","101168","0.0-22.0","1758","5228","24","Female","false","false","true","true","""event"",""trial"",""time""
""fullscreenenter"",""5"",""14013""
","
","
","""event"",""trial"",""time""
""fullscreenenter"",""5"",""14013""
","
","421.4000000000233","","49","","","3000","1","908.2999999999302,1412.0999999999767","49,49","images/tutyellowplanet.jpg","null","images/tutalien3","null","images/tutalien3","images/t.png","NA","practice","null","","","",""
"d3-animate-choice","23","103738","0.0-23.0","1758","5228","24","Female","false","false","true","true","""event"",""trial"",""time""
""fullscreenenter"",""5"",""14013""
","
","
","""event"",""trial"",""time""
""fullscreenenter"",""5"",""14013""
","
","564.9000000000233","","49","","","3000","1","1043.7999999999302","49","images/tutyellowplanet.jpg","null","images/tutalien3","null","images/tutalien3","images/t.png","NA","practice","null","","","",""
"d3-animate-choice","24","106102","0.0-24.0","1758","5228","24","Female","false","false","true","true","""event"",""trial"",""time""
""fullscreenenter"",""5"",""14013""
","
","
","""event"",""trial"",""time""
""fullscreenenter"",""5"",""14013""
","
","360.89999999990687","","49","","","3000","1","829.6999999999534","49","images/tutyellowplanet.jpg","null","images/tutalien3","null","images/tutalien3","images/nothing.png","NA","practice","null","","","",""
"d3-animate-choice","25","108453","0.0-25.0","1758","5228","24","Female","false","false","true","true","""event"",""trial"",""time""
""fullscreenenter"",""5"",""14013""
","
","
","""event"",""trial"",""time""
""fullscreenenter"",""5"",""14013""
","
","347.4000000000233","","49","","","3000","1","759.6000000000931","49","images/tutyellowplanet.jpg","null","images/tutalien3","null","images/tutalien3","images/t.png","NA","practice","null","","","",""
"d3-animate-choice","26","110781","0.0-26.0","1758","5228","24","Female","false","false","true","true","""event"",""trial"",""time""
""fullscreenenter"",""5"",""14013""
","
","
","""event"",""trial"",""time""
""fullscreenenter"",""5"",""14013""
","
","323","","49","","","3000","1","758.8000000000466","49","images/tutyellowplanet.jpg","null","images/tutalien3","null","images/tutalien3","images/t.png","NA","practice","null","","","",""
"d3-animate-choice","27","113207","0.0-27.0","1758","5228","24","Female","false","false","true","true","""event"",""trial"",""time""
""fullscreenenter"",""5"",""14013""
","
","
","""event"",""trial"",""time""
""fullscreenenter"",""5"",""14013""
","
","423.69999999995343","","49","","","3000","1","811.0999999999767","32","images/tutyellowplanet.jpg","null","images/tutalien3","null","images/tutalien3","images/t.png","NA","practice","null","","","",""
"d3-animate-choice","28","115721","0.0-28.0","1758","5228","24","Female","false","false","true","true","""event"",""trial"",""time""
""fullscreenenter"",""5"",""14013""
","
","
","""event"",""trial"",""time""
""fullscreenenter"",""5"",""14013""
","
","507.79999999993015","","49","","","3000","1","1261.9000000000233","49","images/tutyellowplanet.jpg","null","images/tutalien3","null","images/tutalien3","images/t.png","NA","practice","null","","","",""
"d3-animate-choice","29","118188","0.0-29.0","1758","5228","24","Female","false","false","true","true","""event"",""trial"",""time""
""fullscreenenter"",""5"",""14013""
","
","
","""event"",""trial"",""time""
""fullscreenenter"",""5"",""14013""
","
","463.0999999999767","","49","","","3000","1","920.9000000000233,1560.8000000000466","49,49","images/tutyellowplanet.jpg","null","images/tutalien3","null","images/tutalien3","images/t.png","NA","practice","null","","","",""
"d3-instructions","30","122961","0.0-30.0","1758","5228","24","Female","false","false","true","true","""event"",""trial"",""time""
""fullscreenenter"",""5"",""14013""
","
","
","""event"",""trial"",""time""
""fullscreenenter"",""5"",""14013""
","
","","","","","","","","","","","","","","","","","","","","","",""
"d3-instructions","31","126360","0.0-31.0","1758","5228","24","Female","false","false","true","true","""event"",""trial"",""time""
""fullscreenenter"",""5"",""14013""
","
","
","""event"",""trial"",""time""
""fullscreenenter"",""5"",""14013""
","
","","","","","","","","","","","","","","","","","","","","","",""
"d3-instructions","32","128993","0.0-32.0","1758","5228","24","Female","false","false","true","true","""event"",""trial"",""time""
""fullscreenenter"",""5"",""14013""
","
","
","""event"",""trial"",""time""
""fullscreenenter"",""5"",""14013""
","
","","","","","","","","","","","","","","","","","","","","","",""
"d3-instructions","33","131028","0.0-33.0","1758","5228","24","Female","false","false","true","true","""event"",""trial"",""time""
""fullscreenenter"",""5"",""14013""
","
","
","""event"",""trial"",""time""
""fullscreenenter"",""5"",""14013""
","
","","","","","","","","","","","","","","","","","","","","","",""
"d3-animate-choice","34","133594","0.0-34.0","1758","5228","24","Female","false","false","true","true","""event"",""trial"",""time""
""fullscreenenter"",""5"",""14013""
","
","
","""event"",""trial"",""time""
""fullscreenenter"",""5"",""14013""
","
","562.6999999999534","","48","","","3000","1","1821.7999999999302","32","images/tutgreenplanet.jpg","images/tutalien1","images/tutalien2","null","images/tutalien1","images/nothing.png","NA","practice","null","","","",""
"d3-animate-choice","35","136076","0.0-35.0","1758","5228","24","Female","false","false","true","true","""event"",""trial"",""time""
""fullscreenenter"",""5"",""14013""
","
","
","""event"",""trial"",""time""
""fullscreenenter"",""5"",""14013""
","
","476.70000000006985","","48","","","3000","1","","","images/tutgreenplanet.jpg","images/tutalien1","images/tutalien2","null","images/tutalien1","images/nothing.png","NA","practice","null","","","",""
"d3-animate-choice","36","138482","0.0-36.0","1758","5228","24","Female","false","false","true","true","""event"",""trial"",""time""
""fullscreenenter"",""5"",""14013""
","
","
","""event"",""trial"",""time""
""fullscreenenter"",""5"",""14013""
","
","399.70000000006985","","49","","","3000","1","","","images/tutgreenplanet.jpg","images/tutalien1","images/tutalien2","null","images/tutalien2","images/t.png","NA","practice","null","","","",""
"d3-animate-choice","37","140810","0.0-37.0","1758","5228","24","Female","false","false","true","true","""event"",""trial"",""time""
""fullscreenenter"",""5"",""14013""
","
","
","""event"",""trial"",""time""
""fullscreenenter"",""5"",""14013""
","
","325.4000000000233","","49","","","3000","1","","","images/tutgreenplanet.jpg","images/tutalien1","images/tutalien2","null","images/tutalien2","images/t.png","NA","practice","null","","","",""
"d3-animate-choice","38","143200","0.0-38.0","1758","5228","24","Female","false","false","true","true","""event"",""trial"",""time""
""fullscreenenter"",""5"",""14013""
","
","
","""event"",""trial"",""time""
""fullscreenenter"",""5"",""14013""
","
","385.70000000006985","","49","","","3000","1","","","images/tutgreenplanet.jpg","images/tutalien1","images/tutalien2","null","images/tutalien2","images/t.png","NA","practice","null","","","",""
"d3-animate-choice","39","145584","0.0-39.0","1758","5228","24","Female","false","false","true","true","""event"",""trial"",""time""
""fullscreenenter"",""5"",""14013""
","
","
","""event"",""trial"",""time""
""fullscreenenter"",""5"",""14013""
","
","376.10000000009313","","49","","","3000","1","","","images/tutgreenplanet.jpg","images/tutalien1","images/tutalien2","null","images/tutalien2","images/t.png","NA","practice","null","","","",""
"d3-animate-choice","40","147916","0.0-40.0","1758","5228","24","Female","false","false","true","true","""event"",""trial"",""time""
""fullscreenenter"",""5"",""14013""
","
","
","""event"",""trial"",""time""
""fullscreenenter"",""5"",""14013""
","
","328.5","","49","","","3000","1","","","images/tutgreenplanet.jpg","images/tutalien1","images/tutalien2","null","images/tutalien2","images/t.png","NA","practice","null","","","",""
"d3-animate-choice","41","150242","0.0-41.0","1758","5228","24","Female","false","false","true","true","""event"",""trial"",""time""
""fullscreenenter"",""5"",""14013""
","
","
","""event"",""trial"",""time""
""fullscreenenter"",""5"",""14013""
","
","320.19999999995343","","49","","","3000","1","","","images/tutgreenplanet.jpg","images/tutalien1","images/tutalien2","null","images/tutalien2","images/t.png","NA","practice","null","","","",""
"d3-animate-choice","42","152576","0.0-42.0","1758","5228","24","Female","false","false","true","true","""event"",""trial"",""time""
""fullscreenenter"",""5"",""14013""
","
","
","""event"",""trial"",""time""
""fullscreenenter"",""5"",""14013""
","
","330.9000000000233","","49","","","3000","1","","","images/tutgreenplanet.jpg","images/tutalien1","images/tutalien2","null","images/tutalien2","images/t.png","NA","practice","null","","","",""
"d3-animate-choice","43","154903","0.0-43.0","1758","5228","24","Female","false","false","true","true","""event"",""trial"",""time""
""fullscreenenter"",""5"",""14013""
","
","
","""event"",""trial"",""time""
""fullscreenenter"",""5"",""14013""
","
","323","","49","","","3000","1","","","images/tutgreenplanet.jpg","images/tutalien1","images/tutalien2","null","images/tutalien2","images/t.png","NA","practice","null","","","",""
"d3-instructions","44","157803","0.0-44.0","1758","5228","24","Female","false","false","true","true","""event"",""trial"",""time""
""fullscreenenter"",""5"",""14013""
","
","
","""event"",""trial"",""time""
""fullscreenenter"",""5"",""14013""
","
","","","","","","","","","","","","","","","","","","","","","",""
"d3-instructions","45","159680","0.0-45.0","1758","5228","24","Female","false","false","true","true","""event"",""trial"",""time""
""fullscreenenter"",""5"",""14013""
","
","
","""event"",""trial"",""time""
""fullscreenenter"",""5"",""14013""
","
","","","","","","","","","","","","","","","","","","","","","",""
"d3-instructions","46","162398","0.0-46.0","1758","5228","24","Female","false","false","true","true","""event"",""trial"",""time""
""fullscreenenter"",""5"",""14013""
","
","
","""event"",""trial"",""time""
""fullscreenenter"",""5"",""14013""
","
","","","","","","","","","","","","","","","","","","","","","",""
"d3-instructions","47","174505","0.0-47.0","1758","5228","24","Female","false","false","true","true","""event"",""trial"",""time""
""fullscreenenter"",""5"",""14013""
","
","
","""event"",""trial"",""time""
""fullscreenenter"",""5"",""14013""
","
","","","","","","","","","","","","","","","","","","","","","",""
"d3-instructions","48","178175","0.0-48.0","1758","5228","24","Female","false","false","true","true","""event"",""trial"",""time""
""fullscreenenter"",""5"",""14013""
","
","
","""event"",""trial"",""time""
""fullscreenenter"",""5"",""14013""
","
","","","","","","","","","","","","","","","","","","","","","",""
"d3-instructions","49","181842","0.0-49.0","1758","5228","24","Female","false","false","true","true","""event"",""trial"",""time""
""fullscreenenter"",""5"",""14013""
","
","
","""event"",""trial"",""time""
""fullscreenenter"",""5"",""14013""
","
","","","","","","","","","","","","","","","","","","","","","",""
"d3-instructions","50","190398","0.0-50.0","1758","5228","24","Female","false","false","true","true","""event"",""trial"",""time""
""fullscreenenter"",""5"",""14013""
","
","
","""event"",""trial"",""time""
""fullscreenenter"",""5"",""14013""
","
","","","","","","","","","","","","","","","","","","","","","",""
"d3-instructions","51","192339","0.0-51.0","1758","5228","24","Female","false","false","true","true","""event"",""trial"",""time""
""fullscreenenter"",""5"",""14013""
","
","
","""event"",""trial"",""time""
""fullscreenenter"",""5"",""14013""
","
","","","","","","","","","","","","","","","","","","","","","",""
"d3-instructions","52","193692","0.0-52.0","1758","5228","24","Female","false","false","true","true","""event"",""trial"",""time""
""fullscreenenter"",""5"",""14013""
","
","
","""event"",""trial"",""time""
""fullscreenenter"",""5"",""14013""
","
","","","","","","","","","","","","","","","","","","","","","",""
"d3-instructions","53","199419","0.0-53.0","1758","5228","24","Female","false","false","true","true","""event"",""trial"",""time""
""fullscreenenter"",""5"",""14013""
","
","
","""event"",""trial"",""time""
""fullscreenenter"",""5"",""14013""
","
","","","","","","","","","","","","","","","","","","","","","",""
"d3-instructions","54","206526","0.0-54.0","1758","5228","24","Female","false","false","true","true","""event"",""trial"",""time""
""fullscreenenter"",""5"",""14013""
","
","
","""event"",""trial"",""time""
""fullscreenenter"",""5"",""14013""
","
","","","","","","","","","","","","","","","","","","","","","",""
"d3-instructions","55","209311","0.0-55.0","1758","5228","24","Female","false","false","true","true","""event"",""trial"",""time""
""fullscreenenter"",""5"",""14013""
","
","
","""event"",""trial"",""time""
""fullscreenenter"",""5"",""14013""
","
","","","","","","","","","","","","","","","","","","","","","",""
"d3-instructions","56","212331","0.0-56.0","1758","5228","24","Female","false","false","true","true","""event"",""trial"",""time""
""fullscreenenter"",""5"",""14013""
","
","
","""event"",""trial"",""time""
""fullscreenenter"",""5"",""14013""
","
","","","","","","","","","","","","","","","","","","","","","",""
"d3-instructions","57","215791","0.0-57.0","1758","5228","24","Female","false","false","true","true","""event"",""trial"",""time""
""fullscreenenter"",""5"",""14013""
","
","
","""event"",""trial"",""time""
""fullscreenenter"",""5"",""14013""
","
","","","","","","","","","","","","","","","","","","","","","",""
"d3-instructions","58","218846","0.0-58.0","1758","5228","24","Female","false","false","true","true","""event"",""trial"",""time""
""fullscreenenter"",""5"",""14013""
","
","
","""event"",""trial"",""time""
""fullscreenenter"",""5"",""14013""
","
","","","","","","","","","","","","","","","","","","","","","",""
"d3-instructions","59","220113","0.0-59.0","1758","5228","24","Female","false","false","true","true","""event"",""trial"",""time""
""fullscreenenter"",""5"",""14013""
","
","
","""event"",""trial"",""time""
""fullscreenenter"",""5"",""14013""
","
","","","","","","","","","","","","","","","","","","","","","",""
"d3-instructions","60","222122","0.0-60.0","1758","5228","24","Female","false","false","true","true","""event"",""trial"",""time""
""fullscreenenter"",""5"",""14013""
","
","
","""event"",""trial"",""time""
""fullscreenenter"",""5"",""14013""
","
","","","","","","","","","","","","","","","","","","","","","",""
"d3-animate-choice","61","224566","0.0-61.0-0.0","1758","5228","24","Female","false","false","true","true","""event"",""trial"",""time""
""fullscreenenter"",""5"",""14013""
","
","
","""event"",""trial"",""time""
""fullscreenenter"",""5"",""14013""
","
","441.79999999981374","","49","","","3000","1","","","images/earth.jpg","images/tutrocket1","images/tutrocket2","null","images/tutrocket2","","1","practice","null","1","","",""
"d3-animate-choice","62","227530","0.0-61.0-1.0","1758","5228","24","Female","false","false","true","true","""event"",""trial"",""time""
""fullscreenenter"",""5"",""14013""
","
","
","""event"",""trial"",""time""
""fullscreenenter"",""5"",""14013""
","
","955.3000000000466","","49","","","3000","1","","","images/tutgreenplanet.jpg","images/tutalien2","images/tutalien1","images/tutrocket2","images/tutalien1","images/nothing.png","2","practice","true","1","common","0","2022-12-12 14:29:55.251"
"two-step-fixation","63","228534","0.0-61.0-2.0","1758","5228","24","Female","false","false","true","true","""event"",""trial"",""time""
""fullscreenenter"",""5"",""14013""
","
","
","""event"",""trial"",""time""
""fullscreenenter"",""5"",""14013""
","
","","images/earth.jpg","","","","","","","","","","","","","","fixation","","","","","",""
"d3-animate-choice","64","231175","0.0-61.0-0.1","1758","5228","24","Female","false","false","true","true","""event"",""trial"",""time""
""fullscreenenter"",""5"",""14013""
","
","
","""event"",""trial"",""time""
""fullscreenenter"",""5"",""14013""
","
","634.6000000000931","","49","","","3000","1","","","images/earth.jpg","images/tutrocket1","images/tutrocket2","null","images/tutrocket2","","1","practice","null","1","","",""
"d3-animate-choice","65","233732","0.0-61.0-1.1","1758","5228","24","Female","false","false","true","true","""event"",""trial"",""time""
""fullscreenenter"",""5"",""14013""
","
","
","""event"",""trial"",""time""
""fullscreenenter"",""5"",""14013""
","
","551.5","","49","","","3000","1","","","images/tutgreenplanet.jpg","images/tutalien2","images/tutalien1","images/tutrocket2","images/tutalien1","images/t.png","2","practice","true","1","common","1","2022-12-12 14:30:01.453"
"two-step-fixation","66","234740","0.0-61.0-2.1","1758","5228","24","Female","false","false","true","true","""event"",""trial"",""time""
""fullscreenenter"",""5"",""14013""
","
","
","""event"",""trial"",""time""
""fullscreenenter"",""5"",""14013""
","
","","images/earth.jpg","","","","","","","","","","","","","","fixation","","","","","",""
"d3-animate-choice","67","237195","0.0-61.0-0.2","1758","5228","24","Female","false","false","true","true","""event"",""trial"",""time""
""fullscreenenter"",""5"",""14013""
","
","
","""event"",""trial"",""time""
""fullscreenenter"",""5"",""14013""
","
","448.0999999998603","","49","","","3000","1","","","images/earth.jpg","images/tutrocket1","images/tutrocket2","null","images/tutrocket2","","1","practice","null","1","","",""
"d3-animate-choice","68","239894","0.0-61.0-1.2","1758","5228","24","Female","false","false","true","true","""event"",""trial"",""time""
""fullscreenenter"",""5"",""14013""
","
","
","""event"",""trial"",""time""
""fullscreenenter"",""5"",""14013""
","
","696.5","","49","","","3000","1","","","images/tutyellowplanet.jpg","images/tutalien4","images/tutalien3","images/tutrocket2","images/tutalien3","images/nothing.png","2","practice","false","1","rare","0","2022-12-12 14:30:07.615"
"two-step-fixation","69","240899","0.0-61.0-2.2","1758","5228","24","Female","false","false","true","true","""event"",""trial"",""time""
""fullscreenenter"",""5"",""14013""
","
","
","""event"",""trial"",""time""
""fullscreenenter"",""5"",""14013""
","
","","images/earth.jpg","","","","","","","","","","","","","","fixation","","","","","",""
"d3-animate-choice","70","243439","0.0-61.0-0.3","1758","5228","24","Female","false","false","true","true","""event"",""trial"",""time""
""fullscreenenter"",""5"",""14013""
","
","
","""event"",""trial"",""time""
""fullscreenenter"",""5"",""14013""
","
","533.7000000001863","","49","","","3000","1","","","images/earth.jpg","images/tutrocket1","images/tutrocket2","null","images/tutrocket2","","1","practice","null","1","","",""
"d3-animate-choice","71","245903","0.0-61.0-1.3","1758","5228","24","Female","false","false","true","true","""event"",""trial"",""time""
""fullscreenenter"",""5"",""14013""
","
","
","""event"",""trial"",""time""
""fullscreenenter"",""5"",""14013""
","
","461.10000000009313","","48","","","3000","1","","","images/tutgreenplanet.jpg","images/tutalien2","images/tutalien1","images/tutrocket2","images/tutalien2","images/nothing.png","2","practice","true","2","common","0","2022-12-12 14:30:13.624"
"two-step-fixation","72","246906","0.0-61.0-2.3","1758","5228","24","Female","false","false","true","true","""event"",""trial"",""time""
""fullscreenenter"",""5"",""14013""
","
","
","""event"",""trial"",""time""
""fullscreenenter"",""5"",""14013""
","
","","images/earth.jpg","","","","","","","","","","","","","","fixation","","","","","",""
"d3-animate-choice","73","249333","0.0-61.0-0.4","1758","5228","24","Female","false","false","true","true","""event"",""trial"",""time""
""fullscreenenter"",""5"",""14013""
","
","
","""event"",""trial"",""time""
""fullscreenenter"",""5"",""14013""
","
","423.69999999995343","","48","","","3000","1","","","images/earth.jpg","images/tutrocket1","images/tutrocket2","null","images/tutrocket1","","1","practice","null","2","","",""
"d3-animate-choice","74","251882","0.0-61.0-1.4","1758","5228","24","Female","false","false","true","true","""event"",""trial"",""time""
""fullscreenenter"",""5"",""14013""
","
","
","""event"",""trial"",""time""
""fullscreenenter"",""5"",""14013""
","
","543.2999999998137","","49","","","3000","1","","","images/tutyellowplanet.jpg","images/tutalien4","images/tutalien3","images/tutrocket1","images/tutalien3","images/t.png","2","practice","true","1","common","1","2022-12-12 14:30:19.603"
"two-step-fixation","75","252886","0.0-61.0-2.4","1758","5228","24","Female","false","false","true","true","""event"",""trial"",""time""
""fullscreenenter"",""5"",""14013""
","
","
","""event"",""trial"",""time""
""fullscreenenter"",""5"",""14013""
","
","","images/earth.jpg","","","","","","","","","","","","","","fixation","","","","","",""
"d3-animate-choice","76","255314","0.0-61.0-0.5","1758","5228","24","Female","false","false","true","true","""event"",""trial"",""time""
""fullscreenenter"",""5"",""14013""
","
","
","""event"",""trial"",""time""
""fullscreenenter"",""5"",""14013""
","
","424.4000000001397","","48","","","3000","1","","","images/earth.jpg","images/tutrocket1","images/tutrocket2","null","images/tutrocket1","","1","practice","null","2","","",""
"d3-animate-choice","77","257789","0.0-61.0-1.5","1758","5228","24","Female","false","false","true","true","""event"",""trial"",""time""
""fullscreenenter"",""5"",""14013""
","
","
","""event"",""trial"",""time""
""fullscreenenter"",""5"",""14013""
","
","468.19999999995343","","49","","","3000","1","","","images/tutyellowplanet.jpg","images/tutalien4","images/tutalien3","images/tutrocket1","images/tutalien3","images/nothing.png","2","practice","true","1","common","0","2022-12-12 14:30:25.510"
"two-step-fixation","78","258796","0.0-61.0-2.5","1758","5228","24","Female","false","false","true","true","""event"",""trial"",""time""
""fullscreenenter"",""5"",""14013""
","
","
","""event"",""trial"",""time""
""fullscreenenter"",""5"",""14013""
","
","","images/earth.jpg","","","","","","","","","","","","","","fixation","","","","","",""
"d3-animate-choice","79","261203","0.0-61.0-0.6","1758","5228","24","Female","false","false","true","true","""event"",""trial"",""time""
""fullscreenenter"",""5"",""14013""
","
","
","""event"",""trial"",""time""
""fullscreenenter"",""5"",""14013""
","
","404.30000000004657","","48","","","3000","1","","","images/earth.jpg","images/tutrocket1","images/tutrocket2","null","images/tutrocket1","","1","practice","null","2","","",""
"d3-animate-choice","80","263640","0.0-61.0-1.6","1758","5228","24","Female","false","false","true","true","""event"",""trial"",""time""
""fullscreenenter"",""5"",""14013""
","
","
","""event"",""trial"",""time""
""fullscreenenter"",""5"",""14013""
","
","432.0999999998603","","48","","","3000","1","","","images/tutgreenplanet.jpg","images/tutalien2","images/tutalien1","images/tutrocket1","images/tutalien2","images/nothing.png","2","practice","false","2","rare","0","2022-12-12 14:30:31.361"
"two-step-fixation","81","264647","0.0-61.0-2.6","1758","5228","24","Female","false","false","true","true","""event"",""trial"",""time""
""fullscreenenter"",""5"",""14013""
","
","
","""event"",""trial"",""time""
""fullscreenenter"",""5"",""14013""
","
","","images/earth.jpg","","","","","","","","","","","","","","fixation","","","","","",""
"d3-animate-choice","82","267034","0.0-61.0-0.7","1758","5228","24","Female","false","false","true","true","""event"",""trial"",""time""
""fullscreenenter"",""5"",""14013""
","
","
","""event"",""trial"",""time""
""fullscreenenter"",""5"",""14013""
","
","383.5999999998603","","48","","","3000","1","","","images/earth.jpg","images/tutrocket1","images/tutrocket2","null","images/tutrocket1","","1","practice","null","2","","",""
"d3-animate-choice","83","269457","0.0-61.0-1.7","1758","5228","24","Female","false","false","true","true","""event"",""trial"",""time""
""fullscreenenter"",""5"",""14013""
","
","
","""event"",""trial"",""time""
""fullscreenenter"",""5"",""14013""
","
","416.30000000004657","","49","","","3000","1","","","images/tutyellowplanet.jpg","images/tutalien4","images/tutalien3","images/tutrocket1","images/tutalien3","images/t.png","2","practice","true","1","common","1","2022-12-12 14:30:37.178"
"two-step-fixation","84","270464","0.0-61.0-2.7","1758","5228","24","Female","false","false","true","true","""event"",""trial"",""time""
""fullscreenenter"",""5"",""14013""
","
","
","""event"",""trial"",""time""
""fullscreenenter"",""5"",""14013""
","
","","images/earth.jpg","","","","","","","","","","","","","","fixation","","","","","",""
"d3-animate-choice","85","272851","0.0-61.0-0.8","1758","5228","24","Female","false","false","true","true","""event"",""trial"",""time""
""fullscreenenter"",""5"",""14013""
","
","
","""event"",""trial"",""time""
""fullscreenenter"",""5"",""14013""
","
","383.5999999998603","","48","","","3000","1","","","images/earth.jpg","images/tutrocket1","images/tutrocket2","null","images/tutrocket1","","1","practice","null","2","","",""
"d3-animate-choice","86","275330","0.0-61.0-1.8","1758","5228","24","Female","false","false","true","true","""event"",""trial"",""time""
""fullscreenenter"",""5"",""14013""
","
","
","""event"",""trial"",""time""
""fullscreenenter"",""5"",""14013""
","
","475.5","","49","","","3000","1","","","images/tutyellowplanet.jpg","images/tutalien4","images/tutalien3","images/tutrocket1","images/tutalien3","images/nothing.png","2","practice","true","1","common","0","2022-12-12 14:30:43.051"
"two-step-fixation","87","276333","0.0-61.0-2.8","1758","5228","24","Female","false","false","true","true","""event"",""trial"",""time""
""fullscreenenter"",""5"",""14013""
","
","
","""event"",""trial"",""time""
""fullscreenenter"",""5"",""14013""
","
","","images/earth.jpg","","","","","","","","","","","","","","fixation","","","","","",""
"d3-animate-choice","88","278759","0.0-61.0-0.9","1758","5228","24","Female","false","false","true","true","""event"",""trial"",""time""
""fullscreenenter"",""5"",""14013""
","
","
","""event"",""trial"",""time""
""fullscreenenter"",""5"",""14013""
","
","420.19999999995343","","49","","","3000","1","","","images/earth.jpg","images/tutrocket1","images/tutrocket2","null","images/tutrocket2","","1","practice","null","1","","",""
"d3-animate-choice","89","281277","0.0-61.0-1.9","1758","5228","24","Female","false","false","true","true","""event"",""trial"",""time""
""fullscreenenter"",""5"",""14013""
","
","
","""event"",""trial"",""time""
""fullscreenenter"",""5"",""14013""
","
","515.1000000000931","","48","","","3000","1","","","images/tutyellowplanet.jpg","images/tutalien4","images/tutalien3","images/tutrocket2","images/tutalien4","images/t.png","2","practice","false","2","rare","1","2022-12-12 14:30:48.998"
"two-step-fixation","90","282281","0.0-61.0-2.9","1758","5228","24","Female","false","false","true","true","""event"",""trial"",""time""
""fullscreenenter"",""5"",""14013""
","
","
","""event"",""trial"",""time""
""fullscreenenter"",""5"",""14013""
","
","","images/earth.jpg","","","","","","","","","","","","","","fixation","","","","","",""
"d3-animate-choice","91","284711","0.0-61.0-0.10","1758","5228","24","Female","false","false","true","true","""event"",""trial"",""time""
""fullscreenenter"",""5"",""14013""
","
","
","""event"",""trial"",""time""
""fullscreenenter"",""5"",""14013""
","
","426.39999999990687","","49","","","3000","1","","","images/earth.jpg","images/tutrocket1","images/tutrocket2","null","images/tutrocket2","","1","practice","null","1","","",""
"d3-animate-choice","92","287250","0.0-61.0-1.10","1758","5228","24","Female","false","false","true","true","""event"",""trial"",""time""
""fullscreenenter"",""5"",""14013""
","
","
","""event"",""trial"",""time""
""fullscreenenter"",""5"",""14013""
","
","535.3000000000466","","48","","","3000","1","","","images/tutgreenplanet.jpg","images/tutalien2","images/tutalien1","images/tutrocket2","images/tutalien2","images/t.png","2","practice","true","2","common","1","2022-12-12 14:30:54.971"
"two-step-fixation","93","288254","0.0-61.0-2.10","1758","5228","24","Female","false","false","true","true","""event"",""trial"",""time""
""fullscreenenter"",""5"",""14013""
","
","
","""event"",""trial"",""time""
""fullscreenenter"",""5"",""14013""
","
","","images/earth.jpg","","","","","","","","","","","","","","fixation","","","","","",""
"d3-animate-choice","94","290723","0.0-61.0-0.11","1758","5228","24","Female","false","false","true","true","""event"",""trial"",""time""
""fullscreenenter"",""5"",""14013""
","
","
","""event"",""trial"",""time""
""fullscreenenter"",""5"",""14013""
","
","464.60000000009313","","49","","","3000","1","","","images/earth.jpg","images/tutrocket1","images/tutrocket2","null","images/tutrocket2","","1","practice","null","1","","",""
"d3-animate-choice","95","293190","0.0-61.0-1.11","1758","5228","24","Female","false","false","true","true","""event"",""trial"",""time""
""fullscreenenter"",""5"",""14013""
","
","
","""event"",""trial"",""time""
""fullscreenenter"",""5"",""14013""
","
","460.89999999990687","","48","","","3000","1","","","images/tutyellowplanet.jpg","images/tutalien4","images/tutalien3","images/tutrocket2","images/tutalien4","images/nothing.png","2","practice","false","2","rare","0","2022-12-12 14:31:00.911"
"two-step-fixation","96","294195","0.0-61.0-2.11","1758","5228","24","Female","false","false","true","true","""event"",""trial"",""time""
""fullscreenenter"",""5"",""14013""
","
","
","""event"",""trial"",""time""
""fullscreenenter"",""5"",""14013""
","
","","images/earth.jpg","","","","","","","","","","","","","","fixation","","","","","",""
"d3-animate-choice","97","296667","0.0-61.0-0.12","1758","5228","24","Female","false","false","true","true","""event"",""trial"",""time""
""fullscreenenter"",""5"",""14013""
","
","
","""event"",""trial"",""time""
""fullscreenenter"",""5"",""14013""
","
","466.69999999995343","","49","","","3000","1","","","images/earth.jpg","images/tutrocket1","images/tutrocket2","null","images/tutrocket2","","1","practice","null","1","","",""
"d3-animate-choice","98","299063","0.0-61.0-1.12","1758","5228","24","Female","false","false","true","true","""event"",""trial"",""time""
""fullscreenenter"",""5"",""14013""
","
","
","""event"",""trial"",""time""
""fullscreenenter"",""5"",""14013""
","
","388.5999999998603","","49","","","3000","1","","","images/tutyellowplanet.jpg","images/tutalien4","images/tutalien3","images/tutrocket2","images/tutalien3","images/nothing.png","2","practice","false","1","rare","0","2022-12-12 14:31:06.784"
"two-step-fixation","99","300069","0.0-61.0-2.12","1758","5228","24","Female","false","false","true","true","""event"",""trial"",""time""
""fullscreenenter"",""5"",""14013""
","
","
","""event"",""trial"",""time""
""fullscreenenter"",""5"",""14013""
","
","","images/earth.jpg","","","","","","","","","","","","","","fixation","","","","","",""
"d3-animate-choice","100","302556","0.0-61.0-0.13","1758","5228","24","Female","false","false","true","true","""event"",""trial"",""time""
""fullscreenenter"",""5"",""14013""
","
","
","""event"",""trial"",""time""
""fullscreenenter"",""5"",""14013""
","
","482.5","","49","","","3000","1","","","images/earth.jpg","images/tutrocket1","images/tutrocket2","null","images/tutrocket2","","1","practice","null","1","","",""
"d3-animate-choice","101","304922","0.0-61.0-1.13","1758","5228","24","Female","false","false","true","true","""event"",""trial"",""time""
""fullscreenenter"",""5"",""14013""
","
","
","""event"",""trial"",""time""
""fullscreenenter"",""5"",""14013""
","
","362.5999999998603","","48","","","3000","1","","","images/tutyellowplanet.jpg","images/tutalien4","images/tutalien3","images/tutrocket2","images/tutalien4","images/nothing.png","2","practice","false","2","rare","0","2022-12-12 14:31:12.643"
"two-step-fixation","102","305925","0.0-61.0-2.13","1758","5228","24","Female","false","false","true","true","""event"",""trial"",""time""
""fullscreenenter"",""5"",""14013""
","
","
","""event"",""trial"",""time""
""fullscreenenter"",""5"",""14013""
","
","","images/earth.jpg","","","","","","","","","","","","","","fixation","","","","","",""
"d3-animate-choice","103","308345","0.0-61.0-0.14","1758","5228","24","Female","false","false","true","true","""event"",""trial"",""time""
""fullscreenenter"",""5"",""14013""
","
","
","""event"",""trial"",""time""
""fullscreenenter"",""5"",""14013""
","
","416.4000000001397","","48","","","3000","1","","","images/earth.jpg","images/tutrocket1","images/tutrocket2","null","images/tutrocket1","","1","practice","null","2","","",""
"d3-animate-choice","104","310876","0.0-61.0-1.14","1758","5228","24","Female","false","false","true","true","""event"",""trial"",""time""
""fullscreenenter"",""5"",""14013""
","
","
","""event"",""trial"",""time""
""fullscreenenter"",""5"",""14013""
","
","527.6000000000931","","49","","","3000","1","","","images/tutyellowplanet.jpg","images/tutalien4","images/tutalien3","images/tutrocket1","images/tutalien3","images/nothing.png","2","practice","true","1","common","0","2022-12-12 14:31:18.597"
"two-step-fixation","105","311880","0.0-61.0-2.14","1758","5228","24","Female","false","false","true","true","""event"",""trial"",""time""
""fullscreenenter"",""5"",""14013""
","
","
","""event"",""trial"",""time""
""fullscreenenter"",""5"",""14013""
","
","","images/earth.jpg","","","","","","","","","","","","","","fixation","","","","","",""
"d3-animate-choice","106","314239","0.0-61.0-0.15","1758","5228","24","Female","false","false","true","true","""event"",""trial"",""time""
""fullscreenenter"",""5"",""14013""
","
","
","""event"",""trial"",""time""
""fullscreenenter"",""5"",""14013""
","
","355.79999999981374","","48","","","3000","1","","","images/earth.jpg","images/tutrocket1","images/tutrocket2","null","images/tutrocket1","","1","practice","null","2","","",""
"d3-animate-choice","107","316666","0.0-61.0-1.15","1758","5228","24","Female","false","false","true","true","""event"",""trial"",""time""
""fullscreenenter"",""5"",""14013""
","
","
","""event"",""trial"",""time""
""fullscreenenter"",""5"",""14013""
","
","423.0999999998603","","48","","","3000","1","","","images/tutyellowplanet.jpg","images/tutalien4","images/tutalien3","images/tutrocket1","images/tutalien4","images/t.png","2","practice","true","2","common","1","2022-12-12 14:31:24.387"
"two-step-fixation","108","317670","0.0-61.0-2.15","1758","5228","24","Female","false","false","true","true","""event"",""trial"",""time""
""fullscreenenter"",""5"",""14013""
","
","
","""event"",""trial"",""time""
""fullscreenenter"",""5"",""14013""
","
","","images/earth.jpg","","","","","","","","","","","","","","fixation","","","","","",""
"d3-animate-choice","109","320044","0.0-61.0-0.16","1758","5228","24","Female","false","false","true","true","""event"",""trial"",""time""
""fullscreenenter"",""5"",""14013""
","
","
","""event"",""trial"",""time""
""fullscreenenter"",""5"",""14013""
","
","370.5","","48","","","3000","1","","","images/earth.jpg","images/tutrocket1","images/tutrocket2","null","images/tutrocket1","","1","practice","null","2","","",""
"d3-animate-choice","110","322430","0.0-61.0-1.16","1758","5228","24","Female","false","false","true","true","""event"",""trial"",""time""
""fullscreenenter"",""5"",""14013""
","
","
","""event"",""trial"",""time""
""fullscreenenter"",""5"",""14013""
","
","381.80000000004657","","48","","","3000","1","","","images/tutyellowplanet.jpg","images/tutalien4","images/tutalien3","images/tutrocket1","images/tutalien4","images/nothing.png","2","practice","true","2","common","0","2022-12-12 14:31:30.151"
"two-step-fixation","111","323435","0.0-61.0-2.16","1758","5228","24","Female","false","false","true","true","""event"",""trial"",""time""
""fullscreenenter"",""5"",""14013""
","
","
","""event"",""trial"",""time""
""fullscreenenter"",""5"",""14013""
","
","","images/earth.jpg","","","","","","","","","","","","","","fixation","","","","","",""
"d3-animate-choice","112","325791","0.0-61.0-0.17","1758","5228","24","Female","false","false","true","true","""event"",""trial"",""time""
""fullscreenenter"",""5"",""14013""
","
","
","""event"",""trial"",""time""
""fullscreenenter"",""5"",""14013""
","
","352","","48","","","3000","1","","","images/earth.jpg","images/tutrocket1","images/tutrocket2","null","images/tutrocket1","","1","practice","null","2","","",""
"d3-animate-choice","113","328269","0.0-61.0-1.17","1758","5228","24","Female","false","false","true","true","""event"",""trial"",""time""
""fullscreenenter"",""5"",""14013""
","
","
","""event"",""trial"",""time""
""fullscreenenter"",""5"",""14013""
","
","474.79999999981374","","49","","","3000","1","","","images/tutgreenplanet.jpg","images/tutalien2","images/tutalien1","images/tutrocket1","images/tutalien1","images/nothing.png","2","practice","false","1","rare","0","2022-12-12 14:31:35.991"
"two-step-fixation","114","329272","0.0-61.0-2.17","1758","5228","24","Female","false","false","true","true","""event"",""trial"",""time""
""fullscreenenter"",""5"",""14013""
","
","
","""event"",""trial"",""time""
""fullscreenenter"",""5"",""14013""
","
","","images/earth.jpg","","","","","","","","","","","","","","fixation","","","","","",""
"d3-animate-choice","115","331698","0.0-61.0-0.18","1758","5228","24","Female","false","false","true","true","""event"",""trial"",""time""
""fullscreenenter"",""5"",""14013""
","
","
","""event"",""trial"",""time""
""fullscreenenter"",""5"",""14013""
","
","420.80000000004657","","49","","","3000","1","","","images/earth.jpg","images/tutrocket1","images/tutrocket2","null","images/tutrocket2","","1","practice","null","1","","",""
"d3-animate-choice","116","334116","0.0-61.0-1.18","1758","5228","24","Female","false","false","true","true","""event"",""trial"",""time""
""fullscreenenter"",""5"",""14013""
","
","
","""event"",""trial"",""time""
""fullscreenenter"",""5"",""14013""
","
","413.69999999995343","","49","","","3000","1","","","images/tutyellowplanet.jpg","images/tutalien4","images/tutalien3","images/tutrocket2","images/tutalien3","images/nothing.png","2","practice","false","1","rare","0","2022-12-12 14:31:41.837"
"two-step-fixation","117","335120","0.0-61.0-2.18","1758","5228","24","Female","false","false","true","true","""event"",""trial"",""time""
""fullscreenenter"",""5"",""14013""
","
","
","""event"",""trial"",""time""
""fullscreenenter"",""5"",""14013""
","
","","images/earth.jpg","","","","","","","","","","","","","","fixation","","","","","",""
"d3-animate-choice","118","337599","0.0-61.0-0.19","1758","5228","24","Female","false","false","true","true","""event"",""trial"",""time""
""fullscreenenter"",""5"",""14013""
","
","
","""event"",""trial"",""time""
""fullscreenenter"",""5"",""14013""
","
","476","","49","","","3000","1","","","images/earth.jpg","images/tutrocket1","images/tutrocket2","null","images/tutrocket2","","1","practice","null","1","","",""
"d3-animate-choice","119","340223","0.0-61.0-1.19","1758","5228","24","Female","false","false","true","true","""event"",""trial"",""time""
""fullscreenenter"",""5"",""14013""
","
","
","""event"",""trial"",""time""
""fullscreenenter"",""5"",""14013""
","
","620.8999999999069","","48","","","3000","1","","","images/tutgreenplanet.jpg","images/tutalien2","images/tutalien1","images/tutrocket2","images/tutalien2","images/nothing.png","2","practice","true","2","common","0","2022-12-12 14:31:47.944"
"two-step-fixation","120","341227","0.0-61.0-2.19","1758","5228","24","Female","false","false","true","true","""event"",""trial"",""time""
""fullscreenenter"",""5"",""14013""
","
","
","""event"",""trial"",""time""
""fullscreenenter"",""5"",""14013""
","
","","images/earth.jpg","","","","","","","","","","","","","","fixation","","","","","",""
"d3-instructions","121","347714","0.0-62.0","1758","5228","24","Female","false","false","true","true","""event"",""trial"",""time""
""fullscreenenter"",""5"",""14013""
","
","
","""event"",""trial"",""time""
""fullscreenenter"",""5"",""14013""
","
","","","","","","","","","","","","","","","","","","","","","",""
"audio-keyboard-response","122","349718","0.0-63.0","1758","5228","24","Female","false","false","true","true","""event"",""trial"",""time""
""fullscreenenter"",""5"",""14013""
","
","
","""event"",""trial"",""time""
""fullscreenenter"",""5"",""14013""
","
","2003","audio/instructions/treasure_feedback.wav","32","","","","","","","","","","","","","","","","","","",""
"d3-instructions","123","355751","0.0-64.0","1758","5228","24","Female","false","false","true","true","""event"",""trial"",""time""
""fullscreenenter"",""5"",""14013""
","
","
","""event"",""trial"",""time""
""fullscreenenter"",""5"",""14013""
","
","","","","","","","","","","","","","","","","","","","","","",""
"d3-instructions","124","359041","0.0-65.0","1758","5228","24","Female","false","false","true","true","""event"",""trial"",""time""
""fullscreenenter"",""5"",""14013""
","
","
","""event"",""trial"",""time""
""fullscreenenter"",""5"",""14013""
","
","","","","","","","","","","","","","","","","","","","","","",""
"d3-instructions","125","364504","0.0-66.0","1758","5228","24","Female","false","false","true","true","""event"",""trial"",""time""
""fullscreenenter"",""5"",""14013""
","
","
","""event"",""trial"",""time""
""fullscreenenter"",""5"",""14013""
","
","","","","","","","","","","","","","","","","","","","","","",""
"d3-instructions","126","371592","0.0-67.0","1758","5228","24","Female","false","false","true","true","""event"",""trial"",""time""
""fullscreenenter"",""5"",""14013""
","
","
","""event"",""trial"",""time""
""fullscreenenter"",""5"",""14013""
","
","","","","","","","","","","","","","","","","","","","","","",""
"d3-instructions","127","373657","0.0-68.0","1758","5228","24","Female","false","false","true","true","""event"",""trial"",""time""
""fullscreenenter"",""5"",""14013""
","
","
","""event"",""trial"",""time""
""fullscreenenter"",""5"",""14013""
","
","","","","","","","","","","","","","","","","","","","","","",""
"instructions-quiz","128","376109","0.0-69.0","1758","5228","24","Female","false","false","true","true","""event"",""trial"",""time""
""fullscreenenter"",""5"",""14013""
","
","
","""event"",""trial"",""time""
""fullscreenenter"",""5"",""14013""
","
","2449.899999999907","audio/quiz/Q1_Prompt.wav","","1","","","","","","","","","","","","","","","","","",""
"audio-keyboard-response","129","376750","0.0-70.0","1758","5228","24","Female","false","false","true","true","""event"",""trial"",""time""
""fullscreenenter"",""5"",""14013""
","
","
","""event"",""trial"",""time""
""fullscreenenter"",""5"",""14013""
","
","639","audio/quiz/Q1_Correct.wav","32","","","","","","","","","","","","","","","","","","",""
"instructions-quiz","130","381401","0.0-71.0","1758","5228","24","Female","false","false","true","true","""event"",""trial"",""time""
""fullscreenenter"",""5"",""14013""
","
","
","""event"",""trial"",""time""
""fullscreenenter"",""5"",""14013""
","
","4649.399999999907","audio/quiz/Q2_Prompt.wav","","0","","","","","","","","","","","","","","","","","",""
"audio-keyboard-response","131","382666","0.0-72.0","1758","5228","24","Female","false","false","true","true","""event"",""trial"",""time""
""fullscreenenter"",""5"",""14013""
","
","
","""event"",""trial"",""time""
""fullscreenenter"",""5"",""14013""
","
","1265","audio/quiz/Q2_Correct.wav","32","","","","","","","","","","","","","","","","","","",""
"instructions-quiz","132","385266","0.0-73.0","1758","5228","24","Female","false","false","true","true","""event"",""trial"",""time""
""fullscreenenter"",""5"",""14013""
","
","
","""event"",""trial"",""time""
""fullscreenenter"",""5"",""14013""
","
","2598.1999999999534","audio/quiz/Q3_Prompt.wav","","1","","","","","","","","","","","","","","","","","",""
"audio-keyboard-response","133","385840","0.0-74.0","1758","5228","24","Female","false","false","true","true","""event"",""trial"",""time""
""fullscreenenter"",""5"",""14013""
","
","
","""event"",""trial"",""time""
""fullscreenenter"",""5"",""14013""
","
","569","audio/quiz/Q3_Correct.wav","32","","","","","","","","","","","","","","","","","","",""
"d3-instructions","134","387655","0.0-75.0","1758","5228","24","Female","false","false","true","true","""event"",""trial"",""time""
""fullscreenenter"",""5"",""14013""
","
","
","""event"",""trial"",""time""
""fullscreenenter"",""5"",""14013""
","
","","","","","","","","","","","","","","","","","","","","","",""
"d3-animate-choice","135","390493","0.0-76.0-0.0","1758","5228","24","Female","false","false","true","true","""event"",""trial"",""time""
""fullscreenenter"",""5"",""14013""
","
","
","""event"",""trial"",""time""
""fullscreenenter"",""5"",""14013""
","
","835.3999999999069","","49","","","3000","1","","","images/earth.jpg","images/rocket1","images/rocket2","null","images/rocket2","","1","real","null","1","","",""
"d3-animate-choice","136","393025","0.0-76.0-1.0","1758","5228","24","Female","false","false","true","true","""event"",""trial"",""time""
""fullscreenenter"",""5"",""14013""
","
","
","""event"",""trial"",""time""
""fullscreenenter"",""5"",""14013""
","
","528.9000000001397","","49","","","3000","1","","","images/redplanet1.jpg","images/alien2","images/alien1","images/rocket2","images/alien1","images/nothing.png","2","real","true","1","common","0","2022-12-12 14:32:40.746"
"two-step-fixation","137","394028","0.0-76.0-2.0","1758","5228","24","Female","false","false","true","true","""event"",""trial"",""time""
""fullscreenenter"",""5"",""14013""
","
","
","""event"",""trial"",""time""
""fullscreenenter"",""5"",""14013""
","
","","images/earth.jpg","","","","","","","","","","","","","","fixation","","","","","",""
"d3-animate-choice","138","396575","0.0-76.0-0.1","1758","5228","24","Female","false","false","true","true","""event"",""trial"",""time""
""fullscreenenter"",""5"",""14013""
","
","
","""event"",""trial"",""time""
""fullscreenenter"",""5"",""14013""
","
","542","","49","","","3000","1","","","images/earth.jpg","images/rocket1","images/rocket2","null","images/rocket2","","1","real","null","1","","",""
"d3-animate-choice","139","399074","0.0-76.0-1.1","1758","5228","24","Female","false","false","true","true","""event"",""trial"",""time""
""fullscreenenter"",""5"",""14013""
","
","
","""event"",""trial"",""time""
""fullscreenenter"",""5"",""14013""
","
","493.39999999990687","","48","","","3000","1","","","images/redplanet1.jpg","images/alien2","images/alien1","images/rocket2","images/alien2","images/t.png","2","real","true","2","common","1","2022-12-12 14:32:46.795"
"two-step-fixation","140","400078","0.0-76.0-2.1","1758","5228","24","Female","false","false","true","true","""event"",""trial"",""time""
""fullscreenenter"",""5"",""14013""
","
","
","""event"",""trial"",""time""
""fullscreenenter"",""5"",""14013""
","
","","images/earth.jpg","","","","","","","","","","","","","","fixation","","","","","",""
"d3-animate-choice","141","402715","0.0-76.0-0.2","1758","5228","24","Female","false","false","true","true","""event"",""trial"",""time""
""fullscreenenter"",""5"",""14013""
","
","
","""event"",""trial"",""time""
""fullscreenenter"",""5"",""14013""
","
","632.5999999998603","","49","","","3000","1","","","images/earth.jpg","images/rocket1","images/rocket2","null","images/rocket2","","1","real","null","1","","",""
"d3-animate-choice","142","405324","0.0-76.0-1.2","1758","5228","24","Female","false","false","true","true","""event"",""trial"",""time""
""fullscreenenter"",""5"",""14013""
","
","
","""event"",""trial"",""time""
""fullscreenenter"",""5"",""14013""
","
","605.5","","48","","","3000","1","","","images/redplanet1.jpg","images/alien2","images/alien1","images/rocket2","images/alien2","images/t.png","2","real","true","2","common","1","2022-12-12 14:32:53.045"
"two-step-fixation","143","406327","0.0-76.0-2.2","1758","5228","24","Female","false","false","true","true","""event"",""trial"",""time""
""fullscreenenter"",""5"",""14013""
","
","
","""event"",""trial"",""time""
""fullscreenenter"",""5"",""14013""
","
","","images/earth.jpg","","","","","","","","","","","","","","fixation","","","","","",""
"d3-animate-choice","144","408823","0.0-76.0-0.3","1758","5228","24","Female","false","false","true","true","""event"",""trial"",""time""
""fullscreenenter"",""5"",""14013""
","
","
","""event"",""trial"",""time""
""fullscreenenter"",""5"",""14013""
","
","493.19999999995343","","49","","","3000","1","","","images/earth.jpg","images/rocket1","images/rocket2","null","images/rocket2","","1","real","null","1","","",""
"d3-animate-choice","145","411369","0.0-76.0-1.3","1758","5228","24","Female","false","false","true","true","""event"",""trial"",""time""
""fullscreenenter"",""5"",""14013""
","
","
","""event"",""trial"",""time""
""fullscreenenter"",""5"",""14013""
","
","540","","48","","","3000","1","","","images/redplanet1.jpg","images/alien2","images/alien1","images/rocket2","images/alien2","images/nothing.png","2","real","true","2","common","0","2022-12-12 14:32:59.090"
"two-step-fixation","146","412372","0.0-76.0-2.3","1758","5228","24","Female","false","false","true","true","""event"",""trial"",""time""
""fullscreenenter"",""5"",""14013""
","
","
","""event"",""trial"",""time""
""fullscreenenter"",""5"",""14013""
","
","","images/earth.jpg","","","","","","","","","","","","","","fixation","","","","","",""
"d3-animate-choice","147","414817","0.0-76.0-0.4","1758","5228","24","Female","false","false","true","true","""event"",""trial"",""time""
""fullscreenenter"",""5"",""14013""
","
","
","""event"",""trial"",""time""
""fullscreenenter"",""5"",""14013""
","
","442.89999999990687","","49","","","3000","1","","","images/earth.jpg","images/rocket1","images/rocket2","null","images/rocket2","","1","real","null","1","","",""
"d3-animate-choice","148","417389","0.0-76.0-1.4","1758","5228","24","Female","false","false","true","true","""event"",""trial"",""time""
""fullscreenenter"",""5"",""14013""
","
","
","""event"",""trial"",""time""
""fullscreenenter"",""5"",""14013""
","
","568.2000000001863","","48","","","3000","1","","","images/redplanet1.jpg","images/alien2","images/alien1","images/rocket2","images/alien2","images/t.png","2","real","true","2","common","1","2022-12-12 14:33:05.110"
"two-step-fixation","149","418393","0.0-76.0-2.4","1758","5228","24","Female","false","false","true","true","""event"",""trial"",""time""
""fullscreenenter"",""5"",""14013""
","
","
","""event"",""trial"",""time""
""fullscreenenter"",""5"",""14013""
","
","","images/earth.jpg","","","","","","","","","","","","","","fixation","","","","","",""
"d3-animate-choice","150","420817","0.0-76.0-0.5","1758","5228","24","Female","false","false","true","true","""event"",""trial"",""time""
""fullscreenenter"",""5"",""14013""
","
","
","""event"",""trial"",""time""
""fullscreenenter"",""5"",""14013""
","
","420.10000000009313","","49","","","3000","1","","","images/earth.jpg","images/rocket1","images/rocket2","null","images/rocket2","","1","real","null","1","","",""
"d3-animate-choice","151","423253","0.0-76.0-1.5","1758","5228","24","Female","false","false","true","true","""event"",""trial"",""time""
""fullscreenenter"",""5"",""14013""
","
","
","""event"",""trial"",""time""
""fullscreenenter"",""5"",""14013""
","
","432.5","","48","","","3000","1","","","images/redplanet1.jpg","images/alien2","images/alien1","images/rocket2","images/alien2","images/t.png","2","real","true","2","common","1","2022-12-12 14:33:10.974"
"two-step-fixation","152","424256","0.0-76.0-2.5","1758","5228","24","Female","false","false","true","true","""event"",""trial"",""time""
""fullscreenenter"",""5"",""14013""
","
","
","""event"",""trial"",""time""
""fullscreenenter"",""5"",""14013""
","
","","images/earth.jpg","","","","","","","","","","","","","","fixation","","","","","",""
"d3-animate-choice","153","426694","0.0-76.0-0.6","1758","5228","24","Female","false","false","true","true","""event"",""trial"",""time""
""fullscreenenter"",""5"",""14013""
","
","
","""event"",""trial"",""time""
""fullscreenenter"",""5"",""14013""
","
","435.30000000004657","","49","","","3000","1","","","images/earth.jpg","images/rocket1","images/rocket2","null","images/rocket2","","1","real","null","1","","",""
"d3-animate-choice","154","429171","0.0-76.0-1.6","1758","5228","24","Female","false","false","true","true","""event"",""trial"",""time""
""fullscreenenter"",""5"",""14013""
","
","
","""event"",""trial"",""time""
""fullscreenenter"",""5"",""14013""
","
","471.30000000004657","","48","","","3000","1","","","images/purpleplanet.jpg","images/alien4","images/alien3","images/rocket2","images/alien4","images/t.png","2","real","false","2","rare","1","2022-12-12 14:33:16.892"
"two-step-fixation","155","430175","0.0-76.0-2.6","1758","5228","24","Female","false","false","true","true","""event"",""trial"",""time""
""fullscreenenter"",""5"",""14013""
","
","
","""event"",""trial"",""time""
""fullscreenenter"",""5"",""14013""
","
","","images/earth.jpg","","","","","","","","","","","","","","fixation","","","","","",""
"d3-animate-choice","156","432575","0.0-76.0-0.7","1758","5228","24","Female","false","false","true","true","""event"",""trial"",""time""
""fullscreenenter"",""5"",""14013""
","
","
","""event"",""trial"",""time""
""fullscreenenter"",""5"",""14013""
","
","394.39999999990687","","49","","","3000","1","","","images/earth.jpg","images/rocket1","images/rocket2","null","images/rocket2","","1","real","null","1","","",""
"d3-animate-choice","157","435031","0.0-76.0-1.7","1758","5228","24","Female","false","false","true","true","""event"",""trial"",""time""
""fullscreenenter"",""5"",""14013""
","
","
","""event"",""trial"",""time""
""fullscreenenter"",""5"",""14013""
","
","453.9000000001397","","48","","","3000","1","","","images/redplanet1.jpg","images/alien2","images/alien1","images/rocket2","images/alien2","images/nothing.png","2","real","true","2","common","0","2022-12-12 14:33:22.752"
"two-step-fixation","158","436034","0.0-76.0-2.7","1758","5228","24","Female","false","false","true","true","""event"",""trial"",""time""
""fullscreenenter"",""5"",""14013""
","
","
","""event"",""trial"",""time""
""fullscreenenter"",""5"",""14013""
","
","","images/earth.jpg","","","","","","","","","","","","","","fixation","","","","","",""
"d3-animate-choice","159","438493","0.0-76.0-0.8","1758","5228","24","Female","false","false","true","true","""event"",""trial"",""time""
""fullscreenenter"",""5"",""14013""
","
","
","""event"",""trial"",""time""
""fullscreenenter"",""5"",""14013""
","
","455.20000000018626","","49","","","3000","1","","","images/earth.jpg","images/rocket1","images/rocket2","null","images/rocket2","","1","real","null","1","","",""
"d3-animate-choice","160","441207","0.0-76.0-1.8","1758","5228","24","Female","false","false","true","true","""event"",""trial"",""time""
""fullscreenenter"",""5"",""14013""
","
","
","""event"",""trial"",""time""
""fullscreenenter"",""5"",""14013""
","
","710","","48","","","3000","1","","","images/redplanet1.jpg","images/alien2","images/alien1","images/rocket2","images/alien2","images/t.png","2","real","true","2","common","1","2022-12-12 14:33:28.928"
"two-step-fixation","161","442210","0.0-76.0-2.8","1758","5228","24","Female","false","false","true","true","""event"",""trial"",""time""
""fullscreenenter"",""5"",""14013""
","
","
","""event"",""trial"",""time""
""fullscreenenter"",""5"",""14013""
","
","","images/earth.jpg","","","","","","","","","","","","","","fixation","","","","","",""
"d3-animate-choice","162","444585","0.0-76.0-0.9","1758","5228","24","Female","false","false","true","true","""event"",""trial"",""time""
""fullscreenenter"",""5"",""14013""
","
","
","""event"",""trial"",""time""
""fullscreenenter"",""5"",""14013""
","
","369.20000000018626","","49","","","3000","1","","","images/earth.jpg","images/rocket1","images/rocket2","null","images/rocket2","","1","real","null","1","","",""
"d3-animate-choice","163","447023","0.0-76.0-1.9","1758","5228","24","Female","false","false","true","true","""event"",""trial"",""time""
""fullscreenenter"",""5"",""14013""
","
","
","""event"",""trial"",""time""
""fullscreenenter"",""5"",""14013""
","
","435","","48","","","3000","1","","","images/purpleplanet.jpg","images/alien4","images/alien3","images/rocket2","images/alien4","images/nothing.png","2","real","false","2","rare","0","2022-12-12 14:33:34.744"
"two-step-fixation","164","448026","0.0-76.0-2.9","1758","5228","24","Female","false","false","true","true","""event"",""trial"",""time""
""fullscreenenter"",""5"",""14013""
","
","
","""event"",""trial"",""time""
""fullscreenenter"",""5"",""14013""
","
","","images/earth.jpg","","","","","","","","","","","","","","fixation","","","","","",""
"d3-animate-choice","165","450547","0.0-76.0-0.10","1758","5228","24","Female","false","false","true","true","""event"",""trial"",""time""
""fullscreenenter"",""5"",""14013""
","
","
","""event"",""trial"",""time""
""fullscreenenter"",""5"",""14013""
","
","514.0999999998603","","48","","","3000","1","","","images/earth.jpg","images/rocket1","images/rocket2","null","images/rocket1","","1","real","null","2","","",""
"d3-animate-choice","166","453632","0.0-76.0-1.10","1758","5228","24","Female","false","false","true","true","""event"",""trial"",""time""
""fullscreenenter"",""5"",""14013""
","
","
","""event"",""trial"",""time""
""fullscreenenter"",""5"",""14013""
","
","1080.8000000000466","","49","","","3000","1","","","images/purpleplanet.jpg","images/alien4","images/alien3","images/rocket1","images/alien3","images/nothing.png","2","real","true","1","common","0","2022-12-12 14:33:41.353"
"two-step-fixation","167","454637","0.0-76.0-2.10","1758","5228","24","Female","false","false","true","true","""event"",""trial"",""time""
""fullscreenenter"",""5"",""14013""
","
","
","""event"",""trial"",""time""
""fullscreenenter"",""5"",""14013""
","
","","images/earth.jpg","","","","","","","","","","","","","","fixation","","","","","",""
"d3-animate-choice","168","457053","0.0-76.0-0.11","1758","5228","24","Female","false","false","true","true","""event"",""trial"",""time""
""fullscreenenter"",""5"",""14013""
","
","
","""event"",""trial"",""time""
""fullscreenenter"",""5"",""14013""
","
","409.10000000009313","","48","","","3000","1","","","images/earth.jpg","images/rocket1","images/rocket2","null","images/rocket1","","1","real","null","2","","",""
"d3-animate-choice","169","460199","0.0-76.0-1.11","1758","5228","24","Female","false","false","true","true","""event"",""trial"",""time""
""fullscreenenter"",""5"",""14013""
","
","
","""event"",""trial"",""time""
""fullscreenenter"",""5"",""14013""
","
","1139.5","","49","","","3000","1","","","images/purpleplanet.jpg","images/alien4","images/alien3","images/rocket1","images/alien3","images/nothing.png","2","real","true","1","common","0","2022-12-12 14:33:47.920"
"two-step-fixation","170","461202","0.0-76.0-2.11","1758","5228","24","Female","false","false","true","true","""event"",""trial"",""time""
""fullscreenenter"",""5"",""14013""
","
","
","""event"",""trial"",""time""
""fullscreenenter"",""5"",""14013""
","
","","images/earth.jpg","","","","","","","","","","","","","","fixation","","","","","",""
"d3-animate-choice","171","463695","0.0-76.0-0.12","1758","5228","24","Female","false","false","true","true","""event"",""trial"",""time""
""fullscreenenter"",""5"",""14013""
","
","
","""event"",""trial"",""time""
""fullscreenenter"",""5"",""14013""
","
","489.69999999995343","","49","","","3000","1","","","images/earth.jpg","images/rocket1","images/rocket2","null","images/rocket2","","1","real","null","1","","",""
"d3-animate-choice","172","466289","0.0-76.0-1.12","1758","5228","24","Female","false","false","true","true","""event"",""trial"",""time""
""fullscreenenter"",""5"",""14013""
","
","
","""event"",""trial"",""time""
""fullscreenenter"",""5"",""14013""
","
","590.6999999999534","","48","","","3000","1","","","images/redplanet1.jpg","images/alien2","images/alien1","images/rocket2","images/alien2","images/nothing.png","2","real","true","2","common","0","2022-12-12 14:33:54.010"
"two-step-fixation","173","467293","0.0-76.0-2.12","1758","5228","24","Female","false","false","true","true","""event"",""trial"",""time""
""fullscreenenter"",""5"",""14013""
","
","
","""event"",""trial"",""time""
""fullscreenenter"",""5"",""14013""
","
","","images/earth.jpg","","","","","","","","","","","","","","fixation","","","","","",""
"d3-animate-choice","174","469864","0.0-76.0-0.13","1758","5228","24","Female","false","false","true","true","""event"",""trial"",""time""
""fullscreenenter"",""5"",""14013""
","
","
","""event"",""trial"",""time""
""fullscreenenter"",""5"",""14013""
","
","566.7000000001863","","49","","","3000","1","","","images/earth.jpg","images/rocket1","images/rocket2","null","images/rocket2","","1","real","null","1","","",""
"d3-animate-choice","175","472880","0.0-76.0-1.13","1758","5228","24","Female","false","false","true","true","""event"",""trial"",""time""
""fullscreenenter"",""5"",""14013""
","
","
","""event"",""trial"",""time""
""fullscreenenter"",""5"",""14013""
","
","1011.5999999998603","","49","","","3000","1","","","images/purpleplanet.jpg","images/alien4","images/alien3","images/rocket2","images/alien3","images/nothing.png","2","real","false","1","rare","0","2022-12-12 14:34:00.601"
"two-step-fixation","176","473887","0.0-76.0-2.13","1758","5228","24","Female","false","false","true","true","""event"",""trial"",""time""
""fullscreenenter"",""5"",""14013""
","
","
","""event"",""trial"",""time""
""fullscreenenter"",""5"",""14013""
","
","","images/earth.jpg","","","","","","","","","","","","","","fixation","","","","","",""
"d3-animate-choice","177","476275","0.0-76.0-0.14","1758","5228","24","Female","false","false","true","true","""event"",""trial"",""time""
""fullscreenenter"",""5"",""14013""
","
","
","""event"",""trial"",""time""
""fullscreenenter"",""5"",""14013""
","
","383.4000000001397","","49","","","3000","1","","","images/earth.jpg","images/rocket1","images/rocket2","null","images/rocket2","","1","real","null","1","","",""
"d3-animate-choice","178","478856","0.0-76.0-1.14","1758","5228","24","Female","false","false","true","true","""event"",""trial"",""time""
""fullscreenenter"",""5"",""14013""
","
","
","""event"",""trial"",""time""
""fullscreenenter"",""5"",""14013""
","
","578.1000000000931","","48","","","3000","1","","","images/redplanet1.jpg","images/alien2","images/alien1","images/rocket2","images/alien2","images/nothing.png","2","real","true","2","common","0","2022-12-12 14:34:06.577"
"two-step-fixation","179","479861","0.0-76.0-2.14","1758","5228","24","Female","false","false","true","true","""event"",""trial"",""time""
""fullscreenenter"",""5"",""14013""
","
","
","""event"",""trial"",""time""
""fullscreenenter"",""5"",""14013""
","
","","images/earth.jpg","","","","","","","","","","","","","","fixation","","","","","",""
"d3-animate-choice","180","482248","0.0-76.0-0.15","1758","5228","24","Female","false","false","true","true","""event"",""trial"",""time""
""fullscreenenter"",""5"",""14013""
","
","
","""event"",""trial"",""time""
""fullscreenenter"",""5"",""14013""
","
","384","","49","","","3000","1","","","images/earth.jpg","images/rocket1","images/rocket2","null","images/rocket2","","1","real","null","1","","",""
"d3-animate-choice","181","484836","0.0-76.0-1.15","1758","5228","24","Female","false","false","true","true","""event"",""trial"",""time""
""fullscreenenter"",""5"",""14013""
","
","
","""event"",""trial"",""time""
""fullscreenenter"",""5"",""14013""
","
","583.7999999998137","","48","","","3000","1","","","images/redplanet1.jpg","images/alien2","images/alien1","images/rocket2","images/alien2","images/nothing.png","2","real","true","2","common","0","2022-12-12 14:34:12.557"
"two-step-fixation","182","485840","0.0-76.0-2.15","1758","5228","24","Female","false","false","true","true","""event"",""trial"",""time""
""fullscreenenter"",""5"",""14013""
","
","
","""event"",""trial"",""time""
""fullscreenenter"",""5"",""14013""
","
","","images/earth.jpg","","","","","","","","","","","","","","fixation","","","","","",""
"d3-animate-choice","183","488284","0.0-76.0-0.16","1758","5228","24","Female","false","false","true","true","""event"",""trial"",""time""
""fullscreenenter"",""5"",""14013""
","
","
","""event"",""trial"",""time""
""fullscreenenter"",""5"",""14013""
","
","440.5999999998603","","49","","","3000","1","","","images/earth.jpg","images/rocket1","images/rocket2","null","images/rocket2","","1","real","null","1","","",""
"d3-animate-choice","184","490704","0.0-76.0-1.16","1758","5228","24","Female","false","false","true","true","""event"",""trial"",""time""
""fullscreenenter"",""5"",""14013""
","
","
","""event"",""trial"",""time""
""fullscreenenter"",""5"",""14013""
","
","416.29999999981374","","49","","","3000","1","","","images/purpleplanet.jpg","images/alien4","images/alien3","images/rocket2","images/alien3","images/nothing.png","2","real","false","1","rare","0","2022-12-12 14:34:18.425"
"two-step-fixation","185","491708","0.0-76.0-2.16","1758","5228","24","Female","false","false","true","true","""event"",""trial"",""time""
""fullscreenenter"",""5"",""14013""
","
","
","""event"",""trial"",""time""
""fullscreenenter"",""5"",""14013""
","
","","images/earth.jpg","","","","","","","","","","","","","","fixation","","","","","",""
"d3-animate-choice","186","494100","0.0-76.0-0.17","1758","5228","24","Female","false","false","true","true","""event"",""trial"",""time""
""fullscreenenter"",""5"",""14013""
","
","
","""event"",""trial"",""time""
""fullscreenenter"",""5"",""14013""
","
","388.10000000009313","","49","","","3000","1","","","images/earth.jpg","images/rocket1","images/rocket2","null","images/rocket2","","1","real","null","1","","",""
"d3-animate-choice","187","496607","0.0-76.0-1.17","1758","5228","24","Female","false","false","true","true","""event"",""trial"",""time""
""fullscreenenter"",""5"",""14013""
","
","
","""event"",""trial"",""time""
""fullscreenenter"",""5"",""14013""
","
","502.19999999995343","","49","","","3000","1","","","images/redplanet1.jpg","images/alien2","images/alien1","images/rocket2","images/alien1","images/nothing.png","2","real","true","1","common","0","2022-12-12 14:34:24.329"
"two-step-fixation","188","497611","0.0-76.0-2.17","1758","5228","24","Female","false","false","true","true","""event"",""trial"",""time""
""fullscreenenter"",""5"",""14013""
","
","
","""event"",""trial"",""time""
""fullscreenenter"",""5"",""14013""
","
","","images/earth.jpg","","","","","","","","","","","","","","fixation","","","","","",""
"d3-animate-choice","189","500039","0.0-76.0-0.18","1758","5228","24","Female","false","false","true","true","""event"",""trial"",""time""
""fullscreenenter"",""5"",""14013""
","
","
","""event"",""trial"",""time""
""fullscreenenter"",""5"",""14013""
","
","423.69999999995343","","49","","","3000","1","","","images/earth.jpg","images/rocket1","images/rocket2","null","images/rocket2","","1","real","null","1","","",""
"d3-animate-choice","190","502535","0.0-76.0-1.18","1758","5228","24","Female","false","false","true","true","""event"",""trial"",""time""
""fullscreenenter"",""5"",""14013""
","
","
","""event"",""trial"",""time""
""fullscreenenter"",""5"",""14013""
","
","493","","48","","","3000","1","","","images/redplanet1.jpg","images/alien2","images/alien1","images/rocket2","images/alien2","images/t.png","2","real","true","2","common","1","2022-12-12 14:34:30.256"
"two-step-fixation","191","503539","0.0-76.0-2.18","1758","5228","24","Female","false","false","true","true","""event"",""trial"",""time""
""fullscreenenter"",""5"",""14013""
","
","
","""event"",""trial"",""time""
""fullscreenenter"",""5"",""14013""
","
","","images/earth.jpg","","","","","","","","","","","","","","fixation","","","","","",""
"d3-animate-choice","192","506006","0.0-76.0-0.19","1758","5228","24","Female","false","false","true","true","""event"",""trial"",""time""
""fullscreenenter"",""5"",""14013""
","
","
","""event"",""trial"",""time""
""fullscreenenter"",""5"",""14013""
","
","464.19999999995343","","49","","","3000","1","","","images/earth.jpg","images/rocket1","images/rocket2","null","images/rocket2","","1","real","null","1","","",""
"d3-animate-choice","193","508470","0.0-76.0-1.19","1758","5228","24","Female","false","false","true","true","""event"",""trial"",""time""
""fullscreenenter"",""5"",""14013""
","
","
","""event"",""trial"",""time""
""fullscreenenter"",""5"",""14013""
","
","457.80000000004657","","48","","","3000","1","","","images/redplanet1.jpg","images/alien2","images/alien1","images/rocket2","images/alien2","images/nothing.png","2","real","true","2","common","0","2022-12-12 14:34:36.191"
"two-step-fixation","194","509473","0.0-76.0-2.19","1758","5228","24","Female","false","false","true","true","""event"",""trial"",""time""
""fullscreenenter"",""5"",""14013""
","
","
","""event"",""trial"",""time""
""fullscreenenter"",""5"",""14013""
","
","","images/earth.jpg","","","","","","","","","","","","","","fixation","","","","","",""
"d3-animate-choice","195","511935","0.0-76.0-0.20","1758","5228","24","Female","false","false","true","true","""event"",""trial"",""time""
""fullscreenenter"",""5"",""14013""
","
","
","""event"",""trial"",""time""
""fullscreenenter"",""5"",""14013""
","
","457.69999999995343","","49","","","3000","1","","","images/earth.jpg","images/rocket1","images/rocket2","null","images/rocket2","","1","real","null","1","","",""
"d3-animate-choice","196","514419","0.0-76.0-1.20","1758","5228","24","Female","false","false","true","true","""event"",""trial"",""time""
""fullscreenenter"",""5"",""14013""
","
","
","""event"",""trial"",""time""
""fullscreenenter"",""5"",""14013""
","
","481.70000000018626","","48","","","3000","1","","","images/redplanet1.jpg","images/alien2","images/alien1","images/rocket2","images/alien2","images/nothing.png","2","real","true","2","common","0","2022-12-12 14:34:42.141"
"two-step-fixation","197","515423","0.0-76.0-2.20","1758","5228","24","Female","false","false","true","true","""event"",""trial"",""time""
""fullscreenenter"",""5"",""14013""
","
","
","""event"",""trial"",""time""
""fullscreenenter"",""5"",""14013""
","
","","images/earth.jpg","","","","","","","","","","","","","","fixation","","","","","",""
"d3-animate-choice","198","517889","0.0-76.0-0.21","1758","5228","24","Female","false","false","true","true","""event"",""trial"",""time""
""fullscreenenter"",""5"",""14013""
","
","
","""event"",""trial"",""time""
""fullscreenenter"",""5"",""14013""
","
","460.9000000001397","","49","","","3000","1","","","images/earth.jpg","images/rocket1","images/rocket2","null","images/rocket2","","1","real","null","1","","",""
"d3-animate-choice","199","520308","0.0-76.0-1.21","1758","5228","24","Female","false","false","true","true","""event"",""trial"",""time""
""fullscreenenter"",""5"",""14013""
","
","
","""event"",""trial"",""time""
""fullscreenenter"",""5"",""14013""
","
","414","","48","","","3000","1","","","images/purpleplanet.jpg","images/alien4","images/alien3","images/rocket2","images/alien4","images/nothing.png","2","real","false","2","rare","0","2022-12-12 14:34:48.029"
"two-step-fixation","200","521311","0.0-76.0-2.21","1758","5228","24","Female","false","false","true","true","""event"",""trial"",""time""
""fullscreenenter"",""5"",""14013""
","
","
","""event"",""trial"",""time""
""fullscreenenter"",""5"",""14013""
","
","","images/earth.jpg","","","","","","","","","","","","","","fixation","","","","","",""
"d3-animate-choice","201","523780","0.0-76.0-0.22","1758","5228","24","Female","false","false","true","true","""event"",""trial"",""time""
""fullscreenenter"",""5"",""14013""
","
","
","""event"",""trial"",""time""
""fullscreenenter"",""5"",""14013""
","
","463","","49","","","3000","1","","","images/earth.jpg","images/rocket1","images/rocket2","null","images/rocket2","","1","real","null","1","","",""
"d3-animate-choice","202","526225","0.0-76.0-1.22","1758","5228","24","Female","false","false","true","true","""event"",""trial"",""time""
""fullscreenenter"",""5"",""14013""
","
","
","""event"",""trial"",""time""
""fullscreenenter"",""5"",""14013""
","
","440.89999999990687","","48","","","3000","1","","","images/redplanet1.jpg","images/alien2","images/alien1","images/rocket2","images/alien2","images/t.png","2","real","true","2","common","1","2022-12-12 14:34:53.946"
"two-step-fixation","203","527231","0.0-76.0-2.22","1758","5228","24","Female","false","false","true","true","""event"",""trial"",""time""
""fullscreenenter"",""5"",""14013""
","
","
","""event"",""trial"",""time""
""fullscreenenter"",""5"",""14013""
","
","","images/earth.jpg","","","","","","","","","","","","","","fixation","","","","","",""
"d3-animate-choice","204","529621","0.0-76.0-0.23","1758","5228","24","Female","false","false","true","true","""event"",""trial"",""time""
""fullscreenenter"",""5"",""14013""
","
","
","""event"",""trial"",""time""
""fullscreenenter"",""5"",""14013""
","
","386.5999999998603","","49","","","3000","1","","","images/earth.jpg","images/rocket1","images/rocket2","null","images/rocket2","","1","real","null","1","","",""
"d3-animate-choice","205","532073","0.0-76.0-1.23","1758","5228","24","Female","false","false","true","true","""event"",""trial"",""time""
""fullscreenenter"",""5"",""14013""
","
","
","""event"",""trial"",""time""
""fullscreenenter"",""5"",""14013""
","
","448.69999999995343","","48","","","3000","1","","","images/redplanet1.jpg","images/alien2","images/alien1","images/rocket2","images/alien2","images/t.png","2","real","true","2","common","1","2022-12-12 14:34:59.794"
"two-step-fixation","206","533076","0.0-76.0-2.23","1758","5228","24","Female","false","false","true","true","""event"",""trial"",""time""
""fullscreenenter"",""5"",""14013""
","
","
","""event"",""trial"",""time""
""fullscreenenter"",""5"",""14013""
","
","","images/earth.jpg","","","","","","","","","","","","","","fixation","","","","","",""
"d3-animate-choice","207","535525","0.0-76.0-0.24","1758","5228","24","Female","false","false","true","true","""event"",""trial"",""time""
""fullscreenenter"",""5"",""14013""
","
","
","""event"",""trial"",""time""
""fullscreenenter"",""5"",""14013""
","
","445.60000000009313","","49","","","3000","1","","","images/earth.jpg","images/rocket1","images/rocket2","null","images/rocket2","","1","real","null","1","","",""
"d3-animate-choice","208","538056","0.0-76.0-1.24","1758","5228","24","Female","false","false","true","true","""event"",""trial"",""time""
""fullscreenenter"",""5"",""14013""
","
","
","""event"",""trial"",""time""
""fullscreenenter"",""5"",""14013""
","
","524.6999999999534","","48","","","3000","1","","","images/redplanet1.jpg","images/alien2","images/alien1","images/rocket2","images/alien2","images/t.png","2","real","true","2","common","1","2022-12-12 14:35:05.777"
"two-step-fixation","209","539062","0.0-76.0-2.24","1758","5228","24","Female","false","false","true","true","""event"",""trial"",""time""
""fullscreenenter"",""5"",""14013""
","
","
","""event"",""trial"",""time""
""fullscreenenter"",""5"",""14013""
","
","","images/earth.jpg","","","","","","","","","","","","","","fixation","","","","","",""
"d3-animate-choice","210","541468","0.0-76.0-0.25","1758","5228","24","Female","false","false","true","true","""event"",""trial"",""time""
""fullscreenenter"",""5"",""14013""
","
","
","""event"",""trial"",""time""
""fullscreenenter"",""5"",""14013""
","
","401.80000000004657","","49","","","3000","1","","","images/earth.jpg","images/rocket1","images/rocket2","null","images/rocket2","","1","real","null","1","","",""
"d3-animate-choice","211","543944","0.0-76.0-1.25","1758","5228","24","Female","false","false","true","true","""event"",""trial"",""time""
""fullscreenenter"",""5"",""14013""
","
","
","""event"",""trial"",""time""
""fullscreenenter"",""5"",""14013""
","
","470.80000000004657","","48","","","3000","1","","","images/redplanet1.jpg","images/alien2","images/alien1","images/rocket2","images/alien2","images/nothing.png","2","real","true","2","common","0","2022-12-12 14:35:11.665"
"two-step-fixation","212","544948","0.0-76.0-2.25","1758","5228","24","Female","false","false","true","true","""event"",""trial"",""time""
""fullscreenenter"",""5"",""14013""
","
","
","""event"",""trial"",""time""
""fullscreenenter"",""5"",""14013""
","
","","images/earth.jpg","","","","","","","","","","","","","","fixation","","","","","",""
"d3-animate-choice","213","547379","0.0-76.0-0.26","1758","5228","24","Female","false","false","true","true","""event"",""trial"",""time""
""fullscreenenter"",""5"",""14013""
","
","
","""event"",""trial"",""time""
""fullscreenenter"",""5"",""14013""
","
","426.39999999990687","","49","","","3000","1","","","images/earth.jpg","images/rocket1","images/rocket2","null","images/rocket2","","1","real","null","1","","",""
"d3-animate-choice","214","549892","0.0-76.0-1.26","1758","5228","24","Female","false","false","true","true","""event"",""trial"",""time""
""fullscreenenter"",""5"",""14013""
","
","
","""event"",""trial"",""time""
""fullscreenenter"",""5"",""14013""
","
","507.0999999998603","","48","","","3000","1","","","images/redplanet1.jpg","images/alien2","images/alien1","images/rocket2","images/alien2","images/t.png","2","real","true","2","common","1","2022-12-12 14:35:17.614"
"two-step-fixation","215","550898","0.0-76.0-2.26","1758","5228","24","Female","false","false","true","true","""event"",""trial"",""time""
""fullscreenenter"",""5"",""14013""
","
","
","""event"",""trial"",""time""
""fullscreenenter"",""5"",""14013""
","
","","images/earth.jpg","","","","","","","","","","","","","","fixation","","","","","",""
"d3-animate-choice","216","553360","0.0-76.0-0.27","1758","5228","24","Female","false","false","true","true","""event"",""trial"",""time""
""fullscreenenter"",""5"",""14013""
","
","
","""event"",""trial"",""time""
""fullscreenenter"",""5"",""14013""
","
","454.5","","49","","","3000","1","","","images/earth.jpg","images/rocket1","images/rocket2","null","images/rocket2","","1","real","null","1","","",""
"d3-animate-choice","217","555877","0.0-76.0-1.27","1758","5228","24","Female","false","false","true","true","""event"",""trial"",""time""
""fullscreenenter"",""5"",""14013""
","
","
","""event"",""trial"",""time""
""fullscreenenter"",""5"",""14013""
","
","513.7000000001863","","48","","","3000","1","","","images/purpleplanet.jpg","images/alien4","images/alien3","images/rocket2","images/alien4","images/t.png","2","real","false","2","rare","1","2022-12-12 14:35:23.598"
"two-step-fixation","218","556882","0.0-76.0-2.27","1758","5228","24","Female","false","false","true","true","""event"",""trial"",""time""
""fullscreenenter"",""5"",""14013""
","
","
","""event"",""trial"",""time""
""fullscreenenter"",""5"",""14013""
","
","","images/earth.jpg","","","","","","","","","","","","","","fixation","","","","","",""
"d3-animate-choice","219","559329","0.0-76.0-0.28","1758","5228","24","Female","false","false","true","true","""event"",""trial"",""time""
""fullscreenenter"",""5"",""14013""
","
","
","""event"",""trial"",""time""
""fullscreenenter"",""5"",""14013""
","
","444.39999999990687","","49","","","3000","1","","","images/earth.jpg","images/rocket1","images/rocket2","null","images/rocket2","","1","real","null","1","","",""
"d3-animate-choice","220","561752","0.0-76.0-1.28","1758","5228","24","Female","false","false","true","true","""event"",""trial"",""time""
""fullscreenenter"",""5"",""14013""
","
","
","""event"",""trial"",""time""
""fullscreenenter"",""5"",""14013""
","
","418.29999999981374","","48","","","3000","1","","","images/redplanet1.jpg","images/alien2","images/alien1","images/rocket2","images/alien2","images/nothing.png","2","real","true","2","common","0","2022-12-12 14:35:29.473"
"two-step-fixation","221","562754","0.0-76.0-2.28","1758","5228","24","Female","false","false","true","true","""event"",""trial"",""time""
""fullscreenenter"",""5"",""14013""
","
","
","""event"",""trial"",""time""
""fullscreenenter"",""5"",""14013""
","
","","images/earth.jpg","","","","","","","","","","","","","","fixation","","","","","",""
"d3-animate-choice","222","565165","0.0-76.0-0.29","1758","5228","24","Female","false","false","true","true","""event"",""trial"",""time""
""fullscreenenter"",""5"",""14013""
","
","
","""event"",""trial"",""time""
""fullscreenenter"",""5"",""14013""
","
","407.5","","49","","","3000","1","","","images/earth.jpg","images/rocket1","images/rocket2","null","images/rocket2","","1","real","null","1","","",""
"d3-animate-choice","223","567704","0.0-76.0-1.29","1758","5228","24","Female","false","false","true","true","""event"",""trial"",""time""
""fullscreenenter"",""5"",""14013""
","
","
","""event"",""trial"",""time""
""fullscreenenter"",""5"",""14013""
","
","533.8000000000466","","48","","","3000","1","","","images/redplanet1.jpg","images/alien2","images/alien1","images/rocket2","images/alien2","images/t.png","2","real","true","2","common","1","2022-12-12 14:35:35.425"
"two-step-fixation","224","568707","0.0-76.0-2.29","1758","5228","24","Female","false","false","true","true","""event"",""trial"",""time""
""fullscreenenter"",""5"",""14013""
","
","
","""event"",""trial"",""time""
""fullscreenenter"",""5"",""14013""
","
","","images/earth.jpg","","","","","","","","","","","","","","fixation","","","","","",""
"d3-animate-choice","225","571291","0.0-76.0-0.30","1758","5228","24","Female","false","false","true","true","""event"",""trial"",""time""
""fullscreenenter"",""5"",""14013""
","
","
","""event"",""trial"",""time""
""fullscreenenter"",""5"",""14013""
","
","579.8000000000466","","49","","","3000","1","","","images/earth.jpg","images/rocket1","images/rocket2","null","images/rocket2","","1","real","null","1","","",""
"d3-animate-choice","226","573735","0.0-76.0-1.30","1758","5228","24","Female","false","false","true","true","""event"",""trial"",""time""
""fullscreenenter"",""5"",""14013""
","
","
","""event"",""trial"",""time""
""fullscreenenter"",""5"",""14013""
","
","439.5999999998603","","48","","","3000","1","","","images/redplanet1.jpg","images/alien2","images/alien1","images/rocket2","images/alien2","images/t.png","2","real","true","2","common","1","2022-12-12 14:35:41.456"
"two-step-fixation","227","574739","0.0-76.0-2.30","1758","5228","24","Female","false","false","true","true","""event"",""trial"",""time""
""fullscreenenter"",""5"",""14013""
","
","
","""event"",""trial"",""time""
""fullscreenenter"",""5"",""14013""
","
","","images/earth.jpg","","","","","","","","","","","","","","fixation","","","","","",""
"d3-animate-choice","228","577215","0.0-76.0-0.31","1758","5228","24","Female","false","false","true","true","""event"",""trial"",""time""
""fullscreenenter"",""5"",""14013""
","
","
","""event"",""trial"",""time""
""fullscreenenter"",""5"",""14013""
","
","470.39999999990687","","49","","","3000","1","","","images/earth.jpg","images/rocket1","images/rocket2","null","images/rocket2","","1","real","null","1","","",""
"d3-animate-choice","229","579823","0.0-76.0-1.31","1758","5228","24","Female","false","false","true","true","""event"",""trial"",""time""
""fullscreenenter"",""5"",""14013""
","
","
","""event"",""trial"",""time""
""fullscreenenter"",""5"",""14013""
","
","603.9000000001397","","48","","","3000","1","","","images/redplanet1.jpg","images/alien2","images/alien1","images/rocket2","images/alien2","images/t.png","2","real","true","2","common","1","2022-12-12 14:35:47.544"
"two-step-fixation","230","580827","0.0-76.0-2.31","1758","5228","24","Female","false","false","true","true","""event"",""trial"",""time""
""fullscreenenter"",""5"",""14013""
","
","
","""event"",""trial"",""time""
""fullscreenenter"",""5"",""14013""
","
","","images/earth.jpg","","","","","","","","","","","","","","fixation","","","","","",""
"d3-animate-choice","231","583466","0.0-76.0-0.32","1758","5228","24","Female","false","false","true","true","""event"",""trial"",""time""
""fullscreenenter"",""5"",""14013""
","
","
","""event"",""trial"",""time""
""fullscreenenter"",""5"",""14013""
","
","635.9000000001397","","49","","","3000","1","","","images/earth.jpg","images/rocket1","images/rocket2","null","images/rocket2","","1","real","null","1","","",""
"d3-animate-choice","232","586407","0.0-76.0-1.32","1758","5228","24","Female","false","false","true","true","""event"",""trial"",""time""
""fullscreenenter"",""5"",""14013""
","
","
","""event"",""trial"",""time""
""fullscreenenter"",""5"",""14013""
","
","938.3999999999069","","48","","","3000","1","","","images/redplanet1.jpg","images/alien2","images/alien1","images/rocket2","images/alien2","images/t.png","2","real","true","2","common","1","2022-12-12 14:35:54.129"
"two-step-fixation","233","587412","0.0-76.0-2.32","1758","5228","24","Female","false","false","true","true","""event"",""trial"",""time""
""fullscreenenter"",""5"",""14013""
","
","
","""event"",""trial"",""time""
""fullscreenenter"",""5"",""14013""
","
","","images/earth.jpg","","","","","","","","","","","","","","fixation","","","","","",""
"d3-animate-choice","234","589895","0.0-76.0-0.33","1758","5228","24","Female","false","false","true","true","""event"",""trial"",""time""
""fullscreenenter"",""5"",""14013""
","
","
","""event"",""trial"",""time""
""fullscreenenter"",""5"",""14013""
","
","478.0999999998603","","49","","","3000","1","","","images/earth.jpg","images/rocket1","images/rocket2","null","images/rocket2","","1","real","null","1","","",""
"d3-animate-choice","235","592441","0.0-76.0-1.33","1758","5228","24","Female","false","false","true","true","""event"",""trial"",""time""
""fullscreenenter"",""5"",""14013""
","
","
","""event"",""trial"",""time""
""fullscreenenter"",""5"",""14013""
","
","542.1000000000931","","48","","","3000","1","","","images/purpleplanet.jpg","images/alien4","images/alien3","images/rocket2","images/alien4","images/t.png","2","real","false","2","rare","1","2022-12-12 14:36:00.162"
"two-step-fixation","236","593443","0.0-76.0-2.33","1758","5228","24","Female","false","false","true","true","""event"",""trial"",""time""
""fullscreenenter"",""5"",""14013""
","
","
","""event"",""trial"",""time""
""fullscreenenter"",""5"",""14013""
","
","","images/earth.jpg","","","","","","","","","","","","","","fixation","","","","","",""
"d3-animate-choice","237","595904","0.0-76.0-0.34","1758","5228","24","Female","false","false","true","true","""event"",""trial"",""time""
""fullscreenenter"",""5"",""14013""
","
","
","""event"",""trial"",""time""
""fullscreenenter"",""5"",""14013""
","
","457.4000000001397","","49","","","3000","1","","","images/earth.jpg","images/rocket1","images/rocket2","null","images/rocket2","","1","real","null","1","","",""
"d3-animate-choice","238","598424","0.0-76.0-1.34","1758","5228","24","Female","false","false","true","true","""event"",""trial"",""time""
""fullscreenenter"",""5"",""14013""
","
","
","""event"",""trial"",""time""
""fullscreenenter"",""5"",""14013""
","
","516.3000000000466","","48","","","3000","1","","","images/redplanet1.jpg","images/alien2","images/alien1","images/rocket2","images/alien2","images/t.png","2","real","true","2","common","1","2022-12-12 14:36:06.145"
"two-step-fixation","239","599428","0.0-76.0-2.34","1758","5228","24","Female","false","false","true","true","""event"",""trial"",""time""
""fullscreenenter"",""5"",""14013""
","
","
","""event"",""trial"",""time""
""fullscreenenter"",""5"",""14013""
","
","","images/earth.jpg","","","","","","","","","","","","","","fixation","","","","","",""
"d3-animate-choice","240","601847","0.0-76.0-0.35","1758","5228","24","Female","false","false","true","true","""event"",""trial"",""time""
""fullscreenenter"",""5"",""14013""
","
","
","""event"",""trial"",""time""
""fullscreenenter"",""5"",""14013""
","
","414","","49","","","3000","1","","","images/earth.jpg","images/rocket1","images/rocket2","null","images/rocket2","","1","real","null","1","","",""
"d3-animate-choice","241","604357","0.0-76.0-1.35","1758","5228","24","Female","false","false","true","true","""event"",""trial"",""time""
""fullscreenenter"",""5"",""14013""
","
","
","""event"",""trial"",""time""
""fullscreenenter"",""5"",""14013""
","
","507","","48","","","3000","1","","","images/redplanet1.jpg","images/alien2","images/alien1","images/rocket2","images/alien2","images/t.png","2","real","true","2","common","1","2022-12-12 14:36:12.078"
"two-step-fixation","242","605361","0.0-76.0-2.35","1758","5228","24","Female","false","false","true","true","""event"",""trial"",""time""
""fullscreenenter"",""5"",""14013""
","
","
","""event"",""trial"",""time""
""fullscreenenter"",""5"",""14013""
","
","","images/earth.jpg","","","","","","","","","","","","","","fixation","","","","","",""
"d3-animate-choice","243","607770","0.0-76.0-0.36","1758","5228","24","Female","false","false","true","true","""event"",""trial"",""time""
""fullscreenenter"",""5"",""14013""
","
","
","""event"",""trial"",""time""
""fullscreenenter"",""5"",""14013""
","
","406.0999999998603","","49","","","3000","1","","","images/earth.jpg","images/rocket1","images/rocket2","null","images/rocket2","","1","real","null","1","","",""
"d3-animate-choice","244","610284","0.0-76.0-1.36","1758","5228","24","Female","false","false","true","true","""event"",""trial"",""time""
""fullscreenenter"",""5"",""14013""
","
","
","""event"",""trial"",""time""
""fullscreenenter"",""5"",""14013""
","
