"trial_type","trial_index","time_elapsed","internal_node_id","participant_id","subject_id","age","gender","rocket_sides","red_planet_first_rocket","red_display_order","purple_display_order","interactions","blur_events","focus_events","fullscreenenter_events","fullscreenexit_events","rt","stimulus","key_press","button_pressed","success","duration","valid_pressed","rts","keys","planet_text","right_text","left_text","center_text","chosen_text","reward_text","trial_stage","practice_trial","transition_type","choice","transition","reward","timestamp"
"pavlovia","0","3","0.0-0.0","421","695","19","Female","false","false","true","true","
","
","
","
","
","","","","","","","","","","","","","","","","","","","","","",""
"html-keyboard-response","1","5495","0.0-1.0","421","695","19","Female","false","false","true","true","
","
","
","
","
","5491.700000017881","Welcome! Press the space bar to begin.","32","","","","","","","","","","","","","","","","","","",""
"audio-keyboard-response","2","9475","0.0-2.0","421","695","19","Female","false","false","true","true","
","
","
","
","
","3261","audio/beep_loop.wav","32","","","","","","","","","","","","","","","","","","",""
"audio-button-response","3","12741","0.0-3.0","421","695","19","Female","false","false","true","true","
","
","
","
","
","NaN","audio/fish.mp3","","1","","","","","","","","","","","","","","","","","",""
"audio-button-response","4","15953","0.0-4.0","421","695","19","Female","false","false","true","true","""event"",""trial"",""time""
""fullscreenenter"",""5"",""19620""
","
","
","""event"",""trial"",""time""
""fullscreenenter"",""5"",""19620""
","
","NaN","audio/tiger.mp3","","4","","","","","","","","","","","","","","","","","",""
"fullscreen","5","20625","0.0-5.0","421","695","19","Female","false","false","true","true","""event"",""trial"",""time""
""fullscreenenter"",""5"",""19620""
","
","
","""event"",""trial"",""time""
""fullscreenenter"",""5"",""19620""
","
","","","","","true","","","","","","","","","","","","","","","","",""
"d3-instructions","6","39655","0.0-6.0","421","695","19","Female","false","false","true","true","""event"",""trial"",""time""
""fullscreenenter"",""5"",""19620""
","
","
","""event"",""trial"",""time""
""fullscreenenter"",""5"",""19620""
","
","","","","","","","","","","","","","","","","","","","","","",""
"d3-instructions","7","48872","0.0-7.0","421","695","19","Female","false","false","true","true","""event"",""trial"",""time""
""fullscreenenter"",""5"",""19620""
","
","
","""event"",""trial"",""time""
""fullscreenenter"",""5"",""19620""
","
","","","","","","","","","","","","","","","","","","","","","",""
"d3-instructions","8","56016","0.0-8.0","421","695","19","Female","false","false","true","true","""event"",""trial"",""time""
""fullscreenenter"",""5"",""19620""
","
","
","""event"",""trial"",""time""
""fullscreenenter"",""5"",""19620""
","
","","","","","","","","","","","","","","","","","","","","","",""
"d3-instructions","9","67006","0.0-9.0","421","695","19","Female","false","false","true","true","""event"",""trial"",""time""
""fullscreenenter"",""5"",""19620""
","
","
","""event"",""trial"",""time""
""fullscreenenter"",""5"",""19620""
","
","","","","","","","","","","","","","","","","","","","","","",""
"d3-instructions","10","87453","0.0-10.0","421","695","19","Female","false","false","true","true","""event"",""trial"",""time""
""fullscreenenter"",""5"",""19620""
","
","
","""event"",""trial"",""time""
""fullscreenenter"",""5"",""19620""
","
","","","","","","","","","","","","","","","","","","","","","",""
"d3-animate-choice","11","90475","0.0-11.0","421","695","19","Female","false","false","true","true","""event"",""trial"",""time""
""fullscreenenter"",""5"",""19620""
","
","
","""event"",""trial"",""time""
""fullscreenenter"",""5"",""19620""
","
","1009","","49","","","3000","1","2883.800000011921","48","images/tutgreenplanet.jpg","images/tutalien1","images/tutalien2","null","images/tutalien2","","NA","practice","null","","","",""
"d3-animate-choice","12","93579","0.0-12.0","421","695","19","Female","false","false","true","true","""event"",""trial"",""time""
""fullscreenenter"",""5"",""19620""
","
","
","""event"",""trial"",""time""
""fullscreenenter"",""5"",""19620""
","
","1089.5","","48","","","3000","1","","","images/tutgreenplanet.jpg","images/tutalien1","images/tutalien2","null","images/tutalien1","","NA","practice","null","","","",""
"d3-animate-choice","13","96344","0.0-13.0","421","695","19","Female","false","false","true","true","""event"",""trial"",""time""
""fullscreenenter"",""5"",""19620""
","
","
","""event"",""trial"",""time""
""fullscreenenter"",""5"",""19620""
","
","745.2999999821186","","49","","","3000","1","","","images/tutgreenplanet.jpg","images/tutalien1","images/tutalien2","null","images/tutalien2","","NA","practice","null","","","",""
"d3-animate-choice","14","98777","0.0-14.0","421","695","19","Female","false","false","true","true","""event"",""trial"",""time""
""fullscreenenter"",""5"",""19620""
","
","
","""event"",""trial"",""time""
""fullscreenenter"",""5"",""19620""
","
","419","","48","","","3000","1","","","images/tutgreenplanet.jpg","images/tutalien1","images/tutalien2","null","images/tutalien1","","NA","practice","null","","","",""
"d3-instructions","15","107973","0.0-15.0","421","695","19","Female","false","false","true","true","""event"",""trial"",""time""
""fullscreenenter"",""5"",""19620""
","
","
","""event"",""trial"",""time""
""fullscreenenter"",""5"",""19620""
","
","","","","","","","","","","","","","","","","","","","","","",""
"d3-instructions","16","128892","0.0-16.0","421","695","19","Female","false","false","true","true","""event"",""trial"",""time""
""fullscreenenter"",""5"",""19620""
","
","
","""event"",""trial"",""time""
""fullscreenenter"",""5"",""19620""
","
","","","","","","","","","","","","","","","","","","","","","",""
"d3-instructions","17","140766","0.0-17.0","421","695","19","Female","false","false","true","true","""event"",""trial"",""time""
""fullscreenenter"",""5"",""19620""
","
","
","""event"",""trial"",""time""
""fullscreenenter"",""5"",""19620""
","
","","","","","","","","","","","","","","","","","","","","","",""
"d3-instructions","18","157707","0.0-18.0","421","695","19","Female","false","false","true","true","""event"",""trial"",""time""
""fullscreenenter"",""5"",""19620""
","
","
","""event"",""trial"",""time""
""fullscreenenter"",""5"",""19620""
","
","","","","","","","","","","","","","","","","","","","","","",""
"d3-instructions","19","172308","0.0-19.0","421","695","19","Female","false","false","true","true","""event"",""trial"",""time""
""fullscreenenter"",""5"",""19620""
","
","
","""event"",""trial"",""time""
""fullscreenenter"",""5"",""19620""
","
","","","","","","","","","","","","","","","","","","","","","",""
"d3-animate-choice","20","175205","0.0-20.0","421","695","19","Female","false","false","true","true","""event"",""trial"",""time""
""fullscreenenter"",""5"",""19620""
","
","
","""event"",""trial"",""time""
""fullscreenenter"",""5"",""19620""
","
","889.8999999761581","","49","","","3000","1","","","images/tutyellowplanet.jpg","null","images/tutalien3","null","images/tutalien3","images/t.png","NA","practice","null","","","",""
"d3-animate-choice","21","177299","0.0-21.0","421","695","19","Female","false","false","true","true","""event"",""trial"",""time""
""fullscreenenter"",""5"",""19620""
","
","
","""event"",""trial"",""time""
""fullscreenenter"",""5"",""19620""
","
","83","","49","","","3000","1","1760.699999988079","49","images/tutyellowplanet.jpg","null","images/tutalien3","null","images/tutalien3","images/t.png","NA","practice","null","","","",""
"d3-animate-choice","22","179698","0.0-22.0","421","695","19","Female","false","false","true","true","""event"",""trial"",""time""
""fullscreenenter"",""5"",""19620""
","
","
","""event"",""trial"",""time""
""fullscreenenter"",""5"",""19620""
","
","389.7999999821186","","49","","","3000","1","","","images/tutyellowplanet.jpg","null","images/tutalien3","null","images/tutalien3","images/nothing.png","NA","practice","null","","","",""
"d3-animate-choice","23","181992","0.0-23.0","421","695","19","Female","false","false","true","true","""event"",""trial"",""time""
""fullscreenenter"",""5"",""19620""
","
","
","""event"",""trial"",""time""
""fullscreenenter"",""5"",""19620""
","
","275.2000000178814","","49","","","3000","1","1998","49","images/tutyellowplanet.jpg","null","images/tutalien3","null","images/tutalien3","images/nothing.png","NA","practice","null","","","",""
"d3-animate-choice","24","184362","0.0-24.0","421","695","19","Female","false","false","true","true","""event"",""trial"",""time""
""fullscreenenter"",""5"",""19620""
","
","
","""event"",""trial"",""time""
""fullscreenenter"",""5"",""19620""
","
","348.90000000596046","","49","","","3000","1","","","images/tutyellowplanet.jpg","null","images/tutalien3","null","images/tutalien3","images/t.png","NA","practice","null","","","",""
"d3-animate-choice","25","186758","0.0-25.0","421","695","19","Female","false","false","true","true","""event"",""trial"",""time""
""fullscreenenter"",""5"",""19620""
","
","
","""event"",""trial"",""time""
""fullscreenenter"",""5"",""19620""
","
","377.40000000596046","","49","","","3000","1","","","images/tutyellowplanet.jpg","null","images/tutalien3","null","images/tutalien3","images/t.png","NA","practice","null","","","",""
"d3-animate-choice","26","189182","0.0-26.0","421","695","19","Female","false","false","true","true","""event"",""trial"",""time""
""fullscreenenter"",""5"",""19620""
","
","
","""event"",""trial"",""time""
""fullscreenenter"",""5"",""19620""
","
","401.40000000596046","","49","","","3000","1","","","images/tutyellowplanet.jpg","null","images/tutalien3","null","images/tutalien3","images/t.png","NA","practice","null","","","",""
"d3-animate-choice","27","191554","0.0-27.0","421","695","19","Female","false","false","true","true","""event"",""trial"",""time""
""fullscreenenter"",""5"",""19620""
","
","
","""event"",""trial"",""time""
""fullscreenenter"",""5"",""19620""
","
","360","","49","","","3000","1","1962.199999988079","49","images/tutyellowplanet.jpg","null","images/tutalien3","null","images/tutalien3","images/t.png","NA","practice","null","","","",""
"d3-animate-choice","28","193799","0.0-28.0","421","695","19","Female","false","false","true","true","""event"",""trial"",""time""
""fullscreenenter"",""5"",""19620""
","
","
","""event"",""trial"",""time""
""fullscreenenter"",""5"",""19620""
","
","242","","49","","","3000","1","","","images/tutyellowplanet.jpg","null","images/tutalien3","null","images/tutalien3","images/t.png","NA","practice","null","","","",""
"d3-animate-choice","29","196222","0.0-29.0","421","695","19","Female","false","false","true","true","""event"",""trial"",""time""
""fullscreenenter"",""5"",""19620""
","
","
","""event"",""trial"",""time""
""fullscreenenter"",""5"",""19620""
","
","403.59999999403954","","49","","","3000","1","","","images/tutyellowplanet.jpg","null","images/tutalien3","null","images/tutalien3","images/t.png","NA","practice","null","","","",""
"d3-instructions","30","199190","0.0-30.0","421","695","19","Female","false","false","true","true","""event"",""trial"",""time""
""fullscreenenter"",""5"",""19620""
","
","
","""event"",""trial"",""time""
""fullscreenenter"",""5"",""19620""
","
","","","","","","","","","","","","","","","","","","","","","",""
"d3-instructions","31","208531","0.0-31.0","421","695","19","Female","false","false","true","true","""event"",""trial"",""time""
""fullscreenenter"",""5"",""19620""
","
","
","""event"",""trial"",""time""
""fullscreenenter"",""5"",""19620""
","
","","","","","","","","","","","","","","","","","","","","","",""
"d3-instructions","32","215263","0.0-32.0","421","695","19","Female","false","false","true","true","""event"",""trial"",""time""
""fullscreenenter"",""5"",""19620""
","
","
","""event"",""trial"",""time""
""fullscreenenter"",""5"",""19620""
","
","","","","","","","","","","","","","","","","","","","","","",""
"d3-instructions","33","221930","0.0-33.0","421","695","19","Female","false","false","true","true","""event"",""trial"",""time""
""fullscreenenter"",""5"",""19620""
","
","
","""event"",""trial"",""time""
""fullscreenenter"",""5"",""19620""
","
","","","","","","","","","","","","","","","","","","","","","",""
"d3-animate-choice","34","225465","0.0-34.0","421","695","19","Female","false","false","true","true","""event"",""trial"",""time""
""fullscreenenter"",""5"",""19620""
","
","
","""event"",""trial"",""time""
""fullscreenenter"",""5"",""19620""
","
","1515.699999988079","","49","","","3000","1","","","images/tutgreenplanet.jpg","images/tutalien1","images/tutalien2","null","images/tutalien2","images/t.png","NA","practice","null","","","",""
"d3-animate-choice","35","227938","0.0-35.0","421","695","19","Female","false","false","true","true","""event"",""trial"",""time""
""fullscreenenter"",""5"",""19620""
","
","
","""event"",""trial"",""time""
""fullscreenenter"",""5"",""19620""
","
","467.69999998807907","","49","","","3000","1","","","images/tutgreenplanet.jpg","images/tutalien1","images/tutalien2","null","images/tutalien2","images/t.png","NA","practice","null","","","",""
"d3-animate-choice","36","230307","0.0-36.0","421","695","19","Female","false","false","true","true","""event"",""trial"",""time""
""fullscreenenter"",""5"",""19620""
","
","
","""event"",""trial"",""time""
""fullscreenenter"",""5"",""19620""
","
","364.5","","49","","","3000","1","","","images/tutgreenplanet.jpg","images/tutalien1","images/tutalien2","null","images/tutalien2","images/nothing.png","NA","practice","null","","","",""
"d3-animate-choice","37","232893","0.0-37.0","421","695","19","Female","false","false","true","true","""event"",""trial"",""time""
""fullscreenenter"",""5"",""19620""
","
","
","""event"",""trial"",""time""
""fullscreenenter"",""5"",""19620""
","
","573.1000000238419","","49","","","3000","1","","","images/tutgreenplanet.jpg","images/tutalien1","images/tutalien2","null","images/tutalien2","images/t.png","NA","practice","null","","","",""
"d3-animate-choice","38","235195","0.0-38.0","421","695","19","Female","false","false","true","true","""event"",""trial"",""time""
""fullscreenenter"",""5"",""19620""
","
","
","""event"",""trial"",""time""
""fullscreenenter"",""5"",""19620""
","
","290.2000000178814","","49","","","3000","1","","","images/tutgreenplanet.jpg","images/tutalien1","images/tutalien2","null","images/tutalien2","images/t.png","NA","practice","null","","","",""
"d3-animate-choice","39","237641","0.0-39.0","421","695","19","Female","false","false","true","true","""event"",""trial"",""time""
""fullscreenenter"",""5"",""19620""
","
","
","""event"",""trial"",""time""
""fullscreenenter"",""5"",""19620""
","
","433.19999998807907","","49","","","3000","1","","","images/tutgreenplanet.jpg","images/tutalien1","images/tutalien2","null","images/tutalien2","images/nothing.png","NA","practice","null","","","",""
"d3-animate-choice","40","240235","0.0-40.0","421","695","19","Female","false","false","true","true","""event"",""trial"",""time""
""fullscreenenter"",""5"",""19620""
","
","
","""event"",""trial"",""time""
""fullscreenenter"",""5"",""19620""
","
","585.4000000059605","","49","","","3000","1","","","images/tutgreenplanet.jpg","images/tutalien1","images/tutalien2","null","images/tutalien2","images/t.png","NA","practice","null","","","",""
"d3-animate-choice","41","243005","0.0-41.0","421","695","19","Female","false","false","true","true","""event"",""trial"",""time""
""fullscreenenter"",""5"",""19620""
","
","
","""event"",""trial"",""time""
""fullscreenenter"",""5"",""19620""
","
","755.4000000059605","","49","","","3000","1","","","images/tutgreenplanet.jpg","images/tutalien1","images/tutalien2","null","images/tutalien2","images/t.png","NA","practice","null","","","",""
"d3-animate-choice","42","245505","0.0-42.0","421","695","19","Female","false","false","true","true","""event"",""trial"",""time""
""fullscreenenter"",""5"",""19620""
","
","
","""event"",""trial"",""time""
""fullscreenenter"",""5"",""19620""
","
","488","","49","","","3000","1","","","images/tutgreenplanet.jpg","images/tutalien1","images/tutalien2","null","images/tutalien2","images/t.png","NA","practice","null","","","",""
"d3-animate-choice","43","247816","0.0-43.0","421","695","19","Female","false","false","true","true","""event"",""trial"",""time""
""fullscreenenter"",""5"",""19620""
","
","
","""event"",""trial"",""time""
""fullscreenenter"",""5"",""19620""
","
","300.09999999403954","","49","","","3000","1","","","images/tutgreenplanet.jpg","images/tutalien1","images/tutalien2","null","images/tutalien2","images/t.png","NA","practice","null","","","",""
"d3-instructions","44","259973","0.0-44.0","421","695","19","Female","false","false","true","true","""event"",""trial"",""time""
""fullscreenenter"",""5"",""19620""
","
","
","""event"",""trial"",""time""
""fullscreenenter"",""5"",""19620""
","
","","","","","","","","","","","","","","","","","","","","","",""
"d3-instructions","45","263229","0.0-45.0","421","695","19","Female","false","false","true","true","""event"",""trial"",""time""
""fullscreenenter"",""5"",""19620""
","
","
","""event"",""trial"",""time""
""fullscreenenter"",""5"",""19620""
","
","","","","","","","","","","","","","","","","","","","","","",""
"d3-instructions","46","268055","0.0-46.0","421","695","19","Female","false","false","true","true","""event"",""trial"",""time""
""fullscreenenter"",""5"",""19620""
","
","
","""event"",""trial"",""time""
""fullscreenenter"",""5"",""19620""
","
","","","","","","","","","","","","","","","","","","","","","",""
"d3-instructions","47","285614","0.0-47.0","421","695","19","Female","false","false","true","true","""event"",""trial"",""time""
""fullscreenenter"",""5"",""19620""
","
","
","""event"",""trial"",""time""
""fullscreenenter"",""5"",""19620""
","
","","","","","","","","","","","","","","","","","","","","","",""
"d3-instructions","48","292266","0.0-48.0","421","695","19","Female","false","false","true","true","""event"",""trial"",""time""
""fullscreenenter"",""5"",""19620""
","
","
","""event"",""trial"",""time""
""fullscreenenter"",""5"",""19620""
","
","","","","","","","","","","","","","","","","","","","","","",""
"d3-instructions","49","302520","0.0-49.0","421","695","19","Female","false","false","true","true","""event"",""trial"",""time""
""fullscreenenter"",""5"",""19620""
","
","
","""event"",""trial"",""time""
""fullscreenenter"",""5"",""19620""
","
","","","","","","","","","","","","","","","","","","","","","",""
"d3-instructions","50","310855","0.0-50.0","421","695","19","Female","false","false","true","true","""event"",""trial"",""time""
""fullscreenenter"",""5"",""19620""
","
","
","""event"",""trial"",""time""
""fullscreenenter"",""5"",""19620""
","
","","","","","","","","","","","","","","","","","","","","","",""
"d3-instructions","51","314158","0.0-51.0","421","695","19","Female","false","false","true","true","""event"",""trial"",""time""
""fullscreenenter"",""5"",""19620""
","
","
","""event"",""trial"",""time""
""fullscreenenter"",""5"",""19620""
","
","","","","","","","","","","","","","","","","","","","","","",""
"d3-instructions","52","317846","0.0-52.0","421","695","19","Female","false","false","true","true","""event"",""trial"",""time""
""fullscreenenter"",""5"",""19620""
","
","
","""event"",""trial"",""time""
""fullscreenenter"",""5"",""19620""
","
","","","","","","","","","","","","","","","","","","","","","",""
"d3-instructions","53","331220","0.0-53.0","421","695","19","Female","false","false","true","true","""event"",""trial"",""time""
""fullscreenenter"",""5"",""19620""
","
","
","""event"",""trial"",""time""
""fullscreenenter"",""5"",""19620""
","
","","","","","","","","","","","","","","","","","","","","","",""
"d3-instructions","54","349201","0.0-54.0","421","695","19","Female","false","false","true","true","""event"",""trial"",""time""
""fullscreenenter"",""5"",""19620""
","
","
","""event"",""trial"",""time""
""fullscreenenter"",""5"",""19620""
","
","","","","","","","","","","","","","","","","","","","","","",""
"d3-instructions","55","360980","0.0-55.0","421","695","19","Female","false","false","true","true","""event"",""trial"",""time""
""fullscreenenter"",""5"",""19620""
","
","
","""event"",""trial"",""time""
""fullscreenenter"",""5"",""19620""
","
","","","","","","","","","","","","","","","","","","","","","",""
"d3-instructions","56","370158","0.0-56.0","421","695","19","Female","false","false","true","true","""event"",""trial"",""time""
""fullscreenenter"",""5"",""19620""
","
","
","""event"",""trial"",""time""
""fullscreenenter"",""5"",""19620""
","
","","","","","","","","","","","","","","","","","","","","","",""
"d3-instructions","57","380709","0.0-57.0","421","695","19","Female","false","false","true","true","""event"",""trial"",""time""
""fullscreenenter"",""5"",""19620""
","
","
","""event"",""trial"",""time""
""fullscreenenter"",""5"",""19620""
","
","","","","","","","","","","","","","","","","","","","","","",""
"d3-instructions","58","391679","0.0-58.0","421","695","19","Female","false","false","true","true","""event"",""trial"",""time""
""fullscreenenter"",""5"",""19620""
","
","
","""event"",""trial"",""time""
""fullscreenenter"",""5"",""19620""
","
","","","","","","","","","","","","","","","","","","","","","",""
"d3-instructions","59","397770","0.0-59.0","421","695","19","Female","false","false","true","true","""event"",""trial"",""time""
""fullscreenenter"",""5"",""19620""
","
","
","""event"",""trial"",""time""
""fullscreenenter"",""5"",""19620""
","
","","","","","","","","","","","","","","","","","","","","","",""
"d3-instructions","60","405755","0.0-60.0","421","695","19","Female","false","false","true","true","""event"",""trial"",""time""
""fullscreenenter"",""5"",""19620""
","
","
","""event"",""trial"",""time""
""fullscreenenter"",""5"",""19620""
","
","","","","","","","","","","","","","","","","","","","","","",""
"d3-animate-choice","61","408535","0.0-61.0-0.0","421","695","19","Female","false","false","true","true","""event"",""trial"",""time""
""fullscreenenter"",""5"",""19620""
","
","
","""event"",""trial"",""time""
""fullscreenenter"",""5"",""19620""
","
","766.1999999880791","","49","","","3000","1","","","images/earth.jpg","images/tutrocket1","images/tutrocket2","null","images/tutrocket2","","1","practice","null","1","","",""
"d3-animate-choice","62","411978","0.0-61.0-1.0","421","695","19","Female","false","false","true","true","""event"",""trial"",""time""
""fullscreenenter"",""5"",""19620""
","
","
","""event"",""trial"",""time""
""fullscreenenter"",""5"",""19620""
","
","1436.199999988079","","49","","","3000","1","","","images/tutyellowplanet.jpg","images/tutalien4","images/tutalien3","images/tutrocket2","images/tutalien3","images/nothing.png","2","practice","false","1","rare","0","2022-02-17 01:00:01.511"
"two-step-fixation","63","412984","0.0-61.0-2.0","421","695","19","Female","false","false","true","true","""event"",""trial"",""time""
""fullscreenenter"",""5"",""19620""
","
","
","""event"",""trial"",""time""
""fullscreenenter"",""5"",""19620""
","
","","images/earth.jpg","","","","","","","","","","","","","","fixation","","","","","",""
"d3-animate-choice","64","415829","0.0-61.0-0.1","421","695","19","Female","false","false","true","true","""event"",""trial"",""time""
""fullscreenenter"",""5"",""19620""
","
","
","""event"",""trial"",""time""
""fullscreenenter"",""5"",""19620""
","
","830","","49","","","3000","1","","","images/earth.jpg","images/tutrocket1","images/tutrocket2","null","images/tutrocket2","","1","practice","null","1","","",""
"d3-animate-choice","65","419111","0.0-61.0-1.1","421","695","19","Female","false","false","true","true","""event"",""trial"",""time""
""fullscreenenter"",""5"",""19620""
","
","
","""event"",""trial"",""time""
""fullscreenenter"",""5"",""19620""
","
","1278.800000011921","","49","","","3000","1","","","images/tutgreenplanet.jpg","images/tutalien2","images/tutalien1","images/tutrocket2","images/tutalien1","images/t.png","2","practice","true","1","common","1","2022-02-17 01:00:08.643"
"two-step-fixation","66","420115","0.0-61.0-2.1","421","695","19","Female","false","false","true","true","""event"",""trial"",""time""
""fullscreenenter"",""5"",""19620""
","
","
","""event"",""trial"",""time""
""fullscreenenter"",""5"",""19620""
","
","","images/earth.jpg","","","","","","","","","","","","","","fixation","","","","","",""
"d3-animate-choice","67","423567","0.0-61.0-0.2","421","695","19","Female","false","false","true","true","""event"",""trial"",""time""
""fullscreenenter"",""5"",""19620""
","
","
","""event"",""trial"",""time""
""fullscreenenter"",""5"",""19620""
","
","1433.800000011921","","48","","","3000","1","","","images/earth.jpg","images/tutrocket1","images/tutrocket2","null","images/tutrocket1","","1","practice","null","2","","",""
"d3-animate-choice","68","426618","0.0-61.0-1.2","421","695","19","Female","false","false","true","true","""event"",""trial"",""time""
""fullscreenenter"",""5"",""19620""
","
","
","""event"",""trial"",""time""
""fullscreenenter"",""5"",""19620""
","
","1042.2999999821186","","49","","","3000","1","","","images/tutgreenplanet.jpg","images/tutalien2","images/tutalien1","images/tutrocket1","images/tutalien1","images/nothing.png","2","practice","false","1","rare","0","2022-02-17 01:00:16.150"
"two-step-fixation","69","427625","0.0-61.0-2.2","421","695","19","Female","false","false","true","true","""event"",""trial"",""time""
""fullscreenenter"",""5"",""19620""
","
","
","""event"",""trial"",""time""
""fullscreenenter"",""5"",""19620""
","
","","images/earth.jpg","","","","","","","","","","","","","","fixation","","","","","",""
"d3-animate-choice","70","430785","0.0-61.0-0.3","421","695","19","Female","false","false","true","true","""event"",""trial"",""time""
""fullscreenenter"",""5"",""19620""
","
","
","""event"",""trial"",""time""
""fullscreenenter"",""5"",""19620""
","
","1138.800000011921","","48","","","3000","1","","","images/earth.jpg","images/tutrocket1","images/tutrocket2","null","images/tutrocket1","","1","practice","null","2","","",""
"d3-animate-choice","71","434097","0.0-61.0-1.3","421","695","19","Female","false","false","true","true","""event"",""trial"",""time""
""fullscreenenter"",""5"",""19620""
","
","
","""event"",""trial"",""time""
""fullscreenenter"",""5"",""19620""
","
","1307.4000000059605","","48","","","3000","1","","","images/tutyellowplanet.jpg","images/tutalien4","images/tutalien3","images/tutrocket1","images/tutalien4","images/t.png","2","practice","true","2","common","1","2022-02-17 01:00:23.629"
"two-step-fixation","72","435101","0.0-61.0-2.3","421","695","19","Female","false","false","true","true","""event"",""trial"",""time""
""fullscreenenter"",""5"",""19620""
","
","
","""event"",""trial"",""time""
""fullscreenenter"",""5"",""19620""
","
","","images/earth.jpg","","","","","","","","","","","","","","fixation","","","","","",""
"d3-animate-choice","73","438258","0.0-61.0-0.4","421","695","19","Female","false","false","true","true","""event"",""trial"",""time""
""fullscreenenter"",""5"",""19620""
","
","
","""event"",""trial"",""time""
""fullscreenenter"",""5"",""19620""
","
","1153.7000000178814","","49","","","3000","1","","","images/earth.jpg","images/tutrocket1","images/tutrocket2","null","images/tutrocket2","","1","practice","null","1","","",""
"d3-animate-choice","74","441235","0.0-61.0-1.4","421","695","19","Female","false","false","true","true","""event"",""trial"",""time""
""fullscreenenter"",""5"",""19620""
","
","
","""event"",""trial"",""time""
""fullscreenenter"",""5"",""19620""
","
","973.2999999821186","","48","","","3000","1","","","images/tutgreenplanet.jpg","images/tutalien2","images/tutalien1","images/tutrocket2","images/tutalien2","images/nothing.png","2","practice","true","2","common","0","2022-02-17 01:00:30.767"
"two-step-fixation","75","442239","0.0-61.0-2.4","421","695","19","Female","false","false","true","true","""event"",""trial"",""time""
""fullscreenenter"",""5"",""19620""
","
","
","""event"",""trial"",""time""
""fullscreenenter"",""5"",""19620""
","
","","images/earth.jpg","","","","","","","","","","","","","","fixation","","","","","",""
"d3-animate-choice","76","445315","0.0-61.0-0.5","421","695","19","Female","false","false","true","true","""event"",""trial"",""time""
""fullscreenenter"",""5"",""19620""
","
","
","""event"",""trial"",""time""
""fullscreenenter"",""5"",""19620""
","
","1072.5999999940395","","48","","","3000","1","","","images/earth.jpg","images/tutrocket1","images/tutrocket2","null","images/tutrocket1","","1","practice","null","2","","",""
"d3-animate-choice","77","448398","0.0-61.0-1.5","421","695","19","Female","false","false","true","true","""event"",""trial"",""time""
""fullscreenenter"",""5"",""19620""
","
","
","""event"",""trial"",""time""
""fullscreenenter"",""5"",""19620""
","
","1078.7999999821186","","48","","","3000","1","","","images/tutyellowplanet.jpg","images/tutalien4","images/tutalien3","images/tutrocket1","images/tutalien4","images/nothing.png","2","practice","true","2","common","0","2022-02-17 01:00:37.930"
"two-step-fixation","78","449402","0.0-61.0-2.5","421","695","19","Female","false","false","true","true","""event"",""trial"",""time""
""fullscreenenter"",""5"",""19620""
","
","
","""event"",""trial"",""time""
""fullscreenenter"",""5"",""19620""
","
","","images/earth.jpg","","","","","","","","","","","","","","fixation","","","","","",""
"d3-animate-choice","79","452534","0.0-61.0-0.6","421","695","19","Female","false","false","true","true","""event"",""trial"",""time""
""fullscreenenter"",""5"",""19620""
","
","
","""event"",""trial"",""time""
""fullscreenenter"",""5"",""19620""
","
","1127.800000011921","","48","","","3000","1","","","images/earth.jpg","images/tutrocket1","images/tutrocket2","null","images/tutrocket1","","1","practice","null","2","","",""
"d3-animate-choice","80","454987","0.0-61.0-1.6","421","695","19","Female","false","false","true","true","""event"",""trial"",""time""
""fullscreenenter"",""5"",""19620""
","
","
","""event"",""trial"",""time""
""fullscreenenter"",""5"",""19620""
","
","450.2000000178814","","49","","","3000","1","","","images/tutyellowplanet.jpg","images/tutalien4","images/tutalien3","images/tutrocket1","images/tutalien3","images/nothing.png","2","practice","true","1","common","0","2022-02-17 01:00:44.519"
"two-step-fixation","81","455990","0.0-61.0-2.6","421","695","19","Female","false","false","true","true","""event"",""trial"",""time""
""fullscreenenter"",""5"",""19620""
","
","
","""event"",""trial"",""time""
""fullscreenenter"",""5"",""19620""
","
","","images/earth.jpg","","","","","","","","","","","","","","fixation","","","","","",""
"d3-animate-choice","82","459193","0.0-61.0-0.7","421","695","19","Female","false","false","true","true","""event"",""trial"",""time""
""fullscreenenter"",""5"",""19620""
","
","
","""event"",""trial"",""time""
""fullscreenenter"",""5"",""19620""
","
","1198.7000000178814","","49","","","3000","1","","","images/earth.jpg","images/tutrocket1","images/tutrocket2","null","images/tutrocket2","","1","practice","null","1","","",""
"d3-animate-choice","83","462114","0.0-61.0-1.7","421","695","19","Female","false","false","true","true","""event"",""trial"",""time""
""fullscreenenter"",""5"",""19620""
","
","
","""event"",""trial"",""time""
""fullscreenenter"",""5"",""19620""
","
","917.3000000119209","","49","","","3000","1","","","images/tutgreenplanet.jpg","images/tutalien2","images/tutalien1","images/tutrocket2","images/tutalien1","images/nothing.png","2","practice","true","1","common","0","2022-02-17 01:00:51.646"
"two-step-fixation","84","463117","0.0-61.0-2.7","421","695","19","Female","false","false","true","true","""event"",""trial"",""time""
""fullscreenenter"",""5"",""19620""
","
","
","""event"",""trial"",""time""
""fullscreenenter"",""5"",""19620""
","
","","images/earth.jpg","","","","","","","","","","","","","","fixation","","","","","",""
"d3-animate-choice","85","465475","0.0-61.0-0.8","421","695","19","Female","false","false","true","true","""event"",""trial"",""time""
""fullscreenenter"",""5"",""19620""
","
","
","""event"",""trial"",""time""
""fullscreenenter"",""5"",""19620""
","
","353.59999999403954","","49","","","3000","1","","","images/earth.jpg","images/tutrocket1","images/tutrocket2","null","images/tutrocket2","","1","practice","null","1","","",""
"d3-animate-choice","86","468073","0.0-61.0-1.8","421","695","19","Female","false","false","true","true","""event"",""trial"",""time""
""fullscreenenter"",""5"",""19620""
","
","
","""event"",""trial"",""time""
""fullscreenenter"",""5"",""19620""
","
","593.9000000059605","","48","","","3000","1","","","images/tutgreenplanet.jpg","images/tutalien2","images/tutalien1","images/tutrocket2","images/tutalien2","images/nothing.png","2","practice","true","2","common","0","2022-02-17 01:00:57.605"
"two-step-fixation","87","469077","0.0-61.0-2.8","421","695","19","Female","false","false","true","true","""event"",""trial"",""time""
""fullscreenenter"",""5"",""19620""
","
","
","""event"",""trial"",""time""
""fullscreenenter"",""5"",""19620""
","
","","images/earth.jpg","","","","","","","","","","","","","","fixation","","","","","",""
"d3-animate-choice","88","472245","0.0-61.0-0.9","421","695","19","Female","false","false","true","true","""event"",""trial"",""time""
""fullscreenenter"",""5"",""19620""
","
","
","""event"",""trial"",""time""
""fullscreenenter"",""5"",""19620""
","
","1164.800000011921","","49","","","3000","1","","","images/earth.jpg","images/tutrocket1","images/tutrocket2","null","images/tutrocket2","","1","practice","null","1","","",""
"d3-animate-choice","89","474783","0.0-61.0-1.9","421","695","19","Female","false","false","true","true","""event"",""trial"",""time""
""fullscreenenter"",""5"",""19620""
","
","
","""event"",""trial"",""time""
""fullscreenenter"",""5"",""19620""
","
","533.7999999821186","","49","","","3000","1","","","images/tutgreenplanet.jpg","images/tutalien2","images/tutalien1","images/tutrocket2","images/tutalien1","images/nothing.png","2","practice","true","1","common","0","2022-02-17 01:01:04.315"
"two-step-fixation","90","475786","0.0-61.0-2.9","421","695","19","Female","false","false","true","true","""event"",""trial"",""time""
""fullscreenenter"",""5"",""19620""
","
","
","""event"",""trial"",""time""
""fullscreenenter"",""5"",""19620""
","
","","images/earth.jpg","","","","","","","","","","","","","","fixation","","","","","",""
"d3-animate-choice","91","478115","0.0-61.0-0.10","421","695","19","Female","false","false","true","true","""event"",""trial"",""time""
""fullscreenenter"",""5"",""19620""
","
","
","""event"",""trial"",""time""
""fullscreenenter"",""5"",""19620""
","
","325.40000000596046","","49","","","3000","1","","","images/earth.jpg","images/tutrocket1","images/tutrocket2","null","images/tutrocket2","","1","practice","null","1","","",""
"d3-animate-choice","92","480594","0.0-61.0-1.10","421","695","19","Female","false","false","true","true","""event"",""trial"",""time""
""fullscreenenter"",""5"",""19620""
","
","
","""event"",""trial"",""time""
""fullscreenenter"",""5"",""19620""
","
","475.7000000178814","","48","","","3000","1","","","images/tutgreenplanet.jpg","images/tutalien2","images/tutalien1","images/tutrocket2","images/tutalien2","images/nothing.png","2","practice","true","2","common","0","2022-02-17 01:01:10.126"
"two-step-fixation","93","481597","0.0-61.0-2.10","421","695","19","Female","false","false","true","true","""event"",""trial"",""time""
""fullscreenenter"",""5"",""19620""
","
","
","""event"",""trial"",""time""
""fullscreenenter"",""5"",""19620""
","
","","images/earth.jpg","","","","","","","","","","","","","","fixation","","","","","",""
"d3-animate-choice","94","484008","0.0-61.0-0.11","421","695","19","Female","false","false","true","true","""event"",""trial"",""time""
""fullscreenenter"",""5"",""19620""
","
","
","""event"",""trial"",""time""
""fullscreenenter"",""5"",""19620""
","
","407.2000000178814","","48","","","3000","1","","","images/earth.jpg","images/tutrocket1","images/tutrocket2","null","images/tutrocket1","","1","practice","null","2","","",""
"d3-animate-choice","95","486397","0.0-61.0-1.11","421","695","19","Female","false","false","true","true","""event"",""trial"",""time""
""fullscreenenter"",""5"",""19620""
","
","
","""event"",""trial"",""time""
""fullscreenenter"",""5"",""19620""
","
","384.80000001192093","","49","","","3000","1","","","images/tutgreenplanet.jpg","images/tutalien2","images/tutalien1","images/tutrocket1","images/tutalien1","images/nothing.png","2","practice","false","1","rare","0","2022-02-17 01:01:15.929"
"two-step-fixation","96","487400","0.0-61.0-2.11","421","695","19","Female","false","false","true","true","""event"",""trial"",""time""
""fullscreenenter"",""5"",""19620""
","
","
","""event"",""trial"",""time""
""fullscreenenter"",""5"",""19620""
","
","","images/earth.jpg","","","","","","","","","","","","","","fixation","","","","","",""
"d3-animate-choice","97","489701","0.0-61.0-0.12","421","695","19","Female","false","false","true","true","""event"",""trial"",""time""
""fullscreenenter"",""5"",""19620""
","
","
","""event"",""trial"",""time""
""fullscreenenter"",""5"",""19620""
","
","297.2999999821186","","48","","","3000","1","","","images/earth.jpg","images/tutrocket1","images/tutrocket2","null","images/tutrocket1","","1","practice","null","2","","",""
"d3-animate-choice","98","492299","0.0-61.0-1.12","421","695","19","Female","false","false","true","true","""event"",""trial"",""time""
""fullscreenenter"",""5"",""19620""
","
","
","""event"",""trial"",""time""
""fullscreenenter"",""5"",""19620""
","
","596.5999999940395","","49","","","3000","1","2382","32","images/tutyellowplanet.jpg","images/tutalien4","images/tutalien3","images/tutrocket1","images/tutalien3","images/nothing.png","2","practice","true","1","common","0","2022-02-17 01:01:21.831"
"two-step-fixation","99","493302","0.0-61.0-2.12","421","695","19","Female","false","false","true","true","""event"",""trial"",""time""
""fullscreenenter"",""5"",""19620""
","
","
","""event"",""trial"",""time""
""fullscreenenter"",""5"",""19620""
","
","","images/earth.jpg","","","","","","","","","","","","","","fixation","","","","","",""
"d3-animate-choice","100","495713","0.0-61.0-0.13","421","695","19","Female","false","false","true","true","""event"",""trial"",""time""
""fullscreenenter"",""5"",""19620""
","
","
","""event"",""trial"",""time""
""fullscreenenter"",""5"",""19620""
","
","406.40000000596046","","48","","","3000","1","","","images/earth.jpg","images/tutrocket1","images/tutrocket2","null","images/tutrocket1","","1","practice","null","2","","",""
"d3-animate-choice","101","498035","0.0-61.0-1.13","421","695","19","Female","false","false","true","true","""event"",""trial"",""time""
""fullscreenenter"",""5"",""19620""
","
","
","""event"",""trial"",""time""
""fullscreenenter"",""5"",""19620""
","
","318.40000000596046","","48","","","3000","1","","","images/tutyellowplanet.jpg","images/tutalien4","images/tutalien3","images/tutrocket1","images/tutalien4","images/nothing.png","2","practice","true","2","common","0","2022-02-17 01:01:27.567"
"two-step-fixation","102","499038","0.0-61.0-2.13","421","695","19","Female","false","false","true","true","""event"",""trial"",""time""
""fullscreenenter"",""5"",""19620""
","
","
","""event"",""trial"",""time""
""fullscreenenter"",""5"",""19620""
","
","","images/earth.jpg","","","","","","","","","","","","","","fixation","","","","","",""
"d3-animate-choice","103","501511","0.0-61.0-0.14","421","695","19","Female","false","false","true","true","""event"",""trial"",""time""
""fullscreenenter"",""5"",""19620""
","
","
","""event"",""trial"",""time""
""fullscreenenter"",""5"",""19620""
","
","471","","48","","","3000","1","","","images/earth.jpg","images/tutrocket1","images/tutrocket2","null","images/tutrocket1","","1","practice","null","2","","",""
"d3-animate-choice","104","503932","0.0-61.0-1.14","421","695","19","Female","false","false","true","true","""event"",""trial"",""time""
""fullscreenenter"",""5"",""19620""
","
","
","""event"",""trial"",""time""
""fullscreenenter"",""5"",""19620""
","
","417.5","","48","","","3000","1","","","images/tutgreenplanet.jpg","images/tutalien2","images/tutalien1","images/tutrocket1","images/tutalien2","images/nothing.png","2","practice","false","2","rare","0","2022-02-17 01:01:33.464"
"two-step-fixation","105","504936","0.0-61.0-2.14","421","695","19","Female","false","false","true","true","""event"",""trial"",""time""
""fullscreenenter"",""5"",""19620""
","
","
","""event"",""trial"",""time""
""fullscreenenter"",""5"",""19620""
","
","","images/earth.jpg","","","","","","","","","","","","","","fixation","","","","","",""
"d3-animate-choice","106","507354","0.0-61.0-0.15","421","695","19","Female","false","false","true","true","""event"",""trial"",""time""
""fullscreenenter"",""5"",""19620""
","
","
","""event"",""trial"",""time""
""fullscreenenter"",""5"",""19620""
","
","413.40000000596046","","48","","","3000","1","","","images/earth.jpg","images/tutrocket1","images/tutrocket2","null","images/tutrocket1","","1","practice","null","2","","",""
"d3-animate-choice","107","509817","0.0-61.0-1.15","421","695","19","Female","false","false","true","true","""event"",""trial"",""time""
""fullscreenenter"",""5"",""19620""
","
","
","""event"",""trial"",""time""
""fullscreenenter"",""5"",""19620""
","
","456.40000000596046","","48","","","3000","1","","","images/tutyellowplanet.jpg","images/tutalien4","images/tutalien3","images/tutrocket1","images/tutalien4","images/nothing.png","2","practice","true","2","common","0","2022-02-17 01:01:39.349"
"two-step-fixation","108","510821","0.0-61.0-2.15","421","695","19","Female","false","false","true","true","""event"",""trial"",""time""
""fullscreenenter"",""5"",""19620""
","
","
","""event"",""trial"",""time""
""fullscreenenter"",""5"",""19620""
","
","","images/earth.jpg","","","","","","","","","","","","","","fixation","","","","","",""
"d3-animate-choice","109","513153","0.0-61.0-0.16","421","695","19","Female","false","false","true","true","""event"",""trial"",""time""
""fullscreenenter"",""5"",""19620""
","
","
","""event"",""trial"",""time""
""fullscreenenter"",""5"",""19620""
","
","327.09999999403954","","48","","","3000","1","","","images/earth.jpg","images/tutrocket1","images/tutrocket2","null","images/tutrocket1","","1","practice","null","2","","",""
"d3-animate-choice","110","515619","0.0-61.0-1.16","421","695","19","Female","false","false","true","true","""event"",""trial"",""time""
""fullscreenenter"",""5"",""19620""
","
","
","""event"",""trial"",""time""
""fullscreenenter"",""5"",""19620""
","
","463.69999998807907","","49","","","3000","1","","","images/tutgreenplanet.jpg","images/tutalien2","images/tutalien1","images/tutrocket1","images/tutalien1","images/nothing.png","2","practice","false","1","rare","0","2022-02-17 01:01:45.151"
"two-step-fixation","111","516623","0.0-61.0-2.16","421","695","19","Female","false","false","true","true","""event"",""trial"",""time""
""fullscreenenter"",""5"",""19620""
","
","
","""event"",""trial"",""time""
""fullscreenenter"",""5"",""19620""
","
","","images/earth.jpg","","","","","","","","","","","","","","fixation","","","","","",""
"d3-animate-choice","112","518927","0.0-61.0-0.17","421","695","19","Female","false","false","true","true","""event"",""trial"",""time""
""fullscreenenter"",""5"",""19620""
","
","
","""event"",""trial"",""time""
""fullscreenenter"",""5"",""19620""
","
","300.30000001192093","","49","","","3000","1","","","images/earth.jpg","images/tutrocket1","images/tutrocket2","null","images/tutrocket2","","1","practice","null","1","","",""
"d3-animate-choice","113","521390","0.0-61.0-1.17","421","695","19","Female","false","false","true","true","""event"",""trial"",""time""
""fullscreenenter"",""5"",""19620""
","
","
","""event"",""trial"",""time""
""fullscreenenter"",""5"",""19620""
","
","459.80000001192093","","48","","","3000","1","","","images/tutgreenplanet.jpg","images/tutalien2","images/tutalien1","images/tutrocket2","images/tutalien2","images/nothing.png","2","practice","true","2","common","0","2022-02-17 01:01:50.922"
"two-step-fixation","114","522393","0.0-61.0-2.17","421","695","19","Female","false","false","true","true","""event"",""trial"",""time""
""fullscreenenter"",""5"",""19620""
","
","
","""event"",""trial"",""time""
""fullscreenenter"",""5"",""19620""
","
","","images/earth.jpg","","","","","","","","","","","","","","fixation","","","","","",""
"d3-animate-choice","115","524708","0.0-61.0-0.18","421","695","19","Female","false","false","true","true","""event"",""trial"",""time""
""fullscreenenter"",""5"",""19620""
","
","
","""event"",""trial"",""time""
""fullscreenenter"",""5"",""19620""
","
","311.09999999403954","","49","","","3000","1","","","images/earth.jpg","images/tutrocket1","images/tutrocket2","null","images/tutrocket2","","1","practice","null","1","","",""
"d3-animate-choice","116","527475","0.0-61.0-1.18","421","695","19","Female","false","false","true","true","""event"",""trial"",""time""
""fullscreenenter"",""5"",""19620""
","
","
","""event"",""trial"",""time""
""fullscreenenter"",""5"",""19620""
","
","763.2999999821186","","49","","","3000","1","","","images/tutyellowplanet.jpg","images/tutalien4","images/tutalien3","images/tutrocket2","images/tutalien3","images/nothing.png","2","practice","false","1","rare","0","2022-02-17 01:01:57.007"
"two-step-fixation","117","528479","0.0-61.0-2.18","421","695","19","Female","false","false","true","true","""event"",""trial"",""time""
""fullscreenenter"",""5"",""19620""
","
","
","""event"",""trial"",""time""
""fullscreenenter"",""5"",""19620""
","
","","images/earth.jpg","","","","","","","","","","","","","","fixation","","","","","",""
"d3-animate-choice","118","530974","0.0-61.0-0.19","421","695","19","Female","false","false","true","true","""event"",""trial"",""time""
""fullscreenenter"",""5"",""19620""
","
","
","""event"",""trial"",""time""
""fullscreenenter"",""5"",""19620""
","
","491.7000000178814","","49","","","3000","1","","","images/earth.jpg","images/tutrocket1","images/tutrocket2","null","images/tutrocket2","","1","practice","null","1","","",""
"d3-animate-choice","119","533363","0.0-61.0-1.19","421","695","19","Female","false","false","true","true","""event"",""trial"",""time""
""fullscreenenter"",""5"",""19620""
","
","
","""event"",""trial"",""time""
""fullscreenenter"",""5"",""19620""
","
","384.90000000596046","","49","","","3000","1","","","images/tutyellowplanet.jpg","images/tutalien4","images/tutalien3","images/tutrocket2","images/tutalien3","images/t.png","2","practice","false","1","rare","1","2022-02-17 01:02:02.895"
"two-step-fixation","120","534367","0.0-61.0-2.19","421","695","19","Female","false","false","true","true","""event"",""trial"",""time""
""fullscreenenter"",""5"",""19620""
","
","
","""event"",""trial"",""time""
""fullscreenenter"",""5"",""19620""
","
","","images/earth.jpg","","","","","","","","","","","","","","fixation","","","","","",""
"d3-instructions","121","537838","0.0-62.0","421","695","19","Female","false","false","true","true","""event"",""trial"",""time""
""fullscreenenter"",""5"",""19620""
","
","
","""event"",""trial"",""time""
""fullscreenenter"",""5"",""19620""
","
","","","","","","","","","","","","","","","","","","","","","",""
"audio-keyboard-response","122","540573","0.0-63.0","421","695","19","Female","false","false","true","true","""event"",""trial"",""time""
""fullscreenenter"",""5"",""19620""
","
","
","""event"",""trial"",""time""
""fullscreenenter"",""5"",""19620""
","
","2728","audio/instructions/treasure_feedback.wav","32","","","","","","","","","","","","","","","","","","",""
"d3-instructions","123","548311","0.0-64.0","421","695","19","Female","false","false","true","true","""event"",""trial"",""time""
""fullscreenenter"",""5"",""19620""
","
","
","""event"",""trial"",""time""
""fullscreenenter"",""5"",""19620""
","
","","","","","","","","","","","","","","","","","","","","","",""
"d3-instructions","124","562674","0.0-65.0","421","695","19","Female","false","false","true","true","""event"",""trial"",""time""
""fullscreenenter"",""5"",""19620""
","
","
","""event"",""trial"",""time""
""fullscreenenter"",""5"",""19620""
","
","","","","","","","","","","","","","","","","","","","","","",""
"d3-instructions","125","587633","0.0-66.0","421","695","19","Female","false","false","true","true","""event"",""trial"",""time""
""fullscreenenter"",""5"",""19620""
","
","
","""event"",""trial"",""time""
""fullscreenenter"",""5"",""19620""
","
","","","","","","","","","","","","","","","","","","","","","",""
"d3-instructions","126","604505","0.0-67.0","421","695","19","Female","false","false","true","true","""event"",""trial"",""time""
""fullscreenenter"",""5"",""19620""
","
","
","""event"",""trial"",""time""
""fullscreenenter"",""5"",""19620""
","
","","","","","","","","","","","","","","","","","","","","","",""
"d3-instructions","127","607137","0.0-68.0","421","695","19","Female","false","false","true","true","""event"",""trial"",""time""
""fullscreenenter"",""5"",""19620""
","
","
","""event"",""trial"",""time""
""fullscreenenter"",""5"",""19620""
","
","","","","","","","","","","","","","","","","","","","","","",""
"instructions-quiz","128","610996","0.0-69.0","421","695","19","Female","false","false","true","true","""event"",""trial"",""time""
""fullscreenenter"",""5"",""19620""
","
","
","""event"",""trial"",""time""
""fullscreenenter"",""5"",""19620""
","
","3856.800000011921","audio/quiz/Q1_Prompt.wav","","1","","","","","","","","","","","","","","","","","",""
"audio-keyboard-response","129","612057","0.0-70.0","421","695","19","Female","false","false","true","true","""event"",""trial"",""time""
""fullscreenenter"",""5"",""19620""
","
","
","""event"",""trial"",""time""
""fullscreenenter"",""5"",""19620""
","
","1056","audio/quiz/Q1_Correct.wav","32","","","","","","","","","","","","","","","","","","",""
"instructions-quiz","130","616509","0.0-71.0","421","695","19","Female","false","false","true","true","""event"",""trial"",""time""
""fullscreenenter"",""5"",""19620""
","
","
","""event"",""trial"",""time""
""fullscreenenter"",""5"",""19620""
","
","4451.5","audio/quiz/Q2_Prompt.wav","","0","","","","","","","","","","","","","","","","","",""
"audio-keyboard-response","131","617278","0.0-72.0","421","695","19","Female","false","false","true","true","""event"",""trial"",""time""
""fullscreenenter"",""5"",""19620""
","
","
","""event"",""trial"",""time""
""fullscreenenter"",""5"",""19620""
","
","771","audio/quiz/Q2_Correct.wav","32","","","","","","","","","","","","","","","","","","",""
"instructions-quiz","132","620030","0.0-73.0","421","695","19","Female","false","false","true","true","""event"",""trial"",""time""
""fullscreenenter"",""5"",""19620""
","
","
","""event"",""trial"",""time""
""fullscreenenter"",""5"",""19620""
","
","2750.5","audio/quiz/Q3_Prompt.wav","","1","","","","","","","","","","","","","","","","","",""
"audio-keyboard-response","133","620868","0.0-74.0","421","695","19","Female","false","false","true","true","""event"",""trial"",""time""
""fullscreenenter"",""5"",""19620""
","
","
","""event"",""trial"",""time""
""fullscreenenter"",""5"",""19620""
","
","840","audio/quiz/Q3_Correct.wav","32","","","","","","","","","","","","","","","","","","",""
"d3-instructions","134","629072","0.0-75.0","421","695","19","Female","false","false","true","true","""event"",""trial"",""time""
""fullscreenenter"",""5"",""19620""
","
","
","""event"",""trial"",""time""
""fullscreenenter"",""5"",""19620""
","
","","","","","","","","","","","","","","","","","","","","","",""
"d3-animate-choice","135","632520","0.0-76.0-0.0","421","695","19","Female","false","false","true","true","""event"",""trial"",""time""
""fullscreenenter"",""5"",""19620""
","
","
","""event"",""trial"",""time""
""fullscreenenter"",""5"",""19620""
","
","1443.199999988079","","49","","","3000","1","2779.0999999940395","32","images/earth.jpg","images/rocket1","images/rocket2","null","images/rocket2","","1","real","null","1","","",""
"d3-animate-choice","136","635507","0.0-76.0-1.0","421","695","19","Female","false","false","true","true","""event"",""trial"",""time""
""fullscreenenter"",""5"",""19620""
","
","
","""event"",""trial"",""time""
""fullscreenenter"",""5"",""19620""
","
","984.5999999940395","","49","","","3000","1","","","images/redplanet1.jpg","images/alien2","images/alien1","images/rocket2","images/alien1","images/nothing.png","2","real","true","1","common","0","2022-02-17 01:03:45.039"
"two-step-fixation","137","636512","0.0-76.0-2.0","421","695","19","Female","false","false","true","true","""event"",""trial"",""time""
""fullscreenenter"",""5"",""19620""
","
","
","""event"",""trial"",""time""
""fullscreenenter"",""5"",""19620""
","
","","images/earth.jpg","","","","","","","","","","","","","","fixation","","","","","",""
"d3-animate-choice","138","638962","0.0-76.0-0.1","421","695","19","Female","false","false","true","true","""event"",""trial"",""time""
""fullscreenenter"",""5"",""19620""
","
","
","""event"",""trial"",""time""
""fullscreenenter"",""5"",""19620""
","
","440.59999999403954","","49","","","3000","1","","","images/earth.jpg","images/rocket1","images/rocket2","null","images/rocket2","","1","real","null","1","","",""
"d3-animate-choice","139","641907","0.0-76.0-1.1","421","695","19","Female","false","false","true","true","""event"",""trial"",""time""
""fullscreenenter"",""5"",""19620""
","
","
","""event"",""trial"",""time""
""fullscreenenter"",""5"",""19620""
","
","938.4000000059605","","48","","","3000","1","","","images/redplanet1.jpg","images/alien2","images/alien1","images/rocket2","images/alien2","images/t.png","2","real","true","2","common","1","2022-02-17 01:03:51.439"
"two-step-fixation","140","642921","0.0-76.0-2.1","421","695","19","Female","false","false","true","true","""event"",""trial"",""time""
""fullscreenenter"",""5"",""19620""
","
","
","""event"",""trial"",""time""
""fullscreenenter"",""5"",""19620""
","
","","images/earth.jpg","","","","","","","","","","","","","","fixation","","","","","",""
"d3-animate-choice","141","646087","0.0-76.0-0.2","421","695","19","Female","false","false","true","true","""event"",""trial"",""time""
""fullscreenenter"",""5"",""19620""
","
","
","""event"",""trial"",""time""
""fullscreenenter"",""5"",""19620""
","
","1160.5999999940395","","49","","","3000","1","","","images/earth.jpg","images/rocket1","images/rocket2","null","images/rocket2","","1","real","null","1","","",""
"d3-animate-choice","142","648667","0.0-76.0-1.2","421","695","19","Female","false","false","true","true","""event"",""trial"",""time""
""fullscreenenter"",""5"",""19620""
","
","
","""event"",""trial"",""time""
""fullscreenenter"",""5"",""19620""
","
","573.3000000119209","","48","","","3000","1","","","images/redplanet1.jpg","images/alien2","images/alien1","images/rocket2","images/alien2","images/nothing.png","2","real","true","2","common","0","2022-02-17 01:03:58.199"
"two-step-fixation","143","649672","0.0-76.0-2.2","421","695","19","Female","false","false","true","true","""event"",""trial"",""time""
""fullscreenenter"",""5"",""19620""
","
","
","""event"",""trial"",""time""
""fullscreenenter"",""5"",""19620""
","
","","images/earth.jpg","","","","","","","","","","","","","","fixation","","","","","",""
"d3-animate-choice","144","652077","0.0-76.0-0.3","421","695","19","Female","false","false","true","true","""event"",""trial"",""time""
""fullscreenenter"",""5"",""19620""
","
","
","""event"",""trial"",""time""
""fullscreenenter"",""5"",""19620""
","
","386.7999999821186","","49","","","3000","1","","","images/earth.jpg","images/rocket1","images/rocket2","null","images/rocket2","","1","real","null","1","","",""
"d3-animate-choice","145","654764","0.0-76.0-1.3","421","695","19","Female","false","false","true","true","""event"",""trial"",""time""
""fullscreenenter"",""5"",""19620""
","
","
","""event"",""trial"",""time""
""fullscreenenter"",""5"",""19620""
","
","685","","48","","","3000","1","","","images/redplanet1.jpg","images/alien2","images/alien1","images/rocket2","images/alien2","images/t.png","2","real","true","2","common","1","2022-02-17 01:04:04.297"
"two-step-fixation","146","655769","0.0-76.0-2.3","421","695","19","Female","false","false","true","true","""event"",""trial"",""time""
""fullscreenenter"",""5"",""19620""
","
","
","""event"",""trial"",""time""
""fullscreenenter"",""5"",""19620""
","
","","images/earth.jpg","","","","","","","","","","","","","","fixation","","","","","",""
"d3-animate-choice","147","658425","0.0-76.0-0.4","421","695","19","Female","false","false","true","true","""event"",""trial"",""time""
""fullscreenenter"",""5"",""19620""
","
","
","""event"",""trial"",""time""
""fullscreenenter"",""5"",""19620""
","
","652.4000000059605","","49","","","3000","1","","","images/earth.jpg","images/rocket1","images/rocket2","null","images/rocket2","","1","real","null","1","","",""
"d3-animate-choice","148","660900","0.0-76.0-1.4","421","695","19","Female","false","false","true","true","""event"",""trial"",""time""
""fullscreenenter"",""5"",""19620""
","
","
","""event"",""trial"",""time""
""fullscreenenter"",""5"",""19620""
","
","472","","48","","","3000","1","","","images/redplanet1.jpg","images/alien2","images/alien1","images/rocket2","images/alien2","images/nothing.png","2","real","true","2","common","0","2022-02-17 01:04:10.432"
"two-step-fixation","149","661905","0.0-76.0-2.4","421","695","19","Female","false","false","true","true","""event"",""trial"",""time""
""fullscreenenter"",""5"",""19620""
","
","
","""event"",""trial"",""time""
""fullscreenenter"",""5"",""19620""
","
","","images/earth.jpg","","","","","","","","","","","","","","fixation","","","","","",""
"d3-animate-choice","150","664450","0.0-76.0-0.5","421","695","19","Female","false","false","true","true","""event"",""trial"",""time""
""fullscreenenter"",""5"",""19620""
","
","
","""event"",""trial"",""time""
""fullscreenenter"",""5"",""19620""
","
","541","","49","","","3000","1","","","images/earth.jpg","images/rocket1","images/rocket2","null","images/rocket2","","1","real","null","1","","",""
"d3-animate-choice","151","666879","0.0-76.0-1.5","421","695","19","Female","false","false","true","true","""event"",""trial"",""time""
""fullscreenenter"",""5"",""19620""
","
","
","""event"",""trial"",""time""
""fullscreenenter"",""5"",""19620""
","
","423.10000002384186","","48","","","3000","1","","","images/redplanet1.jpg","images/alien2","images/alien1","images/rocket2","images/alien2","images/nothing.png","2","real","true","2","common","0","2022-02-17 01:04:16.411"
"two-step-fixation","152","667882","0.0-76.0-2.5","421","695","19","Female","false","false","true","true","""event"",""trial"",""time""
""fullscreenenter"",""5"",""19620""
","
","
","""event"",""trial"",""time""
""fullscreenenter"",""5"",""19620""
","
","","images/earth.jpg","","","","","","","","","","","","","","fixation","","","","","",""
"d3-animate-choice","153","670670","0.0-76.0-0.6","421","695","19","Female","false","false","true","true","""event"",""trial"",""time""
""fullscreenenter"",""5"",""19620""
","
","
","""event"",""trial"",""time""
""fullscreenenter"",""5"",""19620""
","
","783.4000000059605","","48","","","3000","1","","","images/earth.jpg","images/rocket1","images/rocket2","null","images/rocket1","","1","real","null","2","","",""
"d3-animate-choice","154","673326","0.0-76.0-1.6","421","695","19","Female","false","false","true","true","""event"",""trial"",""time""
""fullscreenenter"",""5"",""19620""
","
","
","""event"",""trial"",""time""
""fullscreenenter"",""5"",""19620""
","
","653.3999999761581","","49","","","3000","1","","","images/purpleplanet.jpg","images/alien4","images/alien3","images/rocket1","images/alien3","images/t.png","2","real","true","1","common","1","2022-02-17 01:04:22.858"
"two-step-fixation","155","674331","0.0-76.0-2.6","421","695","19","Female","false","false","true","true","""event"",""trial"",""time""
""fullscreenenter"",""5"",""19620""
","
","
","""event"",""trial"",""time""
""fullscreenenter"",""5"",""19620""
","
","","images/earth.jpg","","","","","","","","","","","","","","fixation","","","","","",""
"d3-animate-choice","156","676717","0.0-76.0-0.7","421","695","19","Female","false","false","true","true","""event"",""trial"",""time""
""fullscreenenter"",""5"",""19620""
","
","
","""event"",""trial"",""time""
""fullscreenenter"",""5"",""19620""
","
","382.5","","48","","","3000","1","","","images/earth.jpg","images/rocket1","images/rocket2","null","images/rocket1","","1","real","null","2","","",""
"d3-animate-choice","157","679200","0.0-76.0-1.7","421","695","19","Female","false","false","true","true","""event"",""trial"",""time""
""fullscreenenter"",""5"",""19620""
","
","
","""event"",""trial"",""time""
""fullscreenenter"",""5"",""19620""
","
","478.90000000596046","","49","","","3000","1","","","images/purpleplanet.jpg","images/alien4","images/alien3","images/rocket1","images/alien3","images/nothing.png","2","real","true","1","common","0","2022-02-17 01:04:28.732"
"two-step-fixation","158","680204","0.0-76.0-2.7","421","695","19","Female","false","false","true","true","""event"",""trial"",""time""
""fullscreenenter"",""5"",""19620""
","
","
","""event"",""trial"",""time""
""fullscreenenter"",""5"",""19620""
","
","","images/earth.jpg","","","","","","","","","","","","","","fixation","","","","","",""
"d3-animate-choice","159","682582","0.0-76.0-0.8","421","695","19","Female","false","false","true","true","""event"",""trial"",""time""
""fullscreenenter"",""5"",""19620""
","
","
","""event"",""trial"",""time""
""fullscreenenter"",""5"",""19620""
","
","373.90000000596046","","48","","","3000","1","","","images/earth.jpg","images/rocket1","images/rocket2","null","images/rocket1","","1","real","null","2","","",""
"d3-animate-choice","160","685023","0.0-76.0-1.8","421","695","19","Female","false","false","true","true","""event"",""trial"",""time""
""fullscreenenter"",""5"",""19620""
","
","
","""event"",""trial"",""time""
""fullscreenenter"",""5"",""19620""
","
","438.2999999821186","","49","","","3000","1","","","images/purpleplanet.jpg","images/alien4","images/alien3","images/rocket1","images/alien3","images/t.png","2","real","true","1","common","1","2022-02-17 01:04:34.556"
"two-step-fixation","161","686028","0.0-76.0-2.8","421","695","19","Female","false","false","true","true","""event"",""trial"",""time""
""fullscreenenter"",""5"",""19620""
","
","
","""event"",""trial"",""time""
""fullscreenenter"",""5"",""19620""
","
","","images/earth.jpg","","","","","","","","","","","","","","fixation","","","","","",""
"d3-animate-choice","162","688313","0.0-76.0-0.9","421","695","19","Female","false","false","true","true","""event"",""trial"",""time""
""fullscreenenter"",""5"",""19620""
","
","
","""event"",""trial"",""time""
""fullscreenenter"",""5"",""19620""
","
","280.09999999403954","","48","","","3000","1","","","images/earth.jpg","images/rocket1","images/rocket2","null","images/rocket1","","1","real","null","2","","",""
"d3-animate-choice","163","690766","0.0-76.0-1.9","421","695","19","Female","false","false","true","true","""event"",""trial"",""time""
""fullscreenenter"",""5"",""19620""
","
","
","""event"",""trial"",""time""
""fullscreenenter"",""5"",""19620""
","
","450.5","","49","","","3000","1","","","images/purpleplanet.jpg","images/alien4","images/alien3","images/rocket1","images/alien3","images/nothing.png","2","real","true","1","common","0","2022-02-17 01:04:40.298"
"two-step-fixation","164","691770","0.0-76.0-2.9","421","695","19","Female","false","false","true","true","""event"",""trial"",""time""
""fullscreenenter"",""5"",""19620""
","
","
","""event"",""trial"",""time""
""fullscreenenter"",""5"",""19620""
","
","","images/earth.jpg","","","","","","","","","","","","","","fixation","","","","","",""
"d3-animate-choice","165","694080","0.0-76.0-0.10","421","695","19","Female","false","false","true","true","""event"",""trial"",""time""
""fullscreenenter"",""5"",""19620""
","
","
","""event"",""trial"",""time""
""fullscreenenter"",""5"",""19620""
","
","306.2000000178814","","48","","","3000","1","","","images/earth.jpg","images/rocket1","images/rocket2","null","images/rocket1","","1","real","null","2","","",""
"d3-animate-choice","166","696451","0.0-76.0-1.10","421","695","19","Female","false","false","true","true","""event"",""trial"",""time""
""fullscreenenter"",""5"",""19620""
","
","
","""event"",""trial"",""time""
""fullscreenenter"",""5"",""19620""
","
","367.40000000596046","","48","","","3000","1","","","images/purpleplanet.jpg","images/alien4","images/alien3","images/rocket1","images/alien4","images/t.png","2","real","true","2","common","1","2022-02-17 01:04:45.983"
"two-step-fixation","167","697455","0.0-76.0-2.10","421","695","19","Female","false","false","true","true","""event"",""trial"",""time""
""fullscreenenter"",""5"",""19620""
","
","
","""event"",""trial"",""time""
""fullscreenenter"",""5"",""19620""
","
","","images/earth.jpg","","","","","","","","","","","","","","fixation","","","","","",""
"d3-animate-choice","168","699763","0.0-76.0-0.11","421","695","19","Female","false","false","true","true","""event"",""trial"",""time""
""fullscreenenter"",""5"",""19620""
","
","
","""event"",""trial"",""time""
""fullscreenenter"",""5"",""19620""
","
","304.5","","48","","","3000","1","","","images/earth.jpg","images/rocket1","images/rocket2","null","images/rocket1","","1","real","null","2","","",""
"d3-animate-choice","169","702117","0.0-76.0-1.11","421","695","19","Female","false","false","true","true","""event"",""trial"",""time""
""fullscreenenter"",""5"",""19620""
","
","
","""event"",""trial"",""time""
""fullscreenenter"",""5"",""19620""
","
","349.89999997615814","","48","","","3000","1","","","images/purpleplanet.jpg","images/alien4","images/alien3","images/rocket1","images/alien4","images/nothing.png","2","real","true","2","common","0","2022-02-17 01:04:51.649"
"two-step-fixation","170","703120","0.0-76.0-2.11","421","695","19","Female","false","false","true","true","""event"",""trial"",""time""
""fullscreenenter"",""5"",""19620""
","
","
","""event"",""trial"",""time""
""fullscreenenter"",""5"",""19620""
","
","","images/earth.jpg","","","","","","","","","","","","","","fixation","","","","","",""
"d3-animate-choice","171","705446","0.0-76.0-0.12","421","695","19","Female","false","false","true","true","""event"",""trial"",""time""
""fullscreenenter"",""5"",""19620""
","
","
","""event"",""trial"",""time""
""fullscreenenter"",""5"",""19620""
","
","320.90000000596046","","48","","","3000","1","","","images/earth.jpg","images/rocket1","images/rocket2","null","images/rocket1","","1","real","null","2","","",""
"d3-animate-choice","172","707887","0.0-76.0-1.12","421","695","19","Female","false","false","true","true","""event"",""trial"",""time""
""fullscreenenter"",""5"",""19620""
","
","
","""event"",""trial"",""time""
""fullscreenenter"",""5"",""19620""
","
","437.19999998807907","","48","","","3000","1","","","images/redplanet1.jpg","images/alien2","images/alien1","images/rocket1","images/alien2","images/nothing.png","2","real","false","2","rare","0","2022-02-17 01:04:57.419"
"two-step-fixation","173","708890","0.0-76.0-2.12","421","695","19","Female","false","false","true","true","""event"",""trial"",""time""
""fullscreenenter"",""5"",""19620""
","
","
","""event"",""trial"",""time""
""fullscreenenter"",""5"",""19620""
","
","","images/earth.jpg","","","","","","","","","","","","","","fixation","","","","","",""
"d3-animate-choice","174","711176","0.0-76.0-0.13","421","695","19","Female","false","false","true","true","""event"",""trial"",""time""
""fullscreenenter"",""5"",""19620""
","
","
","""event"",""trial"",""time""
""fullscreenenter"",""5"",""19620""
","
","281.10000002384186","","48","","","3000","1","","","images/earth.jpg","images/rocket1","images/rocket2","null","images/rocket1","","1","real","null","2","","",""
"d3-animate-choice","175","713635","0.0-76.0-1.13","421","695","19","Female","false","false","true","true","""event"",""trial"",""time""
""fullscreenenter"",""5"",""19620""
","
","
","""event"",""trial"",""time""
""fullscreenenter"",""5"",""19620""
","
","455.69999998807907","","48","","","3000","1","","","images/purpleplanet.jpg","images/alien4","images/alien3","images/rocket1","images/alien4","images/t.png","2","real","true","2","common","1","2022-02-17 01:05:03.167"
"two-step-fixation","176","714640","0.0-76.0-2.13","421","695","19","Female","false","false","true","true","""event"",""trial"",""time""
""fullscreenenter"",""5"",""19620""
","
","
","""event"",""trial"",""time""
""fullscreenenter"",""5"",""19620""
","
","","images/earth.jpg","","","","","","","","","","","","","","fixation","","","","","",""
"d3-animate-choice","177","716945","0.0-76.0-0.14","421","695","19","Female","false","false","true","true","""event"",""trial"",""time""
""fullscreenenter"",""5"",""19620""
","
","
","""event"",""trial"",""time""
""fullscreenenter"",""5"",""19620""
","
","303.09999999403954","","48","","","3000","1","","","images/earth.jpg","images/rocket1","images/rocket2","null","images/rocket1","","1","real","null","2","","",""
"d3-animate-choice","178","719378","0.0-76.0-1.14","421","695","19","Female","false","false","true","true","""event"",""trial"",""time""
""fullscreenenter"",""5"",""19620""
","
","
","""event"",""trial"",""time""
""fullscreenenter"",""5"",""19620""
","
","430.19999998807907","","48","","","3000","1","","","images/purpleplanet.jpg","images/alien4","images/alien3","images/rocket1","images/alien4","images/t.png","2","real","true","2","common","1","2022-02-17 01:05:08.911"
"two-step-fixation","179","720382","0.0-76.0-2.14","421","695","19","Female","false","false","true","true","""event"",""trial"",""time""
""fullscreenenter"",""5"",""19620""
","
","
","""event"",""trial"",""time""
""fullscreenenter"",""5"",""19620""
","
","","images/earth.jpg","","","","","","","","","","","","","","fixation","","","","","",""
"d3-animate-choice","180","722716","0.0-76.0-0.15","421","695","19","Female","false","false","true","true","""event"",""trial"",""time""
""fullscreenenter"",""5"",""19620""
","
","
","""event"",""trial"",""time""
""fullscreenenter"",""5"",""19620""
","
","330.30000001192093","","48","","","3000","1","","","images/earth.jpg","images/rocket1","images/rocket2","null","images/rocket1","","1","real","null","2","","",""
"d3-animate-choice","181","725134","0.0-76.0-1.15","421","695","19","Female","false","false","true","true","""event"",""trial"",""time""
""fullscreenenter"",""5"",""19620""
","
","
","""event"",""trial"",""time""
""fullscreenenter"",""5"",""19620""
","
","415.19999998807907","","48","","","3000","1","","","images/purpleplanet.jpg","images/alien4","images/alien3","images/rocket1","images/alien4","images/t.png","2","real","true","2","common","1","2022-02-17 01:05:14.666"
"two-step-fixation","182","726138","0.0-76.0-2.15","421","695","19","Female","false","false","true","true","""event"",""trial"",""time""
""fullscreenenter"",""5"",""19620""
","
","
","""event"",""trial"",""time""
""fullscreenenter"",""5"",""19620""
","
","","images/earth.jpg","","","","","","","","","","","","","","fixation","","","","","",""
"d3-animate-choice","183","728450","0.0-76.0-0.16","421","695","19","Female","false","false","true","true","""event"",""trial"",""time""
""fullscreenenter"",""5"",""19620""
","
","
","""event"",""trial"",""time""
""fullscreenenter"",""5"",""19620""
","
","307.80000001192093","","48","","","3000","1","","","images/earth.jpg","images/rocket1","images/rocket2","null","images/rocket1","","1","real","null","2","","",""
"d3-animate-choice","184","731332","0.0-76.0-1.16","421","695","19","Female","false","false","true","true","""event"",""trial"",""time""
""fullscreenenter"",""5"",""19620""
","
","
","""event"",""trial"",""time""
""fullscreenenter"",""5"",""19620""
","
","879","","49","","","3000","1","","","images/redplanet1.jpg","images/alien2","images/alien1","images/rocket1","images/alien1","images/nothing.png","2","real","false","1","rare","0","2022-02-17 01:05:20.865"
"two-step-fixation","185","732337","0.0-76.0-2.16","421","695","19","Female","false","false","true","true","""event"",""trial"",""time""
""fullscreenenter"",""5"",""19620""
","
","
","""event"",""trial"",""time""
""fullscreenenter"",""5"",""19620""
","
","","images/earth.jpg","","","","","","","","","","","","","","fixation","","","","","",""
"d3-animate-choice","186","734682","0.0-76.0-0.17","421","695","19","Female","false","false","true","true","""event"",""trial"",""time""
""fullscreenenter"",""5"",""19620""
","
","
","""event"",""trial"",""time""
""fullscreenenter"",""5"",""19620""
","
","341","","48","","","3000","1","","","images/earth.jpg","images/rocket1","images/rocket2","null","images/rocket1","","1","real","null","2","","",""
"d3-animate-choice","187","737147","0.0-76.0-1.17","421","695","19","Female","false","false","true","true","""event"",""trial"",""time""
""fullscreenenter"",""5"",""19620""
","
","
","""event"",""trial"",""time""
""fullscreenenter"",""5"",""19620""
","
","461.59999999403954","","48","","","3000","1","","","images/purpleplanet.jpg","images/alien4","images/alien3","images/rocket1","images/alien4","images/t.png","2","real","true","2","common","1","2022-02-17 01:05:26.679"
"two-step-fixation","188","738150","0.0-76.0-2.17","421","695","19","Female","false","false","true","true","""event"",""trial"",""time""
""fullscreenenter"",""5"",""19620""
","
","
","""event"",""trial"",""time""
""fullscreenenter"",""5"",""19620""
","
","","images/earth.jpg","","","","","","","","","","","","","","fixation","","","","","",""
"d3-animate-choice","189","740491","0.0-76.0-0.18","421","695","19","Female","false","false","true","true","""event"",""trial"",""time""
""fullscreenenter"",""5"",""19620""
","
","
","""event"",""trial"",""time""
""fullscreenenter"",""5"",""19620""
","
","335.80000001192093","","48","","","3000","1","","","images/earth.jpg","images/rocket1","images/rocket2","null","images/rocket1","","1","real","null","2","","",""
"d3-animate-choice","190","743621","0.0-76.0-1.18","421","695","19","Female","false","false","true","true","""event"",""trial"",""time""
""fullscreenenter"",""5"",""19620""
","
","
","""event"",""trial"",""time""
""fullscreenenter"",""5"",""19620""
","
","1126.0999999940395","","48","","","3000","1","","","images/redplanet1.jpg","images/alien2","images/alien1","images/rocket1","images/alien2","images/t.png","2","real","false","2","rare","1","2022-02-17 01:05:33.153"
"two-step-fixation","191","744625","0.0-76.0-2.18","421","695","19","Female","false","false","true","true","""event"",""trial"",""time""
""fullscreenenter"",""5"",""19620""
","
","
","""event"",""trial"",""time""
""fullscreenenter"",""5"",""19620""
","
","","images/earth.jpg","","","","","","","","","","","","","","fixation","","","","","",""
"d3-animate-choice","192","747266","0.0-76.0-0.19","421","695","19","Female","false","false","true","true","""event"",""trial"",""time""
""fullscreenenter"",""5"",""19620""
","
","
","""event"",""trial"",""time""
""fullscreenenter"",""5"",""19620""
","
","637.6999999880791","","48","","","3000","1","","","images/earth.jpg","images/rocket1","images/rocket2","null","images/rocket1","","1","real","null","2","","",""
"d3-animate-choice","193","749760","0.0-76.0-1.19","421","695","19","Female","false","false","true","true","""event"",""trial"",""time""
""fullscreenenter"",""5"",""19620""
","
","
","""event"",""trial"",""time""
""fullscreenenter"",""5"",""19620""
","
","490.40000000596046","","48","","","3000","1","","","images/purpleplanet.jpg","images/alien4","images/alien3","images/rocket1","images/alien4","images/t.png","2","real","true","2","common","1","2022-02-17 01:05:39.292"
"two-step-fixation","194","750764","0.0-76.0-2.19","421","695","19","Female","false","false","true","true","""event"",""trial"",""time""
""fullscreenenter"",""5"",""19620""
","
","
","""event"",""trial"",""time""
""fullscreenenter"",""5"",""19620""
","
","","images/earth.jpg","","","","","","","","","","","","","","fixation","","","","","",""
"d3-animate-choice","195","753060","0.0-76.0-0.20","421","695","19","Female","false","false","true","true","""event"",""trial"",""time""
""fullscreenenter"",""5"",""19620""
","
","
","""event"",""trial"",""time""
""fullscreenenter"",""5"",""19620""
","
","291.7999999821186","","48","","","3000","1","","","images/earth.jpg","images/rocket1","images/rocket2","null","images/rocket1","","1","real","null","2","","",""
"d3-animate-choice","196","755420","0.0-76.0-1.20","421","695","19","Female","false","false","true","true","""event"",""trial"",""time""
""fullscreenenter"",""5"",""19620""
","
","
","""event"",""trial"",""time""
""fullscreenenter"",""5"",""19620""
","
","356.19999998807907","","48","","","3000","1","","","images/purpleplanet.jpg","images/alien4","images/alien3","images/rocket1","images/alien4","images/t.png","2","real","true","2","common","1","2022-02-17 01:05:44.952"
"two-step-fixation","197","756422","0.0-76.0-2.20","421","695","19","Female","false","false","true","true","""event"",""trial"",""time""
""fullscreenenter"",""5"",""19620""
","
","
","""event"",""trial"",""time""
""fullscreenenter"",""5"",""19620""
","
","","images/earth.jpg","","","","","","","","","","","","","","fixation","","","","","",""
"d3-animate-choice","198","758754","0.0-76.0-0.21","421","695","19","Female","false","false","true","true","""event"",""trial"",""time""
""fullscreenenter"",""5"",""19620""
","
","
","""event"",""trial"",""time""
""fullscreenenter"",""5"",""19620""
","
","328.2000000178814","","48","","","3000","1","","","images/earth.jpg","images/rocket1","images/rocket2","null","images/rocket1","","1","real","null","2","","",""
"d3-animate-choice","199","761135","0.0-76.0-1.21","421","695","19","Female","false","false","true","true","""event"",""trial"",""time""
""fullscreenenter"",""5"",""19620""
","
","
","""event"",""trial"",""time""
""fullscreenenter"",""5"",""19620""
","
","378.5","","48","","","3000","1","","","images/purpleplanet.jpg","images/alien4","images/alien3","images/rocket1","images/alien4","images/t.png","2","real","true","2","common","1","2022-02-17 01:05:50.667"
"two-step-fixation","200","762139","0.0-76.0-2.21","421","695","19","Female","false","false","true","true","""event"",""trial"",""time""
""fullscreenenter"",""5"",""19620""
","
","
","""event"",""trial"",""time""
""fullscreenenter"",""5"",""19620""
","
","","images/earth.jpg","","","","","","","","","","","","","","fixation","","","","","",""
"d3-animate-choice","201","764393","0.0-76.0-0.22","421","695","19","Female","false","false","true","true","""event"",""trial"",""time""
""fullscreenenter"",""5"",""19620""
","
","
","""event"",""trial"",""time""
""fullscreenenter"",""5"",""19620""
","
","250.40000000596046","","48","","","3000","1","","","images/earth.jpg","images/rocket1","images/rocket2","null","images/rocket1","","1","real","null","2","","",""
"d3-animate-choice","202","766765","0.0-76.0-1.22","421","695","19","Female","false","false","true","true","""event"",""trial"",""time""
""fullscreenenter"",""5"",""19620""
","
","
","""event"",""trial"",""time""
""fullscreenenter"",""5"",""19620""
","
","368.40000000596046","","48","","","3000","1","","","images/purpleplanet.jpg","images/alien4","images/alien3","images/rocket1","images/alien4","images/nothing.png","2","real","true","2","common","0","2022-02-17 01:05:56.297"
"two-step-fixation","203","767769","0.0-76.0-2.22","421","695","19","Female","false","false","true","true","""event"",""trial"",""time""
""fullscreenenter"",""5"",""19620""
","
","
","""event"",""trial"",""time""
""fullscreenenter"",""5"",""19620""
","
","","images/earth.jpg","","","","","","","","","","","","","","fixation","","","","","",""
"d3-animate-choice","204","770146","0.0-76.0-0.23","421","695","19","Female","false","false","true","true","""event"",""trial"",""time""
""fullscreenenter"",""5"",""19620""
","
","
","""event"",""trial"",""time""
""fullscreenenter"",""5"",""19620""
","
","374","","48","","","3000","1","","","images/earth.jpg","images/rocket1","images/rocket2","null","images/rocket1","","1","real","null","2","","",""
"d3-animate-choice","205","772782","0.0-76.0-1.23","421","695","19","Female","false","false","true","true","""event"",""trial"",""time""
""fullscreenenter"",""5"",""19620""
","
","
","""event"",""trial"",""time""
""fullscreenenter"",""5"",""19620""
","
","634.0999999940395","","48","","","3000","1","","","images/purpleplanet.jpg","images/alien4","images/alien3","images/rocket1","images/alien4","images/t.png","2","real","true","2","common","1","2022-02-17 01:06:02.314"
"two-step-fixation","206","773783","0.0-76.0-2.23","421","695","19","Female","false","false","true","true","""event"",""trial"",""time""
""fullscreenenter"",""5"",""19620""
","
","
","""event"",""trial"",""time""
""fullscreenenter"",""5"",""19620""
","
","","images/earth.jpg","","","","","","","","","","","","","","fixation","","","","","",""
"d3-animate-choice","207","776122","0.0-76.0-0.24","421","695","19","Female","false","false","true","true","""event"",""trial"",""time""
""fullscreenenter"",""5"",""19620""
","
","
","""event"",""trial"",""time""
""fullscreenenter"",""5"",""19620""
","
","334.80000001192093","","48","","","3000","1","","","images/earth.jpg","images/rocket1","images/rocket2","null","images/rocket1","","1","real","null","2","","",""
"d3-animate-choice","208","778586","0.0-76.0-1.24","421","695","19","Female","false","false","true","true","""event"",""trial"",""time""
""fullscreenenter"",""5"",""19620""
","
","
","""event"",""trial"",""time""
""fullscreenenter"",""5"",""19620""
","
","460.40000000596046","","48","","","3000","1","","","images/purpleplanet.jpg","images/alien4","images/alien3","images/rocket1","images/alien4","images/t.png","2","real","true","2","common","1","2022-02-17 01:06:08.118"
"two-step-fixation","209","779590","0.0-76.0-2.24","421","695","19","Female","false","false","true","true","""event"",""trial"",""time""
""fullscreenenter"",""5"",""19620""
","
","
","""event"",""trial"",""time""
""fullscreenenter"",""5"",""19620""
","
","","images/earth.jpg","","","","","","","","","","","","","","fixation","","","","","",""
"d3-animate-choice","210","781891","0.0-76.0-0.25","421","695","19","Female","false","false","true","true","""event"",""trial"",""time""
""fullscreenenter"",""5"",""19620""
","
","
","""event"",""trial"",""time""
""fullscreenenter"",""5"",""19620""
","
","297.90000000596046","","48","","","3000","1","","","images/earth.jpg","images/rocket1","images/rocket2","null","images/rocket1","","1","real","null","2","","",""
"d3-animate-choice","211","784463","0.0-76.0-1.25","421","695","19","Female","false","false","true","true","""event"",""trial"",""time""
""fullscreenenter"",""5"",""19620""
","
","
","""event"",""trial"",""time""
""fullscreenenter"",""5"",""19620""
","
","569","","48","","","3000","1","","","images/purpleplanet.jpg","images/alien4","images/alien3","images/rocket1","images/alien4","images/t.png","2","real","true","2","common","1","2022-02-17 01:06:13.995"
"two-step-fixation","212","785468","0.0-76.0-2.25","421","695","19","Female","false","false","true","true","""event"",""trial"",""time""
""fullscreenenter"",""5"",""19620""
","
","
","""event"",""trial"",""time""
""fullscreenenter"",""5"",""19620""
","
","","images/earth.jpg","","","","","","","","","","","","","","fixation","","","","","",""
"d3-animate-choice","213","787827","0.0-76.0-0.26","421","695","19","Female","false","false","true","true","""event"",""trial"",""time""
""fullscreenenter"",""5"",""19620""
","
","
","""event"",""trial"",""time""
""fullscreenenter"",""5"",""19620""
","
","354","","48","","","3000","1","","","images/earth.jpg","images/rocket1","images/rocket2","null","images/rocket1","","1","real","null","2","","",""
"d3-animate-choice","214","790200","0.0-76.0-1.26","421","695","19","Female","false","false","true","true","""event"",""trial"",""time""
""fullscreenenter"",""5"",""19620""
","
","
","""event"",""trial"",""time""
""fullscreenenter"",""5"",""19620""
","
","369.59999999403954","","48","","","3000","1","","","images/purpleplanet.jpg","images/alien4","images/alien3","images/rocket1","images/alien4","images/t.png","2","real","true","2","common","1","2022-02-17 01:06:19.732"
"two-step-fixation","215","791204","0.0-76.0-2.26","421","695","19","Female","false","false","true","true","""event"",""trial"",""time""
""fullscreenenter"",""5"",""19620""
","
","
","""event"",""trial"",""time""
""fullscreenenter"",""5"",""19620""
","
","","images/earth.jpg","","","","","","","","","","","","","","fixation","","","","","",""
"d3-animate-choice","216","793675","0.0-76.0-0.27","421","695","19","Female","false","false","true","true","""event"",""trial"",""time""
""fullscreenenter"",""5"",""19620""
","
","
","""event"",""trial"",""time""
""fullscreenenter"",""5"",""19620""
","
","467.09999999403954","","48","","","3000","1","","","images/earth.jpg","images/rocket1","images/rocket2","null","images/rocket1","","1","real","null","2","","",""
"d3-animate-choice","217","796151","0.0-76.0-1.27","421","695","19","Female","false","false","true","true","""event"",""trial"",""time""
""fullscreenenter"",""5"",""19620""
","
","
","""event"",""trial"",""time""
""fullscreenenter"",""5"",""19620""
","
","472.7999999821186","","48","","","3000","1","","","images/purpleplanet.jpg","images/alien4","images/alien3","images/rocket1","images/alien4","images/nothing.png","2","real","true","2","common","0","2022-02-17 01:06:25.684"
"two-step-fixation","218","797155","0.0-76.0-2.27","421","695","19","Female","false","false","true","true","""event"",""trial"",""time""
""fullscreenenter"",""5"",""19620""
","
","
","""event"",""trial"",""time""
""fullscreenenter"",""5"",""19620""
","
","","images/earth.jpg","","","","","","","","","","","","","","fixation","","","","","",""
"d3-animate-choice","219","799607","0.0-76.0-0.28","421","695","19","Female","false","false","true","true","""event"",""trial"",""time""
""fullscreenenter"",""5"",""19620""
","
","
","""event"",""trial"",""time""
""fullscreenenter"",""5"",""19620""
","
","447.7999999821186","","48","","","3000","1","","","images/earth.jpg","images/rocket1","images/rocket2","null","images/rocket1","","1","real","null","2","","",""
"d3-animate-choice","220","802002","0.0-76.0-1.28","421","695","19","Female","false","false","true","true","""event"",""trial"",""time""
""fullscreenenter"",""5"",""19620""
","
","
","""event"",""trial"",""time""
""fullscreenenter"",""5"",""19620""
","
","391.5","","48","","","3000","1","","","images/purpleplanet.jpg","images/alien4","images/alien3","images/rocket1","images/alien4","images/t.png","2","real","true","2","common","1","2022-02-17 01:06:31.534"
"two-step-fixation","221","803006","0.0-76.0-2.28","421","695","19","Female","false","false","true","true","""event"",""trial"",""time""
""fullscreenenter"",""5"",""19620""
","
","
","""event"",""trial"",""time""
""fullscreenenter"",""5"",""19620""
","
","","images/earth.jpg","","","","","","","","","","","","","","fixation","","","","","",""
"d3-animate-choice","222","805651","0.0-76.0-0.29","421","695","19","Female","false","false","true","true","""event"",""trial"",""time""
""fullscreenenter"",""5"",""19620""
","
","
","""event"",""trial"",""time""
""fullscreenenter"",""5"",""19620""
","
","642.5999999940395","","48","","","3000","1","","","images/earth.jpg","images/rocket1","images/rocket2","null","images/rocket1","","1","real","null","2","","",""
"d3-animate-choice","223","807992","0.0-76.0-1.29","421","695","19","Female","false","false","true","true","""event"",""trial"",""time""
""fullscreenenter"",""5"",""19620""
","
","
","""event"",""trial"",""time""
""fullscreenenter"",""5"",""19620""
","
","337.59999999403954","","48","","","3000","1","","","images/purpleplanet.jpg","images/alien4","images/alien3","images/rocket1","images/alien4","images/t.png","2","real","true","2","common","1","2022-02-17 01:06:37.524"
"two-step-fixation","224","808996","0.0-76.0-2.29","421","695","19","Female","false","false","true","true","""event"",""trial"",""time""
""fullscreenenter"",""5"",""19620""
","
","
","""event"",""trial"",""time""
""fullscreenenter"",""5"",""19620""
","
","","images/earth.jpg","","","","","","","","","","","","","","fixation","","","","","",""
"d3-animate-choice","225","811334","0.0-76.0-0.30","421","695","19","Female","false","false","true","true","""event"",""trial"",""time""
""fullscreenenter"",""5"",""19620""
","
","
","""event"",""trial"",""time""
""fullscreenenter"",""5"",""19620""
","
","334.5","","48","","","3000","1","","","images/earth.jpg","images/rocket1","images/rocket2","null","images/rocket1","","1","real","null","2","","",""
"d3-animate-choice","226","814111","0.0-76.0-1.30","421","695","19","Female","false","false","true","true","""event"",""trial"",""time""
""fullscreenenter"",""5"",""19620""
","
","
","""event"",""trial"",""time""
""fullscreenenter"",""5"",""19620""
","
","773.0999999940395","","48","","","3000","1","","","images/redplanet1.jpg","images/alien2","images/alien1","images/rocket1","images/alien2","images/t.png","2","real","false","2","rare","1","2022-02-17 01:06:43.643"
"two-step-fixation","227","815114","0.0-76.0-2.30","421","695","19","Female","false","false","true","true","""event"",""trial"",""time""
""fullscreenenter"",""5"",""19620""
","
","
","""event"",""trial"",""time""
""fullscreenenter"",""5"",""19620""
","
","","images/earth.jpg","","","","","","","","","","","","","","fixation","","","","","",""
"d3-animate-choice","228","817579","0.0-76.0-0.31","421","695","19","Female","false","false","true","true","""event"",""trial"",""time""
""fullscreenenter"",""5"",""19620""
","
","
","""event"",""trial"",""time""
""fullscreenenter"",""5"",""19620""
","
","462.09999999403954","","48","","","3000","1","","","images/earth.jpg","images/rocket1","images/rocket2","null","images/rocket1","","1","real","null","2","","",""
"d3-animate-choice","229","820677","0.0-76.0-1.31","421","695","19","Female","false","false","true","true","""event"",""trial"",""time""
""fullscreenenter"",""5"",""19620""
","
","
","""event"",""trial"",""time""
""fullscreenenter"",""5"",""19620""
","
","1095.2999999821186","","48","","","3000","1","","","images/redplanet1.jpg","images/alien2","images/alien1","images/rocket1","images/alien2","images/t.png","2","real","false","2","rare","1","2022-02-17 01:06:50.209"
"two-step-fixation","230","821681","0.0-76.0-2.31","421","695","19","Female","false","false","true","true","""event"",""trial"",""time""
""fullscreenenter"",""5"",""19620""
","
","
","""event"",""trial"",""time""
""fullscreenenter"",""5"",""19620""
","
","","images/earth.jpg","","","","","","","","","","","","","","fixation","","","","","",""
"d3-animate-choice","231","824092","0.0-76.0-0.32","421","695","19","Female","false","false","true","true","""event"",""trial"",""time""
""fullscreenenter"",""5"",""19620""
","
","
","""event"",""trial"",""time""
""fullscreenenter"",""5"",""19620""
","
","407.5","","48","","","3000","1","","","images/earth.jpg","images/rocket1","images/rocket2","null","images/rocket1","","1","real","null","2","","",""
"d3-animate-choice","232","826599","0.0-76.0-1.32","421","695","19","Female","false","false","true","true","""event"",""trial"",""time""
""fullscreenenter"",""5"",""19620""
","
","
","""event"",""trial"",""time""
""fullscreenenter"",""5"",""19620""
","
","504","","48","","","3000","1","","","images/purpleplanet.jpg","images/alien4","images/alien3","images/rocket1","images/alien4","images/t.png","2","real","true","2","common","1","2022-02-17 01:06:56.131"
"two-step-fixation","233","827602","0.0-76.0-2.32","421","695","19","Female","false","false","true","true","""event"",""trial"",""time""
""fullscreenenter"",""5"",""19620""
","
","
","""event"",""trial"",""time""
""fullscreenenter"",""5"",""19620""
","
","","images/earth.jpg","","","","","","","","","","","","","","fixation","","","","","",""
"d3-animate-choice","234","829987","0.0-76.0-0.33","421","695","19","Female","false","false","true","true","""event"",""trial"",""time""
""fullscreenenter"",""5"",""19620""
","
","
","""event"",""trial"",""time""
""fullscreenenter"",""5"",""19620""
","
","381.90000000596046","","48","","","3000","1","","","images/earth.jpg","images/rocket1","images/rocket2","null","images/rocket1","","1","real","null","2","","",""
"d3-animate-choice","235","832485","0.0-76.0-1.33","421","695","19","Female","false","false","true","true","""event"",""trial"",""time""
""fullscreenenter"",""5"",""19620""
","
","
","""event"",""trial"",""time""
""fullscreenenter"",""5"",""19620""
","
","493.5","","48","","","3000","1","","","images/purpleplanet.jpg","images/alien4","images/alien3","images/rocket1","images/alien4","images/t.png","2","real","true","2","common","1","2022-02-17 01:07:02.017"
"two-step-fixation","236","833487","0.0-76.0-2.33","421","695","19","Female","false","false","true","true","""event"",""trial"",""time""
""fullscreenenter"",""5"",""19620""
","
","
","""event"",""trial"",""time""
""fullscreenenter"",""5"",""19620""
","
","","images/earth.jpg","","","","","","","","","","","","","","fixation","","","","","",""
"d3-animate-choice","237","835746","0.0-76.0-0.34","421","695","19","Female","false","false","true","true","""event"",""trial"",""time""
""fullscreenenter"",""5"",""19620""
","
","
","""event"",""trial"",""time""
""fullscreenenter"",""5"",""19620""
","
","255","","48","","","3000","1","","","images/earth.jpg","images/rocket1","images/rocket2","null","images/rocket1","","1","real","null","2","","",""
"d3-animate-choice","238","838458","0.0-76.0-1.34","421","695","19","Female","false","false","true","true","""event"",""trial"",""time""
""fullscreenenter"",""5"",""19620""
","
","
","""event"",""trial"",""time""
""fullscreenenter"",""5"",""19620""
","
","708.6000000238419","","48","","","3000","1","","","images/redplanet1.jpg","images/alien2","images/alien1","images/rocket1","images/alien2","images/t.png","2","real","false","2","rare","1","2022-02-17 01:07:07.991"
"two-step-fixation","239","839463","0.0-76.0-2.34","421","695","19","Female","false","false","true","true","""event"",""trial"",""time""
""fullscreenenter"",""5"",""19620""
","
","
","""event"",""trial"",""time""
""fullscreenenter"",""5"",""19620""
","
","","images/earth.jpg","","","","","","","","","","","","","","fixation","","","","","",""
"d3-animate-choice","240","842057","0.0-76.0-0.35","421","695","19","Female","false","false","true","true","""event"",""trial"",""time""
""fullscreenenter"",""5"",""19620""
","
","
","""event"",""trial"",""time""
""fullscreenenter"",""5"",""19620""
","
","589.6000000238419","","48","","","3000","1","","","images/earth.jpg","images/rocket1","images/rocket2","null","images/rocket1","","1","real","null","2","","",""
"d3-animate-choice","241","844736","0.0-76.0-1.35","421","695","19","Female","false","false","true","true","""event"",""trial"",""time""
""fullscreenenter"",""5"",""19620""
","
","
","""event"",""trial"",""time""
""fullscreenenter"",""5"",""19620""
","
","675.5","","48","","","3000","1","","","images/redplanet1.jpg","images/alien2","images/alien1","images/rocket1","images/alien2","images/nothing.png","2","real","false","2","rare","0","2022-02-17 01:07:14.268"
"two-step-fixation","242","845739","0.0-76.0-2.35","421","695","19","Female","false","false","true","true","""event"",""trial"",""time""
""fullscreenenter"",""5"",""19620""
","
","
","""event"",""trial"",""time""
""fullscreenenter"",""5"",""19620""
","
","","images/earth.jpg","","","","","","","","","","","","","","fixation","","","","","",""
"d3-animate-choice","243","848158","0.0-76.0-0.36","421","695","19","Female","false","false","true","true","""event"",""trial"",""time""
""fullscreenenter"",""5"",""19620""
","
","
","""event"",""trial"",""time""
""fullscreenenter"",""5"",""19620""
","
","415.7000000178814","","48","","","3000","1","","","images/earth.jpg","images/rocket1","images/rocket2","null","images/rocket1","","1","real","null","2","","",""
"d3-animate-choice","244","850684","0.0-76.0-1.36","421","695","19","Female","false","false","true","true","""event"",""trial"",""time""
""fullscreenenter"",""5"",""19620""
","
","
","""event"",""trial"",""time""
""fullscreenenter"",""5"",""19620""
","
","522.5999999940395","","48","","","3000","1","","","images/purpleplanet.jpg","images/alien4","images/alien3","images/rocket1","images/alien4","images/t.png","2","real","true","2","common","1","2022-02-17 01:07:20.216"
"two-step-fixation","245","851688","0.0-76.0-2.36","421","695","19","Female","false","false","true","true","""event"",""trial"",""time""
""fullscreenenter"",""5"",""19620""
","
","
","""event"",""trial"",""time""
""fullscreenenter"",""5"",""19620""
","
","","images/earth.jpg","","","","","","","","","","","","","","fixation","","","","","",""
"d3-animate-choice","246","854033","0.0-76.0-0.37","421","695","19","Female","false","false","true","true","""event"",""trial"",""time""
""fullscreenenter"",""5"",""19620""
","
","
","""event"",""trial"",""time""
""fullscreenenter"",""5"",""19620""
","
