"trial_type","trial_index","time_elapsed","internal_node_id","participant_id","subject_id","age","gender","rocket_sides","red_planet_first_rocket","red_display_order","purple_display_order","interactions","blur_events","focus_events","fullscreenenter_events","fullscreenexit_events","rt","stimulus","key_press","button_pressed","success","duration","valid_pressed","rts","keys","planet_text","right_text","left_text","center_text","chosen_text","reward_text","trial_stage","practice_trial","transition_type","choice","transition","reward","timestamp"
"pavlovia","0","4","0.0-0.0","875","816","26","Male","false","true","true","false","""event"",""trial"",""time""
""blur"",""0"",""0""
""focus"",""0"",""0""
","""event"",""trial"",""time""
""blur"",""0"",""0""
","""event"",""trial"",""time""
""focus"",""0"",""0""
","
","
","","","","","","","","","","","","","","","","","","","","","",""
"html-keyboard-response","1","1516","0.0-1.0","875","816","26","Male","false","true","true","false","""event"",""trial"",""time""
""blur"",""0"",""0""
""focus"",""0"",""0""
","""event"",""trial"",""time""
""blur"",""0"",""0""
","""event"",""trial"",""time""
""focus"",""0"",""0""
","
","
","1510.7999999970198","Welcome! Press the space bar to begin.","32","","","","","","","","","","","","","","","","","","",""
"audio-keyboard-response","2","4051","0.0-2.0","875","816","26","Male","false","true","true","false","""event"",""trial"",""time""
""blur"",""0"",""0""
""focus"",""0"",""0""
","""event"",""trial"",""time""
""blur"",""0"",""0""
","""event"",""trial"",""time""
""focus"",""0"",""0""
","
","
","2415","audio/beep_loop.wav","32","","","","","","","","","","","","","","","","","","",""
"audio-button-response","3","6931","0.0-3.0","875","816","26","Male","false","true","true","false","""event"",""trial"",""time""
""blur"",""0"",""0""
""focus"",""0"",""0""
","""event"",""trial"",""time""
""blur"",""0"",""0""
","""event"",""trial"",""time""
""focus"",""0"",""0""
","
","
","NaN","audio/fish.mp3","","1","","","","","","","","","","","","","","","","","",""
"audio-button-response","4","10009","0.0-4.0","875","816","26","Male","false","true","true","false","""event"",""trial"",""time""
""blur"",""0"",""0""
""focus"",""0"",""0""
""blur"",""5"",""17288""
""focus"",""5"",""32658""
""fullscreenenter"",""5"",""34265""
","""event"",""trial"",""time""
""blur"",""0"",""0""
""blur"",""5"",""17288""
","""event"",""trial"",""time""
""focus"",""0"",""0""
""focus"",""5"",""32658""
","""event"",""trial"",""time""
""fullscreenenter"",""5"",""34265""
","
","NaN","audio/tiger.mp3","","4","","","","","","","","","","","","","","","","","",""
"fullscreen","5","35239","0.0-5.0","875","816","26","Male","false","true","true","false","""event"",""trial"",""time""
""blur"",""0"",""0""
""focus"",""0"",""0""
""blur"",""5"",""17288""
""focus"",""5"",""32658""
""fullscreenenter"",""5"",""34265""
","""event"",""trial"",""time""
""blur"",""0"",""0""
""blur"",""5"",""17288""
","""event"",""trial"",""time""
""focus"",""0"",""0""
""focus"",""5"",""32658""
","""event"",""trial"",""time""
""fullscreenenter"",""5"",""34265""
","
","","","","","true","","","","","","","","","","","","","","","","",""
"d3-instructions","6","42195","0.0-6.0","875","816","26","Male","false","true","true","false","""event"",""trial"",""time""
""blur"",""0"",""0""
""focus"",""0"",""0""
""blur"",""5"",""17288""
""focus"",""5"",""32658""
""fullscreenenter"",""5"",""34265""
","""event"",""trial"",""time""
""blur"",""0"",""0""
""blur"",""5"",""17288""
","""event"",""trial"",""time""
""focus"",""0"",""0""
""focus"",""5"",""32658""
","""event"",""trial"",""time""
""fullscreenenter"",""5"",""34265""
","
","","","","","","","","","","","","","","","","","","","","","",""
"d3-instructions","7","47427","0.0-7.0","875","816","26","Male","false","true","true","false","""event"",""trial"",""time""
""blur"",""0"",""0""
""focus"",""0"",""0""
""blur"",""5"",""17288""
""focus"",""5"",""32658""
""fullscreenenter"",""5"",""34265""
","""event"",""trial"",""time""
""blur"",""0"",""0""
""blur"",""5"",""17288""
","""event"",""trial"",""time""
""focus"",""0"",""0""
""focus"",""5"",""32658""
","""event"",""trial"",""time""
""fullscreenenter"",""5"",""34265""
","
","","","","","","","","","","","","","","","","","","","","","",""
"d3-instructions","8","52839","0.0-8.0","875","816","26","Male","false","true","true","false","""event"",""trial"",""time""
""blur"",""0"",""0""
""focus"",""0"",""0""
""blur"",""5"",""17288""
""focus"",""5"",""32658""
""fullscreenenter"",""5"",""34265""
","""event"",""trial"",""time""
""blur"",""0"",""0""
""blur"",""5"",""17288""
","""event"",""trial"",""time""
""focus"",""0"",""0""
""focus"",""5"",""32658""
","""event"",""trial"",""time""
""fullscreenenter"",""5"",""34265""
","
","","","","","","","","","","","","","","","","","","","","","",""
"d3-instructions","9","58720","0.0-9.0","875","816","26","Male","false","true","true","false","""event"",""trial"",""time""
""blur"",""0"",""0""
""focus"",""0"",""0""
""blur"",""5"",""17288""
""focus"",""5"",""32658""
""fullscreenenter"",""5"",""34265""
","""event"",""trial"",""time""
""blur"",""0"",""0""
""blur"",""5"",""17288""
","""event"",""trial"",""time""
""focus"",""0"",""0""
""focus"",""5"",""32658""
","""event"",""trial"",""time""
""fullscreenenter"",""5"",""34265""
","
","","","","","","","","","","","","","","","","","","","","","",""
"d3-instructions","10","70734","0.0-10.0","875","816","26","Male","false","true","true","false","""event"",""trial"",""time""
""blur"",""0"",""0""
""focus"",""0"",""0""
""blur"",""5"",""17288""
""focus"",""5"",""32658""
""fullscreenenter"",""5"",""34265""
","""event"",""trial"",""time""
""blur"",""0"",""0""
""blur"",""5"",""17288""
","""event"",""trial"",""time""
""focus"",""0"",""0""
""focus"",""5"",""32658""
","""event"",""trial"",""time""
""fullscreenenter"",""5"",""34265""
","
","","","","","","","","","","","","","","","","","","","","","",""
"d3-animate-choice","11","73798","0.0-11.0","875","816","26","Male","false","true","true","false","""event"",""trial"",""time""
""blur"",""0"",""0""
""focus"",""0"",""0""
""blur"",""5"",""17288""
""focus"",""5"",""32658""
""fullscreenenter"",""5"",""34265""
","""event"",""trial"",""time""
""blur"",""0"",""0""
""blur"",""5"",""17288""
","""event"",""trial"",""time""
""focus"",""0"",""0""
""focus"",""5"",""32658""
","""event"",""trial"",""time""
""fullscreenenter"",""5"",""34265""
","
","1057.1000000014901","","49","","","3000","1","","","images/tutgreenplanet.jpg","images/tutalien1","images/tutalien2","null","images/tutalien2","","NA","practice","null","","","",""
"d3-animate-choice","12","76003","0.0-12.0","875","816","26","Male","false","true","true","false","""event"",""trial"",""time""
""blur"",""0"",""0""
""focus"",""0"",""0""
""blur"",""5"",""17288""
""focus"",""5"",""32658""
""fullscreenenter"",""5"",""34265""
","""event"",""trial"",""time""
""blur"",""0"",""0""
""blur"",""5"",""17288""
","""event"",""trial"",""time""
""focus"",""0"",""0""
""focus"",""5"",""32658""
","""event"",""trial"",""time""
""fullscreenenter"",""5"",""34265""
","
","199.10000000149012","","48","","","3000","1","","","images/tutgreenplanet.jpg","images/tutalien1","images/tutalien2","null","images/tutalien1","","NA","practice","null","","","",""
"d3-animate-choice","13","78782","0.0-13.0","875","816","26","Male","false","true","true","false","""event"",""trial"",""time""
""blur"",""0"",""0""
""focus"",""0"",""0""
""blur"",""5"",""17288""
""focus"",""5"",""32658""
""fullscreenenter"",""5"",""34265""
","""event"",""trial"",""time""
""blur"",""0"",""0""
""blur"",""5"",""17288""
","""event"",""trial"",""time""
""focus"",""0"",""0""
""focus"",""5"",""32658""
","""event"",""trial"",""time""
""fullscreenenter"",""5"",""34265""
","
","775.2999999970198","","49","","","3000","1","","","images/tutgreenplanet.jpg","images/tutalien1","images/tutalien2","null","images/tutalien2","","NA","practice","null","","","",""
"d3-animate-choice","14","81110","0.0-14.0","875","816","26","Male","false","true","true","false","""event"",""trial"",""time""
""blur"",""0"",""0""
""focus"",""0"",""0""
""blur"",""5"",""17288""
""focus"",""5"",""32658""
""fullscreenenter"",""5"",""34265""
","""event"",""trial"",""time""
""blur"",""0"",""0""
""blur"",""5"",""17288""
","""event"",""trial"",""time""
""focus"",""0"",""0""
""focus"",""5"",""32658""
","""event"",""trial"",""time""
""fullscreenenter"",""5"",""34265""
","
","322.20000000298023","","48","","","3000","1","","","images/tutgreenplanet.jpg","images/tutalien1","images/tutalien2","null","images/tutalien1","","NA","practice","null","","","",""
"d3-instructions","15","86892","0.0-15.0","875","816","26","Male","false","true","true","false","""event"",""trial"",""time""
""blur"",""0"",""0""
""focus"",""0"",""0""
""blur"",""5"",""17288""
""focus"",""5"",""32658""
""fullscreenenter"",""5"",""34265""
","""event"",""trial"",""time""
""blur"",""0"",""0""
""blur"",""5"",""17288""
","""event"",""trial"",""time""
""focus"",""0"",""0""
""focus"",""5"",""32658""
","""event"",""trial"",""time""
""fullscreenenter"",""5"",""34265""
","
","","","","","","","","","","","","","","","","","","","","","",""
"d3-instructions","16","89591","0.0-16.0","875","816","26","Male","false","true","true","false","""event"",""trial"",""time""
""blur"",""0"",""0""
""focus"",""0"",""0""
""blur"",""5"",""17288""
""focus"",""5"",""32658""
""fullscreenenter"",""5"",""34265""
","""event"",""trial"",""time""
""blur"",""0"",""0""
""blur"",""5"",""17288""
","""event"",""trial"",""time""
""focus"",""0"",""0""
""focus"",""5"",""32658""
","""event"",""trial"",""time""
""fullscreenenter"",""5"",""34265""
","
","","","","","","","","","","","","","","","","","","","","","",""
"d3-instructions","17","95304","0.0-17.0","875","816","26","Male","false","true","true","false","""event"",""trial"",""time""
""blur"",""0"",""0""
""focus"",""0"",""0""
""blur"",""5"",""17288""
""focus"",""5"",""32658""
""fullscreenenter"",""5"",""34265""
","""event"",""trial"",""time""
""blur"",""0"",""0""
""blur"",""5"",""17288""
","""event"",""trial"",""time""
""focus"",""0"",""0""
""focus"",""5"",""32658""
","""event"",""trial"",""time""
""fullscreenenter"",""5"",""34265""
","
","","","","","","","","","","","","","","","","","","","","","",""
"d3-instructions","18","101389","0.0-18.0","875","816","26","Male","false","true","true","false","""event"",""trial"",""time""
""blur"",""0"",""0""
""focus"",""0"",""0""
""blur"",""5"",""17288""
""focus"",""5"",""32658""
""fullscreenenter"",""5"",""34265""
","""event"",""trial"",""time""
""blur"",""0"",""0""
""blur"",""5"",""17288""
","""event"",""trial"",""time""
""focus"",""0"",""0""
""focus"",""5"",""32658""
","""event"",""trial"",""time""
""fullscreenenter"",""5"",""34265""
","
","","","","","","","","","","","","","","","","","","","","","",""
"d3-instructions","19","109914","0.0-19.0","875","816","26","Male","false","true","true","false","""event"",""trial"",""time""
""blur"",""0"",""0""
""focus"",""0"",""0""
""blur"",""5"",""17288""
""focus"",""5"",""32658""
""fullscreenenter"",""5"",""34265""
","""event"",""trial"",""time""
""blur"",""0"",""0""
""blur"",""5"",""17288""
","""event"",""trial"",""time""
""focus"",""0"",""0""
""focus"",""5"",""32658""
","""event"",""trial"",""time""
""fullscreenenter"",""5"",""34265""
","
","","","","","","","","","","","","","","","","","","","","","",""
"d3-animate-choice","20","112869","0.0-20.0","875","816","26","Male","false","true","true","false","""event"",""trial"",""time""
""blur"",""0"",""0""
""focus"",""0"",""0""
""blur"",""5"",""17288""
""focus"",""5"",""32658""
""fullscreenenter"",""5"",""34265""
","""event"",""trial"",""time""
""blur"",""0"",""0""
""blur"",""5"",""17288""
","""event"",""trial"",""time""
""focus"",""0"",""0""
""focus"",""5"",""32658""
","""event"",""trial"",""time""
""fullscreenenter"",""5"",""34265""
","
","948.2999999970198","","49","","","3000","1","","","images/tutyellowplanet.jpg","null","images/tutalien3","null","images/tutalien3","images/t.png","NA","practice","null","","","",""
"d3-animate-choice","21","115208","0.0-21.0","875","816","26","Male","false","true","true","false","""event"",""trial"",""time""
""blur"",""0"",""0""
""focus"",""0"",""0""
""blur"",""5"",""17288""
""focus"",""5"",""32658""
""fullscreenenter"",""5"",""34265""
","""event"",""trial"",""time""
""blur"",""0"",""0""
""blur"",""5"",""17288""
","""event"",""trial"",""time""
""focus"",""0"",""0""
""focus"",""5"",""32658""
","""event"",""trial"",""time""
""fullscreenenter"",""5"",""34265""
","
","336.1000000014901","","49","","","3000","1","","","images/tutyellowplanet.jpg","null","images/tutalien3","null","images/tutalien3","images/nothing.png","NA","practice","null","","","",""
"d3-animate-choice","22","117575","0.0-22.0","875","816","26","Male","false","true","true","false","""event"",""trial"",""time""
""blur"",""0"",""0""
""focus"",""0"",""0""
""blur"",""5"",""17288""
""focus"",""5"",""32658""
""fullscreenenter"",""5"",""34265""
","""event"",""trial"",""time""
""blur"",""0"",""0""
""blur"",""5"",""17288""
","""event"",""trial"",""time""
""focus"",""0"",""0""
""focus"",""5"",""32658""
","""event"",""trial"",""time""
""fullscreenenter"",""5"",""34265""
","
","363.5","","49","","","3000","1","","","images/tutyellowplanet.jpg","null","images/tutalien3","null","images/tutalien3","images/t.png","NA","practice","null","","","",""
"d3-animate-choice","23","119864","0.0-23.0","875","816","26","Male","false","true","true","false","""event"",""trial"",""time""
""blur"",""0"",""0""
""focus"",""0"",""0""
""blur"",""5"",""17288""
""focus"",""5"",""32658""
""fullscreenenter"",""5"",""34265""
","""event"",""trial"",""time""
""blur"",""0"",""0""
""blur"",""5"",""17288""
","""event"",""trial"",""time""
""focus"",""0"",""0""
""focus"",""5"",""32658""
","""event"",""trial"",""time""
""fullscreenenter"",""5"",""34265""
","
","283.8999999985099","","49","","","3000","1","","","images/tutyellowplanet.jpg","null","images/tutalien3","null","images/tutalien3","images/nothing.png","NA","practice","null","","","",""
"d3-animate-choice","24","122240","0.0-24.0","875","816","26","Male","false","true","true","false","""event"",""trial"",""time""
""blur"",""0"",""0""
""focus"",""0"",""0""
""blur"",""5"",""17288""
""focus"",""5"",""32658""
""fullscreenenter"",""5"",""34265""
","""event"",""trial"",""time""
""blur"",""0"",""0""
""blur"",""5"",""17288""
","""event"",""trial"",""time""
""focus"",""0"",""0""
""focus"",""5"",""32658""
","""event"",""trial"",""time""
""fullscreenenter"",""5"",""34265""
","
","371.90000000596046","","49","","","3000","1","","","images/tutyellowplanet.jpg","null","images/tutalien3","null","images/tutalien3","images/t.png","NA","practice","null","","","",""
"d3-animate-choice","25","124694","0.0-25.0","875","816","26","Male","false","true","true","false","""event"",""trial"",""time""
""blur"",""0"",""0""
""focus"",""0"",""0""
""blur"",""5"",""17288""
""focus"",""5"",""32658""
""fullscreenenter"",""5"",""34265""
","""event"",""trial"",""time""
""blur"",""0"",""0""
""blur"",""5"",""17288""
","""event"",""trial"",""time""
""focus"",""0"",""0""
""focus"",""5"",""32658""
","""event"",""trial"",""time""
""fullscreenenter"",""5"",""34265""
","
","451","","49","","","3000","1","","","images/tutyellowplanet.jpg","null","images/tutalien3","null","images/tutalien3","images/t.png","NA","practice","null","","","",""
"d3-animate-choice","26","127016","0.0-26.0","875","816","26","Male","false","true","true","false","""event"",""trial"",""time""
""blur"",""0"",""0""
""focus"",""0"",""0""
""blur"",""5"",""17288""
""focus"",""5"",""32658""
""fullscreenenter"",""5"",""34265""
","""event"",""trial"",""time""
""blur"",""0"",""0""
""blur"",""5"",""17288""
","""event"",""trial"",""time""
""focus"",""0"",""0""
""focus"",""5"",""32658""
","""event"",""trial"",""time""
""fullscreenenter"",""5"",""34265""
","
","316.80000000447035","","49","","","3000","1","","","images/tutyellowplanet.jpg","null","images/tutalien3","null","images/tutalien3","images/t.png","NA","practice","null","","","",""
"d3-animate-choice","27","129308","0.0-27.0","875","816","26","Male","false","true","true","false","""event"",""trial"",""time""
""blur"",""0"",""0""
""focus"",""0"",""0""
""blur"",""5"",""17288""
""focus"",""5"",""32658""
""fullscreenenter"",""5"",""34265""
","""event"",""trial"",""time""
""blur"",""0"",""0""
""blur"",""5"",""17288""
","""event"",""trial"",""time""
""focus"",""0"",""0""
""focus"",""5"",""32658""
","""event"",""trial"",""time""
""fullscreenenter"",""5"",""34265""
","
","284.5","","49","","","3000","1","","","images/tutyellowplanet.jpg","null","images/tutalien3","null","images/tutalien3","images/t.png","NA","practice","null","","","",""
"d3-animate-choice","28","131529","0.0-28.0","875","816","26","Male","false","true","true","false","""event"",""trial"",""time""
""blur"",""0"",""0""
""focus"",""0"",""0""
""blur"",""5"",""17288""
""focus"",""5"",""32658""
""fullscreenenter"",""5"",""34265""
","""event"",""trial"",""time""
""blur"",""0"",""0""
""blur"",""5"",""17288""
","""event"",""trial"",""time""
""focus"",""0"",""0""
""focus"",""5"",""32658""
","""event"",""trial"",""time""
""fullscreenenter"",""5"",""34265""
","
","217.80000000447035","","49","","","3000","1","","","images/tutyellowplanet.jpg","null","images/tutalien3","null","images/tutalien3","images/nothing.png","NA","practice","null","","","",""
"d3-animate-choice","29","134069","0.0-29.0","875","816","26","Male","false","true","true","false","""event"",""trial"",""time""
""blur"",""0"",""0""
""focus"",""0"",""0""
""blur"",""5"",""17288""
""focus"",""5"",""32658""
""fullscreenenter"",""5"",""34265""
","""event"",""trial"",""time""
""blur"",""0"",""0""
""blur"",""5"",""17288""
","""event"",""trial"",""time""
""focus"",""0"",""0""
""focus"",""5"",""32658""
","""event"",""trial"",""time""
""fullscreenenter"",""5"",""34265""
","
","533.3000000044703","","49","","","3000","1","","","images/tutyellowplanet.jpg","null","images/tutalien3","null","images/tutalien3","images/t.png","NA","practice","null","","","",""
"d3-instructions","30","137411","0.0-30.0","875","816","26","Male","false","true","true","false","""event"",""trial"",""time""
""blur"",""0"",""0""
""focus"",""0"",""0""
""blur"",""5"",""17288""
""focus"",""5"",""32658""
""fullscreenenter"",""5"",""34265""
","""event"",""trial"",""time""
""blur"",""0"",""0""
""blur"",""5"",""17288""
","""event"",""trial"",""time""
""focus"",""0"",""0""
""focus"",""5"",""32658""
","""event"",""trial"",""time""
""fullscreenenter"",""5"",""34265""
","
","","","","","","","","","","","","","","","","","","","","","",""
"d3-instructions","31","141504","0.0-31.0","875","816","26","Male","false","true","true","false","""event"",""trial"",""time""
""blur"",""0"",""0""
""focus"",""0"",""0""
""blur"",""5"",""17288""
""focus"",""5"",""32658""
""fullscreenenter"",""5"",""34265""
","""event"",""trial"",""time""
""blur"",""0"",""0""
""blur"",""5"",""17288""
","""event"",""trial"",""time""
""focus"",""0"",""0""
""focus"",""5"",""32658""
","""event"",""trial"",""time""
""fullscreenenter"",""5"",""34265""
","
","","","","","","","","","","","","","","","","","","","","","",""
"d3-instructions","32","144807","0.0-32.0","875","816","26","Male","false","true","true","false","""event"",""trial"",""time""
""blur"",""0"",""0""
""focus"",""0"",""0""
""blur"",""5"",""17288""
""focus"",""5"",""32658""
""fullscreenenter"",""5"",""34265""
","""event"",""trial"",""time""
""blur"",""0"",""0""
""blur"",""5"",""17288""
","""event"",""trial"",""time""
""focus"",""0"",""0""
""focus"",""5"",""32658""
","""event"",""trial"",""time""
""fullscreenenter"",""5"",""34265""
","
","","","","","","","","","","","","","","","","","","","","","",""
"d3-instructions","33","148930","0.0-33.0","875","816","26","Male","false","true","true","false","""event"",""trial"",""time""
""blur"",""0"",""0""
""focus"",""0"",""0""
""blur"",""5"",""17288""
""focus"",""5"",""32658""
""fullscreenenter"",""5"",""34265""
","""event"",""trial"",""time""
""blur"",""0"",""0""
""blur"",""5"",""17288""
","""event"",""trial"",""time""
""focus"",""0"",""0""
""focus"",""5"",""32658""
","""event"",""trial"",""time""
""fullscreenenter"",""5"",""34265""
","
","","","","","","","","","","","","","","","","","","","","","",""
"d3-animate-choice","34","151605","0.0-34.0","875","816","26","Male","false","true","true","false","""event"",""trial"",""time""
""blur"",""0"",""0""
""focus"",""0"",""0""
""blur"",""5"",""17288""
""focus"",""5"",""32658""
""fullscreenenter"",""5"",""34265""
","""event"",""trial"",""time""
""blur"",""0"",""0""
""blur"",""5"",""17288""
","""event"",""trial"",""time""
""focus"",""0"",""0""
""focus"",""5"",""32658""
","""event"",""trial"",""time""
""fullscreenenter"",""5"",""34265""
","
","659.9000000059605","","48","","","3000","1","","","images/tutgreenplanet.jpg","images/tutalien1","images/tutalien2","null","images/tutalien1","images/nothing.png","NA","practice","null","","","",""
"d3-animate-choice","35","153977","0.0-35.0","875","816","26","Male","false","true","true","false","""event"",""trial"",""time""
""blur"",""0"",""0""
""focus"",""0"",""0""
""blur"",""5"",""17288""
""focus"",""5"",""32658""
""fullscreenenter"",""5"",""34265""
","""event"",""trial"",""time""
""blur"",""0"",""0""
""blur"",""5"",""17288""
","""event"",""trial"",""time""
""focus"",""0"",""0""
""focus"",""5"",""32658""
","""event"",""trial"",""time""
""fullscreenenter"",""5"",""34265""
","
","367.80000000447035","","48","","","3000","1","","","images/tutgreenplanet.jpg","images/tutalien1","images/tutalien2","null","images/tutalien1","images/nothing.png","NA","practice","null","","","",""
"d3-animate-choice","36","156308","0.0-36.0","875","816","26","Male","false","true","true","false","""event"",""trial"",""time""
""blur"",""0"",""0""
""focus"",""0"",""0""
""blur"",""5"",""17288""
""focus"",""5"",""32658""
""fullscreenenter"",""5"",""34265""
","""event"",""trial"",""time""
""blur"",""0"",""0""
""blur"",""5"",""17288""
","""event"",""trial"",""time""
""focus"",""0"",""0""
""focus"",""5"",""32658""
","""event"",""trial"",""time""
""fullscreenenter"",""5"",""34265""
","
","323.1000000014901","","49","","","3000","1","","","images/tutgreenplanet.jpg","images/tutalien1","images/tutalien2","null","images/tutalien2","images/nothing.png","NA","practice","null","","","",""
"d3-animate-choice","37","158641","0.0-37.0","875","816","26","Male","false","true","true","false","""event"",""trial"",""time""
""blur"",""0"",""0""
""focus"",""0"",""0""
""blur"",""5"",""17288""
""focus"",""5"",""32658""
""fullscreenenter"",""5"",""34265""
","""event"",""trial"",""time""
""blur"",""0"",""0""
""blur"",""5"",""17288""
","""event"",""trial"",""time""
""focus"",""0"",""0""
""focus"",""5"",""32658""
","""event"",""trial"",""time""
""fullscreenenter"",""5"",""34265""
","
","329.30000000447035","","49","","","3000","1","","","images/tutgreenplanet.jpg","images/tutalien1","images/tutalien2","null","images/tutalien2","images/t.png","NA","practice","null","","","",""
"d3-animate-choice","38","160983","0.0-38.0","875","816","26","Male","false","true","true","false","""event"",""trial"",""time""
""blur"",""0"",""0""
""focus"",""0"",""0""
""blur"",""5"",""17288""
""focus"",""5"",""32658""
""fullscreenenter"",""5"",""34265""
","""event"",""trial"",""time""
""blur"",""0"",""0""
""blur"",""5"",""17288""
","""event"",""trial"",""time""
""focus"",""0"",""0""
""focus"",""5"",""32658""
","""event"",""trial"",""time""
""fullscreenenter"",""5"",""34265""
","
","339.1000000014901","","49","","","3000","1","","","images/tutgreenplanet.jpg","images/tutalien1","images/tutalien2","null","images/tutalien2","images/t.png","NA","practice","null","","","",""
"d3-animate-choice","39","163278","0.0-39.0","875","816","26","Male","false","true","true","false","""event"",""trial"",""time""
""blur"",""0"",""0""
""focus"",""0"",""0""
""blur"",""5"",""17288""
""focus"",""5"",""32658""
""fullscreenenter"",""5"",""34265""
","""event"",""trial"",""time""
""blur"",""0"",""0""
""blur"",""5"",""17288""
","""event"",""trial"",""time""
""focus"",""0"",""0""
""focus"",""5"",""32658""
","""event"",""trial"",""time""
""fullscreenenter"",""5"",""34265""
","
","288.3999999985099","","49","","","3000","1","","","images/tutgreenplanet.jpg","images/tutalien1","images/tutalien2","null","images/tutalien2","images/nothing.png","NA","practice","null","","","",""
"d3-animate-choice","40","165532","0.0-40.0","875","816","26","Male","false","true","true","false","""event"",""trial"",""time""
""blur"",""0"",""0""
""focus"",""0"",""0""
""blur"",""5"",""17288""
""focus"",""5"",""32658""
""fullscreenenter"",""5"",""34265""
","""event"",""trial"",""time""
""blur"",""0"",""0""
""blur"",""5"",""17288""
","""event"",""trial"",""time""
""focus"",""0"",""0""
""focus"",""5"",""32658""
","""event"",""trial"",""time""
""fullscreenenter"",""5"",""34265""
","
","249.19999999552965","","49","","","3000","1","","","images/tutgreenplanet.jpg","images/tutalien1","images/tutalien2","null","images/tutalien2","images/nothing.png","NA","practice","null","","","",""
"d3-animate-choice","41","167831","0.0-41.0","875","816","26","Male","false","true","true","false","""event"",""trial"",""time""
""blur"",""0"",""0""
""focus"",""0"",""0""
""blur"",""5"",""17288""
""focus"",""5"",""32658""
""fullscreenenter"",""5"",""34265""
","""event"",""trial"",""time""
""blur"",""0"",""0""
""blur"",""5"",""17288""
","""event"",""trial"",""time""
""focus"",""0"",""0""
""focus"",""5"",""32658""
","""event"",""trial"",""time""
""fullscreenenter"",""5"",""34265""
","
","296","","49","","","3000","1","","","images/tutgreenplanet.jpg","images/tutalien1","images/tutalien2","null","images/tutalien2","images/t.png","NA","practice","null","","","",""
"d3-animate-choice","42","170088","0.0-42.0","875","816","26","Male","false","true","true","false","""event"",""trial"",""time""
""blur"",""0"",""0""
""focus"",""0"",""0""
""blur"",""5"",""17288""
""focus"",""5"",""32658""
""fullscreenenter"",""5"",""34265""
","""event"",""trial"",""time""
""blur"",""0"",""0""
""blur"",""5"",""17288""
","""event"",""trial"",""time""
""focus"",""0"",""0""
""focus"",""5"",""32658""
","""event"",""trial"",""time""
""fullscreenenter"",""5"",""34265""
","
","251.10000000149012","","48","","","3000","1","","","images/tutgreenplanet.jpg","images/tutalien1","images/tutalien2","null","images/tutalien1","images/nothing.png","NA","practice","null","","","",""
"d3-animate-choice","43","172268","0.0-43.0","875","816","26","Male","false","true","true","false","""event"",""trial"",""time""
""blur"",""0"",""0""
""focus"",""0"",""0""
""blur"",""5"",""17288""
""focus"",""5"",""32658""
""fullscreenenter"",""5"",""34265""
","""event"",""trial"",""time""
""blur"",""0"",""0""
""blur"",""5"",""17288""
","""event"",""trial"",""time""
""focus"",""0"",""0""
""focus"",""5"",""32658""
","""event"",""trial"",""time""
""fullscreenenter"",""5"",""34265""
","
","176.19999999552965","","48","","","3000","1","","","images/tutgreenplanet.jpg","images/tutalien1","images/tutalien2","null","images/tutalien1","images/nothing.png","NA","practice","null","","","",""
"d3-instructions","44","178956","0.0-44.0","875","816","26","Male","false","true","true","false","""event"",""trial"",""time""
""blur"",""0"",""0""
""focus"",""0"",""0""
""blur"",""5"",""17288""
""focus"",""5"",""32658""
""fullscreenenter"",""5"",""34265""
","""event"",""trial"",""time""
""blur"",""0"",""0""
""blur"",""5"",""17288""
","""event"",""trial"",""time""
""focus"",""0"",""0""
""focus"",""5"",""32658""
","""event"",""trial"",""time""
""fullscreenenter"",""5"",""34265""
","
","","","","","","","","","","","","","","","","","","","","","",""
"d3-instructions","45","181521","0.0-45.0","875","816","26","Male","false","true","true","false","""event"",""trial"",""time""
""blur"",""0"",""0""
""focus"",""0"",""0""
""blur"",""5"",""17288""
""focus"",""5"",""32658""
""fullscreenenter"",""5"",""34265""
","""event"",""trial"",""time""
""blur"",""0"",""0""
""blur"",""5"",""17288""
","""event"",""trial"",""time""
""focus"",""0"",""0""
""focus"",""5"",""32658""
","""event"",""trial"",""time""
""fullscreenenter"",""5"",""34265""
","
","","","","","","","","","","","","","","","","","","","","","",""
"d3-instructions","46","184964","0.0-46.0","875","816","26","Male","false","true","true","false","""event"",""trial"",""time""
""blur"",""0"",""0""
""focus"",""0"",""0""
""blur"",""5"",""17288""
""focus"",""5"",""32658""
""fullscreenenter"",""5"",""34265""
","""event"",""trial"",""time""
""blur"",""0"",""0""
""blur"",""5"",""17288""
","""event"",""trial"",""time""
""focus"",""0"",""0""
""focus"",""5"",""32658""
","""event"",""trial"",""time""
""fullscreenenter"",""5"",""34265""
","
","","","","","","","","","","","","","","","","","","","","","",""
"d3-instructions","47","193236","0.0-47.0","875","816","26","Male","false","true","true","false","""event"",""trial"",""time""
""blur"",""0"",""0""
""focus"",""0"",""0""
""blur"",""5"",""17288""
""focus"",""5"",""32658""
""fullscreenenter"",""5"",""34265""
","""event"",""trial"",""time""
""blur"",""0"",""0""
""blur"",""5"",""17288""
","""event"",""trial"",""time""
""focus"",""0"",""0""
""focus"",""5"",""32658""
","""event"",""trial"",""time""
""fullscreenenter"",""5"",""34265""
","
","","","","","","","","","","","","","","","","","","","","","",""
"d3-instructions","48","197342","0.0-48.0","875","816","26","Male","false","true","true","false","""event"",""trial"",""time""
""blur"",""0"",""0""
""focus"",""0"",""0""
""blur"",""5"",""17288""
""focus"",""5"",""32658""
""fullscreenenter"",""5"",""34265""
","""event"",""trial"",""time""
""blur"",""0"",""0""
""blur"",""5"",""17288""
","""event"",""trial"",""time""
""focus"",""0"",""0""
""focus"",""5"",""32658""
","""event"",""trial"",""time""
""fullscreenenter"",""5"",""34265""
","
","","","","","","","","","","","","","","","","","","","","","",""
"d3-instructions","49","202485","0.0-49.0","875","816","26","Male","false","true","true","false","""event"",""trial"",""time""
""blur"",""0"",""0""
""focus"",""0"",""0""
""blur"",""5"",""17288""
""focus"",""5"",""32658""
""fullscreenenter"",""5"",""34265""
","""event"",""trial"",""time""
""blur"",""0"",""0""
""blur"",""5"",""17288""
","""event"",""trial"",""time""
""focus"",""0"",""0""
""focus"",""5"",""32658""
","""event"",""trial"",""time""
""fullscreenenter"",""5"",""34265""
","
","","","","","","","","","","","","","","","","","","","","","",""
"d3-instructions","50","208318","0.0-50.0","875","816","26","Male","false","true","true","false","""event"",""trial"",""time""
""blur"",""0"",""0""
""focus"",""0"",""0""
""blur"",""5"",""17288""
""focus"",""5"",""32658""
""fullscreenenter"",""5"",""34265""
","""event"",""trial"",""time""
""blur"",""0"",""0""
""blur"",""5"",""17288""
","""event"",""trial"",""time""
""focus"",""0"",""0""
""focus"",""5"",""32658""
","""event"",""trial"",""time""
""fullscreenenter"",""5"",""34265""
","
","","","","","","","","","","","","","","","","","","","","","",""
"d3-instructions","51","210910","0.0-51.0","875","816","26","Male","false","true","true","false","""event"",""trial"",""time""
""blur"",""0"",""0""
""focus"",""0"",""0""
""blur"",""5"",""17288""
""focus"",""5"",""32658""
""fullscreenenter"",""5"",""34265""
","""event"",""trial"",""time""
""blur"",""0"",""0""
""blur"",""5"",""17288""
","""event"",""trial"",""time""
""focus"",""0"",""0""
""focus"",""5"",""32658""
","""event"",""trial"",""time""
""fullscreenenter"",""5"",""34265""
","
","","","","","","","","","","","","","","","","","","","","","",""
"d3-instructions","52","212544","0.0-52.0","875","816","26","Male","false","true","true","false","""event"",""trial"",""time""
""blur"",""0"",""0""
""focus"",""0"",""0""
""blur"",""5"",""17288""
""focus"",""5"",""32658""
""fullscreenenter"",""5"",""34265""
","""event"",""trial"",""time""
""blur"",""0"",""0""
""blur"",""5"",""17288""
","""event"",""trial"",""time""
""focus"",""0"",""0""
""focus"",""5"",""32658""
","""event"",""trial"",""time""
""fullscreenenter"",""5"",""34265""
","
","","","","","","","","","","","","","","","","","","","","","",""
"d3-instructions","53","222656","0.0-53.0","875","816","26","Male","false","true","true","false","""event"",""trial"",""time""
""blur"",""0"",""0""
""focus"",""0"",""0""
""blur"",""5"",""17288""
""focus"",""5"",""32658""
""fullscreenenter"",""5"",""34265""
","""event"",""trial"",""time""
""blur"",""0"",""0""
""blur"",""5"",""17288""
","""event"",""trial"",""time""
""focus"",""0"",""0""
""focus"",""5"",""32658""
","""event"",""trial"",""time""
""fullscreenenter"",""5"",""34265""
","
","","","","","","","","","","","","","","","","","","","","","",""
"d3-instructions","54","229095","0.0-54.0","875","816","26","Male","false","true","true","false","""event"",""trial"",""time""
""blur"",""0"",""0""
""focus"",""0"",""0""
""blur"",""5"",""17288""
""focus"",""5"",""32658""
""fullscreenenter"",""5"",""34265""
","""event"",""trial"",""time""
""blur"",""0"",""0""
""blur"",""5"",""17288""
","""event"",""trial"",""time""
""focus"",""0"",""0""
""focus"",""5"",""32658""
","""event"",""trial"",""time""
""fullscreenenter"",""5"",""34265""
","
","","","","","","","","","","","","","","","","","","","","","",""
"d3-instructions","55","232363","0.0-55.0","875","816","26","Male","false","true","true","false","""event"",""trial"",""time""
""blur"",""0"",""0""
""focus"",""0"",""0""
""blur"",""5"",""17288""
""focus"",""5"",""32658""
""fullscreenenter"",""5"",""34265""
","""event"",""trial"",""time""
""blur"",""0"",""0""
""blur"",""5"",""17288""
","""event"",""trial"",""time""
""focus"",""0"",""0""
""focus"",""5"",""32658""
","""event"",""trial"",""time""
""fullscreenenter"",""5"",""34265""
","
","","","","","","","","","","","","","","","","","","","","","",""
"d3-instructions","56","235677","0.0-56.0","875","816","26","Male","false","true","true","false","""event"",""trial"",""time""
""blur"",""0"",""0""
""focus"",""0"",""0""
""blur"",""5"",""17288""
""focus"",""5"",""32658""
""fullscreenenter"",""5"",""34265""
","""event"",""trial"",""time""
""blur"",""0"",""0""
""blur"",""5"",""17288""
","""event"",""trial"",""time""
""focus"",""0"",""0""
""focus"",""5"",""32658""
","""event"",""trial"",""time""
""fullscreenenter"",""5"",""34265""
","
","","","","","","","","","","","","","","","","","","","","","",""
"d3-instructions","57","240340","0.0-57.0","875","816","26","Male","false","true","true","false","""event"",""trial"",""time""
""blur"",""0"",""0""
""focus"",""0"",""0""
""blur"",""5"",""17288""
""focus"",""5"",""32658""
""fullscreenenter"",""5"",""34265""
","""event"",""trial"",""time""
""blur"",""0"",""0""
""blur"",""5"",""17288""
","""event"",""trial"",""time""
""focus"",""0"",""0""
""focus"",""5"",""32658""
","""event"",""trial"",""time""
""fullscreenenter"",""5"",""34265""
","
","","","","","","","","","","","","","","","","","","","","","",""
"d3-instructions","58","245825","0.0-58.0","875","816","26","Male","false","true","true","false","""event"",""trial"",""time""
""blur"",""0"",""0""
""focus"",""0"",""0""
""blur"",""5"",""17288""
""focus"",""5"",""32658""
""fullscreenenter"",""5"",""34265""
","""event"",""trial"",""time""
""blur"",""0"",""0""
""blur"",""5"",""17288""
","""event"",""trial"",""time""
""focus"",""0"",""0""
""focus"",""5"",""32658""
","""event"",""trial"",""time""
""fullscreenenter"",""5"",""34265""
","
","","","","","","","","","","","","","","","","","","","","","",""
"d3-instructions","59","247951","0.0-59.0","875","816","26","Male","false","true","true","false","""event"",""trial"",""time""
""blur"",""0"",""0""
""focus"",""0"",""0""
""blur"",""5"",""17288""
""focus"",""5"",""32658""
""fullscreenenter"",""5"",""34265""
","""event"",""trial"",""time""
""blur"",""0"",""0""
""blur"",""5"",""17288""
","""event"",""trial"",""time""
""focus"",""0"",""0""
""focus"",""5"",""32658""
","""event"",""trial"",""time""
""fullscreenenter"",""5"",""34265""
","
","","","","","","","","","","","","","","","","","","","","","",""
"d3-instructions","60","250924","0.0-60.0","875","816","26","Male","false","true","true","false","""event"",""trial"",""time""
""blur"",""0"",""0""
""focus"",""0"",""0""
""blur"",""5"",""17288""
""focus"",""5"",""32658""
""fullscreenenter"",""5"",""34265""
","""event"",""trial"",""time""
""blur"",""0"",""0""
""blur"",""5"",""17288""
","""event"",""trial"",""time""
""focus"",""0"",""0""
""focus"",""5"",""32658""
","""event"",""trial"",""time""
""fullscreenenter"",""5"",""34265""
","
","","","","","","","","","","","","","","","","","","","","","",""
"d3-animate-choice","61","254029","0.0-61.0-0.0","875","816","26","Male","false","true","true","false","""event"",""trial"",""time""
""blur"",""0"",""0""
""focus"",""0"",""0""
""blur"",""5"",""17288""
""focus"",""5"",""32658""
""fullscreenenter"",""5"",""34265""
","""event"",""trial"",""time""
""blur"",""0"",""0""
""blur"",""5"",""17288""
","""event"",""trial"",""time""
""focus"",""0"",""0""
""focus"",""5"",""32658""
","""event"",""trial"",""time""
""fullscreenenter"",""5"",""34265""
","
","1091.3999999985099","","48","","","3000","1","","","images/earth.jpg","images/tutrocket2","images/tutrocket1","null","images/tutrocket2","","1","practice","null","2","","",""
"d3-animate-choice","62","257309","0.0-61.0-1.0","875","816","26","Male","false","true","true","false","""event"",""trial"",""time""
""blur"",""0"",""0""
""focus"",""0"",""0""
""blur"",""5"",""17288""
""focus"",""5"",""32658""
""fullscreenenter"",""5"",""34265""
","""event"",""trial"",""time""
""blur"",""0"",""0""
""blur"",""5"",""17288""
","""event"",""trial"",""time""
""focus"",""0"",""0""
""focus"",""5"",""32658""
","""event"",""trial"",""time""
""fullscreenenter"",""5"",""34265""
","
","1272.5","","48","","","3000","1","","","images/tutgreenplanet.jpg","images/tutalien2","images/tutalien1","images/tutrocket2","images/tutalien2","images/nothing.png","2","practice","false","2","rare","0","2022-02-13 15:44:26.578"
"two-step-fixation","63","258313","0.0-61.0-2.0","875","816","26","Male","false","true","true","false","""event"",""trial"",""time""
""blur"",""0"",""0""
""focus"",""0"",""0""
""blur"",""5"",""17288""
""focus"",""5"",""32658""
""fullscreenenter"",""5"",""34265""
","""event"",""trial"",""time""
""blur"",""0"",""0""
""blur"",""5"",""17288""
","""event"",""trial"",""time""
""focus"",""0"",""0""
""focus"",""5"",""32658""
","""event"",""trial"",""time""
""fullscreenenter"",""5"",""34265""
","
","","images/earth.jpg","","","","","","","","","","","","","","fixation","","","","","",""
"d3-animate-choice","64","261136","0.0-61.0-0.1","875","816","26","Male","false","true","true","false","""event"",""trial"",""time""
""blur"",""0"",""0""
""focus"",""0"",""0""
""blur"",""5"",""17288""
""focus"",""5"",""32658""
""fullscreenenter"",""5"",""34265""
","""event"",""trial"",""time""
""blur"",""0"",""0""
""blur"",""5"",""17288""
","""event"",""trial"",""time""
""focus"",""0"",""0""
""focus"",""5"",""32658""
","""event"",""trial"",""time""
""fullscreenenter"",""5"",""34265""
","
","818.5","","48","","","3000","1","","","images/earth.jpg","images/tutrocket2","images/tutrocket1","null","images/tutrocket2","","1","practice","null","2","","",""
"d3-animate-choice","65","264128","0.0-61.0-1.1","875","816","26","Male","false","true","true","false","""event"",""trial"",""time""
""blur"",""0"",""0""
""focus"",""0"",""0""
""blur"",""5"",""17288""
""focus"",""5"",""32658""
""fullscreenenter"",""5"",""34265""
","""event"",""trial"",""time""
""blur"",""0"",""0""
""blur"",""5"",""17288""
","""event"",""trial"",""time""
""focus"",""0"",""0""
""focus"",""5"",""32658""
","""event"",""trial"",""time""
""fullscreenenter"",""5"",""34265""
","
","987.0999999940395","","48","","","3000","1","","","images/tutyellowplanet.jpg","images/tutalien4","images/tutalien3","images/tutrocket2","images/tutalien4","images/t.png","2","practice","true","2","common","1","2022-02-13 15:44:33.397"
"two-step-fixation","66","265133","0.0-61.0-2.1","875","816","26","Male","false","true","true","false","""event"",""trial"",""time""
""blur"",""0"",""0""
""focus"",""0"",""0""
""blur"",""5"",""17288""
""focus"",""5"",""32658""
""fullscreenenter"",""5"",""34265""
","""event"",""trial"",""time""
""blur"",""0"",""0""
""blur"",""5"",""17288""
","""event"",""trial"",""time""
""focus"",""0"",""0""
""focus"",""5"",""32658""
","""event"",""trial"",""time""
""fullscreenenter"",""5"",""34265""
","
","","images/earth.jpg","","","","","","","","","","","","","","fixation","","","","","",""
"d3-animate-choice","67","267673","0.0-61.0-0.2","875","816","26","Male","false","true","true","false","""event"",""trial"",""time""
""blur"",""0"",""0""
""focus"",""0"",""0""
""blur"",""5"",""17288""
""focus"",""5"",""32658""
""fullscreenenter"",""5"",""34265""
","""event"",""trial"",""time""
""blur"",""0"",""0""
""blur"",""5"",""17288""
","""event"",""trial"",""time""
""focus"",""0"",""0""
""focus"",""5"",""32658""
","""event"",""trial"",""time""
""fullscreenenter"",""5"",""34265""
","
","537.3999999985099","","48","","","3000","1","","","images/earth.jpg","images/tutrocket2","images/tutrocket1","null","images/tutrocket2","","1","practice","null","2","","",""
"d3-animate-choice","68","270271","0.0-61.0-1.2","875","816","26","Male","false","true","true","false","""event"",""trial"",""time""
""blur"",""0"",""0""
""focus"",""0"",""0""
""blur"",""5"",""17288""
""focus"",""5"",""32658""
""fullscreenenter"",""5"",""34265""
","""event"",""trial"",""time""
""blur"",""0"",""0""
""blur"",""5"",""17288""
","""event"",""trial"",""time""
""focus"",""0"",""0""
""focus"",""5"",""32658""
","""event"",""trial"",""time""
""fullscreenenter"",""5"",""34265""
","
","593.7999999970198","","49","","","3000","1","","","images/tutyellowplanet.jpg","images/tutalien4","images/tutalien3","images/tutrocket2","images/tutalien3","images/nothing.png","2","practice","true","1","common","0","2022-02-13 15:44:39.540"
"two-step-fixation","69","271276","0.0-61.0-2.2","875","816","26","Male","false","true","true","false","""event"",""trial"",""time""
""blur"",""0"",""0""
""focus"",""0"",""0""
""blur"",""5"",""17288""
""focus"",""5"",""32658""
""fullscreenenter"",""5"",""34265""
","""event"",""trial"",""time""
""blur"",""0"",""0""
""blur"",""5"",""17288""
","""event"",""trial"",""time""
""focus"",""0"",""0""
""focus"",""5"",""32658""
","""event"",""trial"",""time""
""fullscreenenter"",""5"",""34265""
","
","","images/earth.jpg","","","","","","","","","","","","","","fixation","","","","","",""
"d3-animate-choice","70","274085","0.0-61.0-0.3","875","816","26","Male","false","true","true","false","""event"",""trial"",""time""
""blur"",""0"",""0""
""focus"",""0"",""0""
""blur"",""5"",""17288""
""focus"",""5"",""32658""
""fullscreenenter"",""5"",""34265""
","""event"",""trial"",""time""
""blur"",""0"",""0""
""blur"",""5"",""17288""
","""event"",""trial"",""time""
""focus"",""0"",""0""
""focus"",""5"",""32658""
","""event"",""trial"",""time""
""fullscreenenter"",""5"",""34265""
","
","805.5","","48","","","3000","1","","","images/earth.jpg","images/tutrocket2","images/tutrocket1","null","images/tutrocket2","","1","practice","null","2","","",""
"d3-animate-choice","71","277046","0.0-61.0-1.3","875","816","26","Male","false","true","true","false","""event"",""trial"",""time""
""blur"",""0"",""0""
""focus"",""0"",""0""
""blur"",""5"",""17288""
""focus"",""5"",""32658""
""fullscreenenter"",""5"",""34265""
","""event"",""trial"",""time""
""blur"",""0"",""0""
""blur"",""5"",""17288""
","""event"",""trial"",""time""
""focus"",""0"",""0""
""focus"",""5"",""32658""
","""event"",""trial"",""time""
""fullscreenenter"",""5"",""34265""
","
","956.3999999985099","","48","","","3000","1","","","images/tutyellowplanet.jpg","images/tutalien4","images/tutalien3","images/tutrocket2","images/tutalien4","images/t.png","2","practice","true","2","common","1","2022-02-13 15:44:46.315"
"two-step-fixation","72","278053","0.0-61.0-2.3","875","816","26","Male","false","true","true","false","""event"",""trial"",""time""
""blur"",""0"",""0""
""focus"",""0"",""0""
""blur"",""5"",""17288""
""focus"",""5"",""32658""
""fullscreenenter"",""5"",""34265""
","""event"",""trial"",""time""
""blur"",""0"",""0""
""blur"",""5"",""17288""
","""event"",""trial"",""time""
""focus"",""0"",""0""
""focus"",""5"",""32658""
","""event"",""trial"",""time""
""fullscreenenter"",""5"",""34265""
","
","","images/earth.jpg","","","","","","","","","","","","","","fixation","","","","","",""
"d3-animate-choice","73","280407","0.0-61.0-0.4","875","816","26","Male","false","true","true","false","""event"",""trial"",""time""
""blur"",""0"",""0""
""focus"",""0"",""0""
""blur"",""5"",""17288""
""focus"",""5"",""32658""
""fullscreenenter"",""5"",""34265""
","""event"",""trial"",""time""
""blur"",""0"",""0""
""blur"",""5"",""17288""
","""event"",""trial"",""time""
""focus"",""0"",""0""
""focus"",""5"",""32658""
","""event"",""trial"",""time""
""fullscreenenter"",""5"",""34265""
","
","347.8999999985099","","49","","","3000","1","","","images/earth.jpg","images/tutrocket2","images/tutrocket1","null","images/tutrocket1","","1","practice","null","1","","",""
"d3-animate-choice","74","283014","0.0-61.0-1.4","875","816","26","Male","false","true","true","false","""event"",""trial"",""time""
""blur"",""0"",""0""
""focus"",""0"",""0""
""blur"",""5"",""17288""
""focus"",""5"",""32658""
""fullscreenenter"",""5"",""34265""
","""event"",""trial"",""time""
""blur"",""0"",""0""
""blur"",""5"",""17288""
","""event"",""trial"",""time""
""focus"",""0"",""0""
""focus"",""5"",""32658""
","""event"",""trial"",""time""
""fullscreenenter"",""5"",""34265""
","
","601.5","","49","","","3000","1","","","images/tutgreenplanet.jpg","images/tutalien2","images/tutalien1","images/tutrocket1","images/tutalien1","images/nothing.png","2","practice","true","1","common","0","2022-02-13 15:44:52.283"
"two-step-fixation","75","284018","0.0-61.0-2.4","875","816","26","Male","false","true","true","false","""event"",""trial"",""time""
""blur"",""0"",""0""
""focus"",""0"",""0""
""blur"",""5"",""17288""
""focus"",""5"",""32658""
""fullscreenenter"",""5"",""34265""
","""event"",""trial"",""time""
""blur"",""0"",""0""
""blur"",""5"",""17288""
","""event"",""trial"",""time""
""focus"",""0"",""0""
""focus"",""5"",""32658""
","""event"",""trial"",""time""
""fullscreenenter"",""5"",""34265""
","
","","images/earth.jpg","","","","","","","","","","","","","","fixation","","","","","",""
"d3-animate-choice","76","286439","0.0-61.0-0.5","875","816","26","Male","false","true","true","false","""event"",""trial"",""time""
""blur"",""0"",""0""
""focus"",""0"",""0""
""blur"",""5"",""17288""
""focus"",""5"",""32658""
""fullscreenenter"",""5"",""34265""
","""event"",""trial"",""time""
""blur"",""0"",""0""
""blur"",""5"",""17288""
","""event"",""trial"",""time""
""focus"",""0"",""0""
""focus"",""5"",""32658""
","""event"",""trial"",""time""
""fullscreenenter"",""5"",""34265""
","
","414.70000000298023","","49","","","3000","1","","","images/earth.jpg","images/tutrocket2","images/tutrocket1","null","images/tutrocket1","","1","practice","null","1","","",""
"d3-animate-choice","77","289411","0.0-61.0-1.5","875","816","26","Male","false","true","true","false","""event"",""trial"",""time""
""blur"",""0"",""0""
""focus"",""0"",""0""
""blur"",""5"",""17288""
""focus"",""5"",""32658""
""fullscreenenter"",""5"",""34265""
","""event"",""trial"",""time""
""blur"",""0"",""0""
""blur"",""5"",""17288""
","""event"",""trial"",""time""
""focus"",""0"",""0""
""focus"",""5"",""32658""
","""event"",""trial"",""time""
""fullscreenenter"",""5"",""34265""
","
","968.6000000014901","","49","","","3000","1","","","images/tutyellowplanet.jpg","images/tutalien4","images/tutalien3","images/tutrocket1","images/tutalien3","images/nothing.png","2","practice","false","1","rare","0","2022-02-13 15:44:58.680"
"two-step-fixation","78","290415","0.0-61.0-2.5","875","816","26","Male","false","true","true","false","""event"",""trial"",""time""
""blur"",""0"",""0""
""focus"",""0"",""0""
""blur"",""5"",""17288""
""focus"",""5"",""32658""
""fullscreenenter"",""5"",""34265""
","""event"",""trial"",""time""
""blur"",""0"",""0""
""blur"",""5"",""17288""
","""event"",""trial"",""time""
""focus"",""0"",""0""
""focus"",""5"",""32658""
","""event"",""trial"",""time""
""fullscreenenter"",""5"",""34265""
","
","","images/earth.jpg","","","","","","","","","","","","","","fixation","","","","","",""
"d3-animate-choice","79","292912","0.0-61.0-0.6","875","816","26","Male","false","true","true","false","""event"",""trial"",""time""
""blur"",""0"",""0""
""focus"",""0"",""0""
""blur"",""5"",""17288""
""focus"",""5"",""32658""
""fullscreenenter"",""5"",""34265""
","""event"",""trial"",""time""
""blur"",""0"",""0""
""blur"",""5"",""17288""
","""event"",""trial"",""time""
""focus"",""0"",""0""
""focus"",""5"",""32658""
","""event"",""trial"",""time""
""fullscreenenter"",""5"",""34265""
","
","492.79999999701977","","49","","","3000","1","","","images/earth.jpg","images/tutrocket2","images/tutrocket1","null","images/tutrocket1","","1","practice","null","1","","",""
"d3-animate-choice","80","295968","0.0-61.0-1.6","875","816","26","Male","false","true","true","false","""event"",""trial"",""time""
""blur"",""0"",""0""
""focus"",""0"",""0""
""blur"",""5"",""17288""
""focus"",""5"",""32658""
""fullscreenenter"",""5"",""34265""
","""event"",""trial"",""time""
""blur"",""0"",""0""
""blur"",""5"",""17288""
","""event"",""trial"",""time""
""focus"",""0"",""0""
""focus"",""5"",""32658""
","""event"",""trial"",""time""
""fullscreenenter"",""5"",""34265""
","
","1052.3999999985099","","48","","","3000","1","","","images/tutgreenplanet.jpg","images/tutalien2","images/tutalien1","images/tutrocket1","images/tutalien2","images/nothing.png","2","practice","true","2","common","0","2022-02-13 15:45:05.237"
"two-step-fixation","81","296971","0.0-61.0-2.6","875","816","26","Male","false","true","true","false","""event"",""trial"",""time""
""blur"",""0"",""0""
""focus"",""0"",""0""
""blur"",""5"",""17288""
""focus"",""5"",""32658""
""fullscreenenter"",""5"",""34265""
","""event"",""trial"",""time""
""blur"",""0"",""0""
""blur"",""5"",""17288""
","""event"",""trial"",""time""
""focus"",""0"",""0""
""focus"",""5"",""32658""
","""event"",""trial"",""time""
""fullscreenenter"",""5"",""34265""
","
","","images/earth.jpg","","","","","","","","","","","","","","fixation","","","","","",""
"d3-animate-choice","82","299380","0.0-61.0-0.7","875","816","26","Male","false","true","true","false","""event"",""trial"",""time""
""blur"",""0"",""0""
""focus"",""0"",""0""
""blur"",""5"",""17288""
""focus"",""5"",""32658""
""fullscreenenter"",""5"",""34265""
","""event"",""trial"",""time""
""blur"",""0"",""0""
""blur"",""5"",""17288""
","""event"",""trial"",""time""
""focus"",""0"",""0""
""focus"",""5"",""32658""
","""event"",""trial"",""time""
""fullscreenenter"",""5"",""34265""
","
","404.8999999985099","","49","","","3000","1","","","images/earth.jpg","images/tutrocket2","images/tutrocket1","null","images/tutrocket1","","1","practice","null","1","","",""
"d3-animate-choice","83","302046","0.0-61.0-1.7","875","816","26","Male","false","true","true","false","""event"",""trial"",""time""
""blur"",""0"",""0""
""focus"",""0"",""0""
""blur"",""5"",""17288""
""focus"",""5"",""32658""
""fullscreenenter"",""5"",""34265""
","""event"",""trial"",""time""
""blur"",""0"",""0""
""blur"",""5"",""17288""
","""event"",""trial"",""time""
""focus"",""0"",""0""
""focus"",""5"",""32658""
","""event"",""trial"",""time""
""fullscreenenter"",""5"",""34265""
","
","660.7999999970198","","48","","","3000","1","","","images/tutyellowplanet.jpg","images/tutalien4","images/tutalien3","images/tutrocket1","images/tutalien4","images/t.png","2","practice","false","2","rare","1","2022-02-13 15:45:11.315"
"two-step-fixation","84","303049","0.0-61.0-2.7","875","816","26","Male","false","true","true","false","""event"",""trial"",""time""
""blur"",""0"",""0""
""focus"",""0"",""0""
""blur"",""5"",""17288""
""focus"",""5"",""32658""
""fullscreenenter"",""5"",""34265""
","""event"",""trial"",""time""
""blur"",""0"",""0""
""blur"",""5"",""17288""
","""event"",""trial"",""time""
""focus"",""0"",""0""
""focus"",""5"",""32658""
","""event"",""trial"",""time""
""fullscreenenter"",""5"",""34265""
","
","","images/earth.jpg","","","","","","","","","","","","","","fixation","","","","","",""
"d3-animate-choice","85","305619","0.0-61.0-0.8","875","816","26","Male","false","true","true","false","""event"",""trial"",""time""
""blur"",""0"",""0""
""focus"",""0"",""0""
""blur"",""5"",""17288""
""focus"",""5"",""32658""
""fullscreenenter"",""5"",""34265""
","""event"",""trial"",""time""
""blur"",""0"",""0""
""blur"",""5"",""17288""
","""event"",""trial"",""time""
""focus"",""0"",""0""
""focus"",""5"",""32658""
","""event"",""trial"",""time""
""fullscreenenter"",""5"",""34265""
","
","562.7999999970198","","48","","","3000","1","","","images/earth.jpg","images/tutrocket2","images/tutrocket1","null","images/tutrocket2","","1","practice","null","2","","",""
"d3-animate-choice","86","308277","0.0-61.0-1.8","875","816","26","Male","false","true","true","false","""event"",""trial"",""time""
""blur"",""0"",""0""
""focus"",""0"",""0""
""blur"",""5"",""17288""
""focus"",""5"",""32658""
""fullscreenenter"",""5"",""34265""
","""event"",""trial"",""time""
""blur"",""0"",""0""
""blur"",""5"",""17288""
","""event"",""trial"",""time""
""focus"",""0"",""0""
""focus"",""5"",""32658""
","""event"",""trial"",""time""
""fullscreenenter"",""5"",""34265""
","
","651.6999999955297","","48","","","3000","1","","","images/tutyellowplanet.jpg","images/tutalien4","images/tutalien3","images/tutrocket2","images/tutalien4","images/t.png","2","practice","true","2","common","1","2022-02-13 15:45:17.546"
"two-step-fixation","87","309282","0.0-61.0-2.8","875","816","26","Male","false","true","true","false","""event"",""trial"",""time""
""blur"",""0"",""0""
""focus"",""0"",""0""
""blur"",""5"",""17288""
""focus"",""5"",""32658""
""fullscreenenter"",""5"",""34265""
","""event"",""trial"",""time""
""blur"",""0"",""0""
""blur"",""5"",""17288""
","""event"",""trial"",""time""
""focus"",""0"",""0""
""focus"",""5"",""32658""
","""event"",""trial"",""time""
""fullscreenenter"",""5"",""34265""
","
","","images/earth.jpg","","","","","","","","","","","","","","fixation","","","","","",""
"d3-animate-choice","88","311904","0.0-61.0-0.9","875","816","26","Male","false","true","true","false","""event"",""trial"",""time""
""blur"",""0"",""0""
""focus"",""0"",""0""
""blur"",""5"",""17288""
""focus"",""5"",""32658""
""fullscreenenter"",""5"",""34265""
","""event"",""trial"",""time""
""blur"",""0"",""0""
""blur"",""5"",""17288""
","""event"",""trial"",""time""
""focus"",""0"",""0""
""focus"",""5"",""32658""
","""event"",""trial"",""time""
""fullscreenenter"",""5"",""34265""
","
","616.5","","48","","","3000","1","2619.7999999970198","48","images/earth.jpg","images/tutrocket2","images/tutrocket1","null","images/tutrocket2","","1","practice","null","2","","",""
"d3-animate-choice","89","314773","0.0-61.0-1.9","875","816","26","Male","false","true","true","false","""event"",""trial"",""time""
""blur"",""0"",""0""
""focus"",""0"",""0""
""blur"",""5"",""17288""
""focus"",""5"",""32658""
""fullscreenenter"",""5"",""34265""
","""event"",""trial"",""time""
""blur"",""0"",""0""
""blur"",""5"",""17288""
","""event"",""trial"",""time""
""focus"",""0"",""0""
""focus"",""5"",""32658""
","""event"",""trial"",""time""
""fullscreenenter"",""5"",""34265""
","
","861.2000000029802","","48","","","3000","1","","","images/tutyellowplanet.jpg","images/tutalien4","images/tutalien3","images/tutrocket2","images/tutalien4","images/t.png","2","practice","true","2","common","1","2022-02-13 15:45:24.042"
"two-step-fixation","90","315777","0.0-61.0-2.9","875","816","26","Male","false","true","true","false","""event"",""trial"",""time""
""blur"",""0"",""0""
""focus"",""0"",""0""
""blur"",""5"",""17288""
""focus"",""5"",""32658""
""fullscreenenter"",""5"",""34265""
","""event"",""trial"",""time""
""blur"",""0"",""0""
""blur"",""5"",""17288""
","""event"",""trial"",""time""
""focus"",""0"",""0""
""focus"",""5"",""32658""
","""event"",""trial"",""time""
""fullscreenenter"",""5"",""34265""
","
","","images/earth.jpg","","","","","","","","","","","","","","fixation","","","","","",""
"d3-animate-choice","91","318390","0.0-61.0-0.10","875","816","26","Male","false","true","true","false","""event"",""trial"",""time""
""blur"",""0"",""0""
""focus"",""0"",""0""
""blur"",""5"",""17288""
""focus"",""5"",""32658""
""fullscreenenter"",""5"",""34265""
","""event"",""trial"",""time""
""blur"",""0"",""0""
""blur"",""5"",""17288""
","""event"",""trial"",""time""
""focus"",""0"",""0""
""focus"",""5"",""32658""
","""event"",""trial"",""time""
""fullscreenenter"",""5"",""34265""
","
","606.5","","48","","","3000","1","","","images/earth.jpg","images/tutrocket2","images/tutrocket1","null","images/tutrocket2","","1","practice","null","2","","",""
"d3-animate-choice","92","321878","0.0-61.0-1.10","875","816","26","Male","false","true","true","false","""event"",""trial"",""time""
""blur"",""0"",""0""
""focus"",""0"",""0""
""blur"",""5"",""17288""
""focus"",""5"",""32658""
""fullscreenenter"",""5"",""34265""
","""event"",""trial"",""time""
""blur"",""0"",""0""
""blur"",""5"",""17288""
","""event"",""trial"",""time""
""focus"",""0"",""0""
""focus"",""5"",""32658""
","""event"",""trial"",""time""
""fullscreenenter"",""5"",""34265""
","
","1480.6999999955297","","48","","","3000","1","","","images/tutgreenplanet.jpg","images/tutalien2","images/tutalien1","images/tutrocket2","images/tutalien2","images/nothing.png","2","practice","false","2","rare","0","2022-02-13 15:45:31.147"
"two-step-fixation","93","322882","0.0-61.0-2.10","875","816","26","Male","false","true","true","false","""event"",""trial"",""time""
""blur"",""0"",""0""
""focus"",""0"",""0""
""blur"",""5"",""17288""
""focus"",""5"",""32658""
""fullscreenenter"",""5"",""34265""
","""event"",""trial"",""time""
""blur"",""0"",""0""
""blur"",""5"",""17288""
","""event"",""trial"",""time""
""focus"",""0"",""0""
""focus"",""5"",""32658""
","""event"",""trial"",""time""
""fullscreenenter"",""5"",""34265""
","
","","images/earth.jpg","","","","","","","","","","","","","","fixation","","","","","",""
"d3-animate-choice","94","325696","0.0-61.0-0.11","875","816","26","Male","false","true","true","false","""event"",""trial"",""time""
""blur"",""0"",""0""
""focus"",""0"",""0""
""blur"",""5"",""17288""
""focus"",""5"",""32658""
""fullscreenenter"",""5"",""34265""
","""event"",""trial"",""time""
""blur"",""0"",""0""
""blur"",""5"",""17288""
","""event"",""trial"",""time""
""focus"",""0"",""0""
""focus"",""5"",""32658""
","""event"",""trial"",""time""
""fullscreenenter"",""5"",""34265""
","
","810.3999999985099","","48","","","3000","1","","","images/earth.jpg","images/tutrocket2","images/tutrocket1","null","images/tutrocket2","","1","practice","null","2","","",""
"d3-animate-choice","95","328293","0.0-61.0-1.11","875","816","26","Male","false","true","true","false","""event"",""trial"",""time""
""blur"",""0"",""0""
""focus"",""0"",""0""
""blur"",""5"",""17288""
""focus"",""5"",""32658""
""fullscreenenter"",""5"",""34265""
","""event"",""trial"",""time""
""blur"",""0"",""0""
""blur"",""5"",""17288""
","""event"",""trial"",""time""
""focus"",""0"",""0""
""focus"",""5"",""32658""
","""event"",""trial"",""time""
""fullscreenenter"",""5"",""34265""
","
","593.0999999940395","","48","","","3000","1","","","images/tutyellowplanet.jpg","images/tutalien4","images/tutalien3","images/tutrocket2","images/tutalien4","images/nothing.png","2","practice","true","2","common","0","2022-02-13 15:45:37.562"
"two-step-fixation","96","329297","0.0-61.0-2.11","875","816","26","Male","false","true","true","false","""event"",""trial"",""time""
""blur"",""0"",""0""
""focus"",""0"",""0""
""blur"",""5"",""17288""
""focus"",""5"",""32658""
""fullscreenenter"",""5"",""34265""
","""event"",""trial"",""time""
""blur"",""0"",""0""
""blur"",""5"",""17288""
","""event"",""trial"",""time""
""focus"",""0"",""0""
""focus"",""5"",""32658""
","""event"",""trial"",""time""
""fullscreenenter"",""5"",""34265""
","
","","images/earth.jpg","","","","","","","","","","","","","","fixation","","","","","",""
"d3-animate-choice","97","332152","0.0-61.0-0.12","875","816","26","Male","false","true","true","false","""event"",""trial"",""time""
""blur"",""0"",""0""
""focus"",""0"",""0""
""blur"",""5"",""17288""
""focus"",""5"",""32658""
""fullscreenenter"",""5"",""34265""
","""event"",""trial"",""time""
""blur"",""0"",""0""
""blur"",""5"",""17288""
","""event"",""trial"",""time""
""focus"",""0"",""0""
""focus"",""5"",""32658""
","""event"",""trial"",""time""
""fullscreenenter"",""5"",""34265""
","
","850.2999999970198","","48","","","3000","1","","","images/earth.jpg","images/tutrocket2","images/tutrocket1","null","images/tutrocket2","","1","practice","null","2","","",""
"d3-animate-choice","98","334858","0.0-61.0-1.12","875","816","26","Male","false","true","true","false","""event"",""trial"",""time""
""blur"",""0"",""0""
""focus"",""0"",""0""
""blur"",""5"",""17288""
""focus"",""5"",""32658""
""fullscreenenter"",""5"",""34265""
","""event"",""trial"",""time""
""blur"",""0"",""0""
""blur"",""5"",""17288""
","""event"",""trial"",""time""
""focus"",""0"",""0""
""focus"",""5"",""32658""
","""event"",""trial"",""time""
""fullscreenenter"",""5"",""34265""
","
","698.6999999955297","","49","","","3000","1","","","images/tutgreenplanet.jpg","images/tutalien2","images/tutalien1","images/tutrocket2","images/tutalien1","images/nothing.png","2","practice","false","1","rare","0","2022-02-13 15:45:44.128"
"two-step-fixation","99","335863","0.0-61.0-2.12","875","816","26","Male","false","true","true","false","""event"",""trial"",""time""
""blur"",""0"",""0""
""focus"",""0"",""0""
""blur"",""5"",""17288""
""focus"",""5"",""32658""
""fullscreenenter"",""5"",""34265""
","""event"",""trial"",""time""
""blur"",""0"",""0""
""blur"",""5"",""17288""
","""event"",""trial"",""time""
""focus"",""0"",""0""
""focus"",""5"",""32658""
","""event"",""trial"",""time""
""fullscreenenter"",""5"",""34265""
","
","","images/earth.jpg","","","","","","","","","","","","","","fixation","","","","","",""
"d3-animate-choice","100","338596","0.0-61.0-0.13","875","816","26","Male","false","true","true","false","""event"",""trial"",""time""
""blur"",""0"",""0""
""focus"",""0"",""0""
""blur"",""5"",""17288""
""focus"",""5"",""32658""
""fullscreenenter"",""5"",""34265""
","""event"",""trial"",""time""
""blur"",""0"",""0""
""blur"",""5"",""17288""
","""event"",""trial"",""time""
""focus"",""0"",""0""
""focus"",""5"",""32658""
","""event"",""trial"",""time""
""fullscreenenter"",""5"",""34265""
","
","729","","48","","","3000","1","","","images/earth.jpg","images/tutrocket2","images/tutrocket1","null","images/tutrocket2","","1","practice","null","2","","",""
"d3-animate-choice","101","341529","0.0-61.0-1.13","875","816","26","Male","false","true","true","false","""event"",""trial"",""time""
""blur"",""0"",""0""
""focus"",""0"",""0""
""blur"",""5"",""17288""
""focus"",""5"",""32658""
""fullscreenenter"",""5"",""34265""
","""event"",""trial"",""time""
""blur"",""0"",""0""
""blur"",""5"",""17288""
","""event"",""trial"",""time""
""focus"",""0"",""0""
""focus"",""5"",""32658""
","""event"",""trial"",""time""
""fullscreenenter"",""5"",""34265""
","
","927.6000000014901","","49","","","3000","1","","","images/tutgreenplanet.jpg","images/tutalien2","images/tutalien1","images/tutrocket2","images/tutalien1","images/nothing.png","2","practice","false","1","rare","0","2022-02-13 15:45:50.798"
"two-step-fixation","102","342539","0.0-61.0-2.13","875","816","26","Male","false","true","true","false","""event"",""trial"",""time""
""blur"",""0"",""0""
""focus"",""0"",""0""
""blur"",""5"",""17288""
""focus"",""5"",""32658""
""fullscreenenter"",""5"",""34265""
","""event"",""trial"",""time""
""blur"",""0"",""0""
""blur"",""5"",""17288""
","""event"",""trial"",""time""
""focus"",""0"",""0""
""focus"",""5"",""32658""
","""event"",""trial"",""time""
""fullscreenenter"",""5"",""34265""
","
","","images/earth.jpg","","","","","","","","","","","","","","fixation","","","","","",""
"d3-animate-choice","103","345004","0.0-61.0-0.14","875","816","26","Male","false","true","true","false","""event"",""trial"",""time""
""blur"",""0"",""0""
""focus"",""0"",""0""
""blur"",""5"",""17288""
""focus"",""5"",""32658""
""fullscreenenter"",""5"",""34265""
","""event"",""trial"",""time""
""blur"",""0"",""0""
""blur"",""5"",""17288""
","""event"",""trial"",""time""
""focus"",""0"",""0""
""focus"",""5"",""32658""
","""event"",""trial"",""time""
""fullscreenenter"",""5"",""34265""
","
","458","","48","","","3000","1","","","images/earth.jpg","images/tutrocket2","images/tutrocket1","null","images/tutrocket2","","1","practice","null","2","","",""
"d3-animate-choice","104","347943","0.0-61.0-1.14","875","816","26","Male","false","true","true","false","""event"",""trial"",""time""
""blur"",""0"",""0""
""focus"",""0"",""0""
""blur"",""5"",""17288""
""focus"",""5"",""32658""
""fullscreenenter"",""5"",""34265""
","""event"",""trial"",""time""
""blur"",""0"",""0""
""blur"",""5"",""17288""
","""event"",""trial"",""time""
""focus"",""0"",""0""
""focus"",""5"",""32658""
","""event"",""trial"",""time""
""fullscreenenter"",""5"",""34265""
","
","934.1000000014901","","48","","","3000","1","","","images/tutgreenplanet.jpg","images/tutalien2","images/tutalien1","images/tutrocket2","images/tutalien2","images/nothing.png","2","practice","false","2","rare","0","2022-02-13 15:45:57.212"
"two-step-fixation","105","348947","0.0-61.0-2.14","875","816","26","Male","false","true","true","false","""event"",""trial"",""time""
""blur"",""0"",""0""
""focus"",""0"",""0""
""blur"",""5"",""17288""
""focus"",""5"",""32658""
""fullscreenenter"",""5"",""34265""
","""event"",""trial"",""time""
""blur"",""0"",""0""
""blur"",""5"",""17288""
","""event"",""trial"",""time""
""focus"",""0"",""0""
""focus"",""5"",""32658""
","""event"",""trial"",""time""
""fullscreenenter"",""5"",""34265""
","
","","images/earth.jpg","","","","","","","","","","","","","","fixation","","","","","",""
"d3-animate-choice","106","351385","0.0-61.0-0.15","875","816","26","Male","false","true","true","false","""event"",""trial"",""time""
""blur"",""0"",""0""
""focus"",""0"",""0""
""blur"",""5"",""17288""
""focus"",""5"",""32658""
""fullscreenenter"",""5"",""34265""
","""event"",""trial"",""time""
""blur"",""0"",""0""
""blur"",""5"",""17288""
","""event"",""trial"",""time""
""focus"",""0"",""0""
""focus"",""5"",""32658""
","""event"",""trial"",""time""
""fullscreenenter"",""5"",""34265""
","
","434.19999999552965","","48","","","3000","1","","","images/earth.jpg","images/tutrocket2","images/tutrocket1","null","images/tutrocket2","","1","practice","null","2","","",""
"d3-animate-choice","107","353876","0.0-61.0-1.15","875","816","26","Male","false","true","true","false","""event"",""trial"",""time""
""blur"",""0"",""0""
""focus"",""0"",""0""
""blur"",""5"",""17288""
""focus"",""5"",""32658""
""fullscreenenter"",""5"",""34265""
","""event"",""trial"",""time""
""blur"",""0"",""0""
""blur"",""5"",""17288""
","""event"",""trial"",""time""
""focus"",""0"",""0""
""focus"",""5"",""32658""
","""event"",""trial"",""time""
""fullscreenenter"",""5"",""34265""
","
","481.3999999985099","","48","","","3000","1","","","images/tutyellowplanet.jpg","images/tutalien4","images/tutalien3","images/tutrocket2","images/tutalien4","images/t.png","2","practice","true","2","common","1","2022-02-13 15:46:03.145"
"two-step-fixation","108","354883","0.0-61.0-2.15","875","816","26","Male","false","true","true","false","""event"",""trial"",""time""
""blur"",""0"",""0""
""focus"",""0"",""0""
""blur"",""5"",""17288""
""focus"",""5"",""32658""
""fullscreenenter"",""5"",""34265""
","""event"",""trial"",""time""
""blur"",""0"",""0""
""blur"",""5"",""17288""
","""event"",""trial"",""time""
""focus"",""0"",""0""
""focus"",""5"",""32658""
","""event"",""trial"",""time""
""fullscreenenter"",""5"",""34265""
","
","","images/earth.jpg","","","","","","","","","","","","","","fixation","","","","","",""
"d3-animate-choice","109","357303","0.0-61.0-0.16","875","816","26","Male","false","true","true","false","""event"",""trial"",""time""
""blur"",""0"",""0""
""focus"",""0"",""0""
""blur"",""5"",""17288""
""focus"",""5"",""32658""
""fullscreenenter"",""5"",""34265""
","""event"",""trial"",""time""
""blur"",""0"",""0""
""blur"",""5"",""17288""
","""event"",""trial"",""time""
""focus"",""0"",""0""
""focus"",""5"",""32658""
","""event"",""trial"",""time""
""fullscreenenter"",""5"",""34265""
","
","414","","48","","","3000","1","","","images/earth.jpg","images/tutrocket2","images/tutrocket1","null","images/tutrocket2","","1","practice","null","2","","",""
"d3-animate-choice","110","359874","0.0-61.0-1.16","875","816","26","Male","false","true","true","false","""event"",""trial"",""time""
""blur"",""0"",""0""
""focus"",""0"",""0""
""blur"",""5"",""17288""
""focus"",""5"",""32658""
""fullscreenenter"",""5"",""34265""
","""event"",""trial"",""time""
""blur"",""0"",""0""
""blur"",""5"",""17288""
","""event"",""trial"",""time""
""focus"",""0"",""0""
""focus"",""5"",""32658""
","""event"",""trial"",""time""
""fullscreenenter"",""5"",""34265""
","
","563.6999999955297","","48","","","3000","1","","","images/tutyellowplanet.jpg","images/tutalien4","images/tutalien3","images/tutrocket2","images/tutalien4","images/nothing.png","2","practice","true","2","common","0","2022-02-13 15:46:09.143"
"two-step-fixation","111","360882","0.0-61.0-2.16","875","816","26","Male","false","true","true","false","""event"",""trial"",""time""
""blur"",""0"",""0""
""focus"",""0"",""0""
""blur"",""5"",""17288""
""focus"",""5"",""32658""
""fullscreenenter"",""5"",""34265""
","""event"",""trial"",""time""
""blur"",""0"",""0""
""blur"",""5"",""17288""
","""event"",""trial"",""time""
""focus"",""0"",""0""
""focus"",""5"",""32658""
","""event"",""trial"",""time""
""fullscreenenter"",""5"",""34265""
","
","","images/earth.jpg","","","","","","","","","","","","","","fixation","","","","","",""
"d3-animate-choice","112","363192","0.0-61.0-0.17","875","816","26","Male","false","true","true","false","""event"",""trial"",""time""
""blur"",""0"",""0""
""focus"",""0"",""0""
""blur"",""5"",""17288""
""focus"",""5"",""32658""
""fullscreenenter"",""5"",""34265""
","""event"",""trial"",""time""
""blur"",""0"",""0""
""blur"",""5"",""17288""
","""event"",""trial"",""time""
""focus"",""0"",""0""
""focus"",""5"",""32658""
","""event"",""trial"",""time""
""fullscreenenter"",""5"",""34265""
","
","305.6000000014901","","48","","","3000","1","","","images/earth.jpg","images/tutrocket2","images/tutrocket1","null","images/tutrocket2","","1","practice","null","2","","",""
"d3-animate-choice","113","365560","0.0-61.0-1.17","875","816","26","Male","false","true","true","false","""event"",""trial"",""time""
""blur"",""0"",""0""
""focus"",""0"",""0""
""blur"",""5"",""17288""
""focus"",""5"",""32658""
""fullscreenenter"",""5"",""34265""
","""event"",""trial"",""time""
""blur"",""0"",""0""
""blur"",""5"",""17288""
","""event"",""trial"",""time""
""focus"",""0"",""0""
""focus"",""5"",""32658""
","""event"",""trial"",""time""
""fullscreenenter"",""5"",""34265""
","
","359.69999999552965","","48","","","3000","1","","","images/tutyellowplanet.jpg","images/tutalien4","images/tutalien3","images/tutrocket2","images/tutalien4","images/nothing.png","2","practice","true","2","common","0","2022-02-13 15:46:14.829"
"two-step-fixation","114","366566","0.0-61.0-2.17","875","816","26","Male","false","true","true","false","""event"",""trial"",""time""
""blur"",""0"",""0""
""focus"",""0"",""0""
""blur"",""5"",""17288""
""focus"",""5"",""32658""
""fullscreenenter"",""5"",""34265""
","""event"",""trial"",""time""
""blur"",""0"",""0""
""blur"",""5"",""17288""
","""event"",""trial"",""time""
""focus"",""0"",""0""
""focus"",""5"",""32658""
","""event"",""trial"",""time""
""fullscreenenter"",""5"",""34265""
","
","","images/earth.jpg","","","","","","","","","","","","","","fixation","","","","","",""
"d3-animate-choice","115","368870","0.0-61.0-0.18","875","816","26","Male","false","true","true","false","""event"",""trial"",""time""
""blur"",""0"",""0""
""focus"",""0"",""0""
""blur"",""5"",""17288""
""focus"",""5"",""32658""
""fullscreenenter"",""5"",""34265""
","""event"",""trial"",""time""
""blur"",""0"",""0""
""blur"",""5"",""17288""
","""event"",""trial"",""time""
""focus"",""0"",""0""
""focus"",""5"",""32658""
","""event"",""trial"",""time""
""fullscreenenter"",""5"",""34265""
","
","295.69999999552965","","48","","","3000","1","","","images/earth.jpg","images/tutrocket2","images/tutrocket1","null","images/tutrocket2","","1","practice","null","2","","",""
"d3-animate-choice","116","371308","0.0-61.0-1.18","875","816","26","Male","false","true","true","false","""event"",""trial"",""time""
""blur"",""0"",""0""
""focus"",""0"",""0""
""blur"",""5"",""17288""
""focus"",""5"",""32658""
""fullscreenenter"",""5"",""34265""
","""event"",""trial"",""time""
""blur"",""0"",""0""
""blur"",""5"",""17288""
","""event"",""trial"",""time""
""focus"",""0"",""0""
""focus"",""5"",""32658""
","""event"",""trial"",""time""
""fullscreenenter"",""5"",""34265""
","
","434","","48","","","3000","1","","","images/tutyellowplanet.jpg","images/tutalien4","images/tutalien3","images/tutrocket2","images/tutalien4","images/nothing.png","2","practice","true","2","common","0","2022-02-13 15:46:20.577"
"two-step-fixation","117","372312","0.0-61.0-2.18","875","816","26","Male","false","true","true","false","""event"",""trial"",""time""
""blur"",""0"",""0""
""focus"",""0"",""0""
""blur"",""5"",""17288""
""focus"",""5"",""32658""
""fullscreenenter"",""5"",""34265""
","""event"",""trial"",""time""
""blur"",""0"",""0""
""blur"",""5"",""17288""
","""event"",""trial"",""time""
""focus"",""0"",""0""
""focus"",""5"",""32658""
","""event"",""trial"",""time""
""fullscreenenter"",""5"",""34265""
","
","","images/earth.jpg","","","","","","","","","","","","","","fixation","","","","","",""
"d3-animate-choice","118","375143","0.0-61.0-0.19","875","816","26","Male","false","true","true","false","""event"",""trial"",""time""
""blur"",""0"",""0""
""focus"",""0"",""0""
""blur"",""5"",""17288""
""focus"",""5"",""32658""
""fullscreenenter"",""5"",""34265""
","""event"",""trial"",""time""
""blur"",""0"",""0""
""blur"",""5"",""17288""
","""event"",""trial"",""time""
""focus"",""0"",""0""
""focus"",""5"",""32658""
","""event"",""trial"",""time""
""fullscreenenter"",""5"",""34265""
","
","825.6999999955297","","48","","","3000","1","","","images/earth.jpg","images/tutrocket2","images/tutrocket1","null","images/tutrocket2","","1","practice","null","2","","",""
"d3-animate-choice","119","377862","0.0-61.0-1.19","875","816","26","Male","false","true","true","false","""event"",""trial"",""time""
""blur"",""0"",""0""
""focus"",""0"",""0""
""blur"",""5"",""17288""
""focus"",""5"",""32658""
""fullscreenenter"",""5"",""34265""
","""event"",""trial"",""time""
""blur"",""0"",""0""
""blur"",""5"",""17288""
","""event"",""trial"",""time""
""focus"",""0"",""0""
""focus"",""5"",""32658""
","""event"",""trial"",""time""
""fullscreenenter"",""5"",""34265""
","
","714.1000000014901","","48","","","3000","1","","","images/tutyellowplanet.jpg","images/tutalien4","images/tutalien3","images/tutrocket2","images/tutalien4","images/t.png","2","practice","true","2","common","1","2022-02-13 15:46:27.131"
"two-step-fixation","120","378866","0.0-61.0-2.19","875","816","26","Male","false","true","true","false","""event"",""trial"",""time""
""blur"",""0"",""0""
""focus"",""0"",""0""
""blur"",""5"",""17288""
""focus"",""5"",""32658""
""fullscreenenter"",""5"",""34265""
","""event"",""trial"",""time""
""blur"",""0"",""0""
""blur"",""5"",""17288""
","""event"",""trial"",""time""
""focus"",""0"",""0""
""focus"",""5"",""32658""
","""event"",""trial"",""time""
""fullscreenenter"",""5"",""34265""
","
","","images/earth.jpg","","","","","","","","","","","","","","fixation","","","","","",""
"d3-instructions","121","382811","0.0-62.0","875","816","26","Male","false","true","true","false","""event"",""trial"",""time""
""blur"",""0"",""0""
""focus"",""0"",""0""
""blur"",""5"",""17288""
""focus"",""5"",""32658""
""fullscreenenter"",""5"",""34265""
","""event"",""trial"",""time""
""blur"",""0"",""0""
""blur"",""5"",""17288""
","""event"",""trial"",""time""
""focus"",""0"",""0""
""focus"",""5"",""32658""
","""event"",""trial"",""time""
""fullscreenenter"",""5"",""34265""
","
","","","","","","","","","","","","","","","","","","","","","",""
"audio-keyboard-response","122","386433","0.0-63.0","875","816","26","Male","false","true","true","false","""event"",""trial"",""time""
""blur"",""0"",""0""
""focus"",""0"",""0""
""blur"",""5"",""17288""
""focus"",""5"",""32658""
""fullscreenenter"",""5"",""34265""
","""event"",""trial"",""time""
""blur"",""0"",""0""
""blur"",""5"",""17288""
","""event"",""trial"",""time""
""focus"",""0"",""0""
""focus"",""5"",""32658""
","""event"",""trial"",""time""
""fullscreenenter"",""5"",""34265""
","
","3622","audio/instructions/treasure_feedback.wav","32","","","","","","","","","","","","","","","","","","",""
"d3-instructions","123","395697","0.0-64.0","875","816","26","Male","false","true","true","false","""event"",""trial"",""time""
""blur"",""0"",""0""
""focus"",""0"",""0""
""blur"",""5"",""17288""
""focus"",""5"",""32658""
""fullscreenenter"",""5"",""34265""
","""event"",""trial"",""time""
""blur"",""0"",""0""
""blur"",""5"",""17288""
","""event"",""trial"",""time""
""focus"",""0"",""0""
""focus"",""5"",""32658""
","""event"",""trial"",""time""
""fullscreenenter"",""5"",""34265""
","
","","","","","","","","","","","","","","","","","","","","","",""
"d3-instructions","124","403129","0.0-65.0","875","816","26","Male","false","true","true","false","""event"",""trial"",""time""
""blur"",""0"",""0""
""focus"",""0"",""0""
""blur"",""5"",""17288""
""focus"",""5"",""32658""
""fullscreenenter"",""5"",""34265""
","""event"",""trial"",""time""
""blur"",""0"",""0""
""blur"",""5"",""17288""
","""event"",""trial"",""time""
""focus"",""0"",""0""
""focus"",""5"",""32658""
","""event"",""trial"",""time""
""fullscreenenter"",""5"",""34265""
","
","","","","","","","","","","","","","","","","","","","","","",""
"d3-instructions","125","417179","0.0-66.0","875","816","26","Male","false","true","true","false","""event"",""trial"",""time""
""blur"",""0"",""0""
""focus"",""0"",""0""
""blur"",""5"",""17288""
""focus"",""5"",""32658""
""fullscreenenter"",""5"",""34265""
","""event"",""trial"",""time""
""blur"",""0"",""0""
""blur"",""5"",""17288""
","""event"",""trial"",""time""
""focus"",""0"",""0""
""focus"",""5"",""32658""
","""event"",""trial"",""time""
""fullscreenenter"",""5"",""34265""
","
","","","","","","","","","","","","","","","","","","","","","",""
"d3-instructions","126","427458","0.0-67.0","875","816","26","Male","false","true","true","false","""event"",""trial"",""time""
""blur"",""0"",""0""
""focus"",""0"",""0""
""blur"",""5"",""17288""
""focus"",""5"",""32658""
""fullscreenenter"",""5"",""34265""
","""event"",""trial"",""time""
""blur"",""0"",""0""
""blur"",""5"",""17288""
","""event"",""trial"",""time""
""focus"",""0"",""0""
""focus"",""5"",""32658""
","""event"",""trial"",""time""
""fullscreenenter"",""5"",""34265""
","
","","","","","","","","","","","","","","","","","","","","","",""
"d3-instructions","127","429936","0.0-68.0","875","816","26","Male","false","true","true","false","""event"",""trial"",""time""
""blur"",""0"",""0""
""focus"",""0"",""0""
""blur"",""5"",""17288""
""focus"",""5"",""32658""
""fullscreenenter"",""5"",""34265""
","""event"",""trial"",""time""
""blur"",""0"",""0""
""blur"",""5"",""17288""
","""event"",""trial"",""time""
""focus"",""0"",""0""
""focus"",""5"",""32658""
","""event"",""trial"",""time""
""fullscreenenter"",""5"",""34265""
","
","","","","","","","","","","","","","","","","","","","","","",""
"instructions-quiz","128","433679","0.0-69.0","875","816","26","Male","false","true","true","false","""event"",""trial"",""time""
""blur"",""0"",""0""
""focus"",""0"",""0""
""blur"",""5"",""17288""
""focus"",""5"",""32658""
""fullscreenenter"",""5"",""34265""
","""event"",""trial"",""time""
""blur"",""0"",""0""
""blur"",""5"",""17288""
","""event"",""trial"",""time""
""focus"",""0"",""0""
""focus"",""5"",""32658""
","""event"",""trial"",""time""
""fullscreenenter"",""5"",""34265""
","
","3741.10000000149","audio/quiz/Q1_Prompt.wav","","1","","","","","","","","","","","","","","","","","",""
"audio-keyboard-response","129","435426","0.0-70.0","875","816","26","Male","false","true","true","false","""event"",""trial"",""time""
""blur"",""0"",""0""
""focus"",""0"",""0""
""blur"",""5"",""17288""
""focus"",""5"",""32658""
""fullscreenenter"",""5"",""34265""
","""event"",""trial"",""time""
""blur"",""0"",""0""
""blur"",""5"",""17288""
","""event"",""trial"",""time""
""focus"",""0"",""0""
""focus"",""5"",""32658""
","""event"",""trial"",""time""
""fullscreenenter"",""5"",""34265""
","
","1747","audio/quiz/Q1_Correct.wav","32","","","","","","","","","","","","","","","","","","",""
"instructions-quiz","130","441512","0.0-71.0","875","816","26","Male","false","true","true","false","""event"",""trial"",""time""
""blur"",""0"",""0""
""focus"",""0"",""0""
""blur"",""5"",""17288""
""focus"",""5"",""32658""
""fullscreenenter"",""5"",""34265""
","""event"",""trial"",""time""
""blur"",""0"",""0""
""blur"",""5"",""17288""
","""event"",""trial"",""time""
""focus"",""0"",""0""
""focus"",""5"",""32658""
","""event"",""trial"",""time""
""fullscreenenter"",""5"",""34265""
","
","6083.79999999702","audio/quiz/Q2_Prompt.wav","","0","","","","","","","","","","","","","","","","","",""
"audio-keyboard-response","131","443864","0.0-72.0","875","816","26","Male","false","true","true","false","""event"",""trial"",""time""
""blur"",""0"",""0""
""focus"",""0"",""0""
""blur"",""5"",""17288""
""focus"",""5"",""32658""
""fullscreenenter"",""5"",""34265""
","""event"",""trial"",""time""
""blur"",""0"",""0""
""blur"",""5"",""17288""
","""event"",""trial"",""time""
""focus"",""0"",""0""
""focus"",""5"",""32658""
","""event"",""trial"",""time""
""fullscreenenter"",""5"",""34265""
","
","2351","audio/quiz/Q2_Correct.wav","32","","","","","","","","","","","","","","","","","","",""
"instructions-quiz","132","446743","0.0-73.0","875","816","26","Male","false","true","true","false","""event"",""trial"",""time""
""blur"",""0"",""0""
""focus"",""0"",""0""
""blur"",""5"",""17288""
""focus"",""5"",""32658""
""fullscreenenter"",""5"",""34265""
","""event"",""trial"",""time""
""blur"",""0"",""0""
""blur"",""5"",""17288""
","""event"",""trial"",""time""
""focus"",""0"",""0""
""focus"",""5"",""32658""
","""event"",""trial"",""time""
""fullscreenenter"",""5"",""34265""
","
","2876.8000000044703","audio/quiz/Q3_Prompt.wav","","1","","","","","","","","","","","","","","","","","",""
"audio-keyboard-response","133","447830","0.0-74.0","875","816","26","Male","false","true","true","false","""event"",""trial"",""time""
""blur"",""0"",""0""
""focus"",""0"",""0""
""blur"",""5"",""17288""
""focus"",""5"",""32658""
""fullscreenenter"",""5"",""34265""
","""event"",""trial"",""time""
""blur"",""0"",""0""
""blur"",""5"",""17288""
","""event"",""trial"",""time""
""focus"",""0"",""0""
""focus"",""5"",""32658""
","""event"",""trial"",""time""
""fullscreenenter"",""5"",""34265""
","
","1080","audio/quiz/Q3_Correct.wav","32","","","","","","","","","","","","","","","","","","",""
"d3-instructions","134","453671","0.0-75.0","875","816","26","Male","false","true","true","false","""event"",""trial"",""time""
""blur"",""0"",""0""
""focus"",""0"",""0""
""blur"",""5"",""17288""
""focus"",""5"",""32658""
""fullscreenenter"",""5"",""34265""
","""event"",""trial"",""time""
""blur"",""0"",""0""
""blur"",""5"",""17288""
","""event"",""trial"",""time""
""focus"",""0"",""0""
""focus"",""5"",""32658""
","""event"",""trial"",""time""
""fullscreenenter"",""5"",""34265""
","
","","","","","","","","","","","","","","","","","","","","","",""
"d3-animate-choice","135","457009","0.0-76.0-0.0","875","816","26","Male","false","true","true","false","""event"",""trial"",""time""
""blur"",""0"",""0""
""focus"",""0"",""0""
""blur"",""5"",""17288""
""focus"",""5"",""32658""
""fullscreenenter"",""5"",""34265""
","""event"",""trial"",""time""
""blur"",""0"",""0""
""blur"",""5"",""17288""
","""event"",""trial"",""time""
""focus"",""0"",""0""
""focus"",""5"",""32658""
","""event"",""trial"",""time""
""fullscreenenter"",""5"",""34265""
","
","1323.7000000029802","","49","","","3000","1","","","images/earth.jpg","images/rocket1","images/rocket2","null","images/rocket2","","1","real","null","1","","",""
"d3-animate-choice","136","459806","0.0-76.0-1.0","875","816","26","Male","false","true","true","false","""event"",""trial"",""time""
""blur"",""0"",""0""
""focus"",""0"",""0""
""blur"",""5"",""17288""
""focus"",""5"",""32658""
""fullscreenenter"",""5"",""34265""
","""event"",""trial"",""time""
""blur"",""0"",""0""
""blur"",""5"",""17288""
","""event"",""trial"",""time""
""focus"",""0"",""0""
""focus"",""5"",""32658""
","""event"",""trial"",""time""
""fullscreenenter"",""5"",""34265""
","
","793.7999999970198","","49","","","3000","1","","","images/purpleplanet.jpg","images/alien4","images/alien3","images/rocket2","images/alien3","images/t.png","2","real","true","1","common","1","2022-02-13 15:47:49.075"
"two-step-fixation","137","460810","0.0-76.0-2.0","875","816","26","Male","false","true","true","false","""event"",""trial"",""time""
""blur"",""0"",""0""
""focus"",""0"",""0""
""blur"",""5"",""17288""
""focus"",""5"",""32658""
""fullscreenenter"",""5"",""34265""
","""event"",""trial"",""time""
""blur"",""0"",""0""
""blur"",""5"",""17288""
","""event"",""trial"",""time""
""focus"",""0"",""0""
""focus"",""5"",""32658""
","""event"",""trial"",""time""
""fullscreenenter"",""5"",""34265""
","
","","images/earth.jpg","","","","","","","","","","","","","","fixation","","","","","",""
"d3-animate-choice","138","463295","0.0-76.0-0.1","875","816","26","Male","false","true","true","false","""event"",""trial"",""time""
""blur"",""0"",""0""
""focus"",""0"",""0""
""blur"",""5"",""17288""
""focus"",""5"",""32658""
""fullscreenenter"",""5"",""34265""
","""event"",""trial"",""time""
""blur"",""0"",""0""
""blur"",""5"",""17288""
","""event"",""trial"",""time""
""focus"",""0"",""0""
""focus"",""5"",""32658""
","""event"",""trial"",""time""
""fullscreenenter"",""5"",""34265""
","
","476.90000000596046","","49","","","3000","1","","","images/earth.jpg","images/rocket1","images/rocket2","null","images/rocket2","","1","real","null","1","","",""
"d3-animate-choice","139","465948","0.0-76.0-1.1","875","816","26","Male","false","true","true","false","""event"",""trial"",""time""
""blur"",""0"",""0""
""focus"",""0"",""0""
""blur"",""5"",""17288""
""focus"",""5"",""32658""
""fullscreenenter"",""5"",""34265""
","""event"",""trial"",""time""
""blur"",""0"",""0""
""blur"",""5"",""17288""
","""event"",""trial"",""time""
""focus"",""0"",""0""
""focus"",""5"",""32658""
","""event"",""trial"",""time""
""fullscreenenter"",""5"",""34265""
","
","648.2999999970198","","48","","","3000","1","","","images/purpleplanet.jpg","images/alien4","images/alien3","images/rocket2","images/alien4","images/nothing.png","2","real","true","2","common","0","2022-02-13 15:47:55.217"
"two-step-fixation","140","466951","0.0-76.0-2.1","875","816","26","Male","false","true","true","false","""event"",""trial"",""time""
""blur"",""0"",""0""
""focus"",""0"",""0""
""blur"",""5"",""17288""
""focus"",""5"",""32658""
""fullscreenenter"",""5"",""34265""
","""event"",""trial"",""time""
""blur"",""0"",""0""
""blur"",""5"",""17288""
","""event"",""trial"",""time""
""focus"",""0"",""0""
""focus"",""5"",""32658""
","""event"",""trial"",""time""
""fullscreenenter"",""5"",""34265""
","
","","images/earth.jpg","","","","","","","","","","","","","","fixation","","","","","",""
"d3-animate-choice","141","469378","0.0-76.0-0.2","875","816","26","Male","false","true","true","false","""event"",""trial"",""time""
""blur"",""0"",""0""
""focus"",""0"",""0""
""blur"",""5"",""17288""
""focus"",""5"",""32658""
""fullscreenenter"",""5"",""34265""
","""event"",""trial"",""time""
""blur"",""0"",""0""
""blur"",""5"",""17288""
","""event"",""trial"",""time""
""focus"",""0"",""0""
""focus"",""5"",""32658""
","""event"",""trial"",""time""
""fullscreenenter"",""5"",""34265""
","
","421.8999999985099","","49","","","3000","1","","","images/earth.jpg","images/rocket1","images/rocket2","null","images/rocket2","","1","real","null","1","","",""
"d3-animate-choice","142","472392","0.0-76.0-1.2","875","816","26","Male","false","true","true","false","""event"",""trial"",""time""
""blur"",""0"",""0""
""focus"",""0"",""0""
""blur"",""5"",""17288""
""focus"",""5"",""32658""
""fullscreenenter"",""5"",""34265""
","""event"",""trial"",""time""
""blur"",""0"",""0""
""blur"",""5"",""17288""
","""event"",""trial"",""time""
""focus"",""0"",""0""
""focus"",""5"",""32658""
","""event"",""trial"",""time""
""fullscreenenter"",""5"",""34265""
","
","1010.8000000044703","","49","","","3000","1","","","images/redplanet1.jpg","images/alien2","images/alien1","images/rocket2","images/alien1","images/nothing.png","2","real","false","1","rare","0","2022-02-13 15:48:01.661"
"two-step-fixation","143","473396","0.0-76.0-2.2","875","816","26","Male","false","true","true","false","""event"",""trial"",""time""
""blur"",""0"",""0""
""focus"",""0"",""0""
""blur"",""5"",""17288""
""focus"",""5"",""32658""
""fullscreenenter"",""5"",""34265""
","""event"",""trial"",""time""
""blur"",""0"",""0""
""blur"",""5"",""17288""
","""event"",""trial"",""time""
""focus"",""0"",""0""
""focus"",""5"",""32658""
","""event"",""trial"",""time""
""fullscreenenter"",""5"",""34265""
","
","","images/earth.jpg","","","","","","","","","","","","","","fixation","","","","","",""
"d3-animate-choice","144","475712","0.0-76.0-0.3","875","816","26","Male","false","true","true","false","""event"",""trial"",""time""
""blur"",""0"",""0""
""focus"",""0"",""0""
""blur"",""5"",""17288""
""focus"",""5"",""32658""
""fullscreenenter"",""5"",""34265""
","""event"",""trial"",""time""
""blur"",""0"",""0""
""blur"",""5"",""17288""
","""event"",""trial"",""time""
""focus"",""0"",""0""
""focus"",""5"",""32658""
","""event"",""trial"",""time""
""fullscreenenter"",""5"",""34265""
","
","311.3999999985099","","49","","","3000","1","","","images/earth.jpg","images/rocket1","images/rocket2","null","images/rocket2","","1","real","null","1","","",""
"d3-animate-choice","145","478173","0.0-76.0-1.3","875","816","26","Male","false","true","true","false","""event"",""trial"",""time""
""blur"",""0"",""0""
""focus"",""0"",""0""
""blur"",""5"",""17288""
""focus"",""5"",""32658""
""fullscreenenter"",""5"",""34265""
","""event"",""trial"",""time""
""blur"",""0"",""0""
""blur"",""5"",""17288""
","""event"",""trial"",""time""
""focus"",""0"",""0""
""focus"",""5"",""32658""
","""event"",""trial"",""time""
""fullscreenenter"",""5"",""34265""
","
","456.1000000014901","","49","","","3000","1","","","images/purpleplanet.jpg","images/alien4","images/alien3","images/rocket2","images/alien3","images/nothing.png","2","real","true","1","common","0","2022-02-13 15:48:07.442"
"two-step-fixation","146","479177","0.0-76.0-2.3","875","816","26","Male","false","true","true","false","""event"",""trial"",""time""
""blur"",""0"",""0""
""focus"",""0"",""0""
""blur"",""5"",""17288""
""focus"",""5"",""32658""
""fullscreenenter"",""5"",""34265""
","""event"",""trial"",""time""
""blur"",""0"",""0""
""blur"",""5"",""17288""
","""event"",""trial"",""time""
""focus"",""0"",""0""
""focus"",""5"",""32658""
","""event"",""trial"",""time""
""fullscreenenter"",""5"",""34265""
","
","","images/earth.jpg","","","","","","","","","","","","","","fixation","","","","","",""
"d3-animate-choice","147","481691","0.0-76.0-0.4","875","816","26","Male","false","true","true","false","""event"",""trial"",""time""
""blur"",""0"",""0""
""focus"",""0"",""0""
""blur"",""5"",""17288""
""focus"",""5"",""32658""
""fullscreenenter"",""5"",""34265""
","""event"",""trial"",""time""
""blur"",""0"",""0""
""blur"",""5"",""17288""
","""event"",""trial"",""time""
""focus"",""0"",""0""
""focus"",""5"",""32658""
","""event"",""trial"",""time""
""fullscreenenter"",""5"",""34265""
","
","507.20000000298023","","49","","","3000","1","","","images/earth.jpg","images/rocket1","images/rocket2","null","images/rocket2","","1","real","null","1","","",""
"d3-animate-choice","148","484815","0.0-76.0-1.4","875","816","26","Male","false","true","true","false","""event"",""trial"",""time""
""blur"",""0"",""0""
""focus"",""0"",""0""
""blur"",""5"",""17288""
""focus"",""5"",""32658""
""fullscreenenter"",""5"",""34265""
","""event"",""trial"",""time""
""blur"",""0"",""0""
""blur"",""5"",""17288""
","""event"",""trial"",""time""
""focus"",""0"",""0""
""focus"",""5"",""32658""
","""event"",""trial"",""time""
""fullscreenenter"",""5"",""34265""
","
","1118.4000000059605","","49","","","3000","1","","","images/purpleplanet.jpg","images/alien4","images/alien3","images/rocket2","images/alien3","images/nothing.png","2","real","true","1","common","0","2022-02-13 15:48:14.084"
"two-step-fixation","149","485819","0.0-76.0-2.4","875","816","26","Male","false","true","true","false","""event"",""trial"",""time""
""blur"",""0"",""0""
""focus"",""0"",""0""
""blur"",""5"",""17288""
""focus"",""5"",""32658""
""fullscreenenter"",""5"",""34265""
","""event"",""trial"",""time""
""blur"",""0"",""0""
""blur"",""5"",""17288""
","""event"",""trial"",""time""
""focus"",""0"",""0""
""focus"",""5"",""32658""
","""event"",""trial"",""time""
""fullscreenenter"",""5"",""34265""
","
","","images/earth.jpg","","","","","","","","","","","","","","fixation","","","","","",""
"d3-animate-choice","150","488155","0.0-76.0-0.5","875","816","26","Male","false","true","true","false","""event"",""trial"",""time""
""blur"",""0"",""0""
""focus"",""0"",""0""
""blur"",""5"",""17288""
""focus"",""5"",""32658""
""fullscreenenter"",""5"",""34265""
","""event"",""trial"",""time""
""blur"",""0"",""0""
""blur"",""5"",""17288""
","""event"",""trial"",""time""
""focus"",""0"",""0""
""focus"",""5"",""32658""
","""event"",""trial"",""time""
""fullscreenenter"",""5"",""34265""
","
","329.70000000298023","","49","","","3000","1","","","images/earth.jpg","images/rocket1","images/rocket2","null","images/rocket2","","1","real","null","1","","",""
"d3-animate-choice","151","490673","0.0-76.0-1.5","875","816","26","Male","false","true","true","false","""event"",""trial"",""time""
""blur"",""0"",""0""
""focus"",""0"",""0""
""blur"",""5"",""17288""
""focus"",""5"",""32658""
""fullscreenenter"",""5"",""34265""
","""event"",""trial"",""time""
""blur"",""0"",""0""
""blur"",""5"",""17288""
","""event"",""trial"",""time""
""focus"",""0"",""0""
""focus"",""5"",""32658""
","""event"",""trial"",""time""
""fullscreenenter"",""5"",""34265""
","
","514.8000000044703","","48","","","3000","1","","","images/purpleplanet.jpg","images/alien4","images/alien3","images/rocket2","images/alien4","images/t.png","2","real","true","2","common","1","2022-02-13 15:48:19.942"
"two-step-fixation","152","491676","0.0-76.0-2.5","875","816","26","Male","false","true","true","false","""event"",""trial"",""time""
""blur"",""0"",""0""
""focus"",""0"",""0""
""blur"",""5"",""17288""
""focus"",""5"",""32658""
""fullscreenenter"",""5"",""34265""
","""event"",""trial"",""time""
""blur"",""0"",""0""
""blur"",""5"",""17288""
","""event"",""trial"",""time""
""focus"",""0"",""0""
""focus"",""5"",""32658""
","""event"",""trial"",""time""
""fullscreenenter"",""5"",""34265""
","
","","images/earth.jpg","","","","","","","","","","","","","","fixation","","","","","",""
"d3-animate-choice","153","494039","0.0-76.0-0.6","875","816","26","Male","false","true","true","false","""event"",""trial"",""time""
""blur"",""0"",""0""
""focus"",""0"",""0""
""blur"",""5"",""17288""
""focus"",""5"",""32658""
""fullscreenenter"",""5"",""34265""
","""event"",""trial"",""time""
""blur"",""0"",""0""
""blur"",""5"",""17288""
","""event"",""trial"",""time""
""focus"",""0"",""0""
""focus"",""5"",""32658""
","""event"",""trial"",""time""
""fullscreenenter"",""5"",""34265""
","
","359.1000000014901","","49","","","3000","1","","","images/earth.jpg","images/rocket1","images/rocket2","null","images/rocket2","","1","real","null","1","","",""
"d3-animate-choice","154","496494","0.0-76.0-1.6","875","816","26","Male","false","true","true","false","""event"",""trial"",""time""
""blur"",""0"",""0""
""focus"",""0"",""0""
""blur"",""5"",""17288""
""focus"",""5"",""32658""
""fullscreenenter"",""5"",""34265""
","""event"",""trial"",""time""
""blur"",""0"",""0""
""blur"",""5"",""17288""
","""event"",""trial"",""time""
""focus"",""0"",""0""
""focus"",""5"",""32658""
","""event"",""trial"",""time""
""fullscreenenter"",""5"",""34265""
","
