"trial_type","trial_index","time_elapsed","internal_node_id","participant_id","subject_id","age","gender","rocket_sides","red_planet_first_rocket","red_display_order","purple_display_order","interactions","blur_events","focus_events","fullscreenenter_events","fullscreenexit_events","rt","stimulus","key_press","button_pressed","success","duration","valid_pressed","rts","keys","planet_text","right_text","left_text","center_text","chosen_text","reward_text","trial_stage","practice_trial","transition_type","choice","transition","reward","timestamp"
"pavlovia","0","3","0.0-0.0","2039","3247","14","Male","false","true","true","true","
","
","
","
","
","","","","","","","","","","","","","","","","","","","","","",""
"html-keyboard-response","1","5808","0.0-1.0","2039","3247","14","Male","false","true","true","true","
","
","
","
","
","5804.5","Welcome! Press the space bar to begin.","32","","","","","","","","","","","","","","","","","","",""
"audio-keyboard-response","2","9103","0.0-2.0","2039","3247","14","Male","false","true","true","true","
","
","
","
","
","3288","audio/beep_loop.wav","32","","","","","","","","","","","","","","","","","","",""
"audio-button-response","3","12147","0.0-3.0","2039","3247","14","Male","false","true","true","true","
","
","
","
","
","NaN","audio/fish.mp3","","1","","","","","","","","","","","","","","","","","",""
"audio-button-response","4","14925","0.0-4.0","2039","3247","14","Male","false","true","true","true","""event"",""trial"",""time""
""fullscreenenter"",""5"",""18011""
","
","
","""event"",""trial"",""time""
""fullscreenenter"",""5"",""18011""
","
","NaN","audio/tiger.mp3","","4","","","","","","","","","","","","","","","","","",""
"fullscreen","5","19016","0.0-5.0","2039","3247","14","Male","false","true","true","true","""event"",""trial"",""time""
""fullscreenenter"",""5"",""18011""
","
","
","""event"",""trial"",""time""
""fullscreenenter"",""5"",""18011""
","
","","","","","true","","","","","","","","","","","","","","","","",""
"d3-instructions","6","44416","0.0-6.0","2039","3247","14","Male","false","true","true","true","""event"",""trial"",""time""
""fullscreenenter"",""5"",""18011""
","
","
","""event"",""trial"",""time""
""fullscreenenter"",""5"",""18011""
","
","","","","","","","","","","","","","","","","","","","","","",""
"d3-instructions","7","64637","0.0-7.0","2039","3247","14","Male","false","true","true","true","""event"",""trial"",""time""
""fullscreenenter"",""5"",""18011""
","
","
","""event"",""trial"",""time""
""fullscreenenter"",""5"",""18011""
","
","","","","","","","","","","","","","","","","","","","","","",""
"d3-instructions","8","72462","0.0-8.0","2039","3247","14","Male","false","true","true","true","""event"",""trial"",""time""
""fullscreenenter"",""5"",""18011""
","
","
","""event"",""trial"",""time""
""fullscreenenter"",""5"",""18011""
","
","","","","","","","","","","","","","","","","","","","","","",""
"d3-instructions","9","80801","0.0-9.0","2039","3247","14","Male","false","true","true","true","""event"",""trial"",""time""
""fullscreenenter"",""5"",""18011""
","
","
","""event"",""trial"",""time""
""fullscreenenter"",""5"",""18011""
","
","","","","","","","","","","","","","","","","","","","","","",""
"d3-instructions","10","95912","0.0-10.0","2039","3247","14","Male","false","true","true","true","""event"",""trial"",""time""
""fullscreenenter"",""5"",""18011""
","
","
","""event"",""trial"",""time""
""fullscreenenter"",""5"",""18011""
","
","","","","","","","","","","","","","","","","","","","","","",""
"d3-animate-choice","11","99387","0.0-11.0","2039","3247","14","Male","false","true","true","true","""event"",""trial"",""time""
""fullscreenenter"",""5"",""18011""
","
","
","""event"",""trial"",""time""
""fullscreenenter"",""5"",""18011""
","
","1471.7000000029802","","49","","","3000","1","","","images/tutgreenplanet.jpg","images/tutalien1","images/tutalien2","null","images/tutalien2","","NA","practice","null","","","",""
"d3-animate-choice","12","102608","0.0-12.0","2039","3247","14","Male","false","true","true","true","""event"",""trial"",""time""
""fullscreenenter"",""5"",""18011""
","
","
","""event"",""trial"",""time""
""fullscreenenter"",""5"",""18011""
","
","1206","","48","","","3000","1","","","images/tutgreenplanet.jpg","images/tutalien1","images/tutalien2","null","images/tutalien1","","NA","practice","null","","","",""
"d3-animate-choice","13","105054","0.0-13.0","2039","3247","14","Male","false","true","true","true","""event"",""trial"",""time""
""fullscreenenter"",""5"",""18011""
","
","
","""event"",""trial"",""time""
""fullscreenenter"",""5"",""18011""
","
","434.70000000298023","","49","","","3000","1","","","images/tutgreenplanet.jpg","images/tutalien1","images/tutalien2","null","images/tutalien2","","NA","practice","null","","","",""
"d3-animate-choice","14","107528","0.0-14.0","2039","3247","14","Male","false","true","true","true","""event"",""trial"",""time""
""fullscreenenter"",""5"",""18011""
","
","
","""event"",""trial"",""time""
""fullscreenenter"",""5"",""18011""
","
","465.30000000447035","","48","","","3000","1","","","images/tutgreenplanet.jpg","images/tutalien1","images/tutalien2","null","images/tutalien1","","NA","practice","null","","","",""
"d3-instructions","15","111767","0.0-15.0","2039","3247","14","Male","false","true","true","true","""event"",""trial"",""time""
""fullscreenenter"",""5"",""18011""
","
","
","""event"",""trial"",""time""
""fullscreenenter"",""5"",""18011""
","
","","","","","","","","","","","","","","","","","","","","","",""
"d3-instructions","16","114432","0.0-16.0","2039","3247","14","Male","false","true","true","true","""event"",""trial"",""time""
""fullscreenenter"",""5"",""18011""
","
","
","""event"",""trial"",""time""
""fullscreenenter"",""5"",""18011""
","
","","","","","","","","","","","","","","","","","","","","","",""
"d3-instructions","17","120841","0.0-17.0","2039","3247","14","Male","false","true","true","true","""event"",""trial"",""time""
""fullscreenenter"",""5"",""18011""
","
","
","""event"",""trial"",""time""
""fullscreenenter"",""5"",""18011""
","
","","","","","","","","","","","","","","","","","","","","","",""
"d3-instructions","18","124696","0.0-18.0","2039","3247","14","Male","false","true","true","true","""event"",""trial"",""time""
""fullscreenenter"",""5"",""18011""
","
","
","""event"",""trial"",""time""
""fullscreenenter"",""5"",""18011""
","
","","","","","","","","","","","","","","","","","","","","","",""
"d3-instructions","19","126575","0.0-19.0","2039","3247","14","Male","false","true","true","true","""event"",""trial"",""time""
""fullscreenenter"",""5"",""18011""
","
","
","""event"",""trial"",""time""
""fullscreenenter"",""5"",""18011""
","
","","","","","","","","","","","","","","","","","","","","","",""
"d3-animate-choice","20","129279","0.0-20.0","2039","3247","14","Male","false","true","true","true","""event"",""trial"",""time""
""fullscreenenter"",""5"",""18011""
","
","
","""event"",""trial"",""time""
""fullscreenenter"",""5"",""18011""
","
","691.3000000044703","","49","","","3000","1","","","images/tutyellowplanet.jpg","null","images/tutalien3","null","images/tutalien3","images/t.png","NA","practice","null","","","",""
"d3-animate-choice","21","131764","0.0-21.0","2039","3247","14","Male","false","true","true","true","""event"",""trial"",""time""
""fullscreenenter"",""5"",""18011""
","
","
","""event"",""trial"",""time""
""fullscreenenter"",""5"",""18011""
","
","474.30000000447035","","49","","","3000","1","","","images/tutyellowplanet.jpg","null","images/tutalien3","null","images/tutalien3","images/t.png","NA","practice","null","","","",""
"d3-animate-choice","22","134466","0.0-22.0","2039","3247","14","Male","false","true","true","true","""event"",""trial"",""time""
""fullscreenenter"",""5"",""18011""
","
","
","""event"",""trial"",""time""
""fullscreenenter"",""5"",""18011""
","
","287.1000000014901","","48","","","3000","1","687.3999999985099","49","images/tutyellowplanet.jpg","null","images/tutalien3","null","images/tutalien3","images/t.png","NA","practice","null","","","",""
"d3-animate-choice","23","136751","0.0-23.0","2039","3247","14","Male","false","true","true","true","""event"",""trial"",""time""
""fullscreenenter"",""5"",""18011""
","
","
","""event"",""trial"",""time""
""fullscreenenter"",""5"",""18011""
","
","270.5","","49","","","3000","1","","","images/tutyellowplanet.jpg","null","images/tutalien3","null","images/tutalien3","images/nothing.png","NA","practice","null","","","",""
"d3-animate-choice","24","139028","0.0-24.0","2039","3247","14","Male","false","true","true","true","""event"",""trial"",""time""
""fullscreenenter"",""5"",""18011""
","
","
","""event"",""trial"",""time""
""fullscreenenter"",""5"",""18011""
","
","270.80000000447035","","49","","","3000","1","","","images/tutyellowplanet.jpg","null","images/tutalien3","null","images/tutalien3","images/t.png","NA","practice","null","","","",""
"d3-animate-choice","25","141064","0.0-25.0","2039","3247","14","Male","false","true","true","true","""event"",""trial"",""time""
""fullscreenenter"",""5"",""18011""
","
","
","""event"",""trial"",""time""
""fullscreenenter"",""5"",""18011""
","
","24.899999998509884","","49","","","3000","1","1753","49","images/tutyellowplanet.jpg","null","images/tutalien3","null","images/tutalien3","images/t.png","NA","practice","null","","","",""
"d3-animate-choice","26","143223","0.0-26.0","2039","3247","14","Male","false","true","true","true","""event"",""trial"",""time""
""fullscreenenter"",""5"",""18011""
","
","
","""event"",""trial"",""time""
""fullscreenenter"",""5"",""18011""
","
","156.80000000447035","","49","","","3000","1","1809.6000000014901","49","images/tutyellowplanet.jpg","null","images/tutalien3","null","images/tutalien3","images/t.png","NA","practice","null","","","",""
"d3-animate-choice","27","145351","0.0-27.0","2039","3247","14","Male","false","true","true","true","""event"",""trial"",""time""
""fullscreenenter"",""5"",""18011""
","
","
","""event"",""trial"",""time""
""fullscreenenter"",""5"",""18011""
","
","113.70000000298023","","49","","","3000","1","1665.8999999985099,2053.60000000149","49,49","images/tutyellowplanet.jpg","null","images/tutalien3","null","images/tutalien3","images/t.png","NA","practice","null","","","",""
"d3-animate-choice","28","147653","0.0-28.0","2039","3247","14","Male","false","true","true","true","""event"",""trial"",""time""
""fullscreenenter"",""5"",""18011""
","
","
","""event"",""trial"",""time""
""fullscreenenter"",""5"",""18011""
","
","288.1000000014901","","49","","","3000","1","1863.8999999985099,2278.39999999851","49,49","images/tutyellowplanet.jpg","null","images/tutalien3","null","images/tutalien3","images/t.png","NA","practice","null","","","",""
"d3-animate-choice","29","150006","0.0-29.0","2039","3247","14","Male","false","true","true","true","""event"",""trial"",""time""
""fullscreenenter"",""5"",""18011""
","
","
","""event"",""trial"",""time""
""fullscreenenter"",""5"",""18011""
","
","337.79999999701977","","49","","","3000","1","1966.1999999955297","49","images/tutyellowplanet.jpg","null","images/tutalien3","null","images/tutalien3","images/nothing.png","NA","practice","null","","","",""
"d3-instructions","30","153924","0.0-30.0","2039","3247","14","Male","false","true","true","true","""event"",""trial"",""time""
""fullscreenenter"",""5"",""18011""
","
","
","""event"",""trial"",""time""
""fullscreenenter"",""5"",""18011""
","
","","","","","","","","","","","","","","","","","","","","","",""
"d3-instructions","31","155754","0.0-31.0","2039","3247","14","Male","false","true","true","true","""event"",""trial"",""time""
""fullscreenenter"",""5"",""18011""
","
","
","""event"",""trial"",""time""
""fullscreenenter"",""5"",""18011""
","
","","","","","","","","","","","","","","","","","","","","","",""
"d3-instructions","32","159634","0.0-32.0","2039","3247","14","Male","false","true","true","true","""event"",""trial"",""time""
""fullscreenenter"",""5"",""18011""
","
","
","""event"",""trial"",""time""
""fullscreenenter"",""5"",""18011""
","
","","","","","","","","","","","","","","","","","","","","","",""
"d3-instructions","33","161136","0.0-33.0","2039","3247","14","Male","false","true","true","true","""event"",""trial"",""time""
""fullscreenenter"",""5"",""18011""
","
","
","""event"",""trial"",""time""
""fullscreenenter"",""5"",""18011""
","
","","","","","","","","","","","","","","","","","","","","","",""
"d3-animate-choice","34","164349","0.0-34.0","2039","3247","14","Male","false","true","true","true","""event"",""trial"",""time""
""fullscreenenter"",""5"",""18011""
","
","
","""event"",""trial"",""time""
""fullscreenenter"",""5"",""18011""
","
","1206.2999999970198","","48","","","3000","1","","","images/tutgreenplanet.jpg","images/tutalien1","images/tutalien2","null","images/tutalien1","images/nothing.png","NA","practice","null","","","",""
"d3-animate-choice","35","166555","0.0-35.0","2039","3247","14","Male","false","true","true","true","""event"",""trial"",""time""
""fullscreenenter"",""5"",""18011""
","
","
","""event"",""trial"",""time""
""fullscreenenter"",""5"",""18011""
","
","202.89999999850988","","48","","","3000","1","1918.6999999955297","49","images/tutgreenplanet.jpg","images/tutalien1","images/tutalien2","null","images/tutalien1","images/nothing.png","NA","practice","null","","","",""
"d3-animate-choice","36","168638","0.0-36.0","2039","3247","14","Male","false","true","true","true","""event"",""trial"",""time""
""fullscreenenter"",""5"",""18011""
","
","
","""event"",""trial"",""time""
""fullscreenenter"",""5"",""18011""
","
","74.79999999701977","","49","","","3000","1","362,1482.7999999970198","49,49","images/tutgreenplanet.jpg","images/tutalien1","images/tutalien2","null","images/tutalien2","images/nothing.png","NA","practice","null","","","",""
"d3-animate-choice","37","170784","0.0-37.0","2039","3247","14","Male","false","true","true","true","""event"",""trial"",""time""
""fullscreenenter"",""5"",""18011""
","
","
","""event"",""trial"",""time""
""fullscreenenter"",""5"",""18011""
","
","143.29999999701977","","49","","","3000","1","1619.3999999985099,2033.5","49,49","images/tutgreenplanet.jpg","images/tutalien1","images/tutalien2","null","images/tutalien2","images/t.png","NA","practice","null","","","",""
"d3-animate-choice","38","172948","0.0-38.0","2039","3247","14","Male","false","true","true","true","""event"",""trial"",""time""
""fullscreenenter"",""5"",""18011""
","
","
","""event"",""trial"",""time""
""fullscreenenter"",""5"",""18011""
","
","148.69999999552965","","49","","","3000","1","384.3999999985099,596.2999999970198,856.3999999985099,1472.7999999970198,1885.3999999985099,2146.60000000149","49,49,49,49,49,49","images/tutgreenplanet.jpg","images/tutalien1","images/tutalien2","null","images/tutalien2","images/t.png","NA","practice","null","","","",""
"d3-animate-choice","39","175398","0.0-39.0","2039","3247","14","Male","false","true","true","true","""event"",""trial"",""time""
""fullscreenenter"",""5"",""18011""
","
","
","""event"",""trial"",""time""
""fullscreenenter"",""5"",""18011""
","
","446.6000000014901","","49","","","3000","1","657.2999999970198,1121.6000000014901,1610.8999999985099,1846.5,2082.60000000149,2369.60000000149","49,49,49,49,49,49","images/tutgreenplanet.jpg","images/tutalien1","images/tutalien2","null","images/tutalien2","images/nothing.png","NA","practice","null","","","",""
"d3-animate-choice","40","177533","0.0-40.0","2039","3247","14","Male","false","true","true","true","""event"",""trial"",""time""
""fullscreenenter"",""5"",""18011""
","
","
","""event"",""trial"",""time""
""fullscreenenter"",""5"",""18011""
","
","130.5","","49","","","3000","1","367,1639.7000000029802,1977.4000000059605","49,49,49","images/tutgreenplanet.jpg","images/tutalien1","images/tutalien2","null","images/tutalien2","images/t.png","NA","practice","null","","","",""
"d3-animate-choice","41","179715","0.0-41.0","2039","3247","14","Male","false","true","true","true","""event"",""trial"",""time""
""fullscreenenter"",""5"",""18011""
","
","
","""event"",""trial"",""time""
""fullscreenenter"",""5"",""18011""
","
","179.90000000596046","","49","","","3000","1","466.70000000298023,1461.7000000029802,1824,2136.9000000059605","49,49,49,49","images/tutgreenplanet.jpg","images/tutalien1","images/tutalien2","null","images/tutalien2","images/t.png","NA","practice","null","","","",""
"d3-animate-choice","42","181991","0.0-42.0","2039","3247","14","Male","false","true","true","true","""event"",""trial"",""time""
""fullscreenenter"",""5"",""18011""
","
","
","""event"",""trial"",""time""
""fullscreenenter"",""5"",""18011""
","
","266","","49","","","3000","1","552.8999999985099,916.2999999970198,1733.7999999970198","49,49,49","images/tutgreenplanet.jpg","images/tutalien1","images/tutalien2","null","images/tutalien2","images/t.png","NA","practice","null","","","",""
"d3-animate-choice","43","184091","0.0-43.0","2039","3247","14","Male","false","true","true","true","""event"",""trial"",""time""
""fullscreenenter"",""5"",""18011""
","
","
","""event"",""trial"",""time""
""fullscreenenter"",""5"",""18011""
","
","97.19999999552965","","49","","","3000","1","435.29999999701977,1683,1970.2999999970198","49,49,49","images/tutgreenplanet.jpg","images/tutalien1","images/tutalien2","null","images/tutalien2","images/t.png","NA","practice","null","","","",""
"d3-instructions","44","196782","0.0-44.0","2039","3247","14","Male","false","true","true","true","""event"",""trial"",""time""
""fullscreenenter"",""5"",""18011""
","
","
","""event"",""trial"",""time""
""fullscreenenter"",""5"",""18011""
","
","","","","","","","","","","","","","","","","","","","","","",""
"d3-instructions","45","197650","0.0-45.0","2039","3247","14","Male","false","true","true","true","""event"",""trial"",""time""
""fullscreenenter"",""5"",""18011""
","
","
","""event"",""trial"",""time""
""fullscreenenter"",""5"",""18011""
","
","","","","","","","","","","","","","","","","","","","","","",""
"d3-instructions","46","198798","0.0-46.0","2039","3247","14","Male","false","true","true","true","""event"",""trial"",""time""
""fullscreenenter"",""5"",""18011""
","
","
","""event"",""trial"",""time""
""fullscreenenter"",""5"",""18011""
","
","","","","","","","","","","","","","","","","","","","","","",""
"d3-instructions","47","199640","0.0-47.0","2039","3247","14","Male","false","true","true","true","""event"",""trial"",""time""
""fullscreenenter"",""5"",""18011""
","
","
","""event"",""trial"",""time""
""fullscreenenter"",""5"",""18011""
","
","","","","","","","","","","","","","","","","","","","","","",""
"d3-instructions","48","200332","0.0-48.0","2039","3247","14","Male","false","true","true","true","""event"",""trial"",""time""
""fullscreenenter"",""5"",""18011""
","
","
","""event"",""trial"",""time""
""fullscreenenter"",""5"",""18011""
","
","","","","","","","","","","","","","","","","","","","","","",""
"d3-instructions","49","200922","0.0-49.0","2039","3247","14","Male","false","true","true","true","""event"",""trial"",""time""
""fullscreenenter"",""5"",""18011""
","
","
","""event"",""trial"",""time""
""fullscreenenter"",""5"",""18011""
","
","","","","","","","","","","","","","","","","","","","","","",""
"d3-instructions","50","201537","0.0-50.0","2039","3247","14","Male","false","true","true","true","""event"",""trial"",""time""
""fullscreenenter"",""5"",""18011""
","
","
","""event"",""trial"",""time""
""fullscreenenter"",""5"",""18011""
","
","","","","","","","","","","","","","","","","","","","","","",""
"d3-instructions","51","203646","0.0-51.0","2039","3247","14","Male","false","true","true","true","""event"",""trial"",""time""
""fullscreenenter"",""5"",""18011""
","
","
","""event"",""trial"",""time""
""fullscreenenter"",""5"",""18011""
","
","","","","","","","","","","","","","","","","","","","","","",""
"d3-instructions","52","204286","0.0-52.0","2039","3247","14","Male","false","true","true","true","""event"",""trial"",""time""
""fullscreenenter"",""5"",""18011""
","
","
","""event"",""trial"",""time""
""fullscreenenter"",""5"",""18011""
","
","","","","","","","","","","","","","","","","","","","","","",""
"d3-instructions","53","211885","0.0-53.0","2039","3247","14","Male","false","true","true","true","""event"",""trial"",""time""
""fullscreenenter"",""5"",""18011""
","
","
","""event"",""trial"",""time""
""fullscreenenter"",""5"",""18011""
","
","","","","","","","","","","","","","","","","","","","","","",""
"d3-instructions","54","212855","0.0-54.0","2039","3247","14","Male","false","true","true","true","""event"",""trial"",""time""
""fullscreenenter"",""5"",""18011""
","
","
","""event"",""trial"",""time""
""fullscreenenter"",""5"",""18011""
","
","","","","","","","","","","","","","","","","","","","","","",""
"d3-instructions","55","213773","0.0-55.0","2039","3247","14","Male","false","true","true","true","""event"",""trial"",""time""
""fullscreenenter"",""5"",""18011""
","
","
","""event"",""trial"",""time""
""fullscreenenter"",""5"",""18011""
","
","","","","","","","","","","","","","","","","","","","","","",""
"d3-instructions","56","214742","0.0-56.0","2039","3247","14","Male","false","true","true","true","""event"",""trial"",""time""
""fullscreenenter"",""5"",""18011""
","
","
","""event"",""trial"",""time""
""fullscreenenter"",""5"",""18011""
","
","","","","","","","","","","","","","","","","","","","","","",""
"d3-instructions","57","217964","0.0-57.0","2039","3247","14","Male","false","true","true","true","""event"",""trial"",""time""
""fullscreenenter"",""5"",""18011""
","
","
","""event"",""trial"",""time""
""fullscreenenter"",""5"",""18011""
","
","","","","","","","","","","","","","","","","","","","","","",""
"d3-instructions","58","226193","0.0-58.0","2039","3247","14","Male","false","true","true","true","""event"",""trial"",""time""
""fullscreenenter"",""5"",""18011""
","
","
","""event"",""trial"",""time""
""fullscreenenter"",""5"",""18011""
","
","","","","","","","","","","","","","","","","","","","","","",""
"d3-instructions","59","229717","0.0-59.0","2039","3247","14","Male","false","true","true","true","""event"",""trial"",""time""
""fullscreenenter"",""5"",""18011""
","
","
","""event"",""trial"",""time""
""fullscreenenter"",""5"",""18011""
","
","","","","","","","","","","","","","","","","","","","","","",""
"d3-instructions","60","233368","0.0-60.0","2039","3247","14","Male","false","true","true","true","""event"",""trial"",""time""
""fullscreenenter"",""5"",""18011""
","
","
","""event"",""trial"",""time""
""fullscreenenter"",""5"",""18011""
","
","","","","","","","","","","","","","","","","","","","","","",""
"d3-animate-choice","61","236060","0.0-61.0-0.0","2039","3247","14","Male","false","true","true","true","""event"",""trial"",""time""
""fullscreenenter"",""5"",""18011""
","
","
","""event"",""trial"",""time""
""fullscreenenter"",""5"",""18011""
","
","686.7000000029802","","49","","","3000","1","","","images/earth.jpg","images/tutrocket1","images/tutrocket2","null","images/tutrocket2","","1","practice","null","1","","",""
"d3-animate-choice","62","240063","0.0-61.0-1.0","2039","3247","14","Male","false","true","true","true","""event"",""trial"",""time""
""fullscreenenter"",""5"",""18011""
","
","
","""event"",""trial"",""time""
""fullscreenenter"",""5"",""18011""
","
","1370.1000000014901","","50","","","3000","1","2147.89999999851","48","images/tutgreenplanet.jpg","images/tutalien2","images/tutalien1","images/tutrocket2","images/tutalien2","images/t.png","2","practice","false","","rare","1","2022-10-22 14:19:12.714"
"two-step-fixation","63","241066","0.0-61.0-2.0","2039","3247","14","Male","false","true","true","true","""event"",""trial"",""time""
""fullscreenenter"",""5"",""18011""
","
","
","""event"",""trial"",""time""
""fullscreenenter"",""5"",""18011""
","
","","images/earth.jpg","","","","","","","","","","","","","","fixation","","","","","",""
"d3-animate-choice","64","244174","0.0-61.0-0.1","2039","3247","14","Male","false","true","true","true","""event"",""trial"",""time""
""fullscreenenter"",""5"",""18011""
","
","
","""event"",""trial"",""time""
""fullscreenenter"",""5"",""18011""
","
","326.5","","50","","","3000","1","1105.6000000014901","48","images/earth.jpg","images/tutrocket1","images/tutrocket2","null","images/tutrocket1","","1","practice","null","","","",""
"d3-animate-choice","65","247116","0.0-61.0-1.1","2039","3247","14","Male","false","true","true","true","""event"",""trial"",""time""
""fullscreenenter"",""5"",""18011""
","
","
","""event"",""trial"",""time""
""fullscreenenter"",""5"",""18011""
","
","939.7000000029802","","48","","","3000","1","","","images/tutyellowplanet.jpg","images/tutalien4","images/tutalien3","images/tutrocket1","images/tutalien4","images/nothing.png","2","practice","false","2","rare","0","2022-10-22 14:19:19.767"
"two-step-fixation","66","248118","0.0-61.0-2.1","2039","3247","14","Male","false","true","true","true","""event"",""trial"",""time""
""fullscreenenter"",""5"",""18011""
","
","
","""event"",""trial"",""time""
""fullscreenenter"",""5"",""18011""
","
","","images/earth.jpg","","","","","","","","","","","","","","fixation","","","","","",""
"d3-animate-choice","67","250662","0.0-61.0-0.2","2039","3247","14","Male","false","true","true","true","""event"",""trial"",""time""
""fullscreenenter"",""5"",""18011""
","
","
","""event"",""trial"",""time""
""fullscreenenter"",""5"",""18011""
","
","541","","49","","","3000","1","","","images/earth.jpg","images/tutrocket1","images/tutrocket2","null","images/tutrocket2","","1","practice","null","1","","",""
"d3-animate-choice","68","253655","0.0-61.0-1.2","2039","3247","14","Male","false","true","true","true","""event"",""trial"",""time""
""fullscreenenter"",""5"",""18011""
","
","
","""event"",""trial"",""time""
""fullscreenenter"",""5"",""18011""
","
","990.8999999985099","","49","","","3000","1","","","images/tutyellowplanet.jpg","images/tutalien4","images/tutalien3","images/tutrocket2","images/tutalien3","images/nothing.png","2","practice","true","1","common","0","2022-10-22 14:19:26.306"
"two-step-fixation","69","254657","0.0-61.0-2.2","2039","3247","14","Male","false","true","true","true","""event"",""trial"",""time""
""fullscreenenter"",""5"",""18011""
","
","
","""event"",""trial"",""time""
""fullscreenenter"",""5"",""18011""
","
","","images/earth.jpg","","","","","","","","","","","","","","fixation","","","","","",""
"d3-animate-choice","70","257037","0.0-61.0-0.3","2039","3247","14","Male","false","true","true","true","""event"",""trial"",""time""
""fullscreenenter"",""5"",""18011""
","
","
","""event"",""trial"",""time""
""fullscreenenter"",""5"",""18011""
","
","372","","48","","","3000","1","1898.5","48","images/earth.jpg","images/tutrocket1","images/tutrocket2","null","images/tutrocket1","","1","practice","null","2","","",""
"d3-animate-choice","71","259122","0.0-61.0-1.3","2039","3247","14","Male","false","true","true","true","""event"",""trial"",""time""
""fullscreenenter"",""5"",""18011""
","
","
","""event"",""trial"",""time""
""fullscreenenter"",""5"",""18011""
","
","83.20000000298023","","48","","","3000","1","","","images/tutgreenplanet.jpg","images/tutalien2","images/tutalien1","images/tutrocket1","images/tutalien2","images/nothing.png","2","practice","true","2","common","0","2022-10-22 14:19:31.773"
"two-step-fixation","72","260124","0.0-61.0-2.3","2039","3247","14","Male","false","true","true","true","""event"",""trial"",""time""
""fullscreenenter"",""5"",""18011""
","
","
","""event"",""trial"",""time""
""fullscreenenter"",""5"",""18011""
","
","","images/earth.jpg","","","","","","","","","","","","","","fixation","","","","","",""
"d3-animate-choice","73","262786","0.0-61.0-0.4","2039","3247","14","Male","false","true","true","true","""event"",""trial"",""time""
""fullscreenenter"",""5"",""18011""
","
","
","""event"",""trial"",""time""
""fullscreenenter"",""5"",""18011""
","
","660","","49","","","3000","1","","","images/earth.jpg","images/tutrocket1","images/tutrocket2","null","images/tutrocket2","","1","practice","null","1","","",""
"d3-animate-choice","74","265603","0.0-61.0-1.4","2039","3247","14","Male","false","true","true","true","""event"",""trial"",""time""
""fullscreenenter"",""5"",""18011""
","
","
","""event"",""trial"",""time""
""fullscreenenter"",""5"",""18011""
","
","814.5","","49","","","3000","1","","","images/tutyellowplanet.jpg","images/tutalien4","images/tutalien3","images/tutrocket2","images/tutalien3","images/nothing.png","2","practice","true","1","common","0","2022-10-22 14:19:38.254"
"two-step-fixation","75","266605","0.0-61.0-2.4","2039","3247","14","Male","false","true","true","true","""event"",""trial"",""time""
""fullscreenenter"",""5"",""18011""
","
","
","""event"",""trial"",""time""
""fullscreenenter"",""5"",""18011""
","
","","images/earth.jpg","","","","","","","","","","","","","","fixation","","","","","",""
"d3-animate-choice","76","268693","0.0-61.0-0.5","2039","3247","14","Male","false","true","true","true","""event"",""trial"",""time""
""fullscreenenter"",""5"",""18011""
","
","
","""event"",""trial"",""time""
""fullscreenenter"",""5"",""18011""
","
","85.5","","48","","","3000","1","","","images/earth.jpg","images/tutrocket1","images/tutrocket2","null","images/tutrocket1","","1","practice","null","2","","",""
"d3-animate-choice","77","271827","0.0-61.0-1.5","2039","3247","14","Male","false","true","true","true","""event"",""trial"",""time""
""fullscreenenter"",""5"",""18011""
","
","
","""event"",""trial"",""time""
""fullscreenenter"",""5"",""18011""
","
","1131","","49","","","3000","1","","","images/tutyellowplanet.jpg","images/tutalien4","images/tutalien3","images/tutrocket1","images/tutalien3","images/nothing.png","2","practice","false","1","rare","0","2022-10-22 14:19:44.478"
"two-step-fixation","78","272828","0.0-61.0-2.5","2039","3247","14","Male","false","true","true","true","""event"",""trial"",""time""
""fullscreenenter"",""5"",""18011""
","
","
","""event"",""trial"",""time""
""fullscreenenter"",""5"",""18011""
","
","","images/earth.jpg","","","","","","","","","","","","","","fixation","","","","","",""
"d3-animate-choice","79","275294","0.0-61.0-0.6","2039","3247","14","Male","false","true","true","true","""event"",""trial"",""time""
""fullscreenenter"",""5"",""18011""
","
","
","""event"",""trial"",""time""
""fullscreenenter"",""5"",""18011""
","
","463.29999999701977","","49","","","3000","1","","","images/earth.jpg","images/tutrocket1","images/tutrocket2","null","images/tutrocket2","","1","practice","null","1","","",""
"d3-animate-choice","80","277934","0.0-61.0-1.6","2039","3247","14","Male","false","true","true","true","""event"",""trial"",""time""
""fullscreenenter"",""5"",""18011""
","
","
","""event"",""trial"",""time""
""fullscreenenter"",""5"",""18011""
","
","637","","49","","","3000","1","2492.7999999970198","49","images/tutyellowplanet.jpg","images/tutalien4","images/tutalien3","images/tutrocket2","images/tutalien3","images/t.png","2","practice","true","1","common","1","2022-10-22 14:19:50.585"
"two-step-fixation","81","278936","0.0-61.0-2.6","2039","3247","14","Male","false","true","true","true","""event"",""trial"",""time""
""fullscreenenter"",""5"",""18011""
","
","
","""event"",""trial"",""time""
""fullscreenenter"",""5"",""18011""
","
","","images/earth.jpg","","","","","","","","","","","","","","fixation","","","","","",""
"d3-animate-choice","82","281180","0.0-61.0-0.7","2039","3247","14","Male","false","true","true","true","""event"",""trial"",""time""
""fullscreenenter"",""5"",""18011""
","
","
","""event"",""trial"",""time""
""fullscreenenter"",""5"",""18011""
","
","240.79999999701977","","49","","","3000","1","655,1169.5,1506.2999999970198,2072","49,49,49,49","images/earth.jpg","images/tutrocket1","images/tutrocket2","null","images/tutrocket2","","1","practice","null","1","","",""
"d3-animate-choice","83","283424","0.0-61.0-1.7","2039","3247","14","Male","false","true","true","true","""event"",""trial"",""time""
""fullscreenenter"",""5"",""18011""
","
","
","""event"",""trial"",""time""
""fullscreenenter"",""5"",""18011""
","
","241.10000000149012","","49","","","3000","1","604.1000000014901,916.1000000014901,1228.1000000014901,1514.2000000029802","49,49,49,49","images/tutyellowplanet.jpg","images/tutalien4","images/tutalien3","images/tutrocket2","images/tutalien3","images/nothing.png","2","practice","true","1","common","0","2022-10-22 14:19:56.075"
"two-step-fixation","84","284434","0.0-61.0-2.7","2039","3247","14","Male","false","true","true","true","""event"",""trial"",""time""
""fullscreenenter"",""5"",""18011""
","
","
","""event"",""trial"",""time""
""fullscreenenter"",""5"",""18011""
","
","","images/earth.jpg","","","","","","","","","","","","","","fixation","","","","","",""
"d3-animate-choice","85","286472","0.0-61.0-0.8","2039","3247","14","Male","false","true","true","true","""event"",""trial"",""time""
""fullscreenenter"",""5"",""18011""
","
","
","""event"",""trial"",""time""
""fullscreenenter"",""5"",""18011""
","
","36.29999999701977","","48","","","3000","1","","","images/earth.jpg","images/tutrocket1","images/tutrocket2","null","images/tutrocket1","","1","practice","null","2","","",""
"d3-animate-choice","86","288671","0.0-61.0-1.8","2039","3247","14","Male","false","true","true","true","""event"",""trial"",""time""
""fullscreenenter"",""5"",""18011""
","
","
","""event"",""trial"",""time""
""fullscreenenter"",""5"",""18011""
","
","195.10000000149012","","49","","","3000","1","583.1000000014901,895.1000000014901","49,49","images/tutgreenplanet.jpg","images/tutalien2","images/tutalien1","images/tutrocket1","images/tutalien1","images/nothing.png","2","practice","true","1","common","0","2022-10-22 14:20:01.322"
"two-step-fixation","87","289673","0.0-61.0-2.8","2039","3247","14","Male","false","true","true","true","""event"",""trial"",""time""
""fullscreenenter"",""5"",""18011""
","
","
","""event"",""trial"",""time""
""fullscreenenter"",""5"",""18011""
","
","","images/earth.jpg","","","","","","","","","","","","","","fixation","","","","","",""
"d3-animate-choice","88","291914","0.0-61.0-0.9","2039","3247","14","Male","false","true","true","true","""event"",""trial"",""time""
""fullscreenenter"",""5"",""18011""
","
","
","""event"",""trial"",""time""
""fullscreenenter"",""5"",""18011""
","
","238.39999999850988","","48","","","3000","1","499.6000000014901,722.3999999985099,1211.5,1473.5,1836.5,2223.2999999970198","48,49,49,49,49,49","images/earth.jpg","images/tutrocket1","images/tutrocket2","null","images/tutrocket1","","1","practice","null","2","","",""
"d3-animate-choice","89","294185","0.0-61.0-1.9","2039","3247","14","Male","false","true","true","true","""event"",""trial"",""time""
""fullscreenenter"",""5"",""18011""
","
","
","""event"",""trial"",""time""
""fullscreenenter"",""5"",""18011""
","
","269.6000000014901","","49","","","3000","1","581.3999999985099,2172.10000000149","49,48","images/tutgreenplanet.jpg","images/tutalien2","images/tutalien1","images/tutrocket1","images/tutalien1","images/t.png","2","practice","true","1","common","1","2022-10-22 14:20:06.836"
"two-step-fixation","90","295187","0.0-61.0-2.9","2039","3247","14","Male","false","true","true","true","""event"",""trial"",""time""
""fullscreenenter"",""5"",""18011""
","
","
","""event"",""trial"",""time""
""fullscreenenter"",""5"",""18011""
","
","","images/earth.jpg","","","","","","","","","","","","","","fixation","","","","","",""
"d3-animate-choice","91","297539","0.0-61.0-0.10","2039","3247","14","Male","false","true","true","true","""event"",""trial"",""time""
""fullscreenenter"",""5"",""18011""
","
","
","""event"",""trial"",""time""
""fullscreenenter"",""5"",""18011""
","
","349.30000000447035","","48","","","3000","1","","","images/earth.jpg","images/tutrocket1","images/tutrocket2","null","images/tutrocket1","","1","practice","null","2","","",""
"d3-animate-choice","92","299989","0.0-61.0-1.10","2039","3247","14","Male","false","true","true","true","""event"",""trial"",""time""
""fullscreenenter"",""5"",""18011""
","
","
","""event"",""trial"",""time""
""fullscreenenter"",""5"",""18011""
","
","448.3999999985099","","49","","","3000","1","860.7999999970198","49","images/tutyellowplanet.jpg","images/tutalien4","images/tutalien3","images/tutrocket1","images/tutalien3","images/nothing.png","2","practice","false","1","rare","0","2022-10-22 14:20:12.640"
"two-step-fixation","93","300992","0.0-61.0-2.10","2039","3247","14","Male","false","true","true","true","""event"",""trial"",""time""
""fullscreenenter"",""5"",""18011""
","
","
","""event"",""trial"",""time""
""fullscreenenter"",""5"",""18011""
","
","","images/earth.jpg","","","","","","","","","","","","","","fixation","","","","","",""
"d3-animate-choice","94","303333","0.0-61.0-0.11","2039","3247","14","Male","false","true","true","true","""event"",""trial"",""time""
""fullscreenenter"",""5"",""18011""
","
","
","""event"",""trial"",""time""
""fullscreenenter"",""5"",""18011""
","
","339","","48","","","3000","1","","","images/earth.jpg","images/tutrocket1","images/tutrocket2","null","images/tutrocket1","","1","practice","null","2","","",""
"d3-animate-choice","95","305430","0.0-61.0-1.11","2039","3247","14","Male","false","true","true","true","""event"",""trial"",""time""
""fullscreenenter"",""5"",""18011""
","
","
","""event"",""trial"",""time""
""fullscreenenter"",""5"",""18011""
","
","93.30000000447035","","49","","","3000","1","405.1000000014901","49","images/tutgreenplanet.jpg","images/tutalien2","images/tutalien1","images/tutrocket1","images/tutalien1","images/t.png","2","practice","true","1","common","1","2022-10-22 14:20:18.081"
"two-step-fixation","96","306432","0.0-61.0-2.11","2039","3247","14","Male","false","true","true","true","""event"",""trial"",""time""
""fullscreenenter"",""5"",""18011""
","
","
","""event"",""trial"",""time""
""fullscreenenter"",""5"",""18011""
","
","","images/earth.jpg","","","","","","","","","","","","","","fixation","","","","","",""
"d3-animate-choice","97","308791","0.0-61.0-0.12","2039","3247","14","Male","false","true","true","true","""event"",""trial"",""time""
""fullscreenenter"",""5"",""18011""
","
","
","""event"",""trial"",""time""
""fullscreenenter"",""5"",""18011""
","
","356.5","","48","","","3000","1","643.3999999985099,2308.7999999970198","48,49","images/earth.jpg","images/tutrocket1","images/tutrocket2","null","images/tutrocket1","","1","practice","null","2","","",""
"d3-animate-choice","98","311055","0.0-61.0-1.12","2039","3247","14","Male","false","true","true","true","""event"",""trial"",""time""
""fullscreenenter"",""5"",""18011""
","
","
","""event"",""trial"",""time""
""fullscreenenter"",""5"",""18011""
","
","261.90000000596046","","49","","","3000","1","2079.7000000029802","48","images/tutgreenplanet.jpg","images/tutalien2","images/tutalien1","images/tutrocket1","images/tutalien1","images/nothing.png","2","practice","true","1","common","0","2022-10-22 14:20:23.706"
"two-step-fixation","99","312057","0.0-61.0-2.12","2039","3247","14","Male","false","true","true","true","""event"",""trial"",""time""
""fullscreenenter"",""5"",""18011""
","
","
","""event"",""trial"",""time""
""fullscreenenter"",""5"",""18011""
","
","","images/earth.jpg","","","","","","","","","","","","","","fixation","","","","","",""
"d3-animate-choice","100","314145","0.0-61.0-0.13","2039","3247","14","Male","false","true","true","true","""event"",""trial"",""time""
""fullscreenenter"",""5"",""18011""
","
","
","""event"",""trial"",""time""
""fullscreenenter"",""5"",""18011""
","
","86.20000000298023","","48","","","3000","1","1891.4000000059605","48","images/earth.jpg","images/tutrocket1","images/tutrocket2","null","images/tutrocket1","","1","practice","null","2","","",""
"d3-animate-choice","101","316390","0.0-61.0-1.13","2039","3247","14","Male","false","true","true","true","""event"",""trial"",""time""
""fullscreenenter"",""5"",""18011""
","
","
","""event"",""trial"",""time""
""fullscreenenter"",""5"",""18011""
","
","242.39999999850988","","48","","","3000","1","529.3000000044703,942.3999999985099,1254,1566,1903.1000000014901,2190.2000000029802","48,48,48,48,48,48","images/tutgreenplanet.jpg","images/tutalien2","images/tutalien1","images/tutrocket1","images/tutalien2","images/nothing.png","2","practice","true","2","common","0","2022-10-22 14:20:29.041"
"two-step-fixation","102","317393","0.0-61.0-2.13","2039","3247","14","Male","false","true","true","true","""event"",""trial"",""time""
""fullscreenenter"",""5"",""18011""
","
","
","""event"",""trial"",""time""
""fullscreenenter"",""5"",""18011""
","
","","images/earth.jpg","","","","","","","","","","","","","","fixation","","","","","",""
"d3-animate-choice","103","319461","0.0-61.0-0.14","2039","3247","14","Male","false","true","true","true","""event"",""trial"",""time""
""fullscreenenter"",""5"",""18011""
","
","
","""event"",""trial"",""time""
""fullscreenenter"",""5"",""18011""
","
","64.89999999850988","","48","","","3000","1","479.19999999552965,1094.1000000014901,1482","48,48,48","images/earth.jpg","images/tutrocket1","images/tutrocket2","null","images/tutrocket1","","1","practice","null","2","","",""
"d3-animate-choice","104","321632","0.0-61.0-1.14","2039","3247","14","Male","false","true","true","true","""event"",""trial"",""time""
""fullscreenenter"",""5"",""18011""
","
","
","""event"",""trial"",""time""
""fullscreenenter"",""5"",""18011""
","
","169","","49","","","3000","1","557.7000000029802","49","images/tutgreenplanet.jpg","images/tutalien2","images/tutalien1","images/tutrocket1","images/tutalien1","images/nothing.png","2","practice","true","1","common","0","2022-10-22 14:20:34.283"
"two-step-fixation","105","322634","0.0-61.0-2.14","2039","3247","14","Male","false","true","true","true","""event"",""trial"",""time""
""fullscreenenter"",""5"",""18011""
","
","
","""event"",""trial"",""time""
""fullscreenenter"",""5"",""18011""
","
","","images/earth.jpg","","","","","","","","","","","","","","fixation","","","","","",""
"d3-animate-choice","106","326637","0.0-61.0-0.15","2039","3247","14","Male","false","true","true","true","""event"",""trial"",""time""
""fullscreenenter"",""5"",""18011""
","
","
","""event"",""trial"",""time""
""fullscreenenter"",""5"",""18011""
","
","2186.7000000029802","","48","","","3000","1","2664,3026,3312.89999999851,3650.60000000149,3961.39999999851","49,49,49,49,49","images/earth.jpg","images/tutrocket1","images/tutrocket2","null","images/tutrocket1","","1","practice","null","2","","",""
"d3-animate-choice","107","329062","0.0-61.0-1.15","2039","3247","14","Male","false","true","true","true","""event"",""trial"",""time""
""fullscreenenter"",""5"",""18011""
","
","
","""event"",""trial"",""time""
""fullscreenenter"",""5"",""18011""
","
","422.3999999985099","","49","","","3000","1","","","images/tutyellowplanet.jpg","images/tutalien4","images/tutalien3","images/tutrocket1","images/tutalien3","images/t.png","2","practice","false","1","rare","1","2022-10-22 14:20:41.713"
"two-step-fixation","108","330064","0.0-61.0-2.15","2039","3247","14","Male","false","true","true","true","""event"",""trial"",""time""
""fullscreenenter"",""5"",""18011""
","
","
","""event"",""trial"",""time""
""fullscreenenter"",""5"",""18011""
","
","","images/earth.jpg","","","","","","","","","","","","","","fixation","","","","","",""
"d3-animate-choice","109","332424","0.0-61.0-0.16","2039","3247","14","Male","false","true","true","true","""event"",""trial"",""time""
""fullscreenenter"",""5"",""18011""
","
","
","""event"",""trial"",""time""
""fullscreenenter"",""5"",""18011""
","
","357","","48","","","3000","1","","","images/earth.jpg","images/tutrocket1","images/tutrocket2","null","images/tutrocket1","","1","practice","null","2","","",""
"d3-animate-choice","110","334999","0.0-61.0-1.16","2039","3247","14","Male","false","true","true","true","""event"",""trial"",""time""
""fullscreenenter"",""5"",""18011""
","
","
","""event"",""trial"",""time""
""fullscreenenter"",""5"",""18011""
","
","573.8999999985099","","49","","","3000","1","","","images/tutgreenplanet.jpg","images/tutalien2","images/tutalien1","images/tutrocket1","images/tutalien1","images/t.png","2","practice","true","1","common","1","2022-10-22 14:20:47.650"
"two-step-fixation","111","336001","0.0-61.0-2.16","2039","3247","14","Male","false","true","true","true","""event"",""trial"",""time""
""fullscreenenter"",""5"",""18011""
","
","
","""event"",""trial"",""time""
""fullscreenenter"",""5"",""18011""
","
","","images/earth.jpg","","","","","","","","","","","","","","fixation","","","","","",""
"d3-animate-choice","112","339220","0.0-61.0-0.17","2039","3247","14","Male","false","true","true","true","""event"",""trial"",""time""
""fullscreenenter"",""5"",""18011""
","
","
","""event"",""trial"",""time""
""fullscreenenter"",""5"",""18011""
","
","1217.8000000044703","","48","","","3000","1","","","images/earth.jpg","images/tutrocket1","images/tutrocket2","null","images/tutrocket1","","1","practice","null","2","","",""
"d3-animate-choice","113","341318","0.0-61.0-1.17","2039","3247","14","Male","false","true","true","true","""event"",""trial"",""time""
""fullscreenenter"",""5"",""18011""
","
","
","""event"",""trial"",""time""
""fullscreenenter"",""5"",""18011""
","
","94.30000000447035","","49","","","3000","1","405.8999999985099","49","images/tutyellowplanet.jpg","images/tutalien4","images/tutalien3","images/tutrocket1","images/tutalien3","images/nothing.png","2","practice","false","1","rare","0","2022-10-22 14:20:53.969"
"two-step-fixation","114","342321","0.0-61.0-2.17","2039","3247","14","Male","false","true","true","true","""event"",""trial"",""time""
""fullscreenenter"",""5"",""18011""
","
","
","""event"",""trial"",""time""
""fullscreenenter"",""5"",""18011""
","
","","images/earth.jpg","","","","","","","","","","","","","","fixation","","","","","",""
"d3-animate-choice","115","344669","0.0-61.0-0.18","2039","3247","14","Male","false","true","true","true","""event"",""trial"",""time""
""fullscreenenter"",""5"",""18011""
","
","
","""event"",""trial"",""time""
""fullscreenenter"",""5"",""18011""
","
","346.3999999985099","","48","","","3000","1","","","images/earth.jpg","images/tutrocket1","images/tutrocket2","null","images/tutrocket1","","1","practice","null","2","","",""
"d3-animate-choice","116","346689","0.0-61.0-1.18","2039","3247","14","Male","false","true","true","true","""event"",""trial"",""time""
""fullscreenenter"",""5"",""18011""
","
","
","""event"",""trial"",""time""
""fullscreenenter"",""5"",""18011""
","
","18","","49","","","3000","1","380.6000000014901,642","49,49","images/tutgreenplanet.jpg","images/tutalien2","images/tutalien1","images/tutrocket1","images/tutalien1","images/nothing.png","2","practice","true","1","common","0","2022-10-22 14:20:59.340"
"two-step-fixation","117","347691","0.0-61.0-2.18","2039","3247","14","Male","false","true","true","true","""event"",""trial"",""time""
""fullscreenenter"",""5"",""18011""
","
","
","""event"",""trial"",""time""
""fullscreenenter"",""5"",""18011""
","
","","images/earth.jpg","","","","","","","","","","","","","","fixation","","","","","",""
"d3-animate-choice","118","350446","0.0-61.0-0.19","2039","3247","14","Male","false","true","true","true","""event"",""trial"",""time""
""fullscreenenter"",""5"",""18011""
","
","
","""event"",""trial"",""time""
""fullscreenenter"",""5"",""18011""
","
","753.7999999970198","","48","","","3000","1","","","images/earth.jpg","images/tutrocket1","images/tutrocket2","null","images/tutrocket1","","1","practice","null","2","","",""
"d3-animate-choice","119","352974","0.0-61.0-1.19","2039","3247","14","Male","false","true","true","true","""event"",""trial"",""time""
""fullscreenenter"",""5"",""18011""
","
","
","""event"",""trial"",""time""
""fullscreenenter"",""5"",""18011""
","
","524.6999999955297","","49","","","3000","1","","","images/tutyellowplanet.jpg","images/tutalien4","images/tutalien3","images/tutrocket1","images/tutalien3","images/nothing.png","2","practice","false","1","rare","0","2022-10-22 14:21:05.625"
"two-step-fixation","120","353975","0.0-61.0-2.19","2039","3247","14","Male","false","true","true","true","""event"",""trial"",""time""
""fullscreenenter"",""5"",""18011""
","
","
","""event"",""trial"",""time""
""fullscreenenter"",""5"",""18011""
","
","","images/earth.jpg","","","","","","","","","","","","","","fixation","","","","","",""
"d3-instructions","121","356600","0.0-62.0","2039","3247","14","Male","false","true","true","true","""event"",""trial"",""time""
""fullscreenenter"",""5"",""18011""
","
","
","""event"",""trial"",""time""
""fullscreenenter"",""5"",""18011""
","
","","","","","","","","","","","","","","","","","","","","","",""
"audio-keyboard-response","122","358633","0.0-63.0","2039","3247","14","Male","false","true","true","true","""event"",""trial"",""time""
""fullscreenenter"",""5"",""18011""
","
","
","""event"",""trial"",""time""
""fullscreenenter"",""5"",""18011""
","
","2040","audio/instructions/treasure_feedback.wav","32","","","","","","","","","","","","","","","","","","",""
"d3-instructions","123","360969","0.0-64.0","2039","3247","14","Male","false","true","true","true","""event"",""trial"",""time""
""fullscreenenter"",""5"",""18011""
","
","
","""event"",""trial"",""time""
""fullscreenenter"",""5"",""18011""
","
","","","","","","","","","","","","","","","","","","","","","",""
"d3-instructions","124","363938","0.0-65.0","2039","3247","14","Male","false","true","true","true","""event"",""trial"",""time""
""fullscreenenter"",""5"",""18011""
","
","
","""event"",""trial"",""time""
""fullscreenenter"",""5"",""18011""
","
","","","","","","","","","","","","","","","","","","","","","",""
"d3-instructions","125","365009","0.0-66.0","2039","3247","14","Male","false","true","true","true","""event"",""trial"",""time""
""fullscreenenter"",""5"",""18011""
","
","
","""event"",""trial"",""time""
""fullscreenenter"",""5"",""18011""
","
","","","","","","","","","","","","","","","","","","","","","",""
"d3-instructions","126","365700","0.0-67.0","2039","3247","14","Male","false","true","true","true","""event"",""trial"",""time""
""fullscreenenter"",""5"",""18011""
","
","
","""event"",""trial"",""time""
""fullscreenenter"",""5"",""18011""
","
","","","","","","","","","","","","","","","","","","","","","",""
"d3-instructions","127","367758","0.0-68.0","2039","3247","14","Male","false","true","true","true","""event"",""trial"",""time""
""fullscreenenter"",""5"",""18011""
","
","
","""event"",""trial"",""time""
""fullscreenenter"",""5"",""18011""
","
","","","","","","","","","","","","","","","","","","","","","",""
"instructions-quiz","128","370452","0.0-69.0","2039","3247","14","Male","false","true","true","true","""event"",""trial"",""time""
""fullscreenenter"",""5"",""18011""
","
","
","""event"",""trial"",""time""
""fullscreenenter"",""5"",""18011""
","
","2693.2999999970198","audio/quiz/Q1_Prompt.wav","","1","","","","","","","","","","","","","","","","","",""
"audio-keyboard-response","129","375179","0.0-70.0","2039","3247","14","Male","false","true","true","true","""event"",""trial"",""time""
""fullscreenenter"",""5"",""18011""
","
","
","""event"",""trial"",""time""
""fullscreenenter"",""5"",""18011""
","
","4720","audio/quiz/Q1_Correct.wav","32","","","","","","","","","","","","","","","","","","",""
"instructions-quiz","130","378857","0.0-71.0","2039","3247","14","Male","false","true","true","true","""event"",""trial"",""time""
""fullscreenenter"",""5"",""18011""
","
","
","""event"",""trial"",""time""
""fullscreenenter"",""5"",""18011""
","
","3677.60000000149","audio/quiz/Q2_Prompt.wav","","0","","","","","","","","","","","","","","","","","",""
"audio-keyboard-response","131","379034","0.0-72.0","2039","3247","14","Male","false","true","true","true","""event"",""trial"",""time""
""fullscreenenter"",""5"",""18011""
","
","
","""event"",""trial"",""time""
""fullscreenenter"",""5"",""18011""
","
","179","audio/quiz/Q2_Correct.wav","32","","","","","","","","","","","","","","","","","","",""
"instructions-quiz","132","381797","0.0-73.0","2039","3247","14","Male","false","true","true","true","""event"",""trial"",""time""
""fullscreenenter"",""5"",""18011""
","
","
","""event"",""trial"",""time""
""fullscreenenter"",""5"",""18011""
","
","2762.89999999851","audio/quiz/Q3_Prompt.wav","","1","","","","","","","","","","","","","","","","","",""
"audio-keyboard-response","133","381925","0.0-74.0","2039","3247","14","Male","false","true","true","true","""event"",""trial"",""time""
""fullscreenenter"",""5"",""18011""
","
","
","""event"",""trial"",""time""
""fullscreenenter"",""5"",""18011""
","
","131","audio/quiz/Q3_Correct.wav","32","","","","","","","","","","","","","","","","","","",""
"d3-instructions","134","384134","0.0-75.0","2039","3247","14","Male","false","true","true","true","""event"",""trial"",""time""
""fullscreenenter"",""5"",""18011""
","
","
","""event"",""trial"",""time""
""fullscreenenter"",""5"",""18011""
","
","","","","","","","","","","","","","","","","","","","","","",""
"d3-animate-choice","135","386950","0.0-76.0-0.0","2039","3247","14","Male","false","true","true","true","""event"",""trial"",""time""
""fullscreenenter"",""5"",""18011""
","
","
","""event"",""trial"",""time""
""fullscreenenter"",""5"",""18011""
","
","814.1000000014901","","49","","","3000","1","","","images/earth.jpg","images/rocket1","images/rocket2","null","images/rocket2","","1","real","null","1","","",""
"d3-animate-choice","136","389438","0.0-76.0-1.0","2039","3247","14","Male","false","true","true","true","""event"",""trial"",""time""
""fullscreenenter"",""5"",""18011""
","
","
","""event"",""trial"",""time""
""fullscreenenter"",""5"",""18011""
","
","485.79999999701977","","49","","","3000","1","","","images/redplanet1.jpg","images/alien2","images/alien1","images/rocket2","images/alien1","images/nothing.png","2","real","false","1","rare","0","2022-10-22 14:21:42.090"
"two-step-fixation","137","390441","0.0-76.0-2.0","2039","3247","14","Male","false","true","true","true","""event"",""trial"",""time""
""fullscreenenter"",""5"",""18011""
","
","
","""event"",""trial"",""time""
""fullscreenenter"",""5"",""18011""
","
","","images/earth.jpg","","","","","","","","","","","","","","fixation","","","","","",""
"d3-animate-choice","138","393845","0.0-76.0-0.1","2039","3247","14","Male","false","true","true","true","""event"",""trial"",""time""
""fullscreenenter"",""5"",""18011""
","
","
","""event"",""trial"",""time""
""fullscreenenter"",""5"",""18011""
","
","293.29999999701977","","50","","","3000","1","1401.1000000014901","48","images/earth.jpg","images/rocket1","images/rocket2","null","images/rocket1","","1","real","null","","","",""
"d3-animate-choice","139","396733","0.0-76.0-1.1","2039","3247","14","Male","false","true","true","true","""event"",""trial"",""time""
""fullscreenenter"",""5"",""18011""
","
","
","""event"",""trial"",""time""
""fullscreenenter"",""5"",""18011""
","
","877.5","","49","","","3000","1","2694.39999999851","48","images/purpleplanet.jpg","images/alien4","images/alien3","images/rocket1","images/alien3","images/t.png","2","real","false","1","rare","1","2022-10-22 14:21:49.384"
"two-step-fixation","140","397735","0.0-76.0-2.1","2039","3247","14","Male","false","true","true","true","""event"",""trial"",""time""
""fullscreenenter"",""5"",""18011""
","
","
","""event"",""trial"",""time""
""fullscreenenter"",""5"",""18011""
","
","","images/earth.jpg","","","","","","","","","","","","","","fixation","","","","","",""
"d3-animate-choice","141","399987","0.0-76.0-0.2","2039","3247","14","Male","false","true","true","true","""event"",""trial"",""time""
""fullscreenenter"",""5"",""18011""
","
","
","""event"",""trial"",""time""
""fullscreenenter"",""5"",""18011""
","
","250.10000000149012","","49","","","3000","1","","","images/earth.jpg","images/rocket1","images/rocket2","null","images/rocket2","","1","real","null","1","","",""
"d3-animate-choice","142","402285","0.0-76.0-1.2","2039","3247","14","Male","false","true","true","true","""event"",""trial"",""time""
""fullscreenenter"",""5"",""18011""
","
","
","""event"",""trial"",""time""
""fullscreenenter"",""5"",""18011""
","
","296.1000000014901","","48","","","3000","1","","","images/purpleplanet.jpg","images/alien4","images/alien3","images/rocket2","images/alien4","images/t.png","2","real","true","2","common","1","2022-10-22 14:21:54.936"
"two-step-fixation","143","403287","0.0-76.0-2.2","2039","3247","14","Male","false","true","true","true","""event"",""trial"",""time""
""fullscreenenter"",""5"",""18011""
","
","
","""event"",""trial"",""time""
""fullscreenenter"",""5"",""18011""
","
","","images/earth.jpg","","","","","","","","","","","","","","fixation","","","","","",""
"d3-animate-choice","144","405529","0.0-76.0-0.3","2039","3247","14","Male","false","true","true","true","""event"",""trial"",""time""
""fullscreenenter"",""5"",""18011""
","
","
","""event"",""trial"",""time""
""fullscreenenter"",""5"",""18011""
","
","239.10000000149012","","49","","","3000","1","2132.2000000029802","48","images/earth.jpg","images/rocket1","images/rocket2","null","images/rocket2","","1","real","null","1","","",""
"d3-animate-choice","145","407760","0.0-76.0-1.3","2039","3247","14","Male","false","true","true","true","""event"",""trial"",""time""
""fullscreenenter"",""5"",""18011""
","
","
","""event"",""trial"",""time""
""fullscreenenter"",""5"",""18011""
","
","228.70000000298023","","48","","","3000","1","","","images/redplanet1.jpg","images/alien2","images/alien1","images/rocket2","images/alien2","images/t.png","2","real","false","2","rare","1","2022-10-22 14:22:00.411"
"two-step-fixation","146","408762","0.0-76.0-2.3","2039","3247","14","Male","false","true","true","true","""event"",""trial"",""time""
""fullscreenenter"",""5"",""18011""
","
","
","""event"",""trial"",""time""
""fullscreenenter"",""5"",""18011""
","
","","images/earth.jpg","","","","","","","","","","","","","","fixation","","","","","",""
"d3-animate-choice","147","411083","0.0-76.0-0.4","2039","3247","14","Male","false","true","true","true","""event"",""trial"",""time""
""fullscreenenter"",""5"",""18011""
","
","
","""event"",""trial"",""time""
""fullscreenenter"",""5"",""18011""
","
","318","","48","","","3000","1","","","images/earth.jpg","images/rocket1","images/rocket2","null","images/rocket1","","1","real","null","2","","",""
"d3-animate-choice","148","413126","0.0-76.0-1.4","2039","3247","14","Male","false","true","true","true","""event"",""trial"",""time""
""fullscreenenter"",""5"",""18011""
","
","
","""event"",""trial"",""time""
""fullscreenenter"",""5"",""18011""
","
","41.600000001490116","","49","","","3000","1","429.1000000014901","49","images/redplanet1.jpg","images/alien2","images/alien1","images/rocket1","images/alien1","images/t.png","2","real","true","1","common","1","2022-10-22 14:22:05.778"
"two-step-fixation","149","414128","0.0-76.0-2.4","2039","3247","14","Male","false","true","true","true","""event"",""trial"",""time""
""fullscreenenter"",""5"",""18011""
","
","
","""event"",""trial"",""time""
""fullscreenenter"",""5"",""18011""
","
","","images/earth.jpg","","","","","","","","","","","","","","fixation","","","","","",""
"d3-animate-choice","150","416453","0.0-76.0-0.5","2039","3247","14","Male","false","true","true","true","""event"",""trial"",""time""
""fullscreenenter"",""5"",""18011""
","
","
","""event"",""trial"",""time""
""fullscreenenter"",""5"",""18011""
","
","322.8999999985099","","48","","","3000","1","","","images/earth.jpg","images/rocket1","images/rocket2","null","images/rocket1","","1","real","null","2","","",""
"d3-animate-choice","151","418904","0.0-76.0-1.5","2039","3247","14","Male","false","true","true","true","""event"",""trial"",""time""
""fullscreenenter"",""5"",""18011""
","
","
","""event"",""trial"",""time""
""fullscreenenter"",""5"",""18011""
","
","448.6000000014901","","49","","","3000","1","","","images/redplanet1.jpg","images/alien2","images/alien1","images/rocket1","images/alien1","images/nothing.png","2","real","true","1","common","0","2022-10-22 14:22:11.555"
"two-step-fixation","152","419906","0.0-76.0-2.5","2039","3247","14","Male","false","true","true","true","""event"",""trial"",""time""
""fullscreenenter"",""5"",""18011""
","
","
","""event"",""trial"",""time""
""fullscreenenter"",""5"",""18011""
","
","","images/earth.jpg","","","","","","","","","","","","","","fixation","","","","","",""
"d3-animate-choice","153","421981","0.0-76.0-0.6","2039","3247","14","Male","false","true","true","true","""event"",""trial"",""time""
""fullscreenenter"",""5"",""18011""
","
","
","""event"",""trial"",""time""
""fullscreenenter"",""5"",""18011""
","
","73.5","","49","","","3000","1","1004.5,1215.7000000029802,1452,1713.6000000014901,1949.8999999985099","48,48,48,48,48","images/earth.jpg","images/rocket1","images/rocket2","null","images/rocket2","","1","real","null","1","","",""
"d3-animate-choice","154","424093","0.0-76.0-1.6","2039","3247","14","Male","false","true","true","true","""event"",""trial"",""time""
""fullscreenenter"",""5"",""18011""
","
","
","""event"",""trial"",""time""
""fullscreenenter"",""5"",""18011""
","
","110.20000000298023","","48","","","3000","1","321.70000000298023,557.2000000029802,817.8999999985099","48,48,48","images/redplanet1.jpg","images/alien2","images/alien1","images/rocket2","images/alien2","images/t.png","2","real","false","2","rare","1","2022-10-22 14:22:16.744"
"two-step-fixation","155","425095","0.0-76.0-2.6","2039","3247","14","Male","false","true","true","true","""event"",""trial"",""time""
""fullscreenenter"",""5"",""18011""
","
","
","""event"",""trial"",""time""
""fullscreenenter"",""5"",""18011""
","
","","images/earth.jpg","","","","","","","","","","","","","","fixation","","","","","",""
"d3-animate-choice","156","427454","0.0-76.0-0.7","2039","3247","14","Male","false","true","true","true","""event"",""trial"",""time""
""fullscreenenter"",""5"",""18011""
","
","
","""event"",""trial"",""time""
""fullscreenenter"",""5"",""18011""
","
","356.3999999985099","","49","","","3000","1","","","images/earth.jpg","images/rocket1","images/rocket2","null","images/rocket2","","1","real","null","1","","",""
"d3-animate-choice","157","429765","0.0-76.0-1.7","2039","3247","14","Male","false","true","true","true","""event"",""trial"",""time""
""fullscreenenter"",""5"",""18011""
","
","
","""event"",""trial"",""time""
""fullscreenenter"",""5"",""18011""
","
","308.8999999985099","","49","","","3000","1","","","images/purpleplanet.jpg","images/alien4","images/alien3","images/rocket2","images/alien3","images/t.png","2","real","true","1","common","1","2022-10-22 14:22:22.416"
"two-step-fixation","158","430767","0.0-76.0-2.7","2039","3247","14","Male","false","true","true","true","""event"",""trial"",""time""
""fullscreenenter"",""5"",""18011""
","
","
","""event"",""trial"",""time""
""fullscreenenter"",""5"",""18011""
","
","","images/earth.jpg","","","","","","","","","","","","","","fixation","","","","","",""
"d3-animate-choice","159","432901","0.0-76.0-0.8","2039","3247","14","Male","false","true","true","true","""event"",""trial"",""time""
""fullscreenenter"",""5"",""18011""
","
","
","""event"",""trial"",""time""
""fullscreenenter"",""5"",""18011""
","
","131.60000000149012","","49","","","3000","1","","","images/earth.jpg","images/rocket1","images/rocket2","null","images/rocket2","","1","real","null","1","","",""
"d3-animate-choice","160","435287","0.0-76.0-1.8","2039","3247","14","Male","false","true","true","true","""event"",""trial"",""time""
""fullscreenenter"",""5"",""18011""
","
","
","""event"",""trial"",""time""
""fullscreenenter"",""5"",""18011""
","
","384.20000000298023","","49","","","3000","1","","","images/purpleplanet.jpg","images/alien4","images/alien3","images/rocket2","images/alien3","images/nothing.png","2","real","true","1","common","0","2022-10-22 14:22:27.938"
"two-step-fixation","161","436289","0.0-76.0-2.8","2039","3247","14","Male","false","true","true","true","""event"",""trial"",""time""
""fullscreenenter"",""5"",""18011""
","
","
","""event"",""trial"",""time""
""fullscreenenter"",""5"",""18011""
","
","","images/earth.jpg","","","","","","","","","","","","","","fixation","","","","","",""
"d3-animate-choice","162","438673","0.0-76.0-0.9","2039","3247","14","Male","false","true","true","true","""event"",""trial"",""time""
""fullscreenenter"",""5"",""18011""
","
","
","""event"",""trial"",""time""
""fullscreenenter"",""5"",""18011""
","
","381.1000000014901","","48","","","3000","1","1844.1000000014901,2283.5","49,49","images/earth.jpg","images/rocket1","images/rocket2","null","images/rocket1","","1","real","null","2","","",""
"d3-animate-choice","163","440988","0.0-76.0-1.9","2039","3247","14","Male","false","true","true","true","""event"",""trial"",""time""
""fullscreenenter"",""5"",""18011""
","
","
","""event"",""trial"",""time""
""fullscreenenter"",""5"",""18011""
","
","312","","49","","","3000","1","2066.10000000149","49","images/purpleplanet.jpg","images/alien4","images/alien3","images/rocket1","images/alien3","images/nothing.png","2","real","false","1","rare","0","2022-10-22 14:22:33.639"
"two-step-fixation","164","441989","0.0-76.0-2.9","2039","3247","14","Male","false","true","true","true","""event"",""trial"",""time""
""fullscreenenter"",""5"",""18011""
","
","
","""event"",""trial"",""time""
""fullscreenenter"",""5"",""18011""
","
","","images/earth.jpg","","","","","","","","","","","","","","fixation","","","","","",""
"d3-animate-choice","165","444235","0.0-76.0-0.10","2039","3247","14","Male","false","true","true","true","""event"",""trial"",""time""
""fullscreenenter"",""5"",""18011""
","
","
","""event"",""trial"",""time""
""fullscreenenter"",""5"",""18011""
","
","244.10000000149012","","49","","","3000","1","2036.5","48","images/earth.jpg","images/rocket1","images/rocket2","null","images/rocket2","","1","real","null","1","","",""
"d3-animate-choice","166","446238","0.0-76.0-1.10","2039","3247","14","Male","false","true","true","true","""event"",""trial"",""time""
""fullscreenenter"",""5"",""18011""
","
","
","""event"",""trial"",""time""
""fullscreenenter"",""5"",""18011""
","
","0.30000000447034836","","48","","","3000","1","211.30000000447035,447.30000000447035,633.3000000044703,1021.5,1688.3000000044703","48,48,48,48,48","images/purpleplanet.jpg","images/alien4","images/alien3","images/rocket2","images/alien4","images/t.png","2","real","true","2","common","1","2022-10-22 14:22:38.889"
"two-step-fixation","167","447241","0.0-76.0-2.10","2039","3247","14","Male","false","true","true","true","""event"",""trial"",""time""
""fullscreenenter"",""5"",""18011""
","
","
","""event"",""trial"",""time""
""fullscreenenter"",""5"",""18011""
","
","","images/earth.jpg","","","","","","","","","","","","","","fixation","","","","","",""
"d3-animate-choice","168","449300","0.0-76.0-0.11","2039","3247","14","Male","false","true","true","true","""event"",""trial"",""time""
""fullscreenenter"",""5"",""18011""
","
","
","""event"",""trial"",""time""
""fullscreenenter"",""5"",""18011""
","
","57.79999999701977","","48","","","3000","1","268.1000000014901,504.8999999985099,1361,1697.7999999970198,2035.7999999970198","48,48,49,49,49","images/earth.jpg","images/rocket1","images/rocket2","null","images/rocket1","","1","real","null","2","","",""
"d3-animate-choice","169","451616","0.0-76.0-1.11","2039","3247","14","Male","false","true","true","true","""event"",""trial"",""time""
""fullscreenenter"",""5"",""18011""
","
","
","""event"",""trial"",""time""
""fullscreenenter"",""5"",""18011""
","
","313.3999999985099","","49","","","3000","1","651.3999999985099","49","images/redplanet1.jpg","images/alien2","images/alien1","images/rocket1","images/alien1","images/t.png","2","real","true","1","common","1","2022-10-22 14:22:44.267"
"two-step-fixation","170","452618","0.0-76.0-2.11","2039","3247","14","Male","false","true","true","true","""event"",""trial"",""time""
""fullscreenenter"",""5"",""18011""
","
","
","""event"",""trial"",""time""
""fullscreenenter"",""5"",""18011""
","
","","images/earth.jpg","","","","","","","","","","","","","","fixation","","","","","",""
"d3-animate-choice","171","454762","0.0-76.0-0.12","2039","3247","14","Male","false","true","true","true","""event"",""trial"",""time""
""fullscreenenter"",""5"",""18011""
","
","
","""event"",""trial"",""time""
""fullscreenenter"",""5"",""18011""
","
","141","","49","","","3000","1","2035.2000000029802","48","images/earth.jpg","images/rocket1","images/rocket2","null","images/rocket2","","1","real","null","1","","",""
"d3-animate-choice","172","457145","0.0-76.0-1.12","2039","3247","14","Male","false","true","true","true","""event"",""trial"",""time""
""fullscreenenter"",""5"",""18011""
","
","
","""event"",""trial"",""time""
""fullscreenenter"",""5"",""18011""
","
","380.19999999552965","","48","","","3000","1","","","images/redplanet1.jpg","images/alien2","images/alien1","images/rocket2","images/alien2","images/nothing.png","2","real","false","2","rare","0","2022-10-22 14:22:49.796"
"two-step-fixation","173","458146","0.0-76.0-2.12","2039","3247","14","Male","false","true","true","true","""event"",""trial"",""time""
""fullscreenenter"",""5"",""18011""
","
","
","""event"",""trial"",""time""
""fullscreenenter"",""5"",""18011""
","
","","images/earth.jpg","","","","","","","","","","","","","","fixation","","","","","",""
"d3-animate-choice","174","460401","0.0-76.0-0.13","2039","3247","14","Male","false","true","true","true","""event"",""trial"",""time""
""fullscreenenter"",""5"",""18011""
","
","
","""event"",""trial"",""time""
""fullscreenenter"",""5"",""18011""
","
","252","","48","","","3000","1","","","images/earth.jpg","images/rocket1","images/rocket2","null","images/rocket1","","1","real","null","2","","",""
"d3-animate-choice","175","462800","0.0-76.0-1.13","2039","3247","14","Male","false","true","true","true","""event"",""trial"",""time""
""fullscreenenter"",""5"",""18011""
","
","
","""event"",""trial"",""time""
""fullscreenenter"",""5"",""18011""
","
","397","","49","","","3000","1","","","images/redplanet1.jpg","images/alien2","images/alien1","images/rocket1","images/alien1","images/nothing.png","2","real","true","1","common","0","2022-10-22 14:22:55.451"
"two-step-fixation","176","463803","0.0-76.0-2.13","2039","3247","14","Male","false","true","true","true","""event"",""trial"",""time""
""fullscreenenter"",""5"",""18011""
","
","
","""event"",""trial"",""time""
""fullscreenenter"",""5"",""18011""
","
","","images/earth.jpg","","","","","","","","","","","","","","fixation","","","","","",""
"d3-animate-choice","177","466135","0.0-76.0-0.14","2039","3247","14","Male","false","true","true","true","""event"",""trial"",""time""
""fullscreenenter"",""5"",""18011""
","
","
","""event"",""trial"",""time""
""fullscreenenter"",""5"",""18011""
","
","330.3999999985099","","48","","","3000","1","1983.3999999985099","48","images/earth.jpg","images/rocket1","images/rocket2","null","images/rocket1","","1","real","null","2","","",""
"d3-animate-choice","178","468923","0.0-76.0-1.14","2039","3247","14","Male","false","true","true","true","""event"",""trial"",""time""
""fullscreenenter"",""5"",""18011""
","
","
","""event"",""trial"",""time""
""fullscreenenter"",""5"",""18011""
","
","785.7000000029802","","49","","","3000","1","","","images/purpleplanet.jpg","images/alien4","images/alien3","images/rocket1","images/alien3","images/t.png","2","real","false","1","rare","1","2022-10-22 14:23:01.574"
"two-step-fixation","179","469926","0.0-76.0-2.14","2039","3247","14","Male","false","true","true","true","""event"",""trial"",""time""
""fullscreenenter"",""5"",""18011""
","
","
","""event"",""trial"",""time""
""fullscreenenter"",""5"",""18011""
","
","","images/earth.jpg","","","","","","","","","","","","","","fixation","","","","","",""
"d3-animate-choice","180","472338","0.0-76.0-0.15","2039","3247","14","Male","false","true","true","true","""event"",""trial"",""time""
""fullscreenenter"",""5"",""18011""
","
","
","""event"",""trial"",""time""
""fullscreenenter"",""5"",""18011""
","
","410","","49","","","3000","1","","","images/earth.jpg","images/rocket1","images/rocket2","null","images/rocket2","","1","real","null","1","","",""
"d3-animate-choice","181","476341","0.0-76.0-1.15","2039","3247","14","Male","false","true","true","true","""event"",""trial"",""time""
""fullscreenenter"",""5"",""18011""
","
","
","""event"",""trial"",""time""
""fullscreenenter"",""5"",""18011""
","
","2130.89999999851","","49","","","3000","1","","","images/redplanet1.jpg","images/alien2","images/alien1","images/rocket2","images/alien1","images/t.png","2","real","false","1","rare","1","2022-10-22 14:23:08.992"
"two-step-fixation","182","477344","0.0-76.0-2.15","2039","3247","14","Male","false","true","true","true","""event"",""trial"",""time""
""fullscreenenter"",""5"",""18011""
","
","
","""event"",""trial"",""time""
""fullscreenenter"",""5"",""18011""
","
","","images/earth.jpg","","","","","","","","","","","","","","fixation","","","","","",""
"d3-animate-choice","183","479806","0.0-76.0-0.16","2039","3247","14","Male","false","true","true","true","""event"",""trial"",""time""
""fullscreenenter"",""5"",""18011""
","
","
","""event"",""trial"",""time""
""fullscreenenter"",""5"",""18011""
","
","459.8999999985099","","48","","","3000","1","","","images/earth.jpg","images/rocket1","images/rocket2","null","images/rocket1","","1","real","null","2","","",""
"d3-animate-choice","184","482408","0.0-76.0-1.16","2039","3247","14","Male","false","true","true","true","""event"",""trial"",""time""
""fullscreenenter"",""5"",""18011""
","
","
","""event"",""trial"",""time""
""fullscreenenter"",""5"",""18011""
","
","600","","49","","","3000","1","","","images/purpleplanet.jpg","images/alien4","images/alien3","images/rocket1","images/alien3","images/nothing.png","2","real","false","1","rare","0","2022-10-22 14:23:15.059"
"two-step-fixation","185","483411","0.0-76.0-2.16","2039","3247","14","Male","false","true","true","true","""event"",""trial"",""time""
""fullscreenenter"",""5"",""18011""
","
","
","""event"",""trial"",""time""
""fullscreenenter"",""5"",""18011""
","
","","images/earth.jpg","","","","","","","","","","","","","","fixation","","","","","",""
"d3-animate-choice","186","485466","0.0-76.0-0.17","2039","3247","14","Male","false","true","true","true","""event"",""trial"",""time""
""fullscreenenter"",""5"",""18011""
","
","
","""event"",""trial"",""time""
""fullscreenenter"",""5"",""18011""
","
","52.5","","48","","","3000","1","95.70000000298023,247.30000000447035,457.5,580.7000000029802,674.5,862.6000000014901,879.8000000044703,1031.8000000044703,1204.6000000014901,1272.7000000029802,1436.8000000044703,1584.7000000029802,1706.7000000029802,2006","49,48,48,49,48,48,49,48,49,48,48,49,48,49","images/earth.jpg","images/rocket1","images/rocket2","null","images/rocket1","","1","real","null","2","","",""
"d3-animate-choice","187","487617","0.0-76.0-1.17","2039","3247","14","Male","false","true","true","true","""event"",""trial"",""time""
""fullscreenenter"",""5"",""18011""
","
","
","""event"",""trial"",""time""
""fullscreenenter"",""5"",""18011""
","
","147.89999999850988","","48","","","3000","1","371.79999999701977,823.1999999955297,1147.7999999970198,1422.1000000014901,1696.3999999985099,1970.2999999970198","49,48,49,48,49,48","images/purpleplanet.jpg","images/alien4","images/alien3","images/rocket1","images/alien4","images/t.png","2","real","false","2","rare","1","2022-10-22 14:23:20.268"
"two-step-fixation","188","488619","0.0-76.0-2.17","2039","3247","14","Male","false","true","true","true","""event"",""trial"",""time""
""fullscreenenter"",""5"",""18011""
""fullscreenexit"",""189"",""489873""
","
","
","""event"",""trial"",""time""
""fullscreenenter"",""5"",""18011""
","""event"",""trial"",""time""
""fullscreenexit"",""189"",""489873""
","","images/earth.jpg","","","","","","","","","","","","","","fixation","","","","","",""
"d3-animate-choice","189","490809","0.0-76.0-0.18","2039","3247","14","Male","false","true","true","true","""event"",""trial"",""time""
""fullscreenenter"",""5"",""18011""
""fullscreenexit"",""189"",""489873""
","
","
","""event"",""trial"",""time""
""fullscreenenter"",""5"",""18011""
","""event"",""trial"",""time""
""fullscreenexit"",""189"",""489873""
","187.89999999850988","","49","","","3000","1","412,735.8999999985099,985.2999999970198","48,49,48","images/earth.jpg","images/rocket1","images/rocket2","null","images/rocket2","","1","real","null","1","","",""
"d3-animate-choice","190","493708","0.0-76.0-1.18","2039","3247","14","Male","false","true","true","true","""event"",""trial"",""time""
""fullscreenenter"",""5"",""18011""
""fullscreenexit"",""189"",""489873""
","
","
","""event"",""trial"",""time""
""fullscreenenter"",""5"",""18011""
","""event"",""trial"",""time""
""fullscreenexit"",""189"",""489873""
","139.60000000149012","","27","","","3000","1","897.2000000029802,2256.9000000059605,2539.9000000059605,2802.60000000149","48,17,16,70","images/purpleplanet.jpg","images/alien4","images/alien3","images/rocket2","images/alien4","images/t.png","2","real","true","","common","1","2022-10-22 14:23:26.359"
"two-step-fixation","191","494710","0.0-76.0-2.18","2039","3247","14","Male","false","true","true","true","""event"",""trial"",""time""
""fullscreenenter"",""5"",""18011""
""fullscreenexit"",""189"",""489873""
","
","
","""event"",""trial"",""time""
""fullscreenenter"",""5"",""18011""
","""event"",""trial"",""time""
""fullscreenexit"",""189"",""489873""
","","images/earth.jpg","","","","","","","","","","","","","","fixation","","","","","",""
"d3-animate-choice","192","497157","0.0-76.0-0.19","2039","3247","14","Male","false","true","true","true","""event"",""trial"",""time""
""fullscreenenter"",""5"",""18011""
""fullscreenexit"",""189"",""489873""
","
","
","""event"",""trial"",""time""
""fullscreenenter"",""5"",""18011""
","""event"",""trial"",""time""
""fullscreenexit"",""189"",""489873""
","444.6000000014901","","48","","","3000","1","","","images/earth.jpg","images/rocket1","images/rocket2","null","images/rocket1","","1","real","null","2","","",""
"d3-animate-choice","193","499709","0.0-76.0-1.19","2039","3247","14","Male","false","true","true","true","""event"",""trial"",""time""
""fullscreenenter"",""5"",""18011""
""fullscreenexit"",""189"",""489873""
","
","
","""event"",""trial"",""time""
""fullscreenenter"",""5"",""18011""
","""event"",""trial"",""time""
""fullscreenexit"",""189"",""489873""
","549.3999999985099","","49","","","3000","1","1291.3999999985099","49","images/redplanet1.jpg","images/alien2","images/alien1","images/rocket1","images/alien1","images/nothing.png","2","real","true","1","common","0","2022-10-22 14:23:32.360"
"two-step-fixation","194","500711","0.0-76.0-2.19","2039","3247","14","Male","false","true","true","true","""event"",""trial"",""time""
""fullscreenenter"",""5"",""18011""
""fullscreenexit"",""189"",""489873""
","
","
","""event"",""trial"",""time""
""fullscreenenter"",""5"",""18011""
","""event"",""trial"",""time""
""fullscreenexit"",""189"",""489873""
","","images/earth.jpg","","","","","","","","","","","","","","fixation","","","","","",""
"d3-animate-choice","195","503257","0.0-76.0-0.20","2039","3247","14","Male","false","true","true","true","""event"",""trial"",""time""
""fullscreenenter"",""5"",""18011""
""fullscreenexit"",""189"",""489873""
","
","
","""event"",""trial"",""time""
""fullscreenenter"",""5"",""18011""
","""event"",""trial"",""time""
""fullscreenexit"",""189"",""489873""
","543.2000000029802","","48","","","3000","1","","","images/earth.jpg","images/rocket1","images/rocket2","null","images/rocket1","","1","real","null","2","","",""
"d3-animate-choice","196","505908","0.0-76.0-1.20","2039","3247","14","Male","false","true","true","true","""event"",""trial"",""time""
""fullscreenenter"",""5"",""18011""
""fullscreenexit"",""189"",""489873""
","
","
","""event"",""trial"",""time""
""fullscreenenter"",""5"",""18011""
","""event"",""trial"",""time""
""fullscreenexit"",""189"",""489873""
","649.1999999955297","","49","","","3000","1","2442.6999999955297","48","images/redplanet1.jpg","images/alien2","images/alien1","images/rocket1","images/alien1","images/t.png","2","real","true","1","common","1","2022-10-22 14:23:38.559"
"two-step-fixation","197","506911","0.0-76.0-2.20","2039","3247","14","Male","false","true","true","true","""event"",""trial"",""time""
""fullscreenenter"",""5"",""18011""
""fullscreenexit"",""189"",""489873""
","
","
","""event"",""trial"",""time""
""fullscreenenter"",""5"",""18011""
","""event"",""trial"",""time""
""fullscreenexit"",""189"",""489873""
","","images/earth.jpg","","","","","","","","","","","","","","fixation","","","","","",""
"d3-animate-choice","198","508976","0.0-76.0-0.21","2039","3247","14","Male","false","true","true","true","""event"",""trial"",""time""
""fullscreenenter"",""5"",""18011""
""fullscreenexit"",""189"",""489873""
","
","
","""event"",""trial"",""time""
""fullscreenenter"",""5"",""18011""
","""event"",""trial"",""time""
""fullscreenexit"",""189"",""489873""
","62.600000001490116","","48","","","3000","1","323.5,585.5,872.5,1133.6000000014901,1420.8000000044703,1657,1943.5","48,48,48,48,48,48,48","images/earth.jpg","images/rocket1","images/rocket2","null","images/rocket1","","1","real","null","2","","",""
"d3-animate-choice","199","511143","0.0-76.0-1.21","2039","3247","14","Male","false","true","true","true","""event"",""trial"",""time""
""fullscreenenter"",""5"",""18011""
""fullscreenexit"",""189"",""489873""
","
","
","""event"",""trial"",""time""
""fullscreenenter"",""5"",""18011""
","""event"",""trial"",""time""
""fullscreenexit"",""189"",""489873""
","165.19999999552965","","48","","","3000","1","401.3999999985099,688.2999999970198,974.1999999955297,1464.3999999985099","48,48,48,48","images/purpleplanet.jpg","images/alien4","images/alien3","images/rocket1","images/alien4","images/t.png","2","real","false","2","rare","1","2022-10-22 14:23:43.794"
"two-step-fixation","200","512146","0.0-76.0-2.21","2039","3247","14","Male","false","true","true","true","""event"",""trial"",""time""
""fullscreenenter"",""5"",""18011""
""fullscreenexit"",""189"",""489873""
","
","
","""event"",""trial"",""time""
""fullscreenenter"",""5"",""18011""
","""event"",""trial"",""time""
""fullscreenexit"",""189"",""489873""
","","images/earth.jpg","","","","","","","","","","","","","","fixation","","","","","",""
"d3-animate-choice","201","515137","0.0-76.0-0.22","2039","3247","14","Male","false","true","true","true","""event"",""trial"",""time""
""fullscreenenter"",""5"",""18011""
""fullscreenexit"",""189"",""489873""
","
","
","""event"",""trial"",""time""
""fullscreenenter"",""5"",""18011""
","""event"",""trial"",""time""
""fullscreenexit"",""189"",""489873""
","987.7999999970198","","49","","","3000","1","","","images/earth.jpg","images/rocket1","images/rocket2","null","images/rocket2","","1","real","null","1","","",""
"d3-animate-choice","202","517410","0.0-76.0-1.22","2039","3247","14","Male","false","true","true","true","""event"",""trial"",""time""
""fullscreenenter"",""5"",""18011""
""fullscreenexit"",""189"",""489873""
","
","
","""event"",""trial"",""time""
""fullscreenenter"",""5"",""18011""
","""event"",""trial"",""time""
""fullscreenexit"",""189"",""489873""
","270.6000000014901","","48","","","3000","1","","","images/purpleplanet.jpg","images/alien4","images/alien3","images/rocket2","images/alien4","images/t.png","2","real","true","2","common","1","2022-10-22 14:23:50.061"
"two-step-fixation","203","518412","0.0-76.0-2.22","2039","3247","14","Male","false","true","true","true","""event"",""trial"",""time""
""fullscreenenter"",""5"",""18011""
""fullscreenexit"",""189"",""489873""
","
","
","""event"",""trial"",""time""
""fullscreenenter"",""5"",""18011""
","""event"",""trial"",""time""
""fullscreenexit"",""189"",""489873""
","","images/earth.jpg","","","","","","","","","","","","","","fixation","","","","","",""
"d3-animate-choice","204","520729","0.0-76.0-0.23","2039","3247","14","Male","false","true","true","true","""event"",""trial"",""time""
""fullscreenenter"",""5"",""18011""
""fullscreenexit"",""189"",""489873""
","
","
","""event"",""trial"",""time""
""fullscreenenter"",""5"",""18011""
","""event"",""trial"",""time""
""fullscreenexit"",""189"",""489873""
","314.6000000014901","","49","","","3000","1","","","images/earth.jpg","images/rocket1","images/rocket2","null","images/rocket2","","1","real","null","1","","",""
"d3-animate-choice","205","523002","0.0-76.0-1.23","2039","3247","14","Male","false","true","true","true","""event"",""trial"",""time""
""fullscreenenter"",""5"",""18011""
""fullscreenexit"",""189"",""489873""
","
","
","""event"",""trial"",""time""
""fullscreenenter"",""5"",""18011""
","""event"",""trial"",""time""
""fullscreenexit"",""189"",""489873""
","270.5","","48","","","3000","1","","","images/purpleplanet.jpg","images/alien4","images/alien3","images/rocket2","images/alien4","images/nothing.png","2","real","true","2","common","0","2022-10-22 14:23:55.653"
"two-step-fixation","206","524005","0.0-76.0-2.23","2039","3247","14","Male","false","true","true","true","""event"",""trial"",""time""
""fullscreenenter"",""5"",""18011""
""fullscreenexit"",""189"",""489873""
","
","
","""event"",""trial"",""time""
""fullscreenenter"",""5"",""18011""
","""event"",""trial"",""time""
""fullscreenexit"",""189"",""489873""
","","images/earth.jpg","","","","","","","","","","","","","","fixation","","","","","",""
"d3-animate-choice","207","526480","0.0-76.0-0.24","2039","3247","14","Male","false","true","true","true","""event"",""trial"",""time""
""fullscreenenter"",""5"",""18011""
""fullscreenexit"",""189"",""489873""
","
","
","""event"",""trial"",""time""
""fullscreenenter"",""5"",""18011""
","""event"",""trial"",""time""
""fullscreenexit"",""189"",""489873""
","473.30000000447035","","49","","","3000","1","","","images/earth.jpg","images/rocket1","images/rocket2","null","images/rocket2","","1","real","null","1","","",""
"d3-animate-choice","208","529184","0.0-76.0-1.24","2039","3247","14","Male","false","true","true","true","""event"",""trial"",""time""
""fullscreenenter"",""5"",""18011""
""fullscreenexit"",""189"",""489873""
","
","
","""event"",""trial"",""time""
""fullscreenenter"",""5"",""18011""
","""event"",""trial"",""time""
""fullscreenexit"",""189"",""489873""
","701.1999999955297","","48","","","3000","1","2060.7999999970198,2217.39999999851,2480","17,16,70","images/redplanet1.jpg","images/alien2","images/alien1","images/rocket2","images/alien2","images/t.png","2","real","false","2","rare","1","2022-10-22 14:24:01.835"
"two-step-fixation","209","530187","0.0-76.0-2.24","2039","3247","14","Male","false","true","true","true","""event"",""trial"",""time""
""fullscreenenter"",""5"",""18011""
""fullscreenexit"",""189"",""489873""
","
","
","""event"",""trial"",""time""
""fullscreenenter"",""5"",""18011""
","""event"",""trial"",""time""
""fullscreenexit"",""189"",""489873""
","","images/earth.jpg","","","","","","","","","","","","","","fixation","","","","","",""
"d3-animate-choice","210","533046","0.0-76.0-0.25","2039","3247","14","Male","false","true","true","true","""event"",""trial"",""time""
""fullscreenenter"",""5"",""18011""
""fullscreenexit"",""189"",""489873""
","
","
","""event"",""trial"",""time""
""fullscreenenter"",""5"",""18011""
","""event"",""trial"",""time""
""fullscreenexit"",""189"",""489873""
","511.70000000298023","","70","","","3000","1","857.2999999970198","48","images/earth.jpg","images/rocket1","images/rocket2","null","images/rocket1","","1","real","null","","","",""
"d3-animate-choice","211","535471","0.0-76.0-1.25","2039","3247","14","Male","false","true","true","true","""event"",""trial"",""time""
""fullscreenenter"",""5"",""18011""
""fullscreenexit"",""189"",""489873""
","
","
","""event"",""trial"",""time""
""fullscreenenter"",""5"",""18011""
","""event"",""trial"",""time""
""fullscreenexit"",""189"",""489873""
","422.79999999701977","","49","","","3000","1","2227.7999999970198","49","images/purpleplanet.jpg","images/alien4","images/alien3","images/rocket1","images/alien3","images/nothing.png","2","real","false","1","rare","0","2022-10-22 14:24:08.122"
"two-step-fixation","212","536474","0.0-76.0-2.25","2039","3247","14","Male","false","true","true","true","""event"",""trial"",""time""
""fullscreenenter"",""5"",""18011""
""fullscreenexit"",""189"",""489873""
","
","
","""event"",""trial"",""time""
""fullscreenenter"",""5"",""18011""
","""event"",""trial"",""time""
""fullscreenexit"",""189"",""489873""
","","images/earth.jpg","","","","","","","","","","","","","","fixation","","","","","",""
"d3-animate-choice","213","538687","0.0-76.0-0.26","2039","3247","14","Male","false","true","true","true","""event"",""trial"",""time""
""fullscreenenter"",""5"",""18011""
""fullscreenexit"",""189"",""489873""
","
","
","""event"",""trial"",""time""
""fullscreenenter"",""5"",""18011""
","""event"",""trial"",""time""
""fullscreenexit"",""189"",""489873""
","210.39999999850988","","49","","","3000","1","471.6000000014901","49","images/earth.jpg","images/rocket1","images/rocket2","null","images/rocket2","","1","real","null","1","","",""
"d3-animate-choice","214","541208","0.0-76.0-1.26","2039","3247","14","Male","false","true","true","true","""event"",""trial"",""time""
""fullscreenenter"",""5"",""18011""
""fullscreenexit"",""189"",""489873""
","
","
","""event"",""trial"",""time""
""fullscreenenter"",""5"",""18011""
","""event"",""trial"",""time""
""fullscreenexit"",""189"",""489873""
","518.0999999940395","","49","","","3000","1","","","images/purpleplanet.jpg","images/alien4","images/alien3","images/rocket2","images/alien3","images/nothing.png","2","real","true","1","common","0","2022-10-22 14:24:13.859"
"two-step-fixation","215","542210","0.0-76.0-2.26","2039","3247","14","Male","false","true","true","true","""event"",""trial"",""time""
""fullscreenenter"",""5"",""18011""
""fullscreenexit"",""189"",""489873""
","
","
","""event"",""trial"",""time""
""fullscreenenter"",""5"",""18011""
","""event"",""trial"",""time""
""fullscreenexit"",""189"",""489873""
","","images/earth.jpg","","","","","","","","","","","","","","fixation","","","","","",""
"d3-animate-choice","216","546213","0.0-76.0-0.27","2039","3247","14","Male","false","true","true","true","""event"",""trial"",""time""
""fullscreenenter"",""5"",""18011""
""fullscreenexit"",""189"",""489873""
","
","
","""event"",""trial"",""time""
""fullscreenenter"",""5"",""18011""
","""event"",""trial"",""time""
""fullscreenexit"",""189"",""489873""
","2470.5","","49","","","3000","1","3516.39999999851,3828.7999999970198","49,49","images/earth.jpg","images/rocket1","images/rocket2","null","images/rocket2","","1","real","null","1","","",""
"d3-animate-choice","217","548328","0.0-76.0-1.27","2039","3247","14","Male","false","true","true","true","""event"",""trial"",""time""
""fullscreenenter"",""5"",""18011""
""fullscreenexit"",""189"",""489873""
","
","
","""event"",""trial"",""time""
""fullscreenenter"",""5"",""18011""
","""event"",""trial"",""time""
""fullscreenexit"",""189"",""489873""
","112.60000000149012","","49","","","3000","1","424.19999999552965,686.5,922.2999999970198,1715.1999999955297","49,49,49,49","images/purpleplanet.jpg","images/alien4","images/alien3","images/rocket2","images/alien3","images/nothing.png","2","real","true","1","common","0","2022-10-22 14:24:20.979"
"two-step-fixation","218","549331","0.0-76.0-2.27","2039","3247","14","Male","false","true","true","true","""event"",""trial"",""time""
""fullscreenenter"",""5"",""18011""
""fullscreenexit"",""189"",""489873""
","
","
","""event"",""trial"",""time""
""fullscreenenter"",""5"",""18011""
","""event"",""trial"",""time""
""fullscreenexit"",""189"",""489873""
","","images/earth.jpg","","","","","","","","","","","","","","fixation","","","","","",""
"d3-animate-choice","219","552748","0.0-76.0-0.28","2039","3247","14","Male","false","true","true","true","""event"",""trial"",""time""
""fullscreenenter"",""5"",""18011""
""fullscreenexit"",""189"",""489873""
","
","
","""event"",""trial"",""time""
""fullscreenenter"",""5"",""18011""
","""event"",""trial"",""time""
""fullscreenexit"",""189"",""489873""
","1414.7000000029802","","49","","","3000","1","2834.8000000044703,3349.8000000044703","57,48","images/earth.jpg","images/rocket1","images/rocket2","null","images/rocket2","","1","real","null","1","","",""
"d3-animate-choice","220","554970","0.0-76.0-1.28","2039","3247","14","Male","false","true","true","true","""event"",""trial"",""time""
""fullscreenenter"",""5"",""18011""
""fullscreenexit"",""189"",""489873""
","
","
","""event"",""trial"",""time""
""fullscreenenter"",""5"",""18011""
","""event"",""trial"",""time""
""fullscreenexit"",""189"",""489873""
","220.20000000298023","","48","","","3000","1","507.1000000014901,768.8999999985099,1889.8999999985099","48,48,48","images/purpleplanet.jpg","images/alien4","images/alien3","images/rocket2","images/alien4","images/t.png","2","real","true","2","common","1","2022-10-22 14:24:27.621"
"two-step-fixation","221","555973","0.0-76.0-2.28","2039","3247","14","Male","false","true","true","true","""event"",""trial"",""time""
""fullscreenenter"",""5"",""18011""
""fullscreenexit"",""189"",""489873""
","
","
","""event"",""trial"",""time""
""fullscreenenter"",""5"",""18011""
","""event"",""trial"",""time""
""fullscreenexit"",""189"",""489873""
","","images/earth.jpg","","","","","","","","","","","","","","fixation","","","","","",""
"d3-animate-choice","222","557988","0.0-76.0-0.29","2039","3247","14","Male","false","true","true","true","""event"",""trial"",""time""
""fullscreenenter"",""5"",""18011""
""fullscreenexit"",""189"",""489873""
","
","
","""event"",""trial"",""time""
""fullscreenenter"",""5"",""18011""
","""event"",""trial"",""time""
""fullscreenexit"",""189"",""489873""
","13.799999997019768","","48","","","3000","1","276.1000000014901","48","images/earth.jpg","images/rocket1","images/rocket2","null","images/rocket1","","1","real","null","2","","",""
"d3-animate-choice","223","560320","0.0-76.0-1.29","2039","3247","14","Male","false","true","true","true","""event"",""trial"",""time""
""fullscreenenter"",""5"",""18011""
""fullscreenexit"",""189"",""489873""
","
","
","""event"",""trial"",""time""
""fullscreenenter"",""5"",""18011""
","""event"",""trial"",""time""
""fullscreenexit"",""189"",""489873""
","330.5","","49","","","3000","1","","","images/redplanet1.jpg","images/alien2","images/alien1","images/rocket1","images/alien1","images/t.png","2","real","true","1","common","1","2022-10-22 14:24:32.971"
"two-step-fixation","224","561322","0.0-76.0-2.29","2039","3247","14","Male","false","true","true","true","""event"",""trial"",""time""
""fullscreenenter"",""5"",""18011""
""fullscreenexit"",""189"",""489873""
","
","
","""event"",""trial"",""time""
""fullscreenenter"",""5"",""18011""
","""event"",""trial"",""time""
""fullscreenexit"",""189"",""489873""
","","images/earth.jpg","","","","","","","","","","","","","","fixation","","","","","",""
"d3-animate-choice","225","563719","0.0-76.0-0.30","2039","3247","14","Male","false","true","true","true","""event"",""trial"",""time""
""fullscreenenter"",""5"",""18011""
""fullscreenexit"",""189"",""489873""
","
","
","""event"",""trial"",""time""
""fullscreenenter"",""5"",""18011""
","""event"",""trial"",""time""
""fullscreenexit"",""189"",""489873""
","395.1000000014901","","49","","","3000","1","","","images/earth.jpg","images/rocket1","images/rocket2","null","images/rocket2","","1","real","null","1","","",""
"d3-animate-choice","226","566171","0.0-76.0-1.30","2039","3247","14","Male","false","true","true","true","""event"",""trial"",""time""
""fullscreenenter"",""5"",""18011""
""fullscreenexit"",""189"",""489873""
","
","
","""event"",""trial"",""time""
""fullscreenenter"",""5"",""18011""
","""event"",""trial"",""time""
""fullscreenexit"",""189"",""489873""
","449.20000000298023","","48","","","3000","1","","","images/redplanet1.jpg","images/alien2","images/alien1","images/rocket2","images/alien2","images/t.png","2","real","false","2","rare","1","2022-10-22 14:24:38.822"
"two-step-fixation","227","567173","0.0-76.0-2.30","2039","3247","14","Male","false","true","true","true","""event"",""trial"",""time""
""fullscreenenter"",""5"",""18011""
""fullscreenexit"",""189"",""489873""
","
","
","""event"",""trial"",""time""
""fullscreenenter"",""5"",""18011""
","""event"",""trial"",""time""
""fullscreenexit"",""189"",""489873""
","","images/earth.jpg","","","","","","","","","","","","","","fixation","","","","","",""
"d3-animate-choice","228","570128","0.0-76.0-0.31","2039","3247","14","Male","false","true","true","true","""event"",""trial"",""time""
""fullscreenenter"",""5"",""18011""
""fullscreenexit"",""189"",""489873""
","
","
","""event"",""trial"",""time""
""fullscreenenter"",""5"",""18011""
","""event"",""trial"",""time""
""fullscreenexit"",""189"",""489873""
","952.7000000029802","","48","","","3000","1","","","images/earth.jpg","images/rocket1","images/rocket2","null","images/rocket1","","1","real","null","2","","",""
"d3-animate-choice","229","572223","0.0-76.0-1.31","2039","3247","14","Male","false","true","true","true","""event"",""trial"",""time""
""fullscreenenter"",""5"",""18011""
""fullscreenexit"",""189"",""489873""
","
","
","""event"",""trial"",""time""
""fullscreenenter"",""5"",""18011""
","""event"",""trial"",""time""
""fullscreenexit"",""189"",""489873""
