"trial_type","trial_index","time_elapsed","internal_node_id","participant_id","subject_id","age","gender","rocket_sides","red_planet_first_rocket","red_display_order","purple_display_order","interactions","blur_events","focus_events","fullscreenenter_events","fullscreenexit_events","rt","stimulus","key_press","button_pressed","success","duration","valid_pressed","rts","keys","planet_text","right_text","left_text","center_text","chosen_text","reward_text","trial_stage","practice_trial","transition_type","choice","transition","reward","timestamp"
"pavlovia","0","7","0.0-0.0","1184","1126","12","Male","true","false","false","false","""event"",""trial"",""time""
""blur"",""0"",""0""
""focus"",""0"",""0""
""blur"",""0"",""0""
""focus"",""0"",""0""
""blur"",""0"",""0""
""focus"",""0"",""0""
""blur"",""0"",""0""
""focus"",""0"",""0""
""blur"",""0"",""0""
""focus"",""0"",""0""
""blur"",""0"",""0""
""focus"",""0"",""0""
""blur"",""0"",""0""
""focus"",""0"",""0""
""blur"",""0"",""0""
""focus"",""0"",""0""
""blur"",""0"",""0""
""focus"",""0"",""0""
""blur"",""0"",""0""
""focus"",""1"",""24835""
","""event"",""trial"",""time""
""blur"",""0"",""0""
""blur"",""0"",""0""
""blur"",""0"",""0""
""blur"",""0"",""0""
""blur"",""0"",""0""
""blur"",""0"",""0""
""blur"",""0"",""0""
""blur"",""0"",""0""
""blur"",""0"",""0""
""blur"",""0"",""0""
","""event"",""trial"",""time""
""focus"",""0"",""0""
""focus"",""0"",""0""
""focus"",""0"",""0""
""focus"",""0"",""0""
""focus"",""0"",""0""
""focus"",""0"",""0""
""focus"",""0"",""0""
""focus"",""0"",""0""
""focus"",""0"",""0""
""focus"",""1"",""24835""
","
","
","","","","","","","","","","","","","","","","","","","","","",""
"html-keyboard-response","1","26529","0.0-1.0","1184","1126","12","Male","true","false","false","false","""event"",""trial"",""time""
""blur"",""0"",""0""
""focus"",""0"",""0""
""blur"",""0"",""0""
""focus"",""0"",""0""
""blur"",""0"",""0""
""focus"",""0"",""0""
""blur"",""0"",""0""
""focus"",""0"",""0""
""blur"",""0"",""0""
""focus"",""0"",""0""
""blur"",""0"",""0""
""focus"",""0"",""0""
""blur"",""0"",""0""
""focus"",""0"",""0""
""blur"",""0"",""0""
""focus"",""0"",""0""
""blur"",""0"",""0""
""focus"",""0"",""0""
""blur"",""0"",""0""
""focus"",""1"",""24835""
","""event"",""trial"",""time""
""blur"",""0"",""0""
""blur"",""0"",""0""
""blur"",""0"",""0""
""blur"",""0"",""0""
""blur"",""0"",""0""
""blur"",""0"",""0""
""blur"",""0"",""0""
""blur"",""0"",""0""
""blur"",""0"",""0""
""blur"",""0"",""0""
","""event"",""trial"",""time""
""focus"",""0"",""0""
""focus"",""0"",""0""
""focus"",""0"",""0""
""focus"",""0"",""0""
""focus"",""0"",""0""
""focus"",""0"",""0""
""focus"",""0"",""0""
""focus"",""0"",""0""
""focus"",""0"",""0""
""focus"",""1"",""24835""
","
","
","26518.40000000014","Welcome! Press the space bar to begin.","32","","","","","","","","","","","","","","","","","","",""
"audio-keyboard-response","2","30034","0.0-2.0","1184","1126","12","Male","true","false","false","false","""event"",""trial"",""time""
""blur"",""0"",""0""
""focus"",""0"",""0""
""blur"",""0"",""0""
""focus"",""0"",""0""
""blur"",""0"",""0""
""focus"",""0"",""0""
""blur"",""0"",""0""
""focus"",""0"",""0""
""blur"",""0"",""0""
""focus"",""0"",""0""
""blur"",""0"",""0""
""focus"",""0"",""0""
""blur"",""0"",""0""
""focus"",""0"",""0""
""blur"",""0"",""0""
""focus"",""0"",""0""
""blur"",""0"",""0""
""focus"",""0"",""0""
""blur"",""0"",""0""
""focus"",""1"",""24835""
","""event"",""trial"",""time""
""blur"",""0"",""0""
""blur"",""0"",""0""
""blur"",""0"",""0""
""blur"",""0"",""0""
""blur"",""0"",""0""
""blur"",""0"",""0""
""blur"",""0"",""0""
""blur"",""0"",""0""
""blur"",""0"",""0""
""blur"",""0"",""0""
","""event"",""trial"",""time""
""focus"",""0"",""0""
""focus"",""0"",""0""
""focus"",""0"",""0""
""focus"",""0"",""0""
""focus"",""0"",""0""
""focus"",""0"",""0""
""focus"",""0"",""0""
""focus"",""0"",""0""
""focus"",""0"",""0""
""focus"",""1"",""24835""
","
","
","3339","audio/beep_loop.wav","32","","","","","","","","","","","","","","","","","","",""
"audio-button-response","3","44547","0.0-3.0","1184","1126","12","Male","true","false","false","false","""event"",""trial"",""time""
""blur"",""0"",""0""
""focus"",""0"",""0""
""blur"",""0"",""0""
""focus"",""0"",""0""
""blur"",""0"",""0""
""focus"",""0"",""0""
""blur"",""0"",""0""
""focus"",""0"",""0""
""blur"",""0"",""0""
""focus"",""0"",""0""
""blur"",""0"",""0""
""focus"",""0"",""0""
""blur"",""0"",""0""
""focus"",""0"",""0""
""blur"",""0"",""0""
""focus"",""0"",""0""
""blur"",""0"",""0""
""focus"",""0"",""0""
""blur"",""0"",""0""
""focus"",""1"",""24835""
","""event"",""trial"",""time""
""blur"",""0"",""0""
""blur"",""0"",""0""
""blur"",""0"",""0""
""blur"",""0"",""0""
""blur"",""0"",""0""
""blur"",""0"",""0""
""blur"",""0"",""0""
""blur"",""0"",""0""
""blur"",""0"",""0""
""blur"",""0"",""0""
","""event"",""trial"",""time""
""focus"",""0"",""0""
""focus"",""0"",""0""
""focus"",""0"",""0""
""focus"",""0"",""0""
""focus"",""0"",""0""
""focus"",""0"",""0""
""focus"",""0"",""0""
""focus"",""0"",""0""
""focus"",""0"",""0""
""focus"",""1"",""24835""
","
","
","NaN","audio/fish.mp3","","1","","","","","","","","","","","","","","","","","",""
"audio-button-response","4","47956","0.0-4.0","1184","1126","12","Male","true","false","false","false","""event"",""trial"",""time""
""blur"",""0"",""0""
""focus"",""0"",""0""
""blur"",""0"",""0""
""focus"",""0"",""0""
""blur"",""0"",""0""
""focus"",""0"",""0""
""blur"",""0"",""0""
""focus"",""0"",""0""
""blur"",""0"",""0""
""focus"",""0"",""0""
""blur"",""0"",""0""
""focus"",""0"",""0""
""blur"",""0"",""0""
""focus"",""0"",""0""
""blur"",""0"",""0""
""focus"",""0"",""0""
""blur"",""0"",""0""
""focus"",""0"",""0""
""blur"",""0"",""0""
""focus"",""1"",""24835""
""fullscreenenter"",""5"",""60043""
","""event"",""trial"",""time""
""blur"",""0"",""0""
""blur"",""0"",""0""
""blur"",""0"",""0""
""blur"",""0"",""0""
""blur"",""0"",""0""
""blur"",""0"",""0""
""blur"",""0"",""0""
""blur"",""0"",""0""
""blur"",""0"",""0""
""blur"",""0"",""0""
","""event"",""trial"",""time""
""focus"",""0"",""0""
""focus"",""0"",""0""
""focus"",""0"",""0""
""focus"",""0"",""0""
""focus"",""0"",""0""
""focus"",""0"",""0""
""focus"",""0"",""0""
""focus"",""0"",""0""
""focus"",""0"",""0""
""focus"",""1"",""24835""
","""event"",""trial"",""time""
""fullscreenenter"",""5"",""60043""
","
","NaN","audio/tiger.mp3","","4","","","","","","","","","","","","","","","","","",""
"fullscreen","5","61024","0.0-5.0","1184","1126","12","Male","true","false","false","false","""event"",""trial"",""time""
""blur"",""0"",""0""
""focus"",""0"",""0""
""blur"",""0"",""0""
""focus"",""0"",""0""
""blur"",""0"",""0""
""focus"",""0"",""0""
""blur"",""0"",""0""
""focus"",""0"",""0""
""blur"",""0"",""0""
""focus"",""0"",""0""
""blur"",""0"",""0""
""focus"",""0"",""0""
""blur"",""0"",""0""
""focus"",""0"",""0""
""blur"",""0"",""0""
""focus"",""0"",""0""
""blur"",""0"",""0""
""focus"",""0"",""0""
""blur"",""0"",""0""
""focus"",""1"",""24835""
""fullscreenenter"",""5"",""60043""
""fullscreenexit"",""6"",""65204""
""blur"",""6"",""71479""
""focus"",""6"",""131325""
","""event"",""trial"",""time""
""blur"",""0"",""0""
""blur"",""0"",""0""
""blur"",""0"",""0""
""blur"",""0"",""0""
""blur"",""0"",""0""
""blur"",""0"",""0""
""blur"",""0"",""0""
""blur"",""0"",""0""
""blur"",""0"",""0""
""blur"",""0"",""0""
""blur"",""6"",""71479""
","""event"",""trial"",""time""
""focus"",""0"",""0""
""focus"",""0"",""0""
""focus"",""0"",""0""
""focus"",""0"",""0""
""focus"",""0"",""0""
""focus"",""0"",""0""
""focus"",""0"",""0""
""focus"",""0"",""0""
""focus"",""0"",""0""
""focus"",""1"",""24835""
""focus"",""6"",""131325""
","""event"",""trial"",""time""
""fullscreenenter"",""5"",""60043""
","""event"",""trial"",""time""
""fullscreenexit"",""6"",""65204""
","","","","","true","","","","","","","","","","","","","","","","",""
"d3-instructions","6","136994","0.0-6.0","1184","1126","12","Male","true","false","false","false","""event"",""trial"",""time""
""blur"",""0"",""0""
""focus"",""0"",""0""
""blur"",""0"",""0""
""focus"",""0"",""0""
""blur"",""0"",""0""
""focus"",""0"",""0""
""blur"",""0"",""0""
""focus"",""0"",""0""
""blur"",""0"",""0""
""focus"",""0"",""0""
""blur"",""0"",""0""
""focus"",""0"",""0""
""blur"",""0"",""0""
""focus"",""0"",""0""
""blur"",""0"",""0""
""focus"",""0"",""0""
""blur"",""0"",""0""
""focus"",""0"",""0""
""blur"",""0"",""0""
""focus"",""1"",""24835""
""fullscreenenter"",""5"",""60043""
""fullscreenexit"",""6"",""65204""
""blur"",""6"",""71479""
""focus"",""6"",""131325""
","""event"",""trial"",""time""
""blur"",""0"",""0""
""blur"",""0"",""0""
""blur"",""0"",""0""
""blur"",""0"",""0""
""blur"",""0"",""0""
""blur"",""0"",""0""
""blur"",""0"",""0""
""blur"",""0"",""0""
""blur"",""0"",""0""
""blur"",""0"",""0""
""blur"",""6"",""71479""
","""event"",""trial"",""time""
""focus"",""0"",""0""
""focus"",""0"",""0""
""focus"",""0"",""0""
""focus"",""0"",""0""
""focus"",""0"",""0""
""focus"",""0"",""0""
""focus"",""0"",""0""
""focus"",""0"",""0""
""focus"",""0"",""0""
""focus"",""1"",""24835""
""focus"",""6"",""131325""
","""event"",""trial"",""time""
""fullscreenenter"",""5"",""60043""
","""event"",""trial"",""time""
""fullscreenexit"",""6"",""65204""
","","","","","","","","","","","","","","","","","","","","","",""
"d3-instructions","7","139124","0.0-7.0","1184","1126","12","Male","true","false","false","false","""event"",""trial"",""time""
""blur"",""0"",""0""
""focus"",""0"",""0""
""blur"",""0"",""0""
""focus"",""0"",""0""
""blur"",""0"",""0""
""focus"",""0"",""0""
""blur"",""0"",""0""
""focus"",""0"",""0""
""blur"",""0"",""0""
""focus"",""0"",""0""
""blur"",""0"",""0""
""focus"",""0"",""0""
""blur"",""0"",""0""
""focus"",""0"",""0""
""blur"",""0"",""0""
""focus"",""0"",""0""
""blur"",""0"",""0""
""focus"",""0"",""0""
""blur"",""0"",""0""
""focus"",""1"",""24835""
""fullscreenenter"",""5"",""60043""
""fullscreenexit"",""6"",""65204""
""blur"",""6"",""71479""
""focus"",""6"",""131325""
","""event"",""trial"",""time""
""blur"",""0"",""0""
""blur"",""0"",""0""
""blur"",""0"",""0""
""blur"",""0"",""0""
""blur"",""0"",""0""
""blur"",""0"",""0""
""blur"",""0"",""0""
""blur"",""0"",""0""
""blur"",""0"",""0""
""blur"",""0"",""0""
""blur"",""6"",""71479""
","""event"",""trial"",""time""
""focus"",""0"",""0""
""focus"",""0"",""0""
""focus"",""0"",""0""
""focus"",""0"",""0""
""focus"",""0"",""0""
""focus"",""0"",""0""
""focus"",""0"",""0""
""focus"",""0"",""0""
""focus"",""0"",""0""
""focus"",""1"",""24835""
""focus"",""6"",""131325""
","""event"",""trial"",""time""
""fullscreenenter"",""5"",""60043""
","""event"",""trial"",""time""
""fullscreenexit"",""6"",""65204""
","","","","","","","","","","","","","","","","","","","","","",""
"d3-instructions","8","148041","0.0-8.0","1184","1126","12","Male","true","false","false","false","""event"",""trial"",""time""
""blur"",""0"",""0""
""focus"",""0"",""0""
""blur"",""0"",""0""
""focus"",""0"",""0""
""blur"",""0"",""0""
""focus"",""0"",""0""
""blur"",""0"",""0""
""focus"",""0"",""0""
""blur"",""0"",""0""
""focus"",""0"",""0""
""blur"",""0"",""0""
""focus"",""0"",""0""
""blur"",""0"",""0""
""focus"",""0"",""0""
""blur"",""0"",""0""
""focus"",""0"",""0""
""blur"",""0"",""0""
""focus"",""0"",""0""
""blur"",""0"",""0""
""focus"",""1"",""24835""
""fullscreenenter"",""5"",""60043""
""fullscreenexit"",""6"",""65204""
""blur"",""6"",""71479""
""focus"",""6"",""131325""
","""event"",""trial"",""time""
""blur"",""0"",""0""
""blur"",""0"",""0""
""blur"",""0"",""0""
""blur"",""0"",""0""
""blur"",""0"",""0""
""blur"",""0"",""0""
""blur"",""0"",""0""
""blur"",""0"",""0""
""blur"",""0"",""0""
""blur"",""0"",""0""
""blur"",""6"",""71479""
","""event"",""trial"",""time""
""focus"",""0"",""0""
""focus"",""0"",""0""
""focus"",""0"",""0""
""focus"",""0"",""0""
""focus"",""0"",""0""
""focus"",""0"",""0""
""focus"",""0"",""0""
""focus"",""0"",""0""
""focus"",""0"",""0""
""focus"",""1"",""24835""
""focus"",""6"",""131325""
","""event"",""trial"",""time""
""fullscreenenter"",""5"",""60043""
","""event"",""trial"",""time""
""fullscreenexit"",""6"",""65204""
","","","","","","","","","","","","","","","","","","","","","",""
"d3-instructions","9","148363","0.0-9.0","1184","1126","12","Male","true","false","false","false","""event"",""trial"",""time""
""blur"",""0"",""0""
""focus"",""0"",""0""
""blur"",""0"",""0""
""focus"",""0"",""0""
""blur"",""0"",""0""
""focus"",""0"",""0""
""blur"",""0"",""0""
""focus"",""0"",""0""
""blur"",""0"",""0""
""focus"",""0"",""0""
""blur"",""0"",""0""
""focus"",""0"",""0""
""blur"",""0"",""0""
""focus"",""0"",""0""
""blur"",""0"",""0""
""focus"",""0"",""0""
""blur"",""0"",""0""
""focus"",""0"",""0""
""blur"",""0"",""0""
""focus"",""1"",""24835""
""fullscreenenter"",""5"",""60043""
""fullscreenexit"",""6"",""65204""
""blur"",""6"",""71479""
""focus"",""6"",""131325""
","""event"",""trial"",""time""
""blur"",""0"",""0""
""blur"",""0"",""0""
""blur"",""0"",""0""
""blur"",""0"",""0""
""blur"",""0"",""0""
""blur"",""0"",""0""
""blur"",""0"",""0""
""blur"",""0"",""0""
""blur"",""0"",""0""
""blur"",""0"",""0""
""blur"",""6"",""71479""
","""event"",""trial"",""time""
""focus"",""0"",""0""
""focus"",""0"",""0""
""focus"",""0"",""0""
""focus"",""0"",""0""
""focus"",""0"",""0""
""focus"",""0"",""0""
""focus"",""0"",""0""
""focus"",""0"",""0""
""focus"",""0"",""0""
""focus"",""1"",""24835""
""focus"",""6"",""131325""
","""event"",""trial"",""time""
""fullscreenenter"",""5"",""60043""
","""event"",""trial"",""time""
""fullscreenexit"",""6"",""65204""
","","","","","","","","","","","","","","","","","","","","","",""
"d3-instructions","10","148615","0.0-10.0","1184","1126","12","Male","true","false","false","false","""event"",""trial"",""time""
""blur"",""0"",""0""
""focus"",""0"",""0""
""blur"",""0"",""0""
""focus"",""0"",""0""
""blur"",""0"",""0""
""focus"",""0"",""0""
""blur"",""0"",""0""
""focus"",""0"",""0""
""blur"",""0"",""0""
""focus"",""0"",""0""
""blur"",""0"",""0""
""focus"",""0"",""0""
""blur"",""0"",""0""
""focus"",""0"",""0""
""blur"",""0"",""0""
""focus"",""0"",""0""
""blur"",""0"",""0""
""focus"",""0"",""0""
""blur"",""0"",""0""
""focus"",""1"",""24835""
""fullscreenenter"",""5"",""60043""
""fullscreenexit"",""6"",""65204""
""blur"",""6"",""71479""
""focus"",""6"",""131325""
","""event"",""trial"",""time""
""blur"",""0"",""0""
""blur"",""0"",""0""
""blur"",""0"",""0""
""blur"",""0"",""0""
""blur"",""0"",""0""
""blur"",""0"",""0""
""blur"",""0"",""0""
""blur"",""0"",""0""
""blur"",""0"",""0""
""blur"",""0"",""0""
""blur"",""6"",""71479""
","""event"",""trial"",""time""
""focus"",""0"",""0""
""focus"",""0"",""0""
""focus"",""0"",""0""
""focus"",""0"",""0""
""focus"",""0"",""0""
""focus"",""0"",""0""
""focus"",""0"",""0""
""focus"",""0"",""0""
""focus"",""0"",""0""
""focus"",""1"",""24835""
""focus"",""6"",""131325""
","""event"",""trial"",""time""
""fullscreenenter"",""5"",""60043""
","""event"",""trial"",""time""
""fullscreenexit"",""6"",""65204""
","","","","","","","","","","","","","","","","","","","","","",""
"d3-animate-choice","11","152725","0.0-11.0","1184","1126","12","Male","true","false","false","false","""event"",""trial"",""time""
""blur"",""0"",""0""
""focus"",""0"",""0""
""blur"",""0"",""0""
""focus"",""0"",""0""
""blur"",""0"",""0""
""focus"",""0"",""0""
""blur"",""0"",""0""
""focus"",""0"",""0""
""blur"",""0"",""0""
""focus"",""0"",""0""
""blur"",""0"",""0""
""focus"",""0"",""0""
""blur"",""0"",""0""
""focus"",""0"",""0""
""blur"",""0"",""0""
""focus"",""0"",""0""
""blur"",""0"",""0""
""focus"",""0"",""0""
""blur"",""0"",""0""
""focus"",""1"",""24835""
""fullscreenenter"",""5"",""60043""
""fullscreenexit"",""6"",""65204""
""blur"",""6"",""71479""
""focus"",""6"",""131325""
","""event"",""trial"",""time""
""blur"",""0"",""0""
""blur"",""0"",""0""
""blur"",""0"",""0""
""blur"",""0"",""0""
""blur"",""0"",""0""
""blur"",""0"",""0""
""blur"",""0"",""0""
""blur"",""0"",""0""
""blur"",""0"",""0""
""blur"",""0"",""0""
""blur"",""6"",""71479""
","""event"",""trial"",""time""
""focus"",""0"",""0""
""focus"",""0"",""0""
""focus"",""0"",""0""
""focus"",""0"",""0""
""focus"",""0"",""0""
""focus"",""0"",""0""
""focus"",""0"",""0""
""focus"",""0"",""0""
""focus"",""0"",""0""
""focus"",""1"",""24835""
""focus"",""6"",""131325""
","""event"",""trial"",""time""
""fullscreenenter"",""5"",""60043""
","""event"",""trial"",""time""
""fullscreenexit"",""6"",""65204""
","177.19999999995343","","32","","","3000","1","382.10000000009313,581.1999999999534,2095.600000000093","32,32,49","images/tutgreenplanet.jpg","images/tutalien1","images/tutalien2","null","images/tutalien2","","NA","practice","null","","","",""
"d3-animate-choice","12","156258","0.0-12.0","1184","1126","12","Male","true","false","false","false","""event"",""trial"",""time""
""blur"",""0"",""0""
""focus"",""0"",""0""
""blur"",""0"",""0""
""focus"",""0"",""0""
""blur"",""0"",""0""
""focus"",""0"",""0""
""blur"",""0"",""0""
""focus"",""0"",""0""
""blur"",""0"",""0""
""focus"",""0"",""0""
""blur"",""0"",""0""
""focus"",""0"",""0""
""blur"",""0"",""0""
""focus"",""0"",""0""
""blur"",""0"",""0""
""focus"",""0"",""0""
""blur"",""0"",""0""
""focus"",""0"",""0""
""blur"",""0"",""0""
""focus"",""1"",""24835""
""fullscreenenter"",""5"",""60043""
""fullscreenexit"",""6"",""65204""
""blur"",""6"",""71479""
""focus"",""6"",""131325""
","""event"",""trial"",""time""
""blur"",""0"",""0""
""blur"",""0"",""0""
""blur"",""0"",""0""
""blur"",""0"",""0""
""blur"",""0"",""0""
""blur"",""0"",""0""
""blur"",""0"",""0""
""blur"",""0"",""0""
""blur"",""0"",""0""
""blur"",""0"",""0""
""blur"",""6"",""71479""
","""event"",""trial"",""time""
""focus"",""0"",""0""
""focus"",""0"",""0""
""focus"",""0"",""0""
""focus"",""0"",""0""
""focus"",""0"",""0""
""focus"",""0"",""0""
""focus"",""0"",""0""
""focus"",""0"",""0""
""focus"",""0"",""0""
""focus"",""1"",""24835""
""focus"",""6"",""131325""
","""event"",""trial"",""time""
""fullscreenenter"",""5"",""60043""
","""event"",""trial"",""time""
""fullscreenexit"",""6"",""65204""
","1527.2000000001863","","48","","","3000","1","","","images/tutgreenplanet.jpg","images/tutalien1","images/tutalien2","null","images/tutalien1","","NA","practice","null","","","",""
"d3-animate-choice","13","158896","0.0-13.0","1184","1126","12","Male","true","false","false","false","""event"",""trial"",""time""
""blur"",""0"",""0""
""focus"",""0"",""0""
""blur"",""0"",""0""
""focus"",""0"",""0""
""blur"",""0"",""0""
""focus"",""0"",""0""
""blur"",""0"",""0""
""focus"",""0"",""0""
""blur"",""0"",""0""
""focus"",""0"",""0""
""blur"",""0"",""0""
""focus"",""0"",""0""
""blur"",""0"",""0""
""focus"",""0"",""0""
""blur"",""0"",""0""
""focus"",""0"",""0""
""blur"",""0"",""0""
""focus"",""0"",""0""
""blur"",""0"",""0""
""focus"",""1"",""24835""
""fullscreenenter"",""5"",""60043""
""fullscreenexit"",""6"",""65204""
""blur"",""6"",""71479""
""focus"",""6"",""131325""
","""event"",""trial"",""time""
""blur"",""0"",""0""
""blur"",""0"",""0""
""blur"",""0"",""0""
""blur"",""0"",""0""
""blur"",""0"",""0""
""blur"",""0"",""0""
""blur"",""0"",""0""
""blur"",""0"",""0""
""blur"",""0"",""0""
""blur"",""0"",""0""
""blur"",""6"",""71479""
","""event"",""trial"",""time""
""focus"",""0"",""0""
""focus"",""0"",""0""
""focus"",""0"",""0""
""focus"",""0"",""0""
""focus"",""0"",""0""
""focus"",""0"",""0""
""focus"",""0"",""0""
""focus"",""0"",""0""
""focus"",""0"",""0""
""focus"",""1"",""24835""
""focus"",""6"",""131325""
","""event"",""trial"",""time""
""fullscreenenter"",""5"",""60043""
","""event"",""trial"",""time""
""fullscreenexit"",""6"",""65204""
","633.1000000000931","","49","","","3000","1","","","images/tutgreenplanet.jpg","images/tutalien1","images/tutalien2","null","images/tutalien2","","NA","practice","null","","","",""
"d3-animate-choice","14","161440","0.0-14.0","1184","1126","12","Male","true","false","false","false","""event"",""trial"",""time""
""blur"",""0"",""0""
""focus"",""0"",""0""
""blur"",""0"",""0""
""focus"",""0"",""0""
""blur"",""0"",""0""
""focus"",""0"",""0""
""blur"",""0"",""0""
""focus"",""0"",""0""
""blur"",""0"",""0""
""focus"",""0"",""0""
""blur"",""0"",""0""
""focus"",""0"",""0""
""blur"",""0"",""0""
""focus"",""0"",""0""
""blur"",""0"",""0""
""focus"",""0"",""0""
""blur"",""0"",""0""
""focus"",""0"",""0""
""blur"",""0"",""0""
""focus"",""1"",""24835""
""fullscreenenter"",""5"",""60043""
""fullscreenexit"",""6"",""65204""
""blur"",""6"",""71479""
""focus"",""6"",""131325""
","""event"",""trial"",""time""
""blur"",""0"",""0""
""blur"",""0"",""0""
""blur"",""0"",""0""
""blur"",""0"",""0""
""blur"",""0"",""0""
""blur"",""0"",""0""
""blur"",""0"",""0""
""blur"",""0"",""0""
""blur"",""0"",""0""
""blur"",""0"",""0""
""blur"",""6"",""71479""
","""event"",""trial"",""time""
""focus"",""0"",""0""
""focus"",""0"",""0""
""focus"",""0"",""0""
""focus"",""0"",""0""
""focus"",""0"",""0""
""focus"",""0"",""0""
""focus"",""0"",""0""
""focus"",""0"",""0""
""focus"",""0"",""0""
""focus"",""1"",""24835""
""focus"",""6"",""131325""
","""event"",""trial"",""time""
""fullscreenenter"",""5"",""60043""
","""event"",""trial"",""time""
""fullscreenexit"",""6"",""65204""
","538.1999999999534","","48","","","3000","1","","","images/tutgreenplanet.jpg","images/tutalien1","images/tutalien2","null","images/tutalien1","","NA","practice","null","","","",""
"d3-instructions","15","164277","0.0-15.0","1184","1126","12","Male","true","false","false","false","""event"",""trial"",""time""
""blur"",""0"",""0""
""focus"",""0"",""0""
""blur"",""0"",""0""
""focus"",""0"",""0""
""blur"",""0"",""0""
""focus"",""0"",""0""
""blur"",""0"",""0""
""focus"",""0"",""0""
""blur"",""0"",""0""
""focus"",""0"",""0""
""blur"",""0"",""0""
""focus"",""0"",""0""
""blur"",""0"",""0""
""focus"",""0"",""0""
""blur"",""0"",""0""
""focus"",""0"",""0""
""blur"",""0"",""0""
""focus"",""0"",""0""
""blur"",""0"",""0""
""focus"",""1"",""24835""
""fullscreenenter"",""5"",""60043""
""fullscreenexit"",""6"",""65204""
""blur"",""6"",""71479""
""focus"",""6"",""131325""
","""event"",""trial"",""time""
""blur"",""0"",""0""
""blur"",""0"",""0""
""blur"",""0"",""0""
""blur"",""0"",""0""
""blur"",""0"",""0""
""blur"",""0"",""0""
""blur"",""0"",""0""
""blur"",""0"",""0""
""blur"",""0"",""0""
""blur"",""0"",""0""
""blur"",""6"",""71479""
","""event"",""trial"",""time""
""focus"",""0"",""0""
""focus"",""0"",""0""
""focus"",""0"",""0""
""focus"",""0"",""0""
""focus"",""0"",""0""
""focus"",""0"",""0""
""focus"",""0"",""0""
""focus"",""0"",""0""
""focus"",""0"",""0""
""focus"",""1"",""24835""
""focus"",""6"",""131325""
","""event"",""trial"",""time""
""fullscreenenter"",""5"",""60043""
","""event"",""trial"",""time""
""fullscreenexit"",""6"",""65204""
","","","","","","","","","","","","","","","","","","","","","",""
"d3-instructions","16","164646","0.0-16.0","1184","1126","12","Male","true","false","false","false","""event"",""trial"",""time""
""blur"",""0"",""0""
""focus"",""0"",""0""
""blur"",""0"",""0""
""focus"",""0"",""0""
""blur"",""0"",""0""
""focus"",""0"",""0""
""blur"",""0"",""0""
""focus"",""0"",""0""
""blur"",""0"",""0""
""focus"",""0"",""0""
""blur"",""0"",""0""
""focus"",""0"",""0""
""blur"",""0"",""0""
""focus"",""0"",""0""
""blur"",""0"",""0""
""focus"",""0"",""0""
""blur"",""0"",""0""
""focus"",""0"",""0""
""blur"",""0"",""0""
""focus"",""1"",""24835""
""fullscreenenter"",""5"",""60043""
""fullscreenexit"",""6"",""65204""
""blur"",""6"",""71479""
""focus"",""6"",""131325""
","""event"",""trial"",""time""
""blur"",""0"",""0""
""blur"",""0"",""0""
""blur"",""0"",""0""
""blur"",""0"",""0""
""blur"",""0"",""0""
""blur"",""0"",""0""
""blur"",""0"",""0""
""blur"",""0"",""0""
""blur"",""0"",""0""
""blur"",""0"",""0""
""blur"",""6"",""71479""
","""event"",""trial"",""time""
""focus"",""0"",""0""
""focus"",""0"",""0""
""focus"",""0"",""0""
""focus"",""0"",""0""
""focus"",""0"",""0""
""focus"",""0"",""0""
""focus"",""0"",""0""
""focus"",""0"",""0""
""focus"",""0"",""0""
""focus"",""1"",""24835""
""focus"",""6"",""131325""
","""event"",""trial"",""time""
""fullscreenenter"",""5"",""60043""
","""event"",""trial"",""time""
""fullscreenexit"",""6"",""65204""
","","","","","","","","","","","","","","","","","","","","","",""
"d3-instructions","17","165122","0.0-17.0","1184","1126","12","Male","true","false","false","false","""event"",""trial"",""time""
""blur"",""0"",""0""
""focus"",""0"",""0""
""blur"",""0"",""0""
""focus"",""0"",""0""
""blur"",""0"",""0""
""focus"",""0"",""0""
""blur"",""0"",""0""
""focus"",""0"",""0""
""blur"",""0"",""0""
""focus"",""0"",""0""
""blur"",""0"",""0""
""focus"",""0"",""0""
""blur"",""0"",""0""
""focus"",""0"",""0""
""blur"",""0"",""0""
""focus"",""0"",""0""
""blur"",""0"",""0""
""focus"",""0"",""0""
""blur"",""0"",""0""
""focus"",""1"",""24835""
""fullscreenenter"",""5"",""60043""
""fullscreenexit"",""6"",""65204""
""blur"",""6"",""71479""
""focus"",""6"",""131325""
","""event"",""trial"",""time""
""blur"",""0"",""0""
""blur"",""0"",""0""
""blur"",""0"",""0""
""blur"",""0"",""0""
""blur"",""0"",""0""
""blur"",""0"",""0""
""blur"",""0"",""0""
""blur"",""0"",""0""
""blur"",""0"",""0""
""blur"",""0"",""0""
""blur"",""6"",""71479""
","""event"",""trial"",""time""
""focus"",""0"",""0""
""focus"",""0"",""0""
""focus"",""0"",""0""
""focus"",""0"",""0""
""focus"",""0"",""0""
""focus"",""0"",""0""
""focus"",""0"",""0""
""focus"",""0"",""0""
""focus"",""0"",""0""
""focus"",""1"",""24835""
""focus"",""6"",""131325""
","""event"",""trial"",""time""
""fullscreenenter"",""5"",""60043""
","""event"",""trial"",""time""
""fullscreenexit"",""6"",""65204""
","","","","","","","","","","","","","","","","","","","","","",""
"d3-instructions","18","165339","0.0-18.0","1184","1126","12","Male","true","false","false","false","""event"",""trial"",""time""
""blur"",""0"",""0""
""focus"",""0"",""0""
""blur"",""0"",""0""
""focus"",""0"",""0""
""blur"",""0"",""0""
""focus"",""0"",""0""
""blur"",""0"",""0""
""focus"",""0"",""0""
""blur"",""0"",""0""
""focus"",""0"",""0""
""blur"",""0"",""0""
""focus"",""0"",""0""
""blur"",""0"",""0""
""focus"",""0"",""0""
""blur"",""0"",""0""
""focus"",""0"",""0""
""blur"",""0"",""0""
""focus"",""0"",""0""
""blur"",""0"",""0""
""focus"",""1"",""24835""
""fullscreenenter"",""5"",""60043""
""fullscreenexit"",""6"",""65204""
""blur"",""6"",""71479""
""focus"",""6"",""131325""
","""event"",""trial"",""time""
""blur"",""0"",""0""
""blur"",""0"",""0""
""blur"",""0"",""0""
""blur"",""0"",""0""
""blur"",""0"",""0""
""blur"",""0"",""0""
""blur"",""0"",""0""
""blur"",""0"",""0""
""blur"",""0"",""0""
""blur"",""0"",""0""
""blur"",""6"",""71479""
","""event"",""trial"",""time""
""focus"",""0"",""0""
""focus"",""0"",""0""
""focus"",""0"",""0""
""focus"",""0"",""0""
""focus"",""0"",""0""
""focus"",""0"",""0""
""focus"",""0"",""0""
""focus"",""0"",""0""
""focus"",""0"",""0""
""focus"",""1"",""24835""
""focus"",""6"",""131325""
","""event"",""trial"",""time""
""fullscreenenter"",""5"",""60043""
","""event"",""trial"",""time""
""fullscreenexit"",""6"",""65204""
","","","","","","","","","","","","","","","","","","","","","",""
"d3-instructions","19","165536","0.0-19.0","1184","1126","12","Male","true","false","false","false","""event"",""trial"",""time""
""blur"",""0"",""0""
""focus"",""0"",""0""
""blur"",""0"",""0""
""focus"",""0"",""0""
""blur"",""0"",""0""
""focus"",""0"",""0""
""blur"",""0"",""0""
""focus"",""0"",""0""
""blur"",""0"",""0""
""focus"",""0"",""0""
""blur"",""0"",""0""
""focus"",""0"",""0""
""blur"",""0"",""0""
""focus"",""0"",""0""
""blur"",""0"",""0""
""focus"",""0"",""0""
""blur"",""0"",""0""
""focus"",""0"",""0""
""blur"",""0"",""0""
""focus"",""1"",""24835""
""fullscreenenter"",""5"",""60043""
""fullscreenexit"",""6"",""65204""
""blur"",""6"",""71479""
""focus"",""6"",""131325""
","""event"",""trial"",""time""
""blur"",""0"",""0""
""blur"",""0"",""0""
""blur"",""0"",""0""
""blur"",""0"",""0""
""blur"",""0"",""0""
""blur"",""0"",""0""
""blur"",""0"",""0""
""blur"",""0"",""0""
""blur"",""0"",""0""
""blur"",""0"",""0""
""blur"",""6"",""71479""
","""event"",""trial"",""time""
""focus"",""0"",""0""
""focus"",""0"",""0""
""focus"",""0"",""0""
""focus"",""0"",""0""
""focus"",""0"",""0""
""focus"",""0"",""0""
""focus"",""0"",""0""
""focus"",""0"",""0""
""focus"",""0"",""0""
""focus"",""1"",""24835""
""focus"",""6"",""131325""
","""event"",""trial"",""time""
""fullscreenenter"",""5"",""60043""
","""event"",""trial"",""time""
""fullscreenexit"",""6"",""65204""
","","","","","","","","","","","","","","","","","","","","","",""
"d3-animate-choice","20","168214","0.0-20.0","1184","1126","12","Male","true","false","false","false","""event"",""trial"",""time""
""blur"",""0"",""0""
""focus"",""0"",""0""
""blur"",""0"",""0""
""focus"",""0"",""0""
""blur"",""0"",""0""
""focus"",""0"",""0""
""blur"",""0"",""0""
""focus"",""0"",""0""
""blur"",""0"",""0""
""focus"",""0"",""0""
""blur"",""0"",""0""
""focus"",""0"",""0""
""blur"",""0"",""0""
""focus"",""0"",""0""
""blur"",""0"",""0""
""focus"",""0"",""0""
""blur"",""0"",""0""
""focus"",""0"",""0""
""blur"",""0"",""0""
""focus"",""1"",""24835""
""fullscreenenter"",""5"",""60043""
""fullscreenexit"",""6"",""65204""
""blur"",""6"",""71479""
""focus"",""6"",""131325""
","""event"",""trial"",""time""
""blur"",""0"",""0""
""blur"",""0"",""0""
""blur"",""0"",""0""
""blur"",""0"",""0""
""blur"",""0"",""0""
""blur"",""0"",""0""
""blur"",""0"",""0""
""blur"",""0"",""0""
""blur"",""0"",""0""
""blur"",""0"",""0""
""blur"",""6"",""71479""
","""event"",""trial"",""time""
""focus"",""0"",""0""
""focus"",""0"",""0""
""focus"",""0"",""0""
""focus"",""0"",""0""
""focus"",""0"",""0""
""focus"",""0"",""0""
""focus"",""0"",""0""
""focus"",""0"",""0""
""focus"",""0"",""0""
""focus"",""1"",""24835""
""focus"",""6"",""131325""
","""event"",""trial"",""time""
""fullscreenenter"",""5"",""60043""
","""event"",""trial"",""time""
""fullscreenexit"",""6"",""65204""
","672.1999999999534","","49","","","3000","1","2089.1999999999534,2396.3000000000466","49,49","images/tutyellowplanet.jpg","null","images/tutalien3","null","images/tutalien3","images/t.png","NA","practice","null","","","",""
"d3-animate-choice","21","170366","0.0-21.0","1184","1126","12","Male","true","false","false","false","""event"",""trial"",""time""
""blur"",""0"",""0""
""focus"",""0"",""0""
""blur"",""0"",""0""
""focus"",""0"",""0""
""blur"",""0"",""0""
""focus"",""0"",""0""
""blur"",""0"",""0""
""focus"",""0"",""0""
""blur"",""0"",""0""
""focus"",""0"",""0""
""blur"",""0"",""0""
""focus"",""0"",""0""
""blur"",""0"",""0""
""focus"",""0"",""0""
""blur"",""0"",""0""
""focus"",""0"",""0""
""blur"",""0"",""0""
""focus"",""0"",""0""
""blur"",""0"",""0""
""focus"",""1"",""24835""
""fullscreenenter"",""5"",""60043""
""fullscreenexit"",""6"",""65204""
""blur"",""6"",""71479""
""focus"",""6"",""131325""
","""event"",""trial"",""time""
""blur"",""0"",""0""
""blur"",""0"",""0""
""blur"",""0"",""0""
""blur"",""0"",""0""
""blur"",""0"",""0""
""blur"",""0"",""0""
""blur"",""0"",""0""
""blur"",""0"",""0""
""blur"",""0"",""0""
""blur"",""0"",""0""
""blur"",""6"",""71479""
","""event"",""trial"",""time""
""focus"",""0"",""0""
""focus"",""0"",""0""
""focus"",""0"",""0""
""focus"",""0"",""0""
""focus"",""0"",""0""
""focus"",""0"",""0""
""focus"",""0"",""0""
""focus"",""0"",""0""
""focus"",""0"",""0""
""focus"",""1"",""24835""
""focus"",""6"",""131325""
","""event"",""trial"",""time""
""fullscreenenter"",""5"",""60043""
","""event"",""trial"",""time""
""fullscreenexit"",""6"",""65204""
","147.60000000009313","","49","","","3000","1","370.20000000018626,942.9000000001397,1426.9000000001397,1682,1952.7000000001863","49,49,49,49,49","images/tutyellowplanet.jpg","null","images/tutalien3","null","images/tutalien3","images/t.png","NA","practice","null","","","",""
"d3-animate-choice","22","174673","0.0-22.0","1184","1126","12","Male","true","false","false","false","""event"",""trial"",""time""
""blur"",""0"",""0""
""focus"",""0"",""0""
""blur"",""0"",""0""
""focus"",""0"",""0""
""blur"",""0"",""0""
""focus"",""0"",""0""
""blur"",""0"",""0""
""focus"",""0"",""0""
""blur"",""0"",""0""
""focus"",""0"",""0""
""blur"",""0"",""0""
""focus"",""0"",""0""
""blur"",""0"",""0""
""focus"",""0"",""0""
""blur"",""0"",""0""
""focus"",""0"",""0""
""blur"",""0"",""0""
""focus"",""0"",""0""
""blur"",""0"",""0""
""focus"",""1"",""24835""
""fullscreenenter"",""5"",""60043""
""fullscreenexit"",""6"",""65204""
""blur"",""6"",""71479""
""focus"",""6"",""131325""
","""event"",""trial"",""time""
""blur"",""0"",""0""
""blur"",""0"",""0""
""blur"",""0"",""0""
""blur"",""0"",""0""
""blur"",""0"",""0""
""blur"",""0"",""0""
""blur"",""0"",""0""
""blur"",""0"",""0""
""blur"",""0"",""0""
""blur"",""0"",""0""
""blur"",""6"",""71479""
","""event"",""trial"",""time""
""focus"",""0"",""0""
""focus"",""0"",""0""
""focus"",""0"",""0""
""focus"",""0"",""0""
""focus"",""0"",""0""
""focus"",""0"",""0""
""focus"",""0"",""0""
""focus"",""0"",""0""
""focus"",""0"",""0""
""focus"",""1"",""24835""
""focus"",""6"",""131325""
","""event"",""trial"",""time""
""fullscreenenter"",""5"",""60043""
","""event"",""trial"",""time""
""fullscreenexit"",""6"",""65204""
","2302.600000000093","","49","","","3000","1","","","images/tutyellowplanet.jpg","null","images/tutalien3","null","images/tutalien3","images/t.png","NA","practice","null","","","",""
"d3-animate-choice","23","179043","0.0-23.0","1184","1126","12","Male","true","false","false","false","""event"",""trial"",""time""
""blur"",""0"",""0""
""focus"",""0"",""0""
""blur"",""0"",""0""
""focus"",""0"",""0""
""blur"",""0"",""0""
""focus"",""0"",""0""
""blur"",""0"",""0""
""focus"",""0"",""0""
""blur"",""0"",""0""
""focus"",""0"",""0""
""blur"",""0"",""0""
""focus"",""0"",""0""
""blur"",""0"",""0""
""focus"",""0"",""0""
""blur"",""0"",""0""
""focus"",""0"",""0""
""blur"",""0"",""0""
""focus"",""0"",""0""
""blur"",""0"",""0""
""focus"",""1"",""24835""
""fullscreenenter"",""5"",""60043""
""fullscreenexit"",""6"",""65204""
""blur"",""6"",""71479""
""focus"",""6"",""131325""
","""event"",""trial"",""time""
""blur"",""0"",""0""
""blur"",""0"",""0""
""blur"",""0"",""0""
""blur"",""0"",""0""
""blur"",""0"",""0""
""blur"",""0"",""0""
""blur"",""0"",""0""
""blur"",""0"",""0""
""blur"",""0"",""0""
""blur"",""0"",""0""
""blur"",""6"",""71479""
","""event"",""trial"",""time""
""focus"",""0"",""0""
""focus"",""0"",""0""
""focus"",""0"",""0""
""focus"",""0"",""0""
""focus"",""0"",""0""
""focus"",""0"",""0""
""focus"",""0"",""0""
""focus"",""0"",""0""
""focus"",""0"",""0""
""focus"",""1"",""24835""
""focus"",""6"",""131325""
","""event"",""trial"",""time""
""fullscreenenter"",""5"",""60043""
","""event"",""trial"",""time""
""fullscreenexit"",""6"",""65204""
","2364.899999999907","","49","","","3000","1","","","images/tutyellowplanet.jpg","null","images/tutalien3","null","images/tutalien3","images/nothing.png","NA","practice","null","","","",""
"d3-animate-choice","24","182213","0.0-24.0","1184","1126","12","Male","true","false","false","false","""event"",""trial"",""time""
""blur"",""0"",""0""
""focus"",""0"",""0""
""blur"",""0"",""0""
""focus"",""0"",""0""
""blur"",""0"",""0""
""focus"",""0"",""0""
""blur"",""0"",""0""
""focus"",""0"",""0""
""blur"",""0"",""0""
""focus"",""0"",""0""
""blur"",""0"",""0""
""focus"",""0"",""0""
""blur"",""0"",""0""
""focus"",""0"",""0""
""blur"",""0"",""0""
""focus"",""0"",""0""
""blur"",""0"",""0""
""focus"",""0"",""0""
""blur"",""0"",""0""
""focus"",""1"",""24835""
""fullscreenenter"",""5"",""60043""
""fullscreenexit"",""6"",""65204""
""blur"",""6"",""71479""
""focus"",""6"",""131325""
","""event"",""trial"",""time""
""blur"",""0"",""0""
""blur"",""0"",""0""
""blur"",""0"",""0""
""blur"",""0"",""0""
""blur"",""0"",""0""
""blur"",""0"",""0""
""blur"",""0"",""0""
""blur"",""0"",""0""
""blur"",""0"",""0""
""blur"",""0"",""0""
""blur"",""6"",""71479""
","""event"",""trial"",""time""
""focus"",""0"",""0""
""focus"",""0"",""0""
""focus"",""0"",""0""
""focus"",""0"",""0""
""focus"",""0"",""0""
""focus"",""0"",""0""
""focus"",""0"",""0""
""focus"",""0"",""0""
""focus"",""0"",""0""
""focus"",""1"",""24835""
""focus"",""6"",""131325""
","""event"",""trial"",""time""
""fullscreenenter"",""5"",""60043""
","""event"",""trial"",""time""
""fullscreenexit"",""6"",""65204""
","1165.3999999999069","","49","","","3000","1","","","images/tutyellowplanet.jpg","null","images/tutalien3","null","images/tutalien3","images/t.png","NA","practice","null","","","",""
"d3-animate-choice","25","185262","0.0-25.0","1184","1126","12","Male","true","false","false","false","""event"",""trial"",""time""
""blur"",""0"",""0""
""focus"",""0"",""0""
""blur"",""0"",""0""
""focus"",""0"",""0""
""blur"",""0"",""0""
""focus"",""0"",""0""
""blur"",""0"",""0""
""focus"",""0"",""0""
""blur"",""0"",""0""
""focus"",""0"",""0""
""blur"",""0"",""0""
""focus"",""0"",""0""
""blur"",""0"",""0""
""focus"",""0"",""0""
""blur"",""0"",""0""
""focus"",""0"",""0""
""blur"",""0"",""0""
""focus"",""0"",""0""
""blur"",""0"",""0""
""focus"",""1"",""24835""
""fullscreenenter"",""5"",""60043""
""fullscreenexit"",""6"",""65204""
""blur"",""6"",""71479""
""focus"",""6"",""131325""
","""event"",""trial"",""time""
""blur"",""0"",""0""
""blur"",""0"",""0""
""blur"",""0"",""0""
""blur"",""0"",""0""
""blur"",""0"",""0""
""blur"",""0"",""0""
""blur"",""0"",""0""
""blur"",""0"",""0""
""blur"",""0"",""0""
""blur"",""0"",""0""
""blur"",""6"",""71479""
","""event"",""trial"",""time""
""focus"",""0"",""0""
""focus"",""0"",""0""
""focus"",""0"",""0""
""focus"",""0"",""0""
""focus"",""0"",""0""
""focus"",""0"",""0""
""focus"",""0"",""0""
""focus"",""0"",""0""
""focus"",""0"",""0""
""focus"",""1"",""24835""
""focus"",""6"",""131325""
","""event"",""trial"",""time""
""fullscreenenter"",""5"",""60043""
","""event"",""trial"",""time""
""fullscreenexit"",""6"",""65204""
","1044.1000000000931","","49","","","3000","1","","","images/tutyellowplanet.jpg","null","images/tutalien3","null","images/tutalien3","images/nothing.png","NA","practice","null","","","",""
"d3-animate-choice","26","188367","0.0-26.0","1184","1126","12","Male","true","false","false","false","""event"",""trial"",""time""
""blur"",""0"",""0""
""focus"",""0"",""0""
""blur"",""0"",""0""
""focus"",""0"",""0""
""blur"",""0"",""0""
""focus"",""0"",""0""
""blur"",""0"",""0""
""focus"",""0"",""0""
""blur"",""0"",""0""
""focus"",""0"",""0""
""blur"",""0"",""0""
""focus"",""0"",""0""
""blur"",""0"",""0""
""focus"",""0"",""0""
""blur"",""0"",""0""
""focus"",""0"",""0""
""blur"",""0"",""0""
""focus"",""0"",""0""
""blur"",""0"",""0""
""focus"",""1"",""24835""
""fullscreenenter"",""5"",""60043""
""fullscreenexit"",""6"",""65204""
""blur"",""6"",""71479""
""focus"",""6"",""131325""
","""event"",""trial"",""time""
""blur"",""0"",""0""
""blur"",""0"",""0""
""blur"",""0"",""0""
""blur"",""0"",""0""
""blur"",""0"",""0""
""blur"",""0"",""0""
""blur"",""0"",""0""
""blur"",""0"",""0""
""blur"",""0"",""0""
""blur"",""0"",""0""
""blur"",""6"",""71479""
","""event"",""trial"",""time""
""focus"",""0"",""0""
""focus"",""0"",""0""
""focus"",""0"",""0""
""focus"",""0"",""0""
""focus"",""0"",""0""
""focus"",""0"",""0""
""focus"",""0"",""0""
""focus"",""0"",""0""
""focus"",""0"",""0""
""focus"",""1"",""24835""
""focus"",""6"",""131325""
","""event"",""trial"",""time""
""fullscreenenter"",""5"",""60043""
","""event"",""trial"",""time""
""fullscreenexit"",""6"",""65204""
","1100.8999999999069","","49","","","3000","1","","","images/tutyellowplanet.jpg","null","images/tutalien3","null","images/tutalien3","images/t.png","NA","practice","null","","","",""
"d3-animate-choice","27","190721","0.0-27.0","1184","1126","12","Male","true","false","false","false","""event"",""trial"",""time""
""blur"",""0"",""0""
""focus"",""0"",""0""
""blur"",""0"",""0""
""focus"",""0"",""0""
""blur"",""0"",""0""
""focus"",""0"",""0""
""blur"",""0"",""0""
""focus"",""0"",""0""
""blur"",""0"",""0""
""focus"",""0"",""0""
""blur"",""0"",""0""
""focus"",""0"",""0""
""blur"",""0"",""0""
""focus"",""0"",""0""
""blur"",""0"",""0""
""focus"",""0"",""0""
""blur"",""0"",""0""
""focus"",""0"",""0""
""blur"",""0"",""0""
""focus"",""1"",""24835""
""fullscreenenter"",""5"",""60043""
""fullscreenexit"",""6"",""65204""
""blur"",""6"",""71479""
""focus"",""6"",""131325""
","""event"",""trial"",""time""
""blur"",""0"",""0""
""blur"",""0"",""0""
""blur"",""0"",""0""
""blur"",""0"",""0""
""blur"",""0"",""0""
""blur"",""0"",""0""
""blur"",""0"",""0""
""blur"",""0"",""0""
""blur"",""0"",""0""
""blur"",""0"",""0""
""blur"",""6"",""71479""
","""event"",""trial"",""time""
""focus"",""0"",""0""
""focus"",""0"",""0""
""focus"",""0"",""0""
""focus"",""0"",""0""
""focus"",""0"",""0""
""focus"",""0"",""0""
""focus"",""0"",""0""
""focus"",""0"",""0""
""focus"",""0"",""0""
""focus"",""1"",""24835""
""focus"",""6"",""131325""
","""event"",""trial"",""time""
""fullscreenenter"",""5"",""60043""
","""event"",""trial"",""time""
""fullscreenexit"",""6"",""65204""
","349.19999999995343","","49","","","3000","1","","","images/tutyellowplanet.jpg","null","images/tutalien3","null","images/tutalien3","images/t.png","NA","practice","null","","","",""
"d3-animate-choice","28","194224","0.0-28.0","1184","1126","12","Male","true","false","false","false","""event"",""trial"",""time""
""blur"",""0"",""0""
""focus"",""0"",""0""
""blur"",""0"",""0""
""focus"",""0"",""0""
""blur"",""0"",""0""
""focus"",""0"",""0""
""blur"",""0"",""0""
""focus"",""0"",""0""
""blur"",""0"",""0""
""focus"",""0"",""0""
""blur"",""0"",""0""
""focus"",""0"",""0""
""blur"",""0"",""0""
""focus"",""0"",""0""
""blur"",""0"",""0""
""focus"",""0"",""0""
""blur"",""0"",""0""
""focus"",""0"",""0""
""blur"",""0"",""0""
""focus"",""1"",""24835""
""fullscreenenter"",""5"",""60043""
""fullscreenexit"",""6"",""65204""
""blur"",""6"",""71479""
""focus"",""6"",""131325""
","""event"",""trial"",""time""
""blur"",""0"",""0""
""blur"",""0"",""0""
""blur"",""0"",""0""
""blur"",""0"",""0""
""blur"",""0"",""0""
""blur"",""0"",""0""
""blur"",""0"",""0""
""blur"",""0"",""0""
""blur"",""0"",""0""
""blur"",""0"",""0""
""blur"",""6"",""71479""
","""event"",""trial"",""time""
""focus"",""0"",""0""
""focus"",""0"",""0""
""focus"",""0"",""0""
""focus"",""0"",""0""
""focus"",""0"",""0""
""focus"",""0"",""0""
""focus"",""0"",""0""
""focus"",""0"",""0""
""focus"",""0"",""0""
""focus"",""1"",""24835""
""focus"",""6"",""131325""
","""event"",""trial"",""time""
""fullscreenenter"",""5"",""60043""
","""event"",""trial"",""time""
""fullscreenexit"",""6"",""65204""
","1498.3999999999069","","49","","","3000","1","","","images/tutyellowplanet.jpg","null","images/tutalien3","null","images/tutalien3","images/nothing.png","NA","practice","null","","","",""
"d3-animate-choice","29","196419","0.0-29.0","1184","1126","12","Male","true","false","false","false","""event"",""trial"",""time""
""blur"",""0"",""0""
""focus"",""0"",""0""
""blur"",""0"",""0""
""focus"",""0"",""0""
""blur"",""0"",""0""
""focus"",""0"",""0""
""blur"",""0"",""0""
""focus"",""0"",""0""
""blur"",""0"",""0""
""focus"",""0"",""0""
""blur"",""0"",""0""
""focus"",""0"",""0""
""blur"",""0"",""0""
""focus"",""0"",""0""
""blur"",""0"",""0""
""focus"",""0"",""0""
""blur"",""0"",""0""
""focus"",""0"",""0""
""blur"",""0"",""0""
""focus"",""1"",""24835""
""fullscreenenter"",""5"",""60043""
""fullscreenexit"",""6"",""65204""
""blur"",""6"",""71479""
""focus"",""6"",""131325""
","""event"",""trial"",""time""
""blur"",""0"",""0""
""blur"",""0"",""0""
""blur"",""0"",""0""
""blur"",""0"",""0""
""blur"",""0"",""0""
""blur"",""0"",""0""
""blur"",""0"",""0""
""blur"",""0"",""0""
""blur"",""0"",""0""
""blur"",""0"",""0""
""blur"",""6"",""71479""
","""event"",""trial"",""time""
""focus"",""0"",""0""
""focus"",""0"",""0""
""focus"",""0"",""0""
""focus"",""0"",""0""
""focus"",""0"",""0""
""focus"",""0"",""0""
""focus"",""0"",""0""
""focus"",""0"",""0""
""focus"",""0"",""0""
""focus"",""1"",""24835""
""focus"",""6"",""131325""
","""event"",""trial"",""time""
""fullscreenenter"",""5"",""60043""
","""event"",""trial"",""time""
""fullscreenexit"",""6"",""65204""
","191.5","","49","","","3000","1","","","images/tutyellowplanet.jpg","null","images/tutalien3","null","images/tutalien3","images/t.png","NA","practice","null","","","",""
"d3-instructions","30","207664","0.0-30.0","1184","1126","12","Male","true","false","false","false","""event"",""trial"",""time""
""blur"",""0"",""0""
""focus"",""0"",""0""
""blur"",""0"",""0""
""focus"",""0"",""0""
""blur"",""0"",""0""
""focus"",""0"",""0""
""blur"",""0"",""0""
""focus"",""0"",""0""
""blur"",""0"",""0""
""focus"",""0"",""0""
""blur"",""0"",""0""
""focus"",""0"",""0""
""blur"",""0"",""0""
""focus"",""0"",""0""
""blur"",""0"",""0""
""focus"",""0"",""0""
""blur"",""0"",""0""
""focus"",""0"",""0""
""blur"",""0"",""0""
""focus"",""1"",""24835""
""fullscreenenter"",""5"",""60043""
""fullscreenexit"",""6"",""65204""
""blur"",""6"",""71479""
""focus"",""6"",""131325""
""blur"",""31"",""209165""
""focus"",""31"",""264409""
""blur"",""31"",""267976""
""focus"",""31"",""269373""
""blur"",""31"",""269951""
""focus"",""31"",""274137""
""blur"",""31"",""276401""
""focus"",""31"",""276576""
""blur"",""31"",""280897""
""focus"",""31"",""280976""
""blur"",""31"",""282173""
""focus"",""31"",""282272""
""blur"",""31"",""284379""
""focus"",""31"",""408329""
""blur"",""31"",""410708""
""focus"",""31"",""412591""
""blur"",""31"",""412858""
""focus"",""31"",""412998""
","""event"",""trial"",""time""
""blur"",""0"",""0""
""blur"",""0"",""0""
""blur"",""0"",""0""
""blur"",""0"",""0""
""blur"",""0"",""0""
""blur"",""0"",""0""
""blur"",""0"",""0""
""blur"",""0"",""0""
""blur"",""0"",""0""
""blur"",""0"",""0""
""blur"",""6"",""71479""
""blur"",""31"",""209165""
""blur"",""31"",""267976""
""blur"",""31"",""269951""
""blur"",""31"",""276401""
""blur"",""31"",""280897""
""blur"",""31"",""282173""
""blur"",""31"",""284379""
""blur"",""31"",""410708""
""blur"",""31"",""412858""
","""event"",""trial"",""time""
""focus"",""0"",""0""
""focus"",""0"",""0""
""focus"",""0"",""0""
""focus"",""0"",""0""
""focus"",""0"",""0""
""focus"",""0"",""0""
""focus"",""0"",""0""
""focus"",""0"",""0""
""focus"",""0"",""0""
""focus"",""1"",""24835""
""focus"",""6"",""131325""
""focus"",""31"",""264409""
""focus"",""31"",""269373""
""focus"",""31"",""274137""
""focus"",""31"",""276576""
""focus"",""31"",""280976""
""focus"",""31"",""282272""
""focus"",""31"",""408329""
""focus"",""31"",""412591""
""focus"",""31"",""412998""
","""event"",""trial"",""time""
""fullscreenenter"",""5"",""60043""
","""event"",""trial"",""time""
""fullscreenexit"",""6"",""65204""
","","","","","","","","","","","","","","","","","","","","","",""
"d3-instructions","31","422170","0.0-31.0","1184","1126","12","Male","true","false","false","false","""event"",""trial"",""time""
""blur"",""0"",""0""
""focus"",""0"",""0""
""blur"",""0"",""0""
""focus"",""0"",""0""
""blur"",""0"",""0""
""focus"",""0"",""0""
""blur"",""0"",""0""
""focus"",""0"",""0""
""blur"",""0"",""0""
""focus"",""0"",""0""
""blur"",""0"",""0""
""focus"",""0"",""0""
""blur"",""0"",""0""
""focus"",""0"",""0""
""blur"",""0"",""0""
""focus"",""0"",""0""
""blur"",""0"",""0""
""focus"",""0"",""0""
""blur"",""0"",""0""
""focus"",""1"",""24835""
""fullscreenenter"",""5"",""60043""
""fullscreenexit"",""6"",""65204""
""blur"",""6"",""71479""
""focus"",""6"",""131325""
""blur"",""31"",""209165""
""focus"",""31"",""264409""
""blur"",""31"",""267976""
""focus"",""31"",""269373""
""blur"",""31"",""269951""
""focus"",""31"",""274137""
""blur"",""31"",""276401""
""focus"",""31"",""276576""
""blur"",""31"",""280897""
""focus"",""31"",""280976""
""blur"",""31"",""282173""
""focus"",""31"",""282272""
""blur"",""31"",""284379""
""focus"",""31"",""408329""
""blur"",""31"",""410708""
""focus"",""31"",""412591""
""blur"",""31"",""412858""
""focus"",""31"",""412998""
","""event"",""trial"",""time""
""blur"",""0"",""0""
""blur"",""0"",""0""
""blur"",""0"",""0""
""blur"",""0"",""0""
""blur"",""0"",""0""
""blur"",""0"",""0""
""blur"",""0"",""0""
""blur"",""0"",""0""
""blur"",""0"",""0""
""blur"",""0"",""0""
""blur"",""6"",""71479""
""blur"",""31"",""209165""
""blur"",""31"",""267976""
""blur"",""31"",""269951""
""blur"",""31"",""276401""
""blur"",""31"",""280897""
""blur"",""31"",""282173""
""blur"",""31"",""284379""
""blur"",""31"",""410708""
""blur"",""31"",""412858""
","""event"",""trial"",""time""
""focus"",""0"",""0""
""focus"",""0"",""0""
""focus"",""0"",""0""
""focus"",""0"",""0""
""focus"",""0"",""0""
""focus"",""0"",""0""
""focus"",""0"",""0""
""focus"",""0"",""0""
""focus"",""0"",""0""
""focus"",""1"",""24835""
""focus"",""6"",""131325""
""focus"",""31"",""264409""
""focus"",""31"",""269373""
""focus"",""31"",""274137""
""focus"",""31"",""276576""
""focus"",""31"",""280976""
""focus"",""31"",""282272""
""focus"",""31"",""408329""
""focus"",""31"",""412591""
""focus"",""31"",""412998""
","""event"",""trial"",""time""
""fullscreenenter"",""5"",""60043""
","""event"",""trial"",""time""
""fullscreenexit"",""6"",""65204""
","","","","","","","","","","","","","","","","","","","","","",""
"d3-instructions","32","424010","0.0-32.0","1184","1126","12","Male","true","false","false","false","""event"",""trial"",""time""
""blur"",""0"",""0""
""focus"",""0"",""0""
""blur"",""0"",""0""
""focus"",""0"",""0""
""blur"",""0"",""0""
""focus"",""0"",""0""
""blur"",""0"",""0""
""focus"",""0"",""0""
""blur"",""0"",""0""
""focus"",""0"",""0""
""blur"",""0"",""0""
""focus"",""0"",""0""
""blur"",""0"",""0""
""focus"",""0"",""0""
""blur"",""0"",""0""
""focus"",""0"",""0""
""blur"",""0"",""0""
""focus"",""0"",""0""
""blur"",""0"",""0""
""focus"",""1"",""24835""
""fullscreenenter"",""5"",""60043""
""fullscreenexit"",""6"",""65204""
""blur"",""6"",""71479""
""focus"",""6"",""131325""
""blur"",""31"",""209165""
""focus"",""31"",""264409""
""blur"",""31"",""267976""
""focus"",""31"",""269373""
""blur"",""31"",""269951""
""focus"",""31"",""274137""
""blur"",""31"",""276401""
""focus"",""31"",""276576""
""blur"",""31"",""280897""
""focus"",""31"",""280976""
""blur"",""31"",""282173""
""focus"",""31"",""282272""
""blur"",""31"",""284379""
""focus"",""31"",""408329""
""blur"",""31"",""410708""
""focus"",""31"",""412591""
""blur"",""31"",""412858""
""focus"",""31"",""412998""
","""event"",""trial"",""time""
""blur"",""0"",""0""
""blur"",""0"",""0""
""blur"",""0"",""0""
""blur"",""0"",""0""
""blur"",""0"",""0""
""blur"",""0"",""0""
""blur"",""0"",""0""
""blur"",""0"",""0""
""blur"",""0"",""0""
""blur"",""0"",""0""
""blur"",""6"",""71479""
""blur"",""31"",""209165""
""blur"",""31"",""267976""
""blur"",""31"",""269951""
""blur"",""31"",""276401""
""blur"",""31"",""280897""
""blur"",""31"",""282173""
""blur"",""31"",""284379""
""blur"",""31"",""410708""
""blur"",""31"",""412858""
","""event"",""trial"",""time""
""focus"",""0"",""0""
""focus"",""0"",""0""
""focus"",""0"",""0""
""focus"",""0"",""0""
""focus"",""0"",""0""
""focus"",""0"",""0""
""focus"",""0"",""0""
""focus"",""0"",""0""
""focus"",""0"",""0""
""focus"",""1"",""24835""
""focus"",""6"",""131325""
""focus"",""31"",""264409""
""focus"",""31"",""269373""
""focus"",""31"",""274137""
""focus"",""31"",""276576""
""focus"",""31"",""280976""
""focus"",""31"",""282272""
""focus"",""31"",""408329""
""focus"",""31"",""412591""
""focus"",""31"",""412998""
","""event"",""trial"",""time""
""fullscreenenter"",""5"",""60043""
","""event"",""trial"",""time""
""fullscreenexit"",""6"",""65204""
","","","","","","","","","","","","","","","","","","","","","",""
"d3-instructions","33","424930","0.0-33.0","1184","1126","12","Male","true","false","false","false","""event"",""trial"",""time""
""blur"",""0"",""0""
""focus"",""0"",""0""
""blur"",""0"",""0""
""focus"",""0"",""0""
""blur"",""0"",""0""
""focus"",""0"",""0""
""blur"",""0"",""0""
""focus"",""0"",""0""
""blur"",""0"",""0""
""focus"",""0"",""0""
""blur"",""0"",""0""
""focus"",""0"",""0""
""blur"",""0"",""0""
""focus"",""0"",""0""
""blur"",""0"",""0""
""focus"",""0"",""0""
""blur"",""0"",""0""
""focus"",""0"",""0""
""blur"",""0"",""0""
""focus"",""1"",""24835""
""fullscreenenter"",""5"",""60043""
""fullscreenexit"",""6"",""65204""
""blur"",""6"",""71479""
""focus"",""6"",""131325""
""blur"",""31"",""209165""
""focus"",""31"",""264409""
""blur"",""31"",""267976""
""focus"",""31"",""269373""
""blur"",""31"",""269951""
""focus"",""31"",""274137""
""blur"",""31"",""276401""
""focus"",""31"",""276576""
""blur"",""31"",""280897""
""focus"",""31"",""280976""
""blur"",""31"",""282173""
""focus"",""31"",""282272""
""blur"",""31"",""284379""
""focus"",""31"",""408329""
""blur"",""31"",""410708""
""focus"",""31"",""412591""
""blur"",""31"",""412858""
""focus"",""31"",""412998""
","""event"",""trial"",""time""
""blur"",""0"",""0""
""blur"",""0"",""0""
""blur"",""0"",""0""
""blur"",""0"",""0""
""blur"",""0"",""0""
""blur"",""0"",""0""
""blur"",""0"",""0""
""blur"",""0"",""0""
""blur"",""0"",""0""
""blur"",""0"",""0""
""blur"",""6"",""71479""
""blur"",""31"",""209165""
""blur"",""31"",""267976""
""blur"",""31"",""269951""
""blur"",""31"",""276401""
""blur"",""31"",""280897""
""blur"",""31"",""282173""
""blur"",""31"",""284379""
""blur"",""31"",""410708""
""blur"",""31"",""412858""
","""event"",""trial"",""time""
""focus"",""0"",""0""
""focus"",""0"",""0""
""focus"",""0"",""0""
""focus"",""0"",""0""
""focus"",""0"",""0""
""focus"",""0"",""0""
""focus"",""0"",""0""
""focus"",""0"",""0""
""focus"",""0"",""0""
""focus"",""1"",""24835""
""focus"",""6"",""131325""
""focus"",""31"",""264409""
""focus"",""31"",""269373""
""focus"",""31"",""274137""
""focus"",""31"",""276576""
""focus"",""31"",""280976""
""focus"",""31"",""282272""
""focus"",""31"",""408329""
""focus"",""31"",""412591""
""focus"",""31"",""412998""
","""event"",""trial"",""time""
""fullscreenenter"",""5"",""60043""
","""event"",""trial"",""time""
""fullscreenexit"",""6"",""65204""
","","","","","","","","","","","","","","","","","","","","","",""
"d3-animate-choice","34","428251","0.0-34.0","1184","1126","12","Male","true","false","false","false","""event"",""trial"",""time""
""blur"",""0"",""0""
""focus"",""0"",""0""
""blur"",""0"",""0""
""focus"",""0"",""0""
""blur"",""0"",""0""
""focus"",""0"",""0""
""blur"",""0"",""0""
""focus"",""0"",""0""
""blur"",""0"",""0""
""focus"",""0"",""0""
""blur"",""0"",""0""
""focus"",""0"",""0""
""blur"",""0"",""0""
""focus"",""0"",""0""
""blur"",""0"",""0""
""focus"",""0"",""0""
""blur"",""0"",""0""
""focus"",""0"",""0""
""blur"",""0"",""0""
""focus"",""1"",""24835""
""fullscreenenter"",""5"",""60043""
""fullscreenexit"",""6"",""65204""
""blur"",""6"",""71479""
""focus"",""6"",""131325""
""blur"",""31"",""209165""
""focus"",""31"",""264409""
""blur"",""31"",""267976""
""focus"",""31"",""269373""
""blur"",""31"",""269951""
""focus"",""31"",""274137""
""blur"",""31"",""276401""
""focus"",""31"",""276576""
""blur"",""31"",""280897""
""focus"",""31"",""280976""
""blur"",""31"",""282173""
""focus"",""31"",""282272""
""blur"",""31"",""284379""
""focus"",""31"",""408329""
""blur"",""31"",""410708""
""focus"",""31"",""412591""
""blur"",""31"",""412858""
""focus"",""31"",""412998""
","""event"",""trial"",""time""
""blur"",""0"",""0""
""blur"",""0"",""0""
""blur"",""0"",""0""
""blur"",""0"",""0""
""blur"",""0"",""0""
""blur"",""0"",""0""
""blur"",""0"",""0""
""blur"",""0"",""0""
""blur"",""0"",""0""
""blur"",""0"",""0""
""blur"",""6"",""71479""
""blur"",""31"",""209165""
""blur"",""31"",""267976""
""blur"",""31"",""269951""
""blur"",""31"",""276401""
""blur"",""31"",""280897""
""blur"",""31"",""282173""
""blur"",""31"",""284379""
""blur"",""31"",""410708""
""blur"",""31"",""412858""
","""event"",""trial"",""time""
""focus"",""0"",""0""
""focus"",""0"",""0""
""focus"",""0"",""0""
""focus"",""0"",""0""
""focus"",""0"",""0""
""focus"",""0"",""0""
""focus"",""0"",""0""
""focus"",""0"",""0""
""focus"",""0"",""0""
""focus"",""1"",""24835""
""focus"",""6"",""131325""
""focus"",""31"",""264409""
""focus"",""31"",""269373""
""focus"",""31"",""274137""
""focus"",""31"",""276576""
""focus"",""31"",""280976""
""focus"",""31"",""282272""
""focus"",""31"",""408329""
""focus"",""31"",""412591""
""focus"",""31"",""412998""
","""event"",""trial"",""time""
""fullscreenenter"",""5"",""60043""
","""event"",""trial"",""time""
""fullscreenexit"",""6"",""65204""
","1315.5","","49","","","3000","1","","","images/tutgreenplanet.jpg","images/tutalien1","images/tutalien2","null","images/tutalien2","images/t.png","NA","practice","null","","","",""
"d3-animate-choice","35","432507","0.0-35.0","1184","1126","12","Male","true","false","false","false","""event"",""trial"",""time""
""blur"",""0"",""0""
""focus"",""0"",""0""
""blur"",""0"",""0""
""focus"",""0"",""0""
""blur"",""0"",""0""
""focus"",""0"",""0""
""blur"",""0"",""0""
""focus"",""0"",""0""
""blur"",""0"",""0""
""focus"",""0"",""0""
""blur"",""0"",""0""
""focus"",""0"",""0""
""blur"",""0"",""0""
""focus"",""0"",""0""
""blur"",""0"",""0""
""focus"",""0"",""0""
""blur"",""0"",""0""
""focus"",""0"",""0""
""blur"",""0"",""0""
""focus"",""1"",""24835""
""fullscreenenter"",""5"",""60043""
""fullscreenexit"",""6"",""65204""
""blur"",""6"",""71479""
""focus"",""6"",""131325""
""blur"",""31"",""209165""
""focus"",""31"",""264409""
""blur"",""31"",""267976""
""focus"",""31"",""269373""
""blur"",""31"",""269951""
""focus"",""31"",""274137""
""blur"",""31"",""276401""
""focus"",""31"",""276576""
""blur"",""31"",""280897""
""focus"",""31"",""280976""
""blur"",""31"",""282173""
""focus"",""31"",""282272""
""blur"",""31"",""284379""
""focus"",""31"",""408329""
""blur"",""31"",""410708""
""focus"",""31"",""412591""
""blur"",""31"",""412858""
""focus"",""31"",""412998""
","""event"",""trial"",""time""
""blur"",""0"",""0""
""blur"",""0"",""0""
""blur"",""0"",""0""
""blur"",""0"",""0""
""blur"",""0"",""0""
""blur"",""0"",""0""
""blur"",""0"",""0""
""blur"",""0"",""0""
""blur"",""0"",""0""
""blur"",""0"",""0""
""blur"",""6"",""71479""
""blur"",""31"",""209165""
""blur"",""31"",""267976""
""blur"",""31"",""269951""
""blur"",""31"",""276401""
""blur"",""31"",""280897""
""blur"",""31"",""282173""
""blur"",""31"",""284379""
""blur"",""31"",""410708""
""blur"",""31"",""412858""
","""event"",""trial"",""time""
""focus"",""0"",""0""
""focus"",""0"",""0""
""focus"",""0"",""0""
""focus"",""0"",""0""
""focus"",""0"",""0""
""focus"",""0"",""0""
""focus"",""0"",""0""
""focus"",""0"",""0""
""focus"",""0"",""0""
""focus"",""1"",""24835""
""focus"",""6"",""131325""
""focus"",""31"",""264409""
""focus"",""31"",""269373""
""focus"",""31"",""274137""
""focus"",""31"",""276576""
""focus"",""31"",""280976""
""focus"",""31"",""282272""
""focus"",""31"",""408329""
""focus"",""31"",""412591""
""focus"",""31"",""412998""
","""event"",""trial"",""time""
""fullscreenenter"",""5"",""60043""
","""event"",""trial"",""time""
""fullscreenexit"",""6"",""65204""
","2249.0999999998603","","49","","","3000","1","","","images/tutgreenplanet.jpg","images/tutalien1","images/tutalien2","null","images/tutalien2","images/t.png","NA","practice","null","","","",""
"d3-animate-choice","36","435646","0.0-36.0","1184","1126","12","Male","true","false","false","false","""event"",""trial"",""time""
""blur"",""0"",""0""
""focus"",""0"",""0""
""blur"",""0"",""0""
""focus"",""0"",""0""
""blur"",""0"",""0""
""focus"",""0"",""0""
""blur"",""0"",""0""
""focus"",""0"",""0""
""blur"",""0"",""0""
""focus"",""0"",""0""
""blur"",""0"",""0""
""focus"",""0"",""0""
""blur"",""0"",""0""
""focus"",""0"",""0""
""blur"",""0"",""0""
""focus"",""0"",""0""
""blur"",""0"",""0""
""focus"",""0"",""0""
""blur"",""0"",""0""
""focus"",""1"",""24835""
""fullscreenenter"",""5"",""60043""
""fullscreenexit"",""6"",""65204""
""blur"",""6"",""71479""
""focus"",""6"",""131325""
""blur"",""31"",""209165""
""focus"",""31"",""264409""
""blur"",""31"",""267976""
""focus"",""31"",""269373""
""blur"",""31"",""269951""
""focus"",""31"",""274137""
""blur"",""31"",""276401""
""focus"",""31"",""276576""
""blur"",""31"",""280897""
""focus"",""31"",""280976""
""blur"",""31"",""282173""
""focus"",""31"",""282272""
""blur"",""31"",""284379""
""focus"",""31"",""408329""
""blur"",""31"",""410708""
""focus"",""31"",""412591""
""blur"",""31"",""412858""
""focus"",""31"",""412998""
","""event"",""trial"",""time""
""blur"",""0"",""0""
""blur"",""0"",""0""
""blur"",""0"",""0""
""blur"",""0"",""0""
""blur"",""0"",""0""
""blur"",""0"",""0""
""blur"",""0"",""0""
""blur"",""0"",""0""
""blur"",""0"",""0""
""blur"",""0"",""0""
""blur"",""6"",""71479""
""blur"",""31"",""209165""
""blur"",""31"",""267976""
""blur"",""31"",""269951""
""blur"",""31"",""276401""
""blur"",""31"",""280897""
""blur"",""31"",""282173""
""blur"",""31"",""284379""
""blur"",""31"",""410708""
""blur"",""31"",""412858""
","""event"",""trial"",""time""
""focus"",""0"",""0""
""focus"",""0"",""0""
""focus"",""0"",""0""
""focus"",""0"",""0""
""focus"",""0"",""0""
""focus"",""0"",""0""
""focus"",""0"",""0""
""focus"",""0"",""0""
""focus"",""0"",""0""
""focus"",""1"",""24835""
""focus"",""6"",""131325""
""focus"",""31"",""264409""
""focus"",""31"",""269373""
""focus"",""31"",""274137""
""focus"",""31"",""276576""
""focus"",""31"",""280976""
""focus"",""31"",""282272""
""focus"",""31"",""408329""
""focus"",""31"",""412591""
""focus"",""31"",""412998""
","""event"",""trial"",""time""
""fullscreenenter"",""5"",""60043""
","""event"",""trial"",""time""
""fullscreenexit"",""6"",""65204""
","1133.0999999998603","","48","","","3000","1","","","images/tutgreenplanet.jpg","images/tutalien1","images/tutalien2","null","images/tutalien1","images/nothing.png","NA","practice","null","","","",""
"d3-animate-choice","37","438048","0.0-37.0","1184","1126","12","Male","true","false","false","false","""event"",""trial"",""time""
""blur"",""0"",""0""
""focus"",""0"",""0""
""blur"",""0"",""0""
""focus"",""0"",""0""
""blur"",""0"",""0""
""focus"",""0"",""0""
""blur"",""0"",""0""
""focus"",""0"",""0""
""blur"",""0"",""0""
""focus"",""0"",""0""
""blur"",""0"",""0""
""focus"",""0"",""0""
""blur"",""0"",""0""
""focus"",""0"",""0""
""blur"",""0"",""0""
""focus"",""0"",""0""
""blur"",""0"",""0""
""focus"",""0"",""0""
""blur"",""0"",""0""
""focus"",""1"",""24835""
""fullscreenenter"",""5"",""60043""
""fullscreenexit"",""6"",""65204""
""blur"",""6"",""71479""
""focus"",""6"",""131325""
""blur"",""31"",""209165""
""focus"",""31"",""264409""
""blur"",""31"",""267976""
""focus"",""31"",""269373""
""blur"",""31"",""269951""
""focus"",""31"",""274137""
""blur"",""31"",""276401""
""focus"",""31"",""276576""
""blur"",""31"",""280897""
""focus"",""31"",""280976""
""blur"",""31"",""282173""
""focus"",""31"",""282272""
""blur"",""31"",""284379""
""focus"",""31"",""408329""
""blur"",""31"",""410708""
""focus"",""31"",""412591""
""blur"",""31"",""412858""
""focus"",""31"",""412998""
","""event"",""trial"",""time""
""blur"",""0"",""0""
""blur"",""0"",""0""
""blur"",""0"",""0""
""blur"",""0"",""0""
""blur"",""0"",""0""
""blur"",""0"",""0""
""blur"",""0"",""0""
""blur"",""0"",""0""
""blur"",""0"",""0""
""blur"",""0"",""0""
""blur"",""6"",""71479""
""blur"",""31"",""209165""
""blur"",""31"",""267976""
""blur"",""31"",""269951""
""blur"",""31"",""276401""
""blur"",""31"",""280897""
""blur"",""31"",""282173""
""blur"",""31"",""284379""
""blur"",""31"",""410708""
""blur"",""31"",""412858""
","""event"",""trial"",""time""
""focus"",""0"",""0""
""focus"",""0"",""0""
""focus"",""0"",""0""
""focus"",""0"",""0""
""focus"",""0"",""0""
""focus"",""0"",""0""
""focus"",""0"",""0""
""focus"",""0"",""0""
""focus"",""0"",""0""
""focus"",""1"",""24835""
""focus"",""6"",""131325""
""focus"",""31"",""264409""
""focus"",""31"",""269373""
""focus"",""31"",""274137""
""focus"",""31"",""276576""
""focus"",""31"",""280976""
""focus"",""31"",""282272""
""focus"",""31"",""408329""
""focus"",""31"",""412591""
""focus"",""31"",""412998""
","""event"",""trial"",""time""
""fullscreenenter"",""5"",""60043""
","""event"",""trial"",""time""
""fullscreenexit"",""6"",""65204""
","397.69999999995343","","49","","","3000","1","","","images/tutgreenplanet.jpg","images/tutalien1","images/tutalien2","null","images/tutalien2","images/t.png","NA","practice","null","","","",""
"d3-animate-choice","38","440849","0.0-38.0","1184","1126","12","Male","true","false","false","false","""event"",""trial"",""time""
""blur"",""0"",""0""
""focus"",""0"",""0""
""blur"",""0"",""0""
""focus"",""0"",""0""
""blur"",""0"",""0""
""focus"",""0"",""0""
""blur"",""0"",""0""
""focus"",""0"",""0""
""blur"",""0"",""0""
""focus"",""0"",""0""
""blur"",""0"",""0""
""focus"",""0"",""0""
""blur"",""0"",""0""
""focus"",""0"",""0""
""blur"",""0"",""0""
""focus"",""0"",""0""
""blur"",""0"",""0""
""focus"",""0"",""0""
""blur"",""0"",""0""
""focus"",""1"",""24835""
""fullscreenenter"",""5"",""60043""
""fullscreenexit"",""6"",""65204""
""blur"",""6"",""71479""
""focus"",""6"",""131325""
""blur"",""31"",""209165""
""focus"",""31"",""264409""
""blur"",""31"",""267976""
""focus"",""31"",""269373""
""blur"",""31"",""269951""
""focus"",""31"",""274137""
""blur"",""31"",""276401""
""focus"",""31"",""276576""
""blur"",""31"",""280897""
""focus"",""31"",""280976""
""blur"",""31"",""282173""
""focus"",""31"",""282272""
""blur"",""31"",""284379""
""focus"",""31"",""408329""
""blur"",""31"",""410708""
""focus"",""31"",""412591""
""blur"",""31"",""412858""
""focus"",""31"",""412998""
","""event"",""trial"",""time""
""blur"",""0"",""0""
""blur"",""0"",""0""
""blur"",""0"",""0""
""blur"",""0"",""0""
""blur"",""0"",""0""
""blur"",""0"",""0""
""blur"",""0"",""0""
""blur"",""0"",""0""
""blur"",""0"",""0""
""blur"",""0"",""0""
""blur"",""6"",""71479""
""blur"",""31"",""209165""
""blur"",""31"",""267976""
""blur"",""31"",""269951""
""blur"",""31"",""276401""
""blur"",""31"",""280897""
""blur"",""31"",""282173""
""blur"",""31"",""284379""
""blur"",""31"",""410708""
""blur"",""31"",""412858""
","""event"",""trial"",""time""
""focus"",""0"",""0""
""focus"",""0"",""0""
""focus"",""0"",""0""
""focus"",""0"",""0""
""focus"",""0"",""0""
""focus"",""0"",""0""
""focus"",""0"",""0""
""focus"",""0"",""0""
""focus"",""0"",""0""
""focus"",""1"",""24835""
""focus"",""6"",""131325""
""focus"",""31"",""264409""
""focus"",""31"",""269373""
""focus"",""31"",""274137""
""focus"",""31"",""276576""
""focus"",""31"",""280976""
""focus"",""31"",""282272""
""focus"",""31"",""408329""
""focus"",""31"",""412591""
""focus"",""31"",""412998""
","""event"",""trial"",""time""
""fullscreenenter"",""5"",""60043""
","""event"",""trial"",""time""
""fullscreenexit"",""6"",""65204""
","795.6999999999534","","49","","","3000","1","","","images/tutgreenplanet.jpg","images/tutalien1","images/tutalien2","null","images/tutalien2","images/t.png","NA","practice","null","","","",""
"d3-animate-choice","39","444949","0.0-39.0","1184","1126","12","Male","true","false","false","false","""event"",""trial"",""time""
""blur"",""0"",""0""
""focus"",""0"",""0""
""blur"",""0"",""0""
""focus"",""0"",""0""
""blur"",""0"",""0""
""focus"",""0"",""0""
""blur"",""0"",""0""
""focus"",""0"",""0""
""blur"",""0"",""0""
""focus"",""0"",""0""
""blur"",""0"",""0""
""focus"",""0"",""0""
""blur"",""0"",""0""
""focus"",""0"",""0""
""blur"",""0"",""0""
""focus"",""0"",""0""
""blur"",""0"",""0""
""focus"",""0"",""0""
""blur"",""0"",""0""
""focus"",""1"",""24835""
""fullscreenenter"",""5"",""60043""
""fullscreenexit"",""6"",""65204""
""blur"",""6"",""71479""
""focus"",""6"",""131325""
""blur"",""31"",""209165""
""focus"",""31"",""264409""
""blur"",""31"",""267976""
""focus"",""31"",""269373""
""blur"",""31"",""269951""
""focus"",""31"",""274137""
""blur"",""31"",""276401""
""focus"",""31"",""276576""
""blur"",""31"",""280897""
""focus"",""31"",""280976""
""blur"",""31"",""282173""
""focus"",""31"",""282272""
""blur"",""31"",""284379""
""focus"",""31"",""408329""
""blur"",""31"",""410708""
""focus"",""31"",""412591""
""blur"",""31"",""412858""
""focus"",""31"",""412998""
","""event"",""trial"",""time""
""blur"",""0"",""0""
""blur"",""0"",""0""
""blur"",""0"",""0""
""blur"",""0"",""0""
""blur"",""0"",""0""
""blur"",""0"",""0""
""blur"",""0"",""0""
""blur"",""0"",""0""
""blur"",""0"",""0""
""blur"",""0"",""0""
""blur"",""6"",""71479""
""blur"",""31"",""209165""
""blur"",""31"",""267976""
""blur"",""31"",""269951""
""blur"",""31"",""276401""
""blur"",""31"",""280897""
""blur"",""31"",""282173""
""blur"",""31"",""284379""
""blur"",""31"",""410708""
""blur"",""31"",""412858""
","""event"",""trial"",""time""
""focus"",""0"",""0""
""focus"",""0"",""0""
""focus"",""0"",""0""
""focus"",""0"",""0""
""focus"",""0"",""0""
""focus"",""0"",""0""
""focus"",""0"",""0""
""focus"",""0"",""0""
""focus"",""0"",""0""
""focus"",""1"",""24835""
""focus"",""6"",""131325""
""focus"",""31"",""264409""
""focus"",""31"",""269373""
""focus"",""31"",""274137""
""focus"",""31"",""276576""
""focus"",""31"",""280976""
""focus"",""31"",""282272""
""focus"",""31"",""408329""
""focus"",""31"",""412591""
""focus"",""31"",""412998""
","""event"",""trial"",""time""
""fullscreenenter"",""5"",""60043""
","""event"",""trial"",""time""
""fullscreenexit"",""6"",""65204""
","2095.6999999999534","","49","","","3000","1","","","images/tutgreenplanet.jpg","images/tutalien1","images/tutalien2","null","images/tutalien2","images/nothing.png","NA","practice","null","","","",""
"d3-animate-choice","40","447737","0.0-40.0","1184","1126","12","Male","true","false","false","false","""event"",""trial"",""time""
""blur"",""0"",""0""
""focus"",""0"",""0""
""blur"",""0"",""0""
""focus"",""0"",""0""
""blur"",""0"",""0""
""focus"",""0"",""0""
""blur"",""0"",""0""
""focus"",""0"",""0""
""blur"",""0"",""0""
""focus"",""0"",""0""
""blur"",""0"",""0""
""focus"",""0"",""0""
""blur"",""0"",""0""
""focus"",""0"",""0""
""blur"",""0"",""0""
""focus"",""0"",""0""
""blur"",""0"",""0""
""focus"",""0"",""0""
""blur"",""0"",""0""
""focus"",""1"",""24835""
""fullscreenenter"",""5"",""60043""
""fullscreenexit"",""6"",""65204""
""blur"",""6"",""71479""
""focus"",""6"",""131325""
""blur"",""31"",""209165""
""focus"",""31"",""264409""
""blur"",""31"",""267976""
""focus"",""31"",""269373""
""blur"",""31"",""269951""
""focus"",""31"",""274137""
""blur"",""31"",""276401""
""focus"",""31"",""276576""
""blur"",""31"",""280897""
""focus"",""31"",""280976""
""blur"",""31"",""282173""
""focus"",""31"",""282272""
""blur"",""31"",""284379""
""focus"",""31"",""408329""
""blur"",""31"",""410708""
""focus"",""31"",""412591""
""blur"",""31"",""412858""
""focus"",""31"",""412998""
","""event"",""trial"",""time""
""blur"",""0"",""0""
""blur"",""0"",""0""
""blur"",""0"",""0""
""blur"",""0"",""0""
""blur"",""0"",""0""
""blur"",""0"",""0""
""blur"",""0"",""0""
""blur"",""0"",""0""
""blur"",""0"",""0""
""blur"",""0"",""0""
""blur"",""6"",""71479""
""blur"",""31"",""209165""
""blur"",""31"",""267976""
""blur"",""31"",""269951""
""blur"",""31"",""276401""
""blur"",""31"",""280897""
""blur"",""31"",""282173""
""blur"",""31"",""284379""
""blur"",""31"",""410708""
""blur"",""31"",""412858""
","""event"",""trial"",""time""
""focus"",""0"",""0""
""focus"",""0"",""0""
""focus"",""0"",""0""
""focus"",""0"",""0""
""focus"",""0"",""0""
""focus"",""0"",""0""
""focus"",""0"",""0""
""focus"",""0"",""0""
""focus"",""0"",""0""
""focus"",""1"",""24835""
""focus"",""6"",""131325""
""focus"",""31"",""264409""
""focus"",""31"",""269373""
""focus"",""31"",""274137""
""focus"",""31"",""276576""
""focus"",""31"",""280976""
""focus"",""31"",""282272""
""focus"",""31"",""408329""
""focus"",""31"",""412591""
""focus"",""31"",""412998""
","""event"",""trial"",""time""
""fullscreenenter"",""5"",""60043""
","""event"",""trial"",""time""
""fullscreenexit"",""6"",""65204""
","782.7000000001863","","49","","","3000","1","","","images/tutgreenplanet.jpg","images/tutalien1","images/tutalien2","null","images/tutalien2","images/t.png","NA","practice","null","","","",""
"d3-animate-choice","41","451581","0.0-41.0","1184","1126","12","Male","true","false","false","false","""event"",""trial"",""time""
""blur"",""0"",""0""
""focus"",""0"",""0""
""blur"",""0"",""0""
""focus"",""0"",""0""
""blur"",""0"",""0""
""focus"",""0"",""0""
""blur"",""0"",""0""
""focus"",""0"",""0""
""blur"",""0"",""0""
""focus"",""0"",""0""
""blur"",""0"",""0""
""focus"",""0"",""0""
""blur"",""0"",""0""
""focus"",""0"",""0""
""blur"",""0"",""0""
""focus"",""0"",""0""
""blur"",""0"",""0""
""focus"",""0"",""0""
""blur"",""0"",""0""
""focus"",""1"",""24835""
""fullscreenenter"",""5"",""60043""
""fullscreenexit"",""6"",""65204""
""blur"",""6"",""71479""
""focus"",""6"",""131325""
""blur"",""31"",""209165""
""focus"",""31"",""264409""
""blur"",""31"",""267976""
""focus"",""31"",""269373""
""blur"",""31"",""269951""
""focus"",""31"",""274137""
""blur"",""31"",""276401""
""focus"",""31"",""276576""
""blur"",""31"",""280897""
""focus"",""31"",""280976""
""blur"",""31"",""282173""
""focus"",""31"",""282272""
""blur"",""31"",""284379""
""focus"",""31"",""408329""
""blur"",""31"",""410708""
""focus"",""31"",""412591""
""blur"",""31"",""412858""
""focus"",""31"",""412998""
","""event"",""trial"",""time""
""blur"",""0"",""0""
""blur"",""0"",""0""
""blur"",""0"",""0""
""blur"",""0"",""0""
""blur"",""0"",""0""
""blur"",""0"",""0""
""blur"",""0"",""0""
""blur"",""0"",""0""
""blur"",""0"",""0""
""blur"",""0"",""0""
""blur"",""6"",""71479""
""blur"",""31"",""209165""
""blur"",""31"",""267976""
""blur"",""31"",""269951""
""blur"",""31"",""276401""
""blur"",""31"",""280897""
""blur"",""31"",""282173""
""blur"",""31"",""284379""
""blur"",""31"",""410708""
""blur"",""31"",""412858""
","""event"",""trial"",""time""
""focus"",""0"",""0""
""focus"",""0"",""0""
""focus"",""0"",""0""
""focus"",""0"",""0""
""focus"",""0"",""0""
""focus"",""0"",""0""
""focus"",""0"",""0""
""focus"",""0"",""0""
""focus"",""0"",""0""
""focus"",""1"",""24835""
""focus"",""6"",""131325""
""focus"",""31"",""264409""
""focus"",""31"",""269373""
""focus"",""31"",""274137""
""focus"",""31"",""276576""
""focus"",""31"",""280976""
""focus"",""31"",""282272""
""focus"",""31"",""408329""
""focus"",""31"",""412591""
""focus"",""31"",""412998""
","""event"",""trial"",""time""
""fullscreenenter"",""5"",""60043""
","""event"",""trial"",""time""
""fullscreenexit"",""6"",""65204""
","1837.8999999999069","","49","","","3000","1","","","images/tutgreenplanet.jpg","images/tutalien1","images/tutalien2","null","images/tutalien2","images/t.png","NA","practice","null","","","",""
"d3-animate-choice","42","456047","0.0-42.0","1184","1126","12","Male","true","false","false","false","""event"",""trial"",""time""
""blur"",""0"",""0""
""focus"",""0"",""0""
""blur"",""0"",""0""
""focus"",""0"",""0""
""blur"",""0"",""0""
""focus"",""0"",""0""
""blur"",""0"",""0""
""focus"",""0"",""0""
""blur"",""0"",""0""
""focus"",""0"",""0""
""blur"",""0"",""0""
""focus"",""0"",""0""
""blur"",""0"",""0""
""focus"",""0"",""0""
""blur"",""0"",""0""
""focus"",""0"",""0""
""blur"",""0"",""0""
""focus"",""0"",""0""
""blur"",""0"",""0""
""focus"",""1"",""24835""
""fullscreenenter"",""5"",""60043""
""fullscreenexit"",""6"",""65204""
""blur"",""6"",""71479""
""focus"",""6"",""131325""
""blur"",""31"",""209165""
""focus"",""31"",""264409""
""blur"",""31"",""267976""
""focus"",""31"",""269373""
""blur"",""31"",""269951""
""focus"",""31"",""274137""
""blur"",""31"",""276401""
""focus"",""31"",""276576""
""blur"",""31"",""280897""
""focus"",""31"",""280976""
""blur"",""31"",""282173""
""focus"",""31"",""282272""
""blur"",""31"",""284379""
""focus"",""31"",""408329""
""blur"",""31"",""410708""
""focus"",""31"",""412591""
""blur"",""31"",""412858""
""focus"",""31"",""412998""
","""event"",""trial"",""time""
""blur"",""0"",""0""
""blur"",""0"",""0""
""blur"",""0"",""0""
""blur"",""0"",""0""
""blur"",""0"",""0""
""blur"",""0"",""0""
""blur"",""0"",""0""
""blur"",""0"",""0""
""blur"",""0"",""0""
""blur"",""0"",""0""
""blur"",""6"",""71479""
""blur"",""31"",""209165""
""blur"",""31"",""267976""
""blur"",""31"",""269951""
""blur"",""31"",""276401""
""blur"",""31"",""280897""
""blur"",""31"",""282173""
""blur"",""31"",""284379""
""blur"",""31"",""410708""
""blur"",""31"",""412858""
","""event"",""trial"",""time""
""focus"",""0"",""0""
""focus"",""0"",""0""
""focus"",""0"",""0""
""focus"",""0"",""0""
""focus"",""0"",""0""
""focus"",""0"",""0""
""focus"",""0"",""0""
""focus"",""0"",""0""
""focus"",""0"",""0""
""focus"",""1"",""24835""
""focus"",""6"",""131325""
""focus"",""31"",""264409""
""focus"",""31"",""269373""
""focus"",""31"",""274137""
""focus"",""31"",""276576""
""focus"",""31"",""280976""
""focus"",""31"",""282272""
""focus"",""31"",""408329""
""focus"",""31"",""412591""
""focus"",""31"",""412998""
","""event"",""trial"",""time""
""fullscreenenter"",""5"",""60043""
","""event"",""trial"",""time""
""fullscreenexit"",""6"",""65204""
","2461.399999999907","","49","","","3000","1","","","images/tutgreenplanet.jpg","images/tutalien1","images/tutalien2","null","images/tutalien2","images/t.png","NA","practice","null","","","",""
"d3-animate-choice","43","464067","0.0-43.0","1184","1126","12","Male","true","false","false","false","""event"",""trial"",""time""
""blur"",""0"",""0""
""focus"",""0"",""0""
""blur"",""0"",""0""
""focus"",""0"",""0""
""blur"",""0"",""0""
""focus"",""0"",""0""
""blur"",""0"",""0""
""focus"",""0"",""0""
""blur"",""0"",""0""
""focus"",""0"",""0""
""blur"",""0"",""0""
""focus"",""0"",""0""
""blur"",""0"",""0""
""focus"",""0"",""0""
""blur"",""0"",""0""
""focus"",""0"",""0""
""blur"",""0"",""0""
""focus"",""0"",""0""
""blur"",""0"",""0""
""focus"",""1"",""24835""
""fullscreenenter"",""5"",""60043""
""fullscreenexit"",""6"",""65204""
""blur"",""6"",""71479""
""focus"",""6"",""131325""
""blur"",""31"",""209165""
""focus"",""31"",""264409""
""blur"",""31"",""267976""
""focus"",""31"",""269373""
""blur"",""31"",""269951""
""focus"",""31"",""274137""
""blur"",""31"",""276401""
""focus"",""31"",""276576""
""blur"",""31"",""280897""
""focus"",""31"",""280976""
""blur"",""31"",""282173""
""focus"",""31"",""282272""
""blur"",""31"",""284379""
""focus"",""31"",""408329""
""blur"",""31"",""410708""
""focus"",""31"",""412591""
""blur"",""31"",""412858""
""focus"",""31"",""412998""
""blur"",""44"",""466549""
""focus"",""44"",""536870""
","""event"",""trial"",""time""
""blur"",""0"",""0""
""blur"",""0"",""0""
""blur"",""0"",""0""
""blur"",""0"",""0""
""blur"",""0"",""0""
""blur"",""0"",""0""
""blur"",""0"",""0""
""blur"",""0"",""0""
""blur"",""0"",""0""
""blur"",""0"",""0""
""blur"",""6"",""71479""
""blur"",""31"",""209165""
""blur"",""31"",""267976""
""blur"",""31"",""269951""
""blur"",""31"",""276401""
""blur"",""31"",""280897""
""blur"",""31"",""282173""
""blur"",""31"",""284379""
""blur"",""31"",""410708""
""blur"",""31"",""412858""
""blur"",""44"",""466549""
","""event"",""trial"",""time""
""focus"",""0"",""0""
""focus"",""0"",""0""
""focus"",""0"",""0""
""focus"",""0"",""0""
""focus"",""0"",""0""
""focus"",""0"",""0""
""focus"",""0"",""0""
""focus"",""0"",""0""
""focus"",""0"",""0""
""focus"",""1"",""24835""
""focus"",""6"",""131325""
""focus"",""31"",""264409""
""focus"",""31"",""269373""
""focus"",""31"",""274137""
""focus"",""31"",""276576""
""focus"",""31"",""280976""
""focus"",""31"",""282272""
""focus"",""31"",""408329""
""focus"",""31"",""412591""
""focus"",""31"",""412998""
""focus"",""44"",""536870""
","""event"",""trial"",""time""
""fullscreenenter"",""5"",""60043""
","""event"",""trial"",""time""
""fullscreenexit"",""6"",""65204""
","6014.199999999953","","49","","","3000","1","","","images/tutgreenplanet.jpg","images/tutalien1","images/tutalien2","null","images/tutalien2","images/t.png","NA","practice","null","","","",""
"d3-instructions","44","539154","0.0-44.0","1184","1126","12","Male","true","false","false","false","""event"",""trial"",""time""
""blur"",""0"",""0""
""focus"",""0"",""0""
""blur"",""0"",""0""
""focus"",""0"",""0""
""blur"",""0"",""0""
""focus"",""0"",""0""
""blur"",""0"",""0""
""focus"",""0"",""0""
""blur"",""0"",""0""
""focus"",""0"",""0""
""blur"",""0"",""0""
""focus"",""0"",""0""
""blur"",""0"",""0""
""focus"",""0"",""0""
""blur"",""0"",""0""
""focus"",""0"",""0""
""blur"",""0"",""0""
""focus"",""0"",""0""
""blur"",""0"",""0""
""focus"",""1"",""24835""
""fullscreenenter"",""5"",""60043""
""fullscreenexit"",""6"",""65204""
""blur"",""6"",""71479""
""focus"",""6"",""131325""
""blur"",""31"",""209165""
""focus"",""31"",""264409""
""blur"",""31"",""267976""
""focus"",""31"",""269373""
""blur"",""31"",""269951""
""focus"",""31"",""274137""
""blur"",""31"",""276401""
""focus"",""31"",""276576""
""blur"",""31"",""280897""
""focus"",""31"",""280976""
""blur"",""31"",""282173""
""focus"",""31"",""282272""
""blur"",""31"",""284379""
""focus"",""31"",""408329""
""blur"",""31"",""410708""
""focus"",""31"",""412591""
""blur"",""31"",""412858""
""focus"",""31"",""412998""
""blur"",""44"",""466549""
""focus"",""44"",""536870""
","""event"",""trial"",""time""
""blur"",""0"",""0""
""blur"",""0"",""0""
""blur"",""0"",""0""
""blur"",""0"",""0""
""blur"",""0"",""0""
""blur"",""0"",""0""
""blur"",""0"",""0""
""blur"",""0"",""0""
""blur"",""0"",""0""
""blur"",""0"",""0""
""blur"",""6"",""71479""
""blur"",""31"",""209165""
""blur"",""31"",""267976""
""blur"",""31"",""269951""
""blur"",""31"",""276401""
""blur"",""31"",""280897""
""blur"",""31"",""282173""
""blur"",""31"",""284379""
""blur"",""31"",""410708""
""blur"",""31"",""412858""
""blur"",""44"",""466549""
","""event"",""trial"",""time""
""focus"",""0"",""0""
""focus"",""0"",""0""
""focus"",""0"",""0""
""focus"",""0"",""0""
""focus"",""0"",""0""
""focus"",""0"",""0""
""focus"",""0"",""0""
""focus"",""0"",""0""
""focus"",""0"",""0""
""focus"",""1"",""24835""
""focus"",""6"",""131325""
""focus"",""31"",""264409""
""focus"",""31"",""269373""
""focus"",""31"",""274137""
""focus"",""31"",""276576""
""focus"",""31"",""280976""
""focus"",""31"",""282272""
""focus"",""31"",""408329""
""focus"",""31"",""412591""
""focus"",""31"",""412998""
""focus"",""44"",""536870""
","""event"",""trial"",""time""
""fullscreenenter"",""5"",""60043""
","""event"",""trial"",""time""
""fullscreenexit"",""6"",""65204""
","","","","","","","","","","","","","","","","","","","","","",""
"d3-instructions","45","540025","0.0-45.0","1184","1126","12","Male","true","false","false","false","""event"",""trial"",""time""
""blur"",""0"",""0""
""focus"",""0"",""0""
""blur"",""0"",""0""
""focus"",""0"",""0""
""blur"",""0"",""0""
""focus"",""0"",""0""
""blur"",""0"",""0""
""focus"",""0"",""0""
""blur"",""0"",""0""
""focus"",""0"",""0""
""blur"",""0"",""0""
""focus"",""0"",""0""
""blur"",""0"",""0""
""focus"",""0"",""0""
""blur"",""0"",""0""
""focus"",""0"",""0""
""blur"",""0"",""0""
""focus"",""0"",""0""
""blur"",""0"",""0""
""focus"",""1"",""24835""
""fullscreenenter"",""5"",""60043""
""fullscreenexit"",""6"",""65204""
""blur"",""6"",""71479""
""focus"",""6"",""131325""
""blur"",""31"",""209165""
""focus"",""31"",""264409""
""blur"",""31"",""267976""
""focus"",""31"",""269373""
""blur"",""31"",""269951""
""focus"",""31"",""274137""
""blur"",""31"",""276401""
""focus"",""31"",""276576""
""blur"",""31"",""280897""
""focus"",""31"",""280976""
""blur"",""31"",""282173""
""focus"",""31"",""282272""
""blur"",""31"",""284379""
""focus"",""31"",""408329""
""blur"",""31"",""410708""
""focus"",""31"",""412591""
""blur"",""31"",""412858""
""focus"",""31"",""412998""
""blur"",""44"",""466549""
""focus"",""44"",""536870""
","""event"",""trial"",""time""
""blur"",""0"",""0""
""blur"",""0"",""0""
""blur"",""0"",""0""
""blur"",""0"",""0""
""blur"",""0"",""0""
""blur"",""0"",""0""
""blur"",""0"",""0""
""blur"",""0"",""0""
""blur"",""0"",""0""
""blur"",""0"",""0""
""blur"",""6"",""71479""
""blur"",""31"",""209165""
""blur"",""31"",""267976""
""blur"",""31"",""269951""
""blur"",""31"",""276401""
""blur"",""31"",""280897""
""blur"",""31"",""282173""
""blur"",""31"",""284379""
""blur"",""31"",""410708""
""blur"",""31"",""412858""
""blur"",""44"",""466549""
","""event"",""trial"",""time""
""focus"",""0"",""0""
""focus"",""0"",""0""
""focus"",""0"",""0""
""focus"",""0"",""0""
""focus"",""0"",""0""
""focus"",""0"",""0""
""focus"",""0"",""0""
""focus"",""0"",""0""
""focus"",""0"",""0""
""focus"",""1"",""24835""
""focus"",""6"",""131325""
""focus"",""31"",""264409""
""focus"",""31"",""269373""
""focus"",""31"",""274137""
""focus"",""31"",""276576""
""focus"",""31"",""280976""
""focus"",""31"",""282272""
""focus"",""31"",""408329""
""focus"",""31"",""412591""
""focus"",""31"",""412998""
""focus"",""44"",""536870""
","""event"",""trial"",""time""
""fullscreenenter"",""5"",""60043""
","""event"",""trial"",""time""
""fullscreenexit"",""6"",""65204""
","","","","","","","","","","","","","","","","","","","","","",""
"d3-instructions","46","540837","0.0-46.0","1184","1126","12","Male","true","false","false","false","""event"",""trial"",""time""
""blur"",""0"",""0""
""focus"",""0"",""0""
""blur"",""0"",""0""
""focus"",""0"",""0""
""blur"",""0"",""0""
""focus"",""0"",""0""
""blur"",""0"",""0""
""focus"",""0"",""0""
""blur"",""0"",""0""
""focus"",""0"",""0""
""blur"",""0"",""0""
""focus"",""0"",""0""
""blur"",""0"",""0""
""focus"",""0"",""0""
""blur"",""0"",""0""
""focus"",""0"",""0""
""blur"",""0"",""0""
""focus"",""0"",""0""
""blur"",""0"",""0""
""focus"",""1"",""24835""
""fullscreenenter"",""5"",""60043""
""fullscreenexit"",""6"",""65204""
""blur"",""6"",""71479""
""focus"",""6"",""131325""
""blur"",""31"",""209165""
""focus"",""31"",""264409""
""blur"",""31"",""267976""
""focus"",""31"",""269373""
""blur"",""31"",""269951""
""focus"",""31"",""274137""
""blur"",""31"",""276401""
""focus"",""31"",""276576""
""blur"",""31"",""280897""
""focus"",""31"",""280976""
""blur"",""31"",""282173""
""focus"",""31"",""282272""
""blur"",""31"",""284379""
""focus"",""31"",""408329""
""blur"",""31"",""410708""
""focus"",""31"",""412591""
""blur"",""31"",""412858""
""focus"",""31"",""412998""
""blur"",""44"",""466549""
""focus"",""44"",""536870""
","""event"",""trial"",""time""
""blur"",""0"",""0""
""blur"",""0"",""0""
""blur"",""0"",""0""
""blur"",""0"",""0""
""blur"",""0"",""0""
""blur"",""0"",""0""
""blur"",""0"",""0""
""blur"",""0"",""0""
""blur"",""0"",""0""
""blur"",""0"",""0""
""blur"",""6"",""71479""
""blur"",""31"",""209165""
""blur"",""31"",""267976""
""blur"",""31"",""269951""
""blur"",""31"",""276401""
""blur"",""31"",""280897""
""blur"",""31"",""282173""
""blur"",""31"",""284379""
""blur"",""31"",""410708""
""blur"",""31"",""412858""
""blur"",""44"",""466549""
","""event"",""trial"",""time""
""focus"",""0"",""0""
""focus"",""0"",""0""
""focus"",""0"",""0""
""focus"",""0"",""0""
""focus"",""0"",""0""
""focus"",""0"",""0""
""focus"",""0"",""0""
""focus"",""0"",""0""
""focus"",""0"",""0""
""focus"",""1"",""24835""
""focus"",""6"",""131325""
""focus"",""31"",""264409""
""focus"",""31"",""269373""
""focus"",""31"",""274137""
""focus"",""31"",""276576""
""focus"",""31"",""280976""
""focus"",""31"",""282272""
""focus"",""31"",""408329""
""focus"",""31"",""412591""
""focus"",""31"",""412998""
""focus"",""44"",""536870""
","""event"",""trial"",""time""
""fullscreenenter"",""5"",""60043""
","""event"",""trial"",""time""
""fullscreenexit"",""6"",""65204""
","","","","","","","","","","","","","","","","","","","","","",""
"d3-instructions","47","541782","0.0-47.0","1184","1126","12","Male","true","false","false","false","""event"",""trial"",""time""
""blur"",""0"",""0""
""focus"",""0"",""0""
""blur"",""0"",""0""
""focus"",""0"",""0""
""blur"",""0"",""0""
""focus"",""0"",""0""
""blur"",""0"",""0""
""focus"",""0"",""0""
""blur"",""0"",""0""
""focus"",""0"",""0""
""blur"",""0"",""0""
""focus"",""0"",""0""
""blur"",""0"",""0""
""focus"",""0"",""0""
""blur"",""0"",""0""
""focus"",""0"",""0""
""blur"",""0"",""0""
""focus"",""0"",""0""
""blur"",""0"",""0""
""focus"",""1"",""24835""
""fullscreenenter"",""5"",""60043""
""fullscreenexit"",""6"",""65204""
""blur"",""6"",""71479""
""focus"",""6"",""131325""
""blur"",""31"",""209165""
""focus"",""31"",""264409""
""blur"",""31"",""267976""
""focus"",""31"",""269373""
""blur"",""31"",""269951""
""focus"",""31"",""274137""
""blur"",""31"",""276401""
""focus"",""31"",""276576""
""blur"",""31"",""280897""
""focus"",""31"",""280976""
""blur"",""31"",""282173""
""focus"",""31"",""282272""
""blur"",""31"",""284379""
""focus"",""31"",""408329""
""blur"",""31"",""410708""
""focus"",""31"",""412591""
""blur"",""31"",""412858""
""focus"",""31"",""412998""
""blur"",""44"",""466549""
""focus"",""44"",""536870""
","""event"",""trial"",""time""
""blur"",""0"",""0""
""blur"",""0"",""0""
""blur"",""0"",""0""
""blur"",""0"",""0""
""blur"",""0"",""0""
""blur"",""0"",""0""
""blur"",""0"",""0""
""blur"",""0"",""0""
""blur"",""0"",""0""
""blur"",""0"",""0""
""blur"",""6"",""71479""
""blur"",""31"",""209165""
""blur"",""31"",""267976""
""blur"",""31"",""269951""
""blur"",""31"",""276401""
""blur"",""31"",""280897""
""blur"",""31"",""282173""
""blur"",""31"",""284379""
""blur"",""31"",""410708""
""blur"",""31"",""412858""
""blur"",""44"",""466549""
","""event"",""trial"",""time""
""focus"",""0"",""0""
""focus"",""0"",""0""
""focus"",""0"",""0""
""focus"",""0"",""0""
""focus"",""0"",""0""
""focus"",""0"",""0""
""focus"",""0"",""0""
""focus"",""0"",""0""
""focus"",""0"",""0""
""focus"",""1"",""24835""
""focus"",""6"",""131325""
""focus"",""31"",""264409""
""focus"",""31"",""269373""
""focus"",""31"",""274137""
""focus"",""31"",""276576""
""focus"",""31"",""280976""
""focus"",""31"",""282272""
""focus"",""31"",""408329""
""focus"",""31"",""412591""
""focus"",""31"",""412998""
""focus"",""44"",""536870""
","""event"",""trial"",""time""
""fullscreenenter"",""5"",""60043""
","""event"",""trial"",""time""
""fullscreenexit"",""6"",""65204""
","","","","","","","","","","","","","","","","","","","","","",""
"d3-instructions","48","542760","0.0-48.0","1184","1126","12","Male","true","false","false","false","""event"",""trial"",""time""
""blur"",""0"",""0""
""focus"",""0"",""0""
""blur"",""0"",""0""
""focus"",""0"",""0""
""blur"",""0"",""0""
""focus"",""0"",""0""
""blur"",""0"",""0""
""focus"",""0"",""0""
""blur"",""0"",""0""
""focus"",""0"",""0""
""blur"",""0"",""0""
""focus"",""0"",""0""
""blur"",""0"",""0""
""focus"",""0"",""0""
""blur"",""0"",""0""
""focus"",""0"",""0""
""blur"",""0"",""0""
""focus"",""0"",""0""
""blur"",""0"",""0""
""focus"",""1"",""24835""
""fullscreenenter"",""5"",""60043""
""fullscreenexit"",""6"",""65204""
""blur"",""6"",""71479""
""focus"",""6"",""131325""
""blur"",""31"",""209165""
""focus"",""31"",""264409""
""blur"",""31"",""267976""
""focus"",""31"",""269373""
""blur"",""31"",""269951""
""focus"",""31"",""274137""
""blur"",""31"",""276401""
""focus"",""31"",""276576""
""blur"",""31"",""280897""
""focus"",""31"",""280976""
""blur"",""31"",""282173""
""focus"",""31"",""282272""
""blur"",""31"",""284379""
""focus"",""31"",""408329""
""blur"",""31"",""410708""
""focus"",""31"",""412591""
""blur"",""31"",""412858""
""focus"",""31"",""412998""
""blur"",""44"",""466549""
""focus"",""44"",""536870""
","""event"",""trial"",""time""
""blur"",""0"",""0""
""blur"",""0"",""0""
""blur"",""0"",""0""
""blur"",""0"",""0""
""blur"",""0"",""0""
""blur"",""0"",""0""
""blur"",""0"",""0""
""blur"",""0"",""0""
""blur"",""0"",""0""
""blur"",""0"",""0""
""blur"",""6"",""71479""
""blur"",""31"",""209165""
""blur"",""31"",""267976""
""blur"",""31"",""269951""
""blur"",""31"",""276401""
""blur"",""31"",""280897""
""blur"",""31"",""282173""
""blur"",""31"",""284379""
""blur"",""31"",""410708""
""blur"",""31"",""412858""
""blur"",""44"",""466549""
","""event"",""trial"",""time""
""focus"",""0"",""0""
""focus"",""0"",""0""
""focus"",""0"",""0""
""focus"",""0"",""0""
""focus"",""0"",""0""
""focus"",""0"",""0""
""focus"",""0"",""0""
""focus"",""0"",""0""
""focus"",""0"",""0""
""focus"",""1"",""24835""
""focus"",""6"",""131325""
""focus"",""31"",""264409""
""focus"",""31"",""269373""
""focus"",""31"",""274137""
""focus"",""31"",""276576""
""focus"",""31"",""280976""
""focus"",""31"",""282272""
""focus"",""31"",""408329""
""focus"",""31"",""412591""
""focus"",""31"",""412998""
""focus"",""44"",""536870""
","""event"",""trial"",""time""
""fullscreenenter"",""5"",""60043""
","""event"",""trial"",""time""
""fullscreenexit"",""6"",""65204""
","","","","","","","","","","","","","","","","","","","","","",""
"d3-instructions","49","543471","0.0-49.0","1184","1126","12","Male","true","false","false","false","""event"",""trial"",""time""
""blur"",""0"",""0""
""focus"",""0"",""0""
""blur"",""0"",""0""
""focus"",""0"",""0""
""blur"",""0"",""0""
""focus"",""0"",""0""
""blur"",""0"",""0""
""focus"",""0"",""0""
""blur"",""0"",""0""
""focus"",""0"",""0""
""blur"",""0"",""0""
""focus"",""0"",""0""
""blur"",""0"",""0""
""focus"",""0"",""0""
""blur"",""0"",""0""
""focus"",""0"",""0""
""blur"",""0"",""0""
""focus"",""0"",""0""
""blur"",""0"",""0""
""focus"",""1"",""24835""
""fullscreenenter"",""5"",""60043""
""fullscreenexit"",""6"",""65204""
""blur"",""6"",""71479""
""focus"",""6"",""131325""
""blur"",""31"",""209165""
""focus"",""31"",""264409""
""blur"",""31"",""267976""
""focus"",""31"",""269373""
""blur"",""31"",""269951""
""focus"",""31"",""274137""
""blur"",""31"",""276401""
""focus"",""31"",""276576""
""blur"",""31"",""280897""
""focus"",""31"",""280976""
""blur"",""31"",""282173""
""focus"",""31"",""282272""
""blur"",""31"",""284379""
""focus"",""31"",""408329""
""blur"",""31"",""410708""
""focus"",""31"",""412591""
""blur"",""31"",""412858""
""focus"",""31"",""412998""
""blur"",""44"",""466549""
""focus"",""44"",""536870""
","""event"",""trial"",""time""
""blur"",""0"",""0""
""blur"",""0"",""0""
""blur"",""0"",""0""
""blur"",""0"",""0""
""blur"",""0"",""0""
""blur"",""0"",""0""
""blur"",""0"",""0""
""blur"",""0"",""0""
""blur"",""0"",""0""
""blur"",""0"",""0""
""blur"",""6"",""71479""
""blur"",""31"",""209165""
""blur"",""31"",""267976""
""blur"",""31"",""269951""
""blur"",""31"",""276401""
""blur"",""31"",""280897""
""blur"",""31"",""282173""
""blur"",""31"",""284379""
""blur"",""31"",""410708""
""blur"",""31"",""412858""
""blur"",""44"",""466549""
","""event"",""trial"",""time""
""focus"",""0"",""0""
""focus"",""0"",""0""
""focus"",""0"",""0""
""focus"",""0"",""0""
""focus"",""0"",""0""
""focus"",""0"",""0""
""focus"",""0"",""0""
""focus"",""0"",""0""
""focus"",""0"",""0""
""focus"",""1"",""24835""
""focus"",""6"",""131325""
""focus"",""31"",""264409""
""focus"",""31"",""269373""
""focus"",""31"",""274137""
""focus"",""31"",""276576""
""focus"",""31"",""280976""
""focus"",""31"",""282272""
""focus"",""31"",""408329""
""focus"",""31"",""412591""
""focus"",""31"",""412998""
""focus"",""44"",""536870""
","""event"",""trial"",""time""
""fullscreenenter"",""5"",""60043""
","""event"",""trial"",""time""
""fullscreenexit"",""6"",""65204""
","","","","","","","","","","","","","","","","","","","","","",""
"d3-instructions","50","544274","0.0-50.0","1184","1126","12","Male","true","false","false","false","""event"",""trial"",""time""
""blur"",""0"",""0""
""focus"",""0"",""0""
""blur"",""0"",""0""
""focus"",""0"",""0""
""blur"",""0"",""0""
""focus"",""0"",""0""
""blur"",""0"",""0""
""focus"",""0"",""0""
""blur"",""0"",""0""
""focus"",""0"",""0""
""blur"",""0"",""0""
""focus"",""0"",""0""
""blur"",""0"",""0""
""focus"",""0"",""0""
""blur"",""0"",""0""
""focus"",""0"",""0""
""blur"",""0"",""0""
""focus"",""0"",""0""
""blur"",""0"",""0""
""focus"",""1"",""24835""
""fullscreenenter"",""5"",""60043""
""fullscreenexit"",""6"",""65204""
""blur"",""6"",""71479""
""focus"",""6"",""131325""
""blur"",""31"",""209165""
""focus"",""31"",""264409""
""blur"",""31"",""267976""
""focus"",""31"",""269373""
""blur"",""31"",""269951""
""focus"",""31"",""274137""
""blur"",""31"",""276401""
""focus"",""31"",""276576""
""blur"",""31"",""280897""
""focus"",""31"",""280976""
""blur"",""31"",""282173""
""focus"",""31"",""282272""
""blur"",""31"",""284379""
""focus"",""31"",""408329""
""blur"",""31"",""410708""
""focus"",""31"",""412591""
""blur"",""31"",""412858""
""focus"",""31"",""412998""
""blur"",""44"",""466549""
""focus"",""44"",""536870""
","""event"",""trial"",""time""
""blur"",""0"",""0""
""blur"",""0"",""0""
""blur"",""0"",""0""
""blur"",""0"",""0""
""blur"",""0"",""0""
""blur"",""0"",""0""
""blur"",""0"",""0""
""blur"",""0"",""0""
""blur"",""0"",""0""
""blur"",""0"",""0""
""blur"",""6"",""71479""
""blur"",""31"",""209165""
