"trial_type","trial_index","time_elapsed","internal_node_id","participant_id","subject_id","age","gender","rocket_sides","red_planet_first_rocket","red_display_order","purple_display_order","interactions","blur_events","focus_events","fullscreenenter_events","fullscreenexit_events","rt","stimulus","key_press","button_pressed","success","duration","valid_pressed","rts","keys","planet_text","right_text","left_text","center_text","chosen_text","reward_text","trial_stage","practice_trial","transition_type","choice","transition","reward","timestamp"
"pavlovia","0","5","0.0-0.0","672","1206","13","Female","false","true","true","false","
","
","
","
","
","","","","","","","","","","","","","","","","","","","","","",""
"html-keyboard-response","1","6926","0.0-1.0","672","1206","13","Female","false","true","true","false","
","
","
","
","
","6919","Welcome! Press the space bar to begin.","32","","","","","","","","","","","","","","","","","","",""
"audio-keyboard-response","2","9238","0.0-2.0","672","1206","13","Female","false","true","true","false","""event"",""trial"",""time""
""blur"",""3"",""16261""
""focus"",""3"",""18855""
","""event"",""trial"",""time""
""blur"",""3"",""16261""
","""event"",""trial"",""time""
""focus"",""3"",""18855""
","
","
","2309","audio/beep_loop.wav","32","","","","","","","","","","","","","","","","","","",""
"audio-button-response","3","22071","0.0-3.0","672","1206","13","Female","false","true","true","false","""event"",""trial"",""time""
""blur"",""3"",""16261""
""focus"",""3"",""18855""
","""event"",""trial"",""time""
""blur"",""3"",""16261""
","""event"",""trial"",""time""
""focus"",""3"",""18855""
","
","
","NaN","audio/fish.mp3","","1","","","","","","","","","","","","","","","","","",""
"audio-button-response","4","24997","0.0-4.0","672","1206","13","Female","false","true","true","false","""event"",""trial"",""time""
""blur"",""3"",""16261""
""focus"",""3"",""18855""
""fullscreenenter"",""5"",""30727""
","""event"",""trial"",""time""
""blur"",""3"",""16261""
","""event"",""trial"",""time""
""focus"",""3"",""18855""
","""event"",""trial"",""time""
""fullscreenenter"",""5"",""30727""
","
","NaN","audio/tiger.mp3","","4","","","","","","","","","","","","","","","","","",""
"fullscreen","5","31393","0.0-5.0","672","1206","13","Female","false","true","true","false","""event"",""trial"",""time""
""blur"",""3"",""16261""
""focus"",""3"",""18855""
""fullscreenenter"",""5"",""30727""
","""event"",""trial"",""time""
""blur"",""3"",""16261""
","""event"",""trial"",""time""
""focus"",""3"",""18855""
","""event"",""trial"",""time""
""fullscreenenter"",""5"",""30727""
","
","","","","","true","","","","","","","","","","","","","","","","",""
"d3-instructions","6","44814","0.0-6.0","672","1206","13","Female","false","true","true","false","""event"",""trial"",""time""
""blur"",""3"",""16261""
""focus"",""3"",""18855""
""fullscreenenter"",""5"",""30727""
","""event"",""trial"",""time""
""blur"",""3"",""16261""
","""event"",""trial"",""time""
""focus"",""3"",""18855""
","""event"",""trial"",""time""
""fullscreenenter"",""5"",""30727""
","
","","","","","","","","","","","","","","","","","","","","","",""
"d3-instructions","7","54197","0.0-7.0","672","1206","13","Female","false","true","true","false","""event"",""trial"",""time""
""blur"",""3"",""16261""
""focus"",""3"",""18855""
""fullscreenenter"",""5"",""30727""
","""event"",""trial"",""time""
""blur"",""3"",""16261""
","""event"",""trial"",""time""
""focus"",""3"",""18855""
","""event"",""trial"",""time""
""fullscreenenter"",""5"",""30727""
","
","","","","","","","","","","","","","","","","","","","","","",""
"d3-instructions","8","63005","0.0-8.0","672","1206","13","Female","false","true","true","false","""event"",""trial"",""time""
""blur"",""3"",""16261""
""focus"",""3"",""18855""
""fullscreenenter"",""5"",""30727""
","""event"",""trial"",""time""
""blur"",""3"",""16261""
","""event"",""trial"",""time""
""focus"",""3"",""18855""
","""event"",""trial"",""time""
""fullscreenenter"",""5"",""30727""
","
","","","","","","","","","","","","","","","","","","","","","",""
"d3-instructions","9","75221","0.0-9.0","672","1206","13","Female","false","true","true","false","""event"",""trial"",""time""
""blur"",""3"",""16261""
""focus"",""3"",""18855""
""fullscreenenter"",""5"",""30727""
","""event"",""trial"",""time""
""blur"",""3"",""16261""
","""event"",""trial"",""time""
""focus"",""3"",""18855""
","""event"",""trial"",""time""
""fullscreenenter"",""5"",""30727""
","
","","","","","","","","","","","","","","","","","","","","","",""
"d3-instructions","10","94197","0.0-10.0","672","1206","13","Female","false","true","true","false","""event"",""trial"",""time""
""blur"",""3"",""16261""
""focus"",""3"",""18855""
""fullscreenenter"",""5"",""30727""
","""event"",""trial"",""time""
""blur"",""3"",""16261""
","""event"",""trial"",""time""
""focus"",""3"",""18855""
","""event"",""trial"",""time""
""fullscreenenter"",""5"",""30727""
","
","","","","","","","","","","","","","","","","","","","","","",""
"d3-animate-choice","11","96416","0.0-11.0","672","1206","13","Female","false","true","true","false","""event"",""trial"",""time""
""blur"",""3"",""16261""
""focus"",""3"",""18855""
""fullscreenenter"",""5"",""30727""
","""event"",""trial"",""time""
""blur"",""3"",""16261""
","""event"",""trial"",""time""
""focus"",""3"",""18855""
","""event"",""trial"",""time""
""fullscreenenter"",""5"",""30727""
","
","215","","48","","","3000","1","2198","49","images/tutgreenplanet.jpg","images/tutalien1","images/tutalien2","null","images/tutalien1","","NA","practice","null","","","",""
"d3-animate-choice","12","100025","0.0-12.0","672","1206","13","Female","false","true","true","false","""event"",""trial"",""time""
""blur"",""3"",""16261""
""focus"",""3"",""18855""
""fullscreenenter"",""5"",""30727""
","""event"",""trial"",""time""
""blur"",""3"",""16261""
","""event"",""trial"",""time""
""focus"",""3"",""18855""
","""event"",""trial"",""time""
""fullscreenenter"",""5"",""30727""
","
","1597","","49","","","3000","1","","","images/tutgreenplanet.jpg","images/tutalien1","images/tutalien2","null","images/tutalien2","","NA","practice","null","","","",""
"d3-animate-choice","13","103399","0.0-13.0","672","1206","13","Female","false","true","true","false","""event"",""trial"",""time""
""blur"",""3"",""16261""
""focus"",""3"",""18855""
""fullscreenenter"",""5"",""30727""
","""event"",""trial"",""time""
""blur"",""3"",""16261""
","""event"",""trial"",""time""
""focus"",""3"",""18855""
","""event"",""trial"",""time""
""fullscreenenter"",""5"",""30727""
","
","1371","","48","","","3000","1","","","images/tutgreenplanet.jpg","images/tutalien1","images/tutalien2","null","images/tutalien1","","NA","practice","null","","","",""
"d3-animate-choice","14","106315","0.0-14.0","672","1206","13","Female","false","true","true","false","""event"",""trial"",""time""
""blur"",""3"",""16261""
""focus"",""3"",""18855""
""fullscreenenter"",""5"",""30727""
","""event"",""trial"",""time""
""blur"",""3"",""16261""
","""event"",""trial"",""time""
""focus"",""3"",""18855""
","""event"",""trial"",""time""
""fullscreenenter"",""5"",""30727""
","
","910","","49","","","3000","1","","","images/tutgreenplanet.jpg","images/tutalien1","images/tutalien2","null","images/tutalien2","","NA","practice","null","","","",""
"d3-instructions","15","113614","0.0-15.0","672","1206","13","Female","false","true","true","false","""event"",""trial"",""time""
""blur"",""3"",""16261""
""focus"",""3"",""18855""
""fullscreenenter"",""5"",""30727""
","""event"",""trial"",""time""
""blur"",""3"",""16261""
","""event"",""trial"",""time""
""focus"",""3"",""18855""
","""event"",""trial"",""time""
""fullscreenenter"",""5"",""30727""
","
","","","","","","","","","","","","","","","","","","","","","",""
"d3-instructions","16","120989","0.0-16.0","672","1206","13","Female","false","true","true","false","""event"",""trial"",""time""
""blur"",""3"",""16261""
""focus"",""3"",""18855""
""fullscreenenter"",""5"",""30727""
","""event"",""trial"",""time""
""blur"",""3"",""16261""
","""event"",""trial"",""time""
""focus"",""3"",""18855""
","""event"",""trial"",""time""
""fullscreenenter"",""5"",""30727""
","
","","","","","","","","","","","","","","","","","","","","","",""
"d3-instructions","17","129605","0.0-17.0","672","1206","13","Female","false","true","true","false","""event"",""trial"",""time""
""blur"",""3"",""16261""
""focus"",""3"",""18855""
""fullscreenenter"",""5"",""30727""
","""event"",""trial"",""time""
""blur"",""3"",""16261""
","""event"",""trial"",""time""
""focus"",""3"",""18855""
","""event"",""trial"",""time""
""fullscreenenter"",""5"",""30727""
","
","","","","","","","","","","","","","","","","","","","","","",""
"d3-instructions","18","143205","0.0-18.0","672","1206","13","Female","false","true","true","false","""event"",""trial"",""time""
""blur"",""3"",""16261""
""focus"",""3"",""18855""
""fullscreenenter"",""5"",""30727""
","""event"",""trial"",""time""
""blur"",""3"",""16261""
","""event"",""trial"",""time""
""focus"",""3"",""18855""
","""event"",""trial"",""time""
""fullscreenenter"",""5"",""30727""
","
","","","","","","","","","","","","","","","","","","","","","",""
"d3-instructions","19","158494","0.0-19.0","672","1206","13","Female","false","true","true","false","""event"",""trial"",""time""
""blur"",""3"",""16261""
""focus"",""3"",""18855""
""fullscreenenter"",""5"",""30727""
","""event"",""trial"",""time""
""blur"",""3"",""16261""
","""event"",""trial"",""time""
""focus"",""3"",""18855""
","""event"",""trial"",""time""
""fullscreenenter"",""5"",""30727""
","
","","","","","","","","","","","","","","","","","","","","","",""
"d3-animate-choice","20","161763","0.0-20.0","672","1206","13","Female","false","true","true","false","""event"",""trial"",""time""
""blur"",""3"",""16261""
""focus"",""3"",""18855""
""fullscreenenter"",""5"",""30727""
","""event"",""trial"",""time""
""blur"",""3"",""16261""
","""event"",""trial"",""time""
""focus"",""3"",""18855""
","""event"",""trial"",""time""
""fullscreenenter"",""5"",""30727""
","
","1255","","49","","","3000","1","2016","49","images/tutyellowplanet.jpg","null","images/tutalien3","null","images/tutalien3","images/nothing.png","NA","practice","null","","","",""
"d3-animate-choice","21","164114","0.0-21.0","672","1206","13","Female","false","true","true","false","""event"",""trial"",""time""
""blur"",""3"",""16261""
""focus"",""3"",""18855""
""fullscreenenter"",""5"",""30727""
","""event"",""trial"",""time""
""blur"",""3"",""16261""
","""event"",""trial"",""time""
""focus"",""3"",""18855""
","""event"",""trial"",""time""
""fullscreenenter"",""5"",""30727""
","
","346","","49","","","3000","1","2139","49","images/tutyellowplanet.jpg","null","images/tutalien3","null","images/tutalien3","images/nothing.png","NA","practice","null","","","",""
"d3-animate-choice","22","167633","0.0-22.0","672","1206","13","Female","false","true","true","false","""event"",""trial"",""time""
""blur"",""3"",""16261""
""focus"",""3"",""18855""
""fullscreenenter"",""5"",""30727""
","""event"",""trial"",""time""
""blur"",""3"",""16261""
","""event"",""trial"",""time""
""focus"",""3"",""18855""
","""event"",""trial"",""time""
""fullscreenenter"",""5"",""30727""
","
","1506","","49","","","3000","1","2763","49","images/tutyellowplanet.jpg","null","images/tutalien3","null","images/tutalien3","images/t.png","NA","practice","null","","","",""
"d3-animate-choice","23","170201","0.0-23.0","672","1206","13","Female","false","true","true","false","""event"",""trial"",""time""
""blur"",""3"",""16261""
""focus"",""3"",""18855""
""fullscreenenter"",""5"",""30727""
","""event"",""trial"",""time""
""blur"",""3"",""16261""
","""event"",""trial"",""time""
""focus"",""3"",""18855""
","""event"",""trial"",""time""
""fullscreenenter"",""5"",""30727""
","
","556","","49","","","3000","1","2276","49","images/tutyellowplanet.jpg","null","images/tutalien3","null","images/tutalien3","images/t.png","NA","practice","null","","","",""
"d3-animate-choice","24","172746","0.0-24.0","672","1206","13","Female","false","true","true","false","""event"",""trial"",""time""
""blur"",""3"",""16261""
""focus"",""3"",""18855""
""fullscreenenter"",""5"",""30727""
","""event"",""trial"",""time""
""blur"",""3"",""16261""
","""event"",""trial"",""time""
""focus"",""3"",""18855""
","""event"",""trial"",""time""
""fullscreenenter"",""5"",""30727""
","
","531","","49","","","3000","1","","","images/tutyellowplanet.jpg","null","images/tutalien3","null","images/tutalien3","images/nothing.png","NA","practice","null","","","",""
"d3-animate-choice","25","175315","0.0-25.0","672","1206","13","Female","false","true","true","false","""event"",""trial"",""time""
""blur"",""3"",""16261""
""focus"",""3"",""18855""
""fullscreenenter"",""5"",""30727""
","""event"",""trial"",""time""
""blur"",""3"",""16261""
","""event"",""trial"",""time""
""focus"",""3"",""18855""
","""event"",""trial"",""time""
""fullscreenenter"",""5"",""30727""
","
","562","","49","","","3000","1","1155,2363","49,49","images/tutyellowplanet.jpg","null","images/tutalien3","null","images/tutalien3","images/t.png","NA","practice","null","","","",""
"d3-animate-choice","26","179073","0.0-26.0","672","1206","13","Female","false","true","true","false","""event"",""trial"",""time""
""blur"",""3"",""16261""
""focus"",""3"",""18855""
""fullscreenenter"",""5"",""30727""
","""event"",""trial"",""time""
""blur"",""3"",""16261""
","""event"",""trial"",""time""
""focus"",""3"",""18855""
","""event"",""trial"",""time""
""fullscreenenter"",""5"",""30727""
","
","1745","","49","","","3000","1","2266,2993","49,49","images/tutyellowplanet.jpg","null","images/tutalien3","null","images/tutalien3","images/t.png","NA","practice","null","","","",""
"d3-animate-choice","27","181789","0.0-27.0","672","1206","13","Female","false","true","true","false","""event"",""trial"",""time""
""blur"",""3"",""16261""
""focus"",""3"",""18855""
""fullscreenenter"",""5"",""30727""
","""event"",""trial"",""time""
""blur"",""3"",""16261""
","""event"",""trial"",""time""
""focus"",""3"",""18855""
","""event"",""trial"",""time""
""fullscreenenter"",""5"",""30727""
","
","708","","49","","","3000","1","1292,2516","49,49","images/tutyellowplanet.jpg","null","images/tutalien3","null","images/tutalien3","images/t.png","NA","practice","null","","","",""
"d3-animate-choice","28","186230","0.0-28.0","672","1206","13","Female","false","true","true","false","""event"",""trial"",""time""
""blur"",""3"",""16261""
""focus"",""3"",""18855""
""fullscreenenter"",""5"",""30727""
","""event"",""trial"",""time""
""blur"",""3"",""16261""
","""event"",""trial"",""time""
""focus"",""3"",""18855""
","""event"",""trial"",""time""
""fullscreenenter"",""5"",""30727""
","
","2432","","49","","","3000","1","","","images/tutyellowplanet.jpg","null","images/tutalien3","null","images/tutalien3","images/t.png","NA","practice","null","","","",""
"d3-animate-choice","29","188797","0.0-29.0","672","1206","13","Female","false","true","true","false","""event"",""trial"",""time""
""blur"",""3"",""16261""
""focus"",""3"",""18855""
""fullscreenenter"",""5"",""30727""
","""event"",""trial"",""time""
""blur"",""3"",""16261""
","""event"",""trial"",""time""
""focus"",""3"",""18855""
","""event"",""trial"",""time""
""fullscreenenter"",""5"",""30727""
","
","557","","49","","","3000","1","","","images/tutyellowplanet.jpg","null","images/tutalien3","null","images/tutalien3","images/t.png","NA","practice","null","","","",""
"d3-instructions","30","196261","0.0-30.0","672","1206","13","Female","false","true","true","false","""event"",""trial"",""time""
""blur"",""3"",""16261""
""focus"",""3"",""18855""
""fullscreenenter"",""5"",""30727""
","""event"",""trial"",""time""
""blur"",""3"",""16261""
","""event"",""trial"",""time""
""focus"",""3"",""18855""
","""event"",""trial"",""time""
""fullscreenenter"",""5"",""30727""
","
","","","","","","","","","","","","","","","","","","","","","",""
"d3-instructions","31","206781","0.0-31.0","672","1206","13","Female","false","true","true","false","""event"",""trial"",""time""
""blur"",""3"",""16261""
""focus"",""3"",""18855""
""fullscreenenter"",""5"",""30727""
","""event"",""trial"",""time""
""blur"",""3"",""16261""
","""event"",""trial"",""time""
""focus"",""3"",""18855""
","""event"",""trial"",""time""
""fullscreenenter"",""5"",""30727""
","
","","","","","","","","","","","","","","","","","","","","","",""
"d3-instructions","32","216621","0.0-32.0","672","1206","13","Female","false","true","true","false","""event"",""trial"",""time""
""blur"",""3"",""16261""
""focus"",""3"",""18855""
""fullscreenenter"",""5"",""30727""
","""event"",""trial"",""time""
""blur"",""3"",""16261""
","""event"",""trial"",""time""
""focus"",""3"",""18855""
","""event"",""trial"",""time""
""fullscreenenter"",""5"",""30727""
","
","","","","","","","","","","","","","","","","","","","","","",""
"d3-instructions","33","227437","0.0-33.0","672","1206","13","Female","false","true","true","false","""event"",""trial"",""time""
""blur"",""3"",""16261""
""focus"",""3"",""18855""
""fullscreenenter"",""5"",""30727""
","""event"",""trial"",""time""
""blur"",""3"",""16261""
","""event"",""trial"",""time""
""focus"",""3"",""18855""
","""event"",""trial"",""time""
""fullscreenenter"",""5"",""30727""
","
","","","","","","","","","","","","","","","","","","","","","",""
"d3-animate-choice","34","231149","0.0-34.0","672","1206","13","Female","false","true","true","false","""event"",""trial"",""time""
""blur"",""3"",""16261""
""focus"",""3"",""18855""
""fullscreenenter"",""5"",""30727""
","""event"",""trial"",""time""
""blur"",""3"",""16261""
","""event"",""trial"",""time""
""focus"",""3"",""18855""
","""event"",""trial"",""time""
""fullscreenenter"",""5"",""30727""
","
","1702","","48","","","3000","1","","","images/tutgreenplanet.jpg","images/tutalien1","images/tutalien2","null","images/tutalien1","images/nothing.png","NA","practice","null","","","",""
"d3-animate-choice","35","233659","0.0-35.0","672","1206","13","Female","false","true","true","false","""event"",""trial"",""time""
""blur"",""3"",""16261""
""focus"",""3"",""18855""
""fullscreenenter"",""5"",""30727""
","""event"",""trial"",""time""
""blur"",""3"",""16261""
","""event"",""trial"",""time""
""focus"",""3"",""18855""
","""event"",""trial"",""time""
""fullscreenenter"",""5"",""30727""
","
","504","","49","","","3000","1","","","images/tutgreenplanet.jpg","images/tutalien1","images/tutalien2","null","images/tutalien2","images/t.png","NA","practice","null","","","",""
"d3-animate-choice","36","236197","0.0-36.0","672","1206","13","Female","false","true","true","false","""event"",""trial"",""time""
""blur"",""3"",""16261""
""focus"",""3"",""18855""
""fullscreenenter"",""5"",""30727""
","""event"",""trial"",""time""
""blur"",""3"",""16261""
","""event"",""trial"",""time""
""focus"",""3"",""18855""
","""event"",""trial"",""time""
""fullscreenenter"",""5"",""30727""
","
","530","","49","","","3000","1","","","images/tutgreenplanet.jpg","images/tutalien1","images/tutalien2","null","images/tutalien2","images/t.png","NA","practice","null","","","",""
"d3-animate-choice","37","238786","0.0-37.0","672","1206","13","Female","false","true","true","false","""event"",""trial"",""time""
""blur"",""3"",""16261""
""focus"",""3"",""18855""
""fullscreenenter"",""5"",""30727""
","""event"",""trial"",""time""
""blur"",""3"",""16261""
","""event"",""trial"",""time""
""focus"",""3"",""18855""
","""event"",""trial"",""time""
""fullscreenenter"",""5"",""30727""
","
","583","","49","","","3000","1","","","images/tutgreenplanet.jpg","images/tutalien1","images/tutalien2","null","images/tutalien2","images/t.png","NA","practice","null","","","",""
"d3-animate-choice","38","241293","0.0-38.0","672","1206","13","Female","false","true","true","false","""event"",""trial"",""time""
""blur"",""3"",""16261""
""focus"",""3"",""18855""
""fullscreenenter"",""5"",""30727""
","""event"",""trial"",""time""
""blur"",""3"",""16261""
","""event"",""trial"",""time""
""focus"",""3"",""18855""
","""event"",""trial"",""time""
""fullscreenenter"",""5"",""30727""
","
","498","","49","","","3000","1","","","images/tutgreenplanet.jpg","images/tutalien1","images/tutalien2","null","images/tutalien2","images/t.png","NA","practice","null","","","",""
"d3-animate-choice","39","243697","0.0-39.0","672","1206","13","Female","false","true","true","false","""event"",""trial"",""time""
""blur"",""3"",""16261""
""focus"",""3"",""18855""
""fullscreenenter"",""5"",""30727""
","""event"",""trial"",""time""
""blur"",""3"",""16261""
","""event"",""trial"",""time""
""focus"",""3"",""18855""
","""event"",""trial"",""time""
""fullscreenenter"",""5"",""30727""
","
","392","","49","","","3000","1","","","images/tutgreenplanet.jpg","images/tutalien1","images/tutalien2","null","images/tutalien2","images/t.png","NA","practice","null","","","",""
"d3-animate-choice","40","246110","0.0-40.0","672","1206","13","Female","false","true","true","false","""event"",""trial"",""time""
""blur"",""3"",""16261""
""focus"",""3"",""18855""
""fullscreenenter"",""5"",""30727""
","""event"",""trial"",""time""
""blur"",""3"",""16261""
","""event"",""trial"",""time""
""focus"",""3"",""18855""
","""event"",""trial"",""time""
""fullscreenenter"",""5"",""30727""
","
","411","","49","","","3000","1","","","images/tutgreenplanet.jpg","images/tutalien1","images/tutalien2","null","images/tutalien2","images/t.png","NA","practice","null","","","",""
"d3-animate-choice","41","248462","0.0-41.0","672","1206","13","Female","false","true","true","false","""event"",""trial"",""time""
""blur"",""3"",""16261""
""focus"",""3"",""18855""
""fullscreenenter"",""5"",""30727""
","""event"",""trial"",""time""
""blur"",""3"",""16261""
","""event"",""trial"",""time""
""focus"",""3"",""18855""
","""event"",""trial"",""time""
""fullscreenenter"",""5"",""30727""
","
","342","","49","","","3000","1","","","images/tutgreenplanet.jpg","images/tutalien1","images/tutalien2","null","images/tutalien2","images/t.png","NA","practice","null","","","",""
"d3-animate-choice","42","250943","0.0-42.0","672","1206","13","Female","false","true","true","false","""event"",""trial"",""time""
""blur"",""3"",""16261""
""focus"",""3"",""18855""
""fullscreenenter"",""5"",""30727""
","""event"",""trial"",""time""
""blur"",""3"",""16261""
","""event"",""trial"",""time""
""focus"",""3"",""18855""
","""event"",""trial"",""time""
""fullscreenenter"",""5"",""30727""
","
","478","","49","","","3000","1","","","images/tutgreenplanet.jpg","images/tutalien1","images/tutalien2","null","images/tutalien2","images/t.png","NA","practice","null","","","",""
"d3-animate-choice","43","253266","0.0-43.0","672","1206","13","Female","false","true","true","false","""event"",""trial"",""time""
""blur"",""3"",""16261""
""focus"",""3"",""18855""
""fullscreenenter"",""5"",""30727""
","""event"",""trial"",""time""
""blur"",""3"",""16261""
","""event"",""trial"",""time""
""focus"",""3"",""18855""
","""event"",""trial"",""time""
""fullscreenenter"",""5"",""30727""
","
","308","","49","","","3000","1","","","images/tutgreenplanet.jpg","images/tutalien1","images/tutalien2","null","images/tutalien2","images/t.png","NA","practice","null","","","",""
"d3-instructions","44","266628","0.0-44.0","672","1206","13","Female","false","true","true","false","""event"",""trial"",""time""
""blur"",""3"",""16261""
""focus"",""3"",""18855""
""fullscreenenter"",""5"",""30727""
","""event"",""trial"",""time""
""blur"",""3"",""16261""
","""event"",""trial"",""time""
""focus"",""3"",""18855""
","""event"",""trial"",""time""
""fullscreenenter"",""5"",""30727""
","
","","","","","","","","","","","","","","","","","","","","","",""
"d3-instructions","45","273197","0.0-45.0","672","1206","13","Female","false","true","true","false","""event"",""trial"",""time""
""blur"",""3"",""16261""
""focus"",""3"",""18855""
""fullscreenenter"",""5"",""30727""
","""event"",""trial"",""time""
""blur"",""3"",""16261""
","""event"",""trial"",""time""
""focus"",""3"",""18855""
","""event"",""trial"",""time""
""fullscreenenter"",""5"",""30727""
","
","","","","","","","","","","","","","","","","","","","","","",""
"d3-instructions","46","278453","0.0-46.0","672","1206","13","Female","false","true","true","false","""event"",""trial"",""time""
""blur"",""3"",""16261""
""focus"",""3"",""18855""
""fullscreenenter"",""5"",""30727""
","""event"",""trial"",""time""
""blur"",""3"",""16261""
","""event"",""trial"",""time""
""focus"",""3"",""18855""
","""event"",""trial"",""time""
""fullscreenenter"",""5"",""30727""
","
","","","","","","","","","","","","","","","","","","","","","",""
"d3-instructions","47","295213","0.0-47.0","672","1206","13","Female","false","true","true","false","""event"",""trial"",""time""
""blur"",""3"",""16261""
""focus"",""3"",""18855""
""fullscreenenter"",""5"",""30727""
","""event"",""trial"",""time""
""blur"",""3"",""16261""
","""event"",""trial"",""time""
""focus"",""3"",""18855""
","""event"",""trial"",""time""
""fullscreenenter"",""5"",""30727""
","
","","","","","","","","","","","","","","","","","","","","","",""
"d3-instructions","48","303221","0.0-48.0","672","1206","13","Female","false","true","true","false","""event"",""trial"",""time""
""blur"",""3"",""16261""
""focus"",""3"",""18855""
""fullscreenenter"",""5"",""30727""
","""event"",""trial"",""time""
""blur"",""3"",""16261""
","""event"",""trial"",""time""
""focus"",""3"",""18855""
","""event"",""trial"",""time""
""fullscreenenter"",""5"",""30727""
","
","","","","","","","","","","","","","","","","","","","","","",""
"d3-instructions","49","315653","0.0-49.0","672","1206","13","Female","false","true","true","false","""event"",""trial"",""time""
""blur"",""3"",""16261""
""focus"",""3"",""18855""
""fullscreenenter"",""5"",""30727""
","""event"",""trial"",""time""
""blur"",""3"",""16261""
","""event"",""trial"",""time""
""focus"",""3"",""18855""
","""event"",""trial"",""time""
""fullscreenenter"",""5"",""30727""
","
","","","","","","","","","","","","","","","","","","","","","",""
"d3-instructions","50","325796","0.0-50.0","672","1206","13","Female","false","true","true","false","""event"",""trial"",""time""
""blur"",""3"",""16261""
""focus"",""3"",""18855""
""fullscreenenter"",""5"",""30727""
","""event"",""trial"",""time""
""blur"",""3"",""16261""
","""event"",""trial"",""time""
""focus"",""3"",""18855""
","""event"",""trial"",""time""
""fullscreenenter"",""5"",""30727""
","
","","","","","","","","","","","","","","","","","","","","","",""
"d3-instructions","51","330429","0.0-51.0","672","1206","13","Female","false","true","true","false","""event"",""trial"",""time""
""blur"",""3"",""16261""
""focus"",""3"",""18855""
""fullscreenenter"",""5"",""30727""
","""event"",""trial"",""time""
""blur"",""3"",""16261""
","""event"",""trial"",""time""
""focus"",""3"",""18855""
","""event"",""trial"",""time""
""fullscreenenter"",""5"",""30727""
","
","","","","","","","","","","","","","","","","","","","","","",""
"d3-instructions","52","332765","0.0-52.0","672","1206","13","Female","false","true","true","false","""event"",""trial"",""time""
""blur"",""3"",""16261""
""focus"",""3"",""18855""
""fullscreenenter"",""5"",""30727""
","""event"",""trial"",""time""
""blur"",""3"",""16261""
","""event"",""trial"",""time""
""focus"",""3"",""18855""
","""event"",""trial"",""time""
""fullscreenenter"",""5"",""30727""
","
","","","","","","","","","","","","","","","","","","","","","",""
"d3-instructions","53","348381","0.0-53.0","672","1206","13","Female","false","true","true","false","""event"",""trial"",""time""
""blur"",""3"",""16261""
""focus"",""3"",""18855""
""fullscreenenter"",""5"",""30727""
","""event"",""trial"",""time""
""blur"",""3"",""16261""
","""event"",""trial"",""time""
""focus"",""3"",""18855""
","""event"",""trial"",""time""
""fullscreenenter"",""5"",""30727""
","
","","","","","","","","","","","","","","","","","","","","","",""
"d3-instructions","54","362301","0.0-54.0","672","1206","13","Female","false","true","true","false","""event"",""trial"",""time""
""blur"",""3"",""16261""
""focus"",""3"",""18855""
""fullscreenenter"",""5"",""30727""
","""event"",""trial"",""time""
""blur"",""3"",""16261""
","""event"",""trial"",""time""
""focus"",""3"",""18855""
","""event"",""trial"",""time""
""fullscreenenter"",""5"",""30727""
","
","","","","","","","","","","","","","","","","","","","","","",""
"d3-instructions","55","375197","0.0-55.0","672","1206","13","Female","false","true","true","false","""event"",""trial"",""time""
""blur"",""3"",""16261""
""focus"",""3"",""18855""
""fullscreenenter"",""5"",""30727""
","""event"",""trial"",""time""
""blur"",""3"",""16261""
","""event"",""trial"",""time""
""focus"",""3"",""18855""
","""event"",""trial"",""time""
""fullscreenenter"",""5"",""30727""
","
","","","","","","","","","","","","","","","","","","","","","",""
"d3-instructions","56","385789","0.0-56.0","672","1206","13","Female","false","true","true","false","""event"",""trial"",""time""
""blur"",""3"",""16261""
""focus"",""3"",""18855""
""fullscreenenter"",""5"",""30727""
","""event"",""trial"",""time""
""blur"",""3"",""16261""
","""event"",""trial"",""time""
""focus"",""3"",""18855""
","""event"",""trial"",""time""
""fullscreenenter"",""5"",""30727""
","
","","","","","","","","","","","","","","","","","","","","","",""
"d3-instructions","57","396149","0.0-57.0","672","1206","13","Female","false","true","true","false","""event"",""trial"",""time""
""blur"",""3"",""16261""
""focus"",""3"",""18855""
""fullscreenenter"",""5"",""30727""
","""event"",""trial"",""time""
""blur"",""3"",""16261""
","""event"",""trial"",""time""
""focus"",""3"",""18855""
","""event"",""trial"",""time""
""fullscreenenter"",""5"",""30727""
","
","","","","","","","","","","","","","","","","","","","","","",""
"d3-instructions","58","408341","0.0-58.0","672","1206","13","Female","false","true","true","false","""event"",""trial"",""time""
""blur"",""3"",""16261""
""focus"",""3"",""18855""
""fullscreenenter"",""5"",""30727""
","""event"",""trial"",""time""
""blur"",""3"",""16261""
","""event"",""trial"",""time""
""focus"",""3"",""18855""
","""event"",""trial"",""time""
""fullscreenenter"",""5"",""30727""
","
","","","","","","","","","","","","","","","","","","","","","",""
"d3-instructions","59","413893","0.0-59.0","672","1206","13","Female","false","true","true","false","""event"",""trial"",""time""
""blur"",""3"",""16261""
""focus"",""3"",""18855""
""fullscreenenter"",""5"",""30727""
","""event"",""trial"",""time""
""blur"",""3"",""16261""
","""event"",""trial"",""time""
""focus"",""3"",""18855""
","""event"",""trial"",""time""
""fullscreenenter"",""5"",""30727""
","
","","","","","","","","","","","","","","","","","","","","","",""
"d3-instructions","60","420741","0.0-60.0","672","1206","13","Female","false","true","true","false","""event"",""trial"",""time""
""blur"",""3"",""16261""
""focus"",""3"",""18855""
""fullscreenenter"",""5"",""30727""
","""event"",""trial"",""time""
""blur"",""3"",""16261""
","""event"",""trial"",""time""
""focus"",""3"",""18855""
","""event"",""trial"",""time""
""fullscreenenter"",""5"",""30727""
","
","","","","","","","","","","","","","","","","","","","","","",""
"d3-animate-choice","61","424760","0.0-61.0-0.0","672","1206","13","Female","false","true","true","false","""event"",""trial"",""time""
""blur"",""3"",""16261""
""focus"",""3"",""18855""
""fullscreenenter"",""5"",""30727""
","""event"",""trial"",""time""
""blur"",""3"",""16261""
","""event"",""trial"",""time""
""focus"",""3"",""18855""
","""event"",""trial"",""time""
""fullscreenenter"",""5"",""30727""
","
","2014","","49","","","3000","1","","","images/earth.jpg","images/tutrocket1","images/tutrocket2","null","images/tutrocket2","","1","practice","null","1","","",""
"d3-animate-choice","62","427643","0.0-61.0-1.0","672","1206","13","Female","false","true","true","false","""event"",""trial"",""time""
""blur"",""3"",""16261""
""focus"",""3"",""18855""
""fullscreenenter"",""5"",""30727""
","""event"",""trial"",""time""
""blur"",""3"",""16261""
","""event"",""trial"",""time""
""focus"",""3"",""18855""
","""event"",""trial"",""time""
""fullscreenenter"",""5"",""30727""
","
","875","","48","","","3000","1","","","images/tutyellowplanet.jpg","images/tutalien4","images/tutalien3","images/tutrocket2","images/tutalien4","images/nothing.png","2","practice","true","2","common","0","2022-03-18 00:09:32.470"
"two-step-fixation","63","428645","0.0-61.0-2.0","672","1206","13","Female","false","true","true","false","""event"",""trial"",""time""
""blur"",""3"",""16261""
""focus"",""3"",""18855""
""fullscreenenter"",""5"",""30727""
","""event"",""trial"",""time""
""blur"",""3"",""16261""
","""event"",""trial"",""time""
""focus"",""3"",""18855""
","""event"",""trial"",""time""
""fullscreenenter"",""5"",""30727""
","
","","images/earth.jpg","","","","","","","","","","","","","","fixation","","","","","",""
"d3-animate-choice","64","430895","0.0-61.0-0.1","672","1206","13","Female","false","true","true","false","""event"",""trial"",""time""
""blur"",""3"",""16261""
""focus"",""3"",""18855""
""fullscreenenter"",""5"",""30727""
","""event"",""trial"",""time""
""blur"",""3"",""16261""
","""event"",""trial"",""time""
""focus"",""3"",""18855""
","""event"",""trial"",""time""
""fullscreenenter"",""5"",""30727""
","
","247","","49","","","3000","1","","","images/earth.jpg","images/tutrocket1","images/tutrocket2","null","images/tutrocket2","","1","practice","null","1","","",""
"d3-animate-choice","65","433669","0.0-61.0-1.1","672","1206","13","Female","false","true","true","false","""event"",""trial"",""time""
""blur"",""3"",""16261""
""focus"",""3"",""18855""
""fullscreenenter"",""5"",""30727""
","""event"",""trial"",""time""
""blur"",""3"",""16261""
","""event"",""trial"",""time""
""focus"",""3"",""18855""
","""event"",""trial"",""time""
""fullscreenenter"",""5"",""30727""
","
","764","","49","","","3000","1","","","images/tutyellowplanet.jpg","images/tutalien4","images/tutalien3","images/tutrocket2","images/tutalien3","images/t.png","2","practice","true","1","common","1","2022-03-18 00:09:38.496"
"two-step-fixation","66","434675","0.0-61.0-2.1","672","1206","13","Female","false","true","true","false","""event"",""trial"",""time""
""blur"",""3"",""16261""
""focus"",""3"",""18855""
""fullscreenenter"",""5"",""30727""
","""event"",""trial"",""time""
""blur"",""3"",""16261""
","""event"",""trial"",""time""
""focus"",""3"",""18855""
","""event"",""trial"",""time""
""fullscreenenter"",""5"",""30727""
","
","","images/earth.jpg","","","","","","","","","","","","","","fixation","","","","","",""
"d3-animate-choice","67","437037","0.0-61.0-0.2","672","1206","13","Female","false","true","true","false","""event"",""trial"",""time""
""blur"",""3"",""16261""
""focus"",""3"",""18855""
""fullscreenenter"",""5"",""30727""
","""event"",""trial"",""time""
""blur"",""3"",""16261""
","""event"",""trial"",""time""
""focus"",""3"",""18855""
","""event"",""trial"",""time""
""fullscreenenter"",""5"",""30727""
","
","353","","49","","","3000","1","","","images/earth.jpg","images/tutrocket1","images/tutrocket2","null","images/tutrocket2","","1","practice","null","1","","",""
"d3-animate-choice","68","439833","0.0-61.0-1.2","672","1206","13","Female","false","true","true","false","""event"",""trial"",""time""
""blur"",""3"",""16261""
""focus"",""3"",""18855""
""fullscreenenter"",""5"",""30727""
","""event"",""trial"",""time""
""blur"",""3"",""16261""
","""event"",""trial"",""time""
""focus"",""3"",""18855""
","""event"",""trial"",""time""
""fullscreenenter"",""5"",""30727""
","
","782","","48","","","3000","1","","","images/tutyellowplanet.jpg","images/tutalien4","images/tutalien3","images/tutrocket2","images/tutalien4","images/t.png","2","practice","true","2","common","1","2022-03-18 00:09:44.660"
"two-step-fixation","69","440841","0.0-61.0-2.2","672","1206","13","Female","false","true","true","false","""event"",""trial"",""time""
""blur"",""3"",""16261""
""focus"",""3"",""18855""
""fullscreenenter"",""5"",""30727""
","""event"",""trial"",""time""
""blur"",""3"",""16261""
","""event"",""trial"",""time""
""focus"",""3"",""18855""
","""event"",""trial"",""time""
""fullscreenenter"",""5"",""30727""
","
","","images/earth.jpg","","","","","","","","","","","","","","fixation","","","","","",""
"d3-animate-choice","70","443087","0.0-61.0-0.3","672","1206","13","Female","false","true","true","false","""event"",""trial"",""time""
""blur"",""3"",""16261""
""focus"",""3"",""18855""
""fullscreenenter"",""5"",""30727""
","""event"",""trial"",""time""
""blur"",""3"",""16261""
","""event"",""trial"",""time""
""focus"",""3"",""18855""
","""event"",""trial"",""time""
""fullscreenenter"",""5"",""30727""
","
","236","","48","","","3000","1","","","images/earth.jpg","images/tutrocket1","images/tutrocket2","null","images/tutrocket1","","1","practice","null","2","","",""
"d3-animate-choice","71","445569","0.0-61.0-1.3","672","1206","13","Female","false","true","true","false","""event"",""trial"",""time""
""blur"",""3"",""16261""
""focus"",""3"",""18855""
""fullscreenenter"",""5"",""30727""
","""event"",""trial"",""time""
""blur"",""3"",""16261""
","""event"",""trial"",""time""
""focus"",""3"",""18855""
","""event"",""trial"",""time""
""fullscreenenter"",""5"",""30727""
","
","469","","49","","","3000","1","","","images/tutgreenplanet.jpg","images/tutalien2","images/tutalien1","images/tutrocket1","images/tutalien1","images/nothing.png","2","practice","true","1","common","0","2022-03-18 00:09:50.396"
"two-step-fixation","72","446572","0.0-61.0-2.3","672","1206","13","Female","false","true","true","false","""event"",""trial"",""time""
""blur"",""3"",""16261""
""focus"",""3"",""18855""
""fullscreenenter"",""5"",""30727""
","""event"",""trial"",""time""
""blur"",""3"",""16261""
","""event"",""trial"",""time""
""focus"",""3"",""18855""
","""event"",""trial"",""time""
""fullscreenenter"",""5"",""30727""
","
","","images/earth.jpg","","","","","","","","","","","","","","fixation","","","","","",""
"d3-animate-choice","73","448820","0.0-61.0-0.4","672","1206","13","Female","false","true","true","false","""event"",""trial"",""time""
""blur"",""3"",""16261""
""focus"",""3"",""18855""
""fullscreenenter"",""5"",""30727""
","""event"",""trial"",""time""
""blur"",""3"",""16261""
","""event"",""trial"",""time""
""focus"",""3"",""18855""
","""event"",""trial"",""time""
""fullscreenenter"",""5"",""30727""
","
","233","","49","","","3000","1","","","images/earth.jpg","images/tutrocket1","images/tutrocket2","null","images/tutrocket2","","1","practice","null","1","","",""
"d3-animate-choice","74","451338","0.0-61.0-1.4","672","1206","13","Female","false","true","true","false","""event"",""trial"",""time""
""blur"",""3"",""16261""
""focus"",""3"",""18855""
""fullscreenenter"",""5"",""30727""
","""event"",""trial"",""time""
""blur"",""3"",""16261""
","""event"",""trial"",""time""
""focus"",""3"",""18855""
","""event"",""trial"",""time""
""fullscreenenter"",""5"",""30727""
","
","504","","48","","","3000","1","","","images/tutyellowplanet.jpg","images/tutalien4","images/tutalien3","images/tutrocket2","images/tutalien4","images/t.png","2","practice","true","2","common","1","2022-03-18 00:09:56.165"
"two-step-fixation","75","452348","0.0-61.0-2.4","672","1206","13","Female","false","true","true","false","""event"",""trial"",""time""
""blur"",""3"",""16261""
""focus"",""3"",""18855""
""fullscreenenter"",""5"",""30727""
","""event"",""trial"",""time""
""blur"",""3"",""16261""
","""event"",""trial"",""time""
""focus"",""3"",""18855""
","""event"",""trial"",""time""
""fullscreenenter"",""5"",""30727""
","
","","images/earth.jpg","","","","","","","","","","","","","","fixation","","","","","",""
"d3-animate-choice","76","454588","0.0-61.0-0.5","672","1206","13","Female","false","true","true","false","""event"",""trial"",""time""
""blur"",""3"",""16261""
""focus"",""3"",""18855""
""fullscreenenter"",""5"",""30727""
","""event"",""trial"",""time""
""blur"",""3"",""16261""
","""event"",""trial"",""time""
""focus"",""3"",""18855""
","""event"",""trial"",""time""
""fullscreenenter"",""5"",""30727""
","
","232","","48","","","3000","1","","","images/earth.jpg","images/tutrocket1","images/tutrocket2","null","images/tutrocket1","","1","practice","null","2","","",""
"d3-animate-choice","77","457025","0.0-61.0-1.5","672","1206","13","Female","false","true","true","false","""event"",""trial"",""time""
""blur"",""3"",""16261""
""focus"",""3"",""18855""
""fullscreenenter"",""5"",""30727""
","""event"",""trial"",""time""
""blur"",""3"",""16261""
","""event"",""trial"",""time""
""focus"",""3"",""18855""
","""event"",""trial"",""time""
""fullscreenenter"",""5"",""30727""
","
","424","","48","","","3000","1","","","images/tutyellowplanet.jpg","images/tutalien4","images/tutalien3","images/tutrocket1","images/tutalien4","images/nothing.png","2","practice","false","2","rare","0","2022-03-18 00:10:01.852"
"two-step-fixation","78","458039","0.0-61.0-2.5","672","1206","13","Female","false","true","true","false","""event"",""trial"",""time""
""blur"",""3"",""16261""
""focus"",""3"",""18855""
""fullscreenenter"",""5"",""30727""
","""event"",""trial"",""time""
""blur"",""3"",""16261""
","""event"",""trial"",""time""
""focus"",""3"",""18855""
","""event"",""trial"",""time""
""fullscreenenter"",""5"",""30727""
","
","","images/earth.jpg","","","","","","","","","","","","","","fixation","","","","","",""
"d3-animate-choice","79","460381","0.0-61.0-0.6","672","1206","13","Female","false","true","true","false","""event"",""trial"",""time""
""blur"",""3"",""16261""
""focus"",""3"",""18855""
""fullscreenenter"",""5"",""30727""
","""event"",""trial"",""time""
""blur"",""3"",""16261""
","""event"",""trial"",""time""
""focus"",""3"",""18855""
","""event"",""trial"",""time""
""fullscreenenter"",""5"",""30727""
","
","340","","49","","","3000","1","","","images/earth.jpg","images/tutrocket1","images/tutrocket2","null","images/tutrocket2","","1","practice","null","1","","",""
"d3-animate-choice","80","462965","0.0-61.0-1.6","672","1206","13","Female","false","true","true","false","""event"",""trial"",""time""
""blur"",""3"",""16261""
""focus"",""3"",""18855""
""fullscreenenter"",""5"",""30727""
","""event"",""trial"",""time""
""blur"",""3"",""16261""
","""event"",""trial"",""time""
""focus"",""3"",""18855""
","""event"",""trial"",""time""
""fullscreenenter"",""5"",""30727""
","
","576","","48","","","3000","1","","","images/tutyellowplanet.jpg","images/tutalien4","images/tutalien3","images/tutrocket2","images/tutalien4","images/t.png","2","practice","true","2","common","1","2022-03-18 00:10:07.793"
"two-step-fixation","81","463973","0.0-61.0-2.6","672","1206","13","Female","false","true","true","false","""event"",""trial"",""time""
""blur"",""3"",""16261""
""focus"",""3"",""18855""
""fullscreenenter"",""5"",""30727""
","""event"",""trial"",""time""
""blur"",""3"",""16261""
","""event"",""trial"",""time""
""focus"",""3"",""18855""
","""event"",""trial"",""time""
""fullscreenenter"",""5"",""30727""
","
","","images/earth.jpg","","","","","","","","","","","","","","fixation","","","","","",""
"d3-animate-choice","82","466311","0.0-61.0-0.7","672","1206","13","Female","false","true","true","false","""event"",""trial"",""time""
""blur"",""3"",""16261""
""focus"",""3"",""18855""
""fullscreenenter"",""5"",""30727""
","""event"",""trial"",""time""
""blur"",""3"",""16261""
","""event"",""trial"",""time""
""focus"",""3"",""18855""
","""event"",""trial"",""time""
""fullscreenenter"",""5"",""30727""
","
","327","","48","","","3000","1","","","images/earth.jpg","images/tutrocket1","images/tutrocket2","null","images/tutrocket1","","1","practice","null","2","","",""
"d3-animate-choice","83","468807","0.0-61.0-1.7","672","1206","13","Female","false","true","true","false","""event"",""trial"",""time""
""blur"",""3"",""16261""
""focus"",""3"",""18855""
""fullscreenenter"",""5"",""30727""
","""event"",""trial"",""time""
""blur"",""3"",""16261""
","""event"",""trial"",""time""
""focus"",""3"",""18855""
","""event"",""trial"",""time""
""fullscreenenter"",""5"",""30727""
","
","485","","48","","","3000","1","","","images/tutgreenplanet.jpg","images/tutalien2","images/tutalien1","images/tutrocket1","images/tutalien2","images/t.png","2","practice","true","2","common","1","2022-03-18 00:10:13.635"
"two-step-fixation","84","469815","0.0-61.0-2.7","672","1206","13","Female","false","true","true","false","""event"",""trial"",""time""
""blur"",""3"",""16261""
""focus"",""3"",""18855""
""fullscreenenter"",""5"",""30727""
","""event"",""trial"",""time""
""blur"",""3"",""16261""
","""event"",""trial"",""time""
""focus"",""3"",""18855""
","""event"",""trial"",""time""
""fullscreenenter"",""5"",""30727""
","
","","images/earth.jpg","","","","","","","","","","","","","","fixation","","","","","",""
"d3-animate-choice","85","472133","0.0-61.0-0.8","672","1206","13","Female","false","true","true","false","""event"",""trial"",""time""
""blur"",""3"",""16261""
""focus"",""3"",""18855""
""fullscreenenter"",""5"",""30727""
","""event"",""trial"",""time""
""blur"",""3"",""16261""
","""event"",""trial"",""time""
""focus"",""3"",""18855""
","""event"",""trial"",""time""
""fullscreenenter"",""5"",""30727""
","
","308","","48","","","3000","1","","","images/earth.jpg","images/tutrocket1","images/tutrocket2","null","images/tutrocket1","","1","practice","null","2","","",""
"d3-animate-choice","86","474682","0.0-61.0-1.8","672","1206","13","Female","false","true","true","false","""event"",""trial"",""time""
""blur"",""3"",""16261""
""focus"",""3"",""18855""
""fullscreenenter"",""5"",""30727""
","""event"",""trial"",""time""
""blur"",""3"",""16261""
","""event"",""trial"",""time""
""focus"",""3"",""18855""
","""event"",""trial"",""time""
""fullscreenenter"",""5"",""30727""
","
","535","","48","","","3000","1","","","images/tutyellowplanet.jpg","images/tutalien4","images/tutalien3","images/tutrocket1","images/tutalien4","images/t.png","2","practice","false","2","rare","1","2022-03-18 00:10:19.509"
"two-step-fixation","87","475693","0.0-61.0-2.8","672","1206","13","Female","false","true","true","false","""event"",""trial"",""time""
""blur"",""3"",""16261""
""focus"",""3"",""18855""
""fullscreenenter"",""5"",""30727""
","""event"",""trial"",""time""
""blur"",""3"",""16261""
","""event"",""trial"",""time""
""focus"",""3"",""18855""
","""event"",""trial"",""time""
""fullscreenenter"",""5"",""30727""
","
","","images/earth.jpg","","","","","","","","","","","","","","fixation","","","","","",""
"d3-animate-choice","88","477998","0.0-61.0-0.9","672","1206","13","Female","false","true","true","false","""event"",""trial"",""time""
""blur"",""3"",""16261""
""focus"",""3"",""18855""
""fullscreenenter"",""5"",""30727""
","""event"",""trial"",""time""
""blur"",""3"",""16261""
","""event"",""trial"",""time""
""focus"",""3"",""18855""
","""event"",""trial"",""time""
""fullscreenenter"",""5"",""30727""
","
","295","","49","","","3000","1","","","images/earth.jpg","images/tutrocket1","images/tutrocket2","null","images/tutrocket2","","1","practice","null","1","","",""
"d3-animate-choice","89","480590","0.0-61.0-1.9","672","1206","13","Female","false","true","true","false","""event"",""trial"",""time""
""blur"",""3"",""16261""
""focus"",""3"",""18855""
""fullscreenenter"",""5"",""30727""
","""event"",""trial"",""time""
""blur"",""3"",""16261""
","""event"",""trial"",""time""
""focus"",""3"",""18855""
","""event"",""trial"",""time""
""fullscreenenter"",""5"",""30727""
","
","589","","48","","","3000","1","","","images/tutgreenplanet.jpg","images/tutalien2","images/tutalien1","images/tutrocket2","images/tutalien2","images/t.png","2","practice","false","2","rare","1","2022-03-18 00:10:25.417"
"two-step-fixation","90","481594","0.0-61.0-2.9","672","1206","13","Female","false","true","true","false","""event"",""trial"",""time""
""blur"",""3"",""16261""
""focus"",""3"",""18855""
""fullscreenenter"",""5"",""30727""
","""event"",""trial"",""time""
""blur"",""3"",""16261""
","""event"",""trial"",""time""
""focus"",""3"",""18855""
","""event"",""trial"",""time""
""fullscreenenter"",""5"",""30727""
","
","","images/earth.jpg","","","","","","","","","","","","","","fixation","","","","","",""
"d3-animate-choice","91","483847","0.0-61.0-0.10","672","1206","13","Female","false","true","true","false","""event"",""trial"",""time""
""blur"",""3"",""16261""
""focus"",""3"",""18855""
""fullscreenenter"",""5"",""30727""
","""event"",""trial"",""time""
""blur"",""3"",""16261""
","""event"",""trial"",""time""
""focus"",""3"",""18855""
","""event"",""trial"",""time""
""fullscreenenter"",""5"",""30727""
","
","243","","48","","","3000","1","","","images/earth.jpg","images/tutrocket1","images/tutrocket2","null","images/tutrocket1","","1","practice","null","2","","",""
"d3-animate-choice","92","486968","0.0-61.0-1.10","672","1206","13","Female","false","true","true","false","""event"",""trial"",""time""
""blur"",""3"",""16261""
""focus"",""3"",""18855""
""fullscreenenter"",""5"",""30727""
","""event"",""trial"",""time""
""blur"",""3"",""16261""
","""event"",""trial"",""time""
""focus"",""3"",""18855""
","""event"",""trial"",""time""
""fullscreenenter"",""5"",""30727""
","
","1117","","48","","","3000","1","","","images/tutgreenplanet.jpg","images/tutalien2","images/tutalien1","images/tutrocket1","images/tutalien2","images/nothing.png","2","practice","true","2","common","0","2022-03-18 00:10:31.795"
"two-step-fixation","93","487973","0.0-61.0-2.10","672","1206","13","Female","false","true","true","false","""event"",""trial"",""time""
""blur"",""3"",""16261""
""focus"",""3"",""18855""
""fullscreenenter"",""5"",""30727""
","""event"",""trial"",""time""
""blur"",""3"",""16261""
","""event"",""trial"",""time""
""focus"",""3"",""18855""
","""event"",""trial"",""time""
""fullscreenenter"",""5"",""30727""
","
","","images/earth.jpg","","","","","","","","","","","","","","fixation","","","","","",""
"d3-animate-choice","94","490223","0.0-61.0-0.11","672","1206","13","Female","false","true","true","false","""event"",""trial"",""time""
""blur"",""3"",""16261""
""focus"",""3"",""18855""
""fullscreenenter"",""5"",""30727""
","""event"",""trial"",""time""
""blur"",""3"",""16261""
","""event"",""trial"",""time""
""focus"",""3"",""18855""
","""event"",""trial"",""time""
""fullscreenenter"",""5"",""30727""
","
","239","","49","","","3000","1","","","images/earth.jpg","images/tutrocket1","images/tutrocket2","null","images/tutrocket2","","1","practice","null","1","","",""
"d3-animate-choice","95","492911","0.0-61.0-1.11","672","1206","13","Female","false","true","true","false","""event"",""trial"",""time""
""blur"",""3"",""16261""
""focus"",""3"",""18855""
""fullscreenenter"",""5"",""30727""
","""event"",""trial"",""time""
""blur"",""3"",""16261""
","""event"",""trial"",""time""
""focus"",""3"",""18855""
","""event"",""trial"",""time""
""fullscreenenter"",""5"",""30727""
","
","685","","48","","","3000","1","","","images/tutyellowplanet.jpg","images/tutalien4","images/tutalien3","images/tutrocket2","images/tutalien4","images/t.png","2","practice","true","2","common","1","2022-03-18 00:10:37.739"
"two-step-fixation","96","493916","0.0-61.0-2.11","672","1206","13","Female","false","true","true","false","""event"",""trial"",""time""
""blur"",""3"",""16261""
""focus"",""3"",""18855""
""fullscreenenter"",""5"",""30727""
","""event"",""trial"",""time""
""blur"",""3"",""16261""
","""event"",""trial"",""time""
""focus"",""3"",""18855""
","""event"",""trial"",""time""
""fullscreenenter"",""5"",""30727""
","
","","images/earth.jpg","","","","","","","","","","","","","","fixation","","","","","",""
"d3-animate-choice","97","496142","0.0-61.0-0.12","672","1206","13","Female","false","true","true","false","""event"",""trial"",""time""
""blur"",""3"",""16261""
""focus"",""3"",""18855""
""fullscreenenter"",""5"",""30727""
","""event"",""trial"",""time""
""blur"",""3"",""16261""
","""event"",""trial"",""time""
""focus"",""3"",""18855""
","""event"",""trial"",""time""
""fullscreenenter"",""5"",""30727""
","
","215","","48","","","3000","1","","","images/earth.jpg","images/tutrocket1","images/tutrocket2","null","images/tutrocket1","","1","practice","null","2","","",""
"d3-animate-choice","98","498551","0.0-61.0-1.12","672","1206","13","Female","false","true","true","false","""event"",""trial"",""time""
""blur"",""3"",""16261""
""focus"",""3"",""18855""
""fullscreenenter"",""5"",""30727""
","""event"",""trial"",""time""
""blur"",""3"",""16261""
","""event"",""trial"",""time""
""focus"",""3"",""18855""
","""event"",""trial"",""time""
""fullscreenenter"",""5"",""30727""
","
","398","","48","","","3000","1","","","images/tutgreenplanet.jpg","images/tutalien2","images/tutalien1","images/tutrocket1","images/tutalien2","images/t.png","2","practice","true","2","common","1","2022-03-18 00:10:43.378"
"two-step-fixation","99","499565","0.0-61.0-2.12","672","1206","13","Female","false","true","true","false","""event"",""trial"",""time""
""blur"",""3"",""16261""
""focus"",""3"",""18855""
""fullscreenenter"",""5"",""30727""
","""event"",""trial"",""time""
""blur"",""3"",""16261""
","""event"",""trial"",""time""
""focus"",""3"",""18855""
","""event"",""trial"",""time""
""fullscreenenter"",""5"",""30727""
","
","","images/earth.jpg","","","","","","","","","","","","","","fixation","","","","","",""
"d3-animate-choice","100","501747","0.0-61.0-0.13","672","1206","13","Female","false","true","true","false","""event"",""trial"",""time""
""blur"",""3"",""16261""
""focus"",""3"",""18855""
""fullscreenenter"",""5"",""30727""
","""event"",""trial"",""time""
""blur"",""3"",""16261""
","""event"",""trial"",""time""
""focus"",""3"",""18855""
","""event"",""trial"",""time""
""fullscreenenter"",""5"",""30727""
","
","175","","48","","","3000","1","","","images/earth.jpg","images/tutrocket1","images/tutrocket2","null","images/tutrocket1","","1","practice","null","2","","",""
"d3-animate-choice","101","504176","0.0-61.0-1.13","672","1206","13","Female","false","true","true","false","""event"",""trial"",""time""
""blur"",""3"",""16261""
""focus"",""3"",""18855""
""fullscreenenter"",""5"",""30727""
","""event"",""trial"",""time""
""blur"",""3"",""16261""
","""event"",""trial"",""time""
""focus"",""3"",""18855""
","""event"",""trial"",""time""
""fullscreenenter"",""5"",""30727""
","
","425","","48","","","3000","1","","","images/tutyellowplanet.jpg","images/tutalien4","images/tutalien3","images/tutrocket1","images/tutalien4","images/nothing.png","2","practice","false","2","rare","0","2022-03-18 00:10:49.003"
"two-step-fixation","102","505183","0.0-61.0-2.13","672","1206","13","Female","false","true","true","false","""event"",""trial"",""time""
""blur"",""3"",""16261""
""focus"",""3"",""18855""
""fullscreenenter"",""5"",""30727""
","""event"",""trial"",""time""
""blur"",""3"",""16261""
","""event"",""trial"",""time""
""focus"",""3"",""18855""
","""event"",""trial"",""time""
""fullscreenenter"",""5"",""30727""
","
","","images/earth.jpg","","","","","","","","","","","","","","fixation","","","","","",""
"d3-animate-choice","103","507771","0.0-61.0-0.14","672","1206","13","Female","false","true","true","false","""event"",""trial"",""time""
""blur"",""3"",""16261""
""focus"",""3"",""18855""
""fullscreenenter"",""5"",""30727""
","""event"",""trial"",""time""
""blur"",""3"",""16261""
","""event"",""trial"",""time""
""focus"",""3"",""18855""
","""event"",""trial"",""time""
""fullscreenenter"",""5"",""30727""
","
","580","","49","","","3000","1","","","images/earth.jpg","images/tutrocket1","images/tutrocket2","null","images/tutrocket2","","1","practice","null","1","","",""
"d3-animate-choice","104","510481","0.0-61.0-1.14","672","1206","13","Female","false","true","true","false","""event"",""trial"",""time""
""blur"",""3"",""16261""
""focus"",""3"",""18855""
""fullscreenenter"",""5"",""30727""
","""event"",""trial"",""time""
""blur"",""3"",""16261""
","""event"",""trial"",""time""
""focus"",""3"",""18855""
","""event"",""trial"",""time""
""fullscreenenter"",""5"",""30727""
","
","697","","49","","","3000","1","","","images/tutgreenplanet.jpg","images/tutalien2","images/tutalien1","images/tutrocket2","images/tutalien1","images/nothing.png","2","practice","false","1","rare","0","2022-03-18 00:10:55.308"
"two-step-fixation","105","511492","0.0-61.0-2.14","672","1206","13","Female","false","true","true","false","""event"",""trial"",""time""
""blur"",""3"",""16261""
""focus"",""3"",""18855""
""fullscreenenter"",""5"",""30727""
","""event"",""trial"",""time""
""blur"",""3"",""16261""
","""event"",""trial"",""time""
""focus"",""3"",""18855""
","""event"",""trial"",""time""
""fullscreenenter"",""5"",""30727""
","
","","images/earth.jpg","","","","","","","","","","","","","","fixation","","","","","",""
"d3-animate-choice","106","513789","0.0-61.0-0.15","672","1206","13","Female","false","true","true","false","""event"",""trial"",""time""
""blur"",""3"",""16261""
""focus"",""3"",""18855""
""fullscreenenter"",""5"",""30727""
","""event"",""trial"",""time""
""blur"",""3"",""16261""
","""event"",""trial"",""time""
""focus"",""3"",""18855""
","""event"",""trial"",""time""
""fullscreenenter"",""5"",""30727""
","
","287","","48","","","3000","1","","","images/earth.jpg","images/tutrocket1","images/tutrocket2","null","images/tutrocket1","","1","practice","null","2","","",""
"d3-animate-choice","107","516210","0.0-61.0-1.15","672","1206","13","Female","false","true","true","false","""event"",""trial"",""time""
""blur"",""3"",""16261""
""focus"",""3"",""18855""
""fullscreenenter"",""5"",""30727""
","""event"",""trial"",""time""
""blur"",""3"",""16261""
","""event"",""trial"",""time""
""focus"",""3"",""18855""
","""event"",""trial"",""time""
""fullscreenenter"",""5"",""30727""
","
","414","","49","","","3000","1","","","images/tutgreenplanet.jpg","images/tutalien2","images/tutalien1","images/tutrocket1","images/tutalien1","images/nothing.png","2","practice","true","1","common","0","2022-03-18 00:11:01.037"
"two-step-fixation","108","517224","0.0-61.0-2.15","672","1206","13","Female","false","true","true","false","""event"",""trial"",""time""
""blur"",""3"",""16261""
""focus"",""3"",""18855""
""fullscreenenter"",""5"",""30727""
","""event"",""trial"",""time""
""blur"",""3"",""16261""
","""event"",""trial"",""time""
""focus"",""3"",""18855""
","""event"",""trial"",""time""
""fullscreenenter"",""5"",""30727""
","
","","images/earth.jpg","","","","","","","","","","","","","","fixation","","","","","",""
"d3-animate-choice","109","519795","0.0-61.0-0.16","672","1206","13","Female","false","true","true","false","""event"",""trial"",""time""
""blur"",""3"",""16261""
""focus"",""3"",""18855""
""fullscreenenter"",""5"",""30727""
","""event"",""trial"",""time""
""blur"",""3"",""16261""
","""event"",""trial"",""time""
""focus"",""3"",""18855""
","""event"",""trial"",""time""
""fullscreenenter"",""5"",""30727""
","
","555","","48","","","3000","1","2075","48","images/earth.jpg","images/tutrocket1","images/tutrocket2","null","images/tutrocket1","","1","practice","null","2","","",""
"d3-animate-choice","110","521926","0.0-61.0-1.16","672","1206","13","Female","false","true","true","false","""event"",""trial"",""time""
""blur"",""3"",""16261""
""focus"",""3"",""18855""
""fullscreenenter"",""5"",""30727""
","""event"",""trial"",""time""
""blur"",""3"",""16261""
","""event"",""trial"",""time""
""focus"",""3"",""18855""
","""event"",""trial"",""time""
""fullscreenenter"",""5"",""30727""
","
","121","","48","","","3000","1","1002","48","images/tutyellowplanet.jpg","images/tutalien4","images/tutalien3","images/tutrocket1","images/tutalien4","images/nothing.png","2","practice","false","2","rare","0","2022-03-18 00:11:06.753"
"two-step-fixation","111","522935","0.0-61.0-2.16","672","1206","13","Female","false","true","true","false","""event"",""trial"",""time""
""blur"",""3"",""16261""
""focus"",""3"",""18855""
""fullscreenenter"",""5"",""30727""
","""event"",""trial"",""time""
""blur"",""3"",""16261""
","""event"",""trial"",""time""
""focus"",""3"",""18855""
","""event"",""trial"",""time""
""fullscreenenter"",""5"",""30727""
","
","","images/earth.jpg","","","","","","","","","","","","","","fixation","","","","","",""
"d3-animate-choice","112","525210","0.0-61.0-0.17","672","1206","13","Female","false","true","true","false","""event"",""trial"",""time""
""blur"",""3"",""16261""
""focus"",""3"",""18855""
""fullscreenenter"",""5"",""30727""
","""event"",""trial"",""time""
""blur"",""3"",""16261""
","""event"",""trial"",""time""
""focus"",""3"",""18855""
","""event"",""trial"",""time""
""fullscreenenter"",""5"",""30727""
","
","261","","49","","","3000","1","","","images/earth.jpg","images/tutrocket1","images/tutrocket2","null","images/tutrocket2","","1","practice","null","1","","",""
"d3-animate-choice","113","527414","0.0-61.0-1.17","672","1206","13","Female","false","true","true","false","""event"",""trial"",""time""
""blur"",""3"",""16261""
""focus"",""3"",""18855""
""fullscreenenter"",""5"",""30727""
","""event"",""trial"",""time""
""blur"",""3"",""16261""
","""event"",""trial"",""time""
""focus"",""3"",""18855""
","""event"",""trial"",""time""
""fullscreenenter"",""5"",""30727""
","
","202","","48","","","3000","1","","","images/tutgreenplanet.jpg","images/tutalien2","images/tutalien1","images/tutrocket2","images/tutalien2","images/nothing.png","2","practice","false","2","rare","0","2022-03-18 00:11:12.241"
"two-step-fixation","114","528418","0.0-61.0-2.17","672","1206","13","Female","false","true","true","false","""event"",""trial"",""time""
""blur"",""3"",""16261""
""focus"",""3"",""18855""
""fullscreenenter"",""5"",""30727""
","""event"",""trial"",""time""
""blur"",""3"",""16261""
","""event"",""trial"",""time""
""focus"",""3"",""18855""
","""event"",""trial"",""time""
""fullscreenenter"",""5"",""30727""
","
","","images/earth.jpg","","","","","","","","","","","","","","fixation","","","","","",""
"d3-animate-choice","115","530673","0.0-61.0-0.18","672","1206","13","Female","false","true","true","false","""event"",""trial"",""time""
""blur"",""3"",""16261""
""focus"",""3"",""18855""
""fullscreenenter"",""5"",""30727""
","""event"",""trial"",""time""
""blur"",""3"",""16261""
","""event"",""trial"",""time""
""focus"",""3"",""18855""
","""event"",""trial"",""time""
""fullscreenenter"",""5"",""30727""
","
","250","","48","","","3000","1","","","images/earth.jpg","images/tutrocket1","images/tutrocket2","null","images/tutrocket1","","1","practice","null","2","","",""
"d3-animate-choice","116","533213","0.0-61.0-1.18","672","1206","13","Female","false","true","true","false","""event"",""trial"",""time""
""blur"",""3"",""16261""
""focus"",""3"",""18855""
""fullscreenenter"",""5"",""30727""
","""event"",""trial"",""time""
""blur"",""3"",""16261""
","""event"",""trial"",""time""
""focus"",""3"",""18855""
","""event"",""trial"",""time""
""fullscreenenter"",""5"",""30727""
","
","531","","49","","","3000","1","","","images/tutgreenplanet.jpg","images/tutalien2","images/tutalien1","images/tutrocket1","images/tutalien1","images/nothing.png","2","practice","true","1","common","0","2022-03-18 00:11:18.040"
"two-step-fixation","117","534214","0.0-61.0-2.18","672","1206","13","Female","false","true","true","false","""event"",""trial"",""time""
""blur"",""3"",""16261""
""focus"",""3"",""18855""
""fullscreenenter"",""5"",""30727""
","""event"",""trial"",""time""
""blur"",""3"",""16261""
","""event"",""trial"",""time""
""focus"",""3"",""18855""
","""event"",""trial"",""time""
""fullscreenenter"",""5"",""30727""
","
","","images/earth.jpg","","","","","","","","","","","","","","fixation","","","","","",""
"d3-animate-choice","118","536679","0.0-61.0-0.19","672","1206","13","Female","false","true","true","false","""event"",""trial"",""time""
""blur"",""3"",""16261""
""focus"",""3"",""18855""
""fullscreenenter"",""5"",""30727""
","""event"",""trial"",""time""
""blur"",""3"",""16261""
","""event"",""trial"",""time""
""focus"",""3"",""18855""
","""event"",""trial"",""time""
""fullscreenenter"",""5"",""30727""
","
","454","","48","","","3000","1","","","images/earth.jpg","images/tutrocket1","images/tutrocket2","null","images/tutrocket1","","1","practice","null","2","","",""
"d3-animate-choice","119","539682","0.0-61.0-1.19","672","1206","13","Female","false","true","true","false","""event"",""trial"",""time""
""blur"",""3"",""16261""
""focus"",""3"",""18855""
""fullscreenenter"",""5"",""30727""
","""event"",""trial"",""time""
""blur"",""3"",""16261""
","""event"",""trial"",""time""
""focus"",""3"",""18855""
","""event"",""trial"",""time""
""fullscreenenter"",""5"",""30727""
","
","987","","48","","","3000","1","1411","48","images/tutgreenplanet.jpg","images/tutalien2","images/tutalien1","images/tutrocket1","images/tutalien2","images/nothing.png","2","practice","true","2","common","0","2022-03-18 00:11:24.509"
"two-step-fixation","120","540691","0.0-61.0-2.19","672","1206","13","Female","false","true","true","false","""event"",""trial"",""time""
""blur"",""3"",""16261""
""focus"",""3"",""18855""
""fullscreenenter"",""5"",""30727""
","""event"",""trial"",""time""
""blur"",""3"",""16261""
","""event"",""trial"",""time""
""focus"",""3"",""18855""
","""event"",""trial"",""time""
""fullscreenenter"",""5"",""30727""
","
","","images/earth.jpg","","","","","","","","","","","","","","fixation","","","","","",""
"d3-instructions","121","545749","0.0-62.0","672","1206","13","Female","false","true","true","false","""event"",""trial"",""time""
""blur"",""3"",""16261""
""focus"",""3"",""18855""
""fullscreenenter"",""5"",""30727""
","""event"",""trial"",""time""
""blur"",""3"",""16261""
","""event"",""trial"",""time""
""focus"",""3"",""18855""
","""event"",""trial"",""time""
""fullscreenenter"",""5"",""30727""
","
","","","","","","","","","","","","","","","","","","","","","",""
"audio-keyboard-response","122","548861","0.0-63.0","672","1206","13","Female","false","true","true","false","""event"",""trial"",""time""
""blur"",""3"",""16261""
""focus"",""3"",""18855""
""fullscreenenter"",""5"",""30727""
","""event"",""trial"",""time""
""blur"",""3"",""16261""
","""event"",""trial"",""time""
""focus"",""3"",""18855""
","""event"",""trial"",""time""
""fullscreenenter"",""5"",""30727""
","
","3109","audio/instructions/treasure_feedback.wav","32","","","","","","","","","","","","","","","","","","",""
"d3-instructions","123","569516","0.0-64.0","672","1206","13","Female","false","true","true","false","""event"",""trial"",""time""
""blur"",""3"",""16261""
""focus"",""3"",""18855""
""fullscreenenter"",""5"",""30727""
","""event"",""trial"",""time""
""blur"",""3"",""16261""
","""event"",""trial"",""time""
""focus"",""3"",""18855""
","""event"",""trial"",""time""
""fullscreenenter"",""5"",""30727""
","
","","","","","","","","","","","","","","","","","","","","","",""
"d3-instructions","124","586437","0.0-65.0","672","1206","13","Female","false","true","true","false","""event"",""trial"",""time""
""blur"",""3"",""16261""
""focus"",""3"",""18855""
""fullscreenenter"",""5"",""30727""
","""event"",""trial"",""time""
""blur"",""3"",""16261""
","""event"",""trial"",""time""
""focus"",""3"",""18855""
","""event"",""trial"",""time""
""fullscreenenter"",""5"",""30727""
","
","","","","","","","","","","","","","","","","","","","","","",""
"d3-instructions","125","621301","0.0-66.0","672","1206","13","Female","false","true","true","false","""event"",""trial"",""time""
""blur"",""3"",""16261""
""focus"",""3"",""18855""
""fullscreenenter"",""5"",""30727""
","""event"",""trial"",""time""
""blur"",""3"",""16261""
","""event"",""trial"",""time""
""focus"",""3"",""18855""
","""event"",""trial"",""time""
""fullscreenenter"",""5"",""30727""
","
","","","","","","","","","","","","","","","","","","","","","",""
"d3-instructions","126","639404","0.0-67.0","672","1206","13","Female","false","true","true","false","""event"",""trial"",""time""
""blur"",""3"",""16261""
""focus"",""3"",""18855""
""fullscreenenter"",""5"",""30727""
","""event"",""trial"",""time""
""blur"",""3"",""16261""
","""event"",""trial"",""time""
""focus"",""3"",""18855""
","""event"",""trial"",""time""
""fullscreenenter"",""5"",""30727""
","
","","","","","","","","","","","","","","","","","","","","","",""
"d3-instructions","127","648668","0.0-68.0","672","1206","13","Female","false","true","true","false","""event"",""trial"",""time""
""blur"",""3"",""16261""
""focus"",""3"",""18855""
""fullscreenenter"",""5"",""30727""
","""event"",""trial"",""time""
""blur"",""3"",""16261""
","""event"",""trial"",""time""
""focus"",""3"",""18855""
","""event"",""trial"",""time""
""fullscreenenter"",""5"",""30727""
","
","","","","","","","","","","","","","","","","","","","","","",""
"instructions-quiz","128","653581","0.0-69.0","672","1206","13","Female","false","true","true","false","""event"",""trial"",""time""
""blur"",""3"",""16261""
""focus"",""3"",""18855""
""fullscreenenter"",""5"",""30727""
","""event"",""trial"",""time""
""blur"",""3"",""16261""
","""event"",""trial"",""time""
""focus"",""3"",""18855""
","""event"",""trial"",""time""
""fullscreenenter"",""5"",""30727""
","
","4912","audio/quiz/Q1_Prompt.wav","","1","","","","","","","","","","","","","","","","","",""
"audio-keyboard-response","129","662753","0.0-70.0","672","1206","13","Female","false","true","true","false","""event"",""trial"",""time""
""blur"",""3"",""16261""
""focus"",""3"",""18855""
""fullscreenenter"",""5"",""30727""
","""event"",""trial"",""time""
""blur"",""3"",""16261""
","""event"",""trial"",""time""
""focus"",""3"",""18855""
","""event"",""trial"",""time""
""fullscreenenter"",""5"",""30727""
","
","null","audio/quiz/Q1_Correct.wav","null","","","","","","","","","","","","","","","","","","",""
"instructions-quiz","130","670612","0.0-71.0","672","1206","13","Female","false","true","true","false","""event"",""trial"",""time""
""blur"",""3"",""16261""
""focus"",""3"",""18855""
""fullscreenenter"",""5"",""30727""
","""event"",""trial"",""time""
""blur"",""3"",""16261""
","""event"",""trial"",""time""
""focus"",""3"",""18855""
","""event"",""trial"",""time""
""fullscreenenter"",""5"",""30727""
","
","7859","audio/quiz/Q2_Prompt.wav","","0","","","","","","","","","","","","","","","","","",""
"audio-keyboard-response","131","683493","0.0-72.0","672","1206","13","Female","false","true","true","false","""event"",""trial"",""time""
""blur"",""3"",""16261""
""focus"",""3"",""18855""
""fullscreenenter"",""5"",""30727""
","""event"",""trial"",""time""
""blur"",""3"",""16261""
","""event"",""trial"",""time""
""focus"",""3"",""18855""
","""event"",""trial"",""time""
""fullscreenenter"",""5"",""30727""
","
","null","audio/quiz/Q2_Correct.wav","null","","","","","","","","","","","","","","","","","","",""
"instructions-quiz","132","687957","0.0-73.0","672","1206","13","Female","false","true","true","false","""event"",""trial"",""time""
""blur"",""3"",""16261""
""focus"",""3"",""18855""
""fullscreenenter"",""5"",""30727""
","""event"",""trial"",""time""
""blur"",""3"",""16261""
","""event"",""trial"",""time""
""focus"",""3"",""18855""
","""event"",""trial"",""time""
""fullscreenenter"",""5"",""30727""
","
","4464","audio/quiz/Q3_Prompt.wav","","1","","","","","","","","","","","","","","","","","",""
"audio-keyboard-response","133","693763","0.0-74.0","672","1206","13","Female","false","true","true","false","""event"",""trial"",""time""
""blur"",""3"",""16261""
""focus"",""3"",""18855""
""fullscreenenter"",""5"",""30727""
","""event"",""trial"",""time""
""blur"",""3"",""16261""
","""event"",""trial"",""time""
""focus"",""3"",""18855""
","""event"",""trial"",""time""
""fullscreenenter"",""5"",""30727""
","
","null","audio/quiz/Q3_Correct.wav","null","","","","","","","","","","","","","","","","","","",""
"d3-instructions","134","705357","0.0-75.0","672","1206","13","Female","false","true","true","false","""event"",""trial"",""time""
""blur"",""3"",""16261""
""focus"",""3"",""18855""
""fullscreenenter"",""5"",""30727""
","""event"",""trial"",""time""
""blur"",""3"",""16261""
","""event"",""trial"",""time""
""focus"",""3"",""18855""
","""event"",""trial"",""time""
""fullscreenenter"",""5"",""30727""
","
","","","","","","","","","","","","","","","","","","","","","",""
"d3-animate-choice","135","708223","0.0-76.0-0.0","672","1206","13","Female","false","true","true","false","""event"",""trial"",""time""
""blur"",""3"",""16261""
""focus"",""3"",""18855""
""fullscreenenter"",""5"",""30727""
","""event"",""trial"",""time""
""blur"",""3"",""16261""
","""event"",""trial"",""time""
""focus"",""3"",""18855""
","""event"",""trial"",""time""
""fullscreenenter"",""5"",""30727""
","
","856","","49","","","3000","1","","","images/earth.jpg","images/rocket1","images/rocket2","null","images/rocket2","","1","real","null","1","","",""
"d3-animate-choice","136","710996","0.0-76.0-1.0","672","1206","13","Female","false","true","true","false","""event"",""trial"",""time""
""blur"",""3"",""16261""
""focus"",""3"",""18855""
""fullscreenenter"",""5"",""30727""
","""event"",""trial"",""time""
""blur"",""3"",""16261""
","""event"",""trial"",""time""
""focus"",""3"",""18855""
","""event"",""trial"",""time""
""fullscreenenter"",""5"",""30727""
","
","757","","48","","","3000","1","","","images/purpleplanet.jpg","images/alien4","images/alien3","images/rocket2","images/alien4","images/t.png","2","real","true","2","common","1","2022-03-18 00:14:15.823"
"two-step-fixation","137","712002","0.0-76.0-2.0","672","1206","13","Female","false","true","true","false","""event"",""trial"",""time""
""blur"",""3"",""16261""
""focus"",""3"",""18855""
""fullscreenenter"",""5"",""30727""
","""event"",""trial"",""time""
""blur"",""3"",""16261""
","""event"",""trial"",""time""
""focus"",""3"",""18855""
","""event"",""trial"",""time""
""fullscreenenter"",""5"",""30727""
","
","","images/earth.jpg","","","","","","","","","","","","","","fixation","","","","","",""
"d3-animate-choice","138","715175","0.0-76.0-0.1","672","1206","13","Female","false","true","true","false","""event"",""trial"",""time""
""blur"",""3"",""16261""
""focus"",""3"",""18855""
""fullscreenenter"",""5"",""30727""
","""event"",""trial"",""time""
""blur"",""3"",""16261""
","""event"",""trial"",""time""
""focus"",""3"",""18855""
","""event"",""trial"",""time""
""fullscreenenter"",""5"",""30727""
","
","1169","","49","","","3000","1","","","images/earth.jpg","images/rocket1","images/rocket2","null","images/rocket2","","1","real","null","1","","",""
"d3-animate-choice","139","717784","0.0-76.0-1.1","672","1206","13","Female","false","true","true","false","""event"",""trial"",""time""
""blur"",""3"",""16261""
""focus"",""3"",""18855""
""fullscreenenter"",""5"",""30727""
","""event"",""trial"",""time""
""blur"",""3"",""16261""
","""event"",""trial"",""time""
""focus"",""3"",""18855""
","""event"",""trial"",""time""
""fullscreenenter"",""5"",""30727""
","
","604","","48","","","3000","1","","","images/purpleplanet.jpg","images/alien4","images/alien3","images/rocket2","images/alien4","images/t.png","2","real","true","2","common","1","2022-03-18 00:14:22.611"
"two-step-fixation","140","718788","0.0-76.0-2.1","672","1206","13","Female","false","true","true","false","""event"",""trial"",""time""
""blur"",""3"",""16261""
""focus"",""3"",""18855""
""fullscreenenter"",""5"",""30727""
","""event"",""trial"",""time""
""blur"",""3"",""16261""
","""event"",""trial"",""time""
""focus"",""3"",""18855""
","""event"",""trial"",""time""
""fullscreenenter"",""5"",""30727""
","
","","images/earth.jpg","","","","","","","","","","","","","","fixation","","","","","",""
"d3-animate-choice","141","721170","0.0-76.0-0.2","672","1206","13","Female","false","true","true","false","""event"",""trial"",""time""
""blur"",""3"",""16261""
""focus"",""3"",""18855""
""fullscreenenter"",""5"",""30727""
","""event"",""trial"",""time""
""blur"",""3"",""16261""
","""event"",""trial"",""time""
""focus"",""3"",""18855""
","""event"",""trial"",""time""
""fullscreenenter"",""5"",""30727""
","
","368","","49","","","3000","1","","","images/earth.jpg","images/rocket1","images/rocket2","null","images/rocket2","","1","real","null","1","","",""
"d3-animate-choice","142","723941","0.0-76.0-1.2","672","1206","13","Female","false","true","true","false","""event"",""trial"",""time""
""blur"",""3"",""16261""
""focus"",""3"",""18855""
""fullscreenenter"",""5"",""30727""
","""event"",""trial"",""time""
""blur"",""3"",""16261""
","""event"",""trial"",""time""
""focus"",""3"",""18855""
","""event"",""trial"",""time""
""fullscreenenter"",""5"",""30727""
","
","770","","48","","","3000","1","","","images/purpleplanet.jpg","images/alien4","images/alien3","images/rocket2","images/alien4","images/t.png","2","real","true","2","common","1","2022-03-18 00:14:28.768"
"two-step-fixation","143","724951","0.0-76.0-2.2","672","1206","13","Female","false","true","true","false","""event"",""trial"",""time""
""blur"",""3"",""16261""
""focus"",""3"",""18855""
""fullscreenenter"",""5"",""30727""
","""event"",""trial"",""time""
""blur"",""3"",""16261""
","""event"",""trial"",""time""
""focus"",""3"",""18855""
","""event"",""trial"",""time""
""fullscreenenter"",""5"",""30727""
","
","","images/earth.jpg","","","","","","","","","","","","","","fixation","","","","","",""
"d3-animate-choice","144","727305","0.0-76.0-0.3","672","1206","13","Female","false","true","true","false","""event"",""trial"",""time""
""blur"",""3"",""16261""
""focus"",""3"",""18855""
""fullscreenenter"",""5"",""30727""
","""event"",""trial"",""time""
""blur"",""3"",""16261""
","""event"",""trial"",""time""
""focus"",""3"",""18855""
","""event"",""trial"",""time""
""fullscreenenter"",""5"",""30727""
","
","349","","49","","","3000","1","","","images/earth.jpg","images/rocket1","images/rocket2","null","images/rocket2","","1","real","null","1","","",""
"d3-animate-choice","145","729884","0.0-76.0-1.3","672","1206","13","Female","false","true","true","false","""event"",""trial"",""time""
""blur"",""3"",""16261""
""focus"",""3"",""18855""
""fullscreenenter"",""5"",""30727""
","""event"",""trial"",""time""
""blur"",""3"",""16261""
","""event"",""trial"",""time""
""focus"",""3"",""18855""
","""event"",""trial"",""time""
""fullscreenenter"",""5"",""30727""
","
","571","","48","","","3000","1","","","images/redplanet1.jpg","images/alien2","images/alien1","images/rocket2","images/alien2","images/nothing.png","2","real","false","2","rare","0","2022-03-18 00:14:34.711"
"two-step-fixation","146","730894","0.0-76.0-2.3","672","1206","13","Female","false","true","true","false","""event"",""trial"",""time""
""blur"",""3"",""16261""
""focus"",""3"",""18855""
""fullscreenenter"",""5"",""30727""
","""event"",""trial"",""time""
""blur"",""3"",""16261""
","""event"",""trial"",""time""
""focus"",""3"",""18855""
","""event"",""trial"",""time""
""fullscreenenter"",""5"",""30727""
","
","","images/earth.jpg","","","","","","","","","","","","","","fixation","","","","","",""
"d3-animate-choice","147","733246","0.0-76.0-0.4","672","1206","13","Female","false","true","true","false","""event"",""trial"",""time""
""blur"",""3"",""16261""
""focus"",""3"",""18855""
""fullscreenenter"",""5"",""30727""
","""event"",""trial"",""time""
""blur"",""3"",""16261""
","""event"",""trial"",""time""
""focus"",""3"",""18855""
","""event"",""trial"",""time""
""fullscreenenter"",""5"",""30727""
","
","341","","49","","","3000","1","","","images/earth.jpg","images/rocket1","images/rocket2","null","images/rocket2","","1","real","null","1","","",""
"d3-animate-choice","148","735713","0.0-76.0-1.4","672","1206","13","Female","false","true","true","false","""event"",""trial"",""time""
""blur"",""3"",""16261""
""focus"",""3"",""18855""
""fullscreenenter"",""5"",""30727""
","""event"",""trial"",""time""
""blur"",""3"",""16261""
","""event"",""trial"",""time""
""focus"",""3"",""18855""
","""event"",""trial"",""time""
""fullscreenenter"",""5"",""30727""
","
","462","","49","","","3000","1","","","images/purpleplanet.jpg","images/alien4","images/alien3","images/rocket2","images/alien3","images/nothing.png","2","real","true","1","common","0","2022-03-18 00:14:40.540"
"two-step-fixation","149","736720","0.0-76.0-2.4","672","1206","13","Female","false","true","true","false","""event"",""trial"",""time""
""blur"",""3"",""16261""
""focus"",""3"",""18855""
""fullscreenenter"",""5"",""30727""
","""event"",""trial"",""time""
""blur"",""3"",""16261""
","""event"",""trial"",""time""
""focus"",""3"",""18855""
","""event"",""trial"",""time""
""fullscreenenter"",""5"",""30727""
","
","","images/earth.jpg","","","","","","","","","","","","","","fixation","","","","","",""
"d3-animate-choice","150","738997","0.0-76.0-0.5","672","1206","13","Female","false","true","true","false","""event"",""trial"",""time""
""blur"",""3"",""16261""
""focus"",""3"",""18855""
""fullscreenenter"",""5"",""30727""
","""event"",""trial"",""time""
""blur"",""3"",""16261""
","""event"",""trial"",""time""
""focus"",""3"",""18855""
","""event"",""trial"",""time""
""fullscreenenter"",""5"",""30727""
","
","276","","49","","","3000","1","","","images/earth.jpg","images/rocket1","images/rocket2","null","images/rocket2","","1","real","null","1","","",""
"d3-animate-choice","151","741704","0.0-76.0-1.5","672","1206","13","Female","false","true","true","false","""event"",""trial"",""time""
""blur"",""3"",""16261""
""focus"",""3"",""18855""
""fullscreenenter"",""5"",""30727""
","""event"",""trial"",""time""
""blur"",""3"",""16261""
","""event"",""trial"",""time""
""focus"",""3"",""18855""
","""event"",""trial"",""time""
""fullscreenenter"",""5"",""30727""
","
","703","","48","","","3000","1","","","images/purpleplanet.jpg","images/alien4","images/alien3","images/rocket2","images/alien4","images/nothing.png","2","real","true","2","common","0","2022-03-18 00:14:46.531"
"two-step-fixation","152","742709","0.0-76.0-2.5","672","1206","13","Female","false","true","true","false","""event"",""trial"",""time""
""blur"",""3"",""16261""
""focus"",""3"",""18855""
""fullscreenenter"",""5"",""30727""
","""event"",""trial"",""time""
""blur"",""3"",""16261""
","""event"",""trial"",""time""
""focus"",""3"",""18855""
","""event"",""trial"",""time""
""fullscreenenter"",""5"",""30727""
","
","","images/earth.jpg","","","","","","","","","","","","","","fixation","","","","","",""
"d3-animate-choice","153","745418","0.0-76.0-0.6","672","1206","13","Female","false","true","true","false","""event"",""trial"",""time""
""blur"",""3"",""16261""
""focus"",""3"",""18855""
""fullscreenenter"",""5"",""30727""
","""event"",""trial"",""time""
""blur"",""3"",""16261""
","""event"",""trial"",""time""
""focus"",""3"",""18855""
","""event"",""trial"",""time""
""fullscreenenter"",""5"",""30727""
","
","701","","48","","","3000","1","","","images/earth.jpg","images/rocket1","images/rocket2","null","images/rocket1","","1","real","null","2","","",""
"d3-animate-choice","154","747976","0.0-76.0-1.6","672","1206","13","Female","false","true","true","false","""event"",""trial"",""time""
""blur"",""3"",""16261""
""focus"",""3"",""18855""
""fullscreenenter"",""5"",""30727""
","""event"",""trial"",""time""
""blur"",""3"",""16261""
","""event"",""trial"",""time""
""focus"",""3"",""18855""
","""event"",""trial"",""time""
""fullscreenenter"",""5"",""30727""
","
","546","","48","","","3000","1","","","images/redplanet1.jpg","images/alien2","images/alien1","images/rocket1","images/alien2","images/nothing.png","2","real","true","2","common","0","2022-03-18 00:14:52.803"
"two-step-fixation","155","748988","0.0-76.0-2.6","672","1206","13","Female","false","true","true","false","""event"",""trial"",""time""
""blur"",""3"",""16261""
""focus"",""3"",""18855""
""fullscreenenter"",""5"",""30727""
","""event"",""trial"",""time""
""blur"",""3"",""16261""
","""event"",""trial"",""time""
""focus"",""3"",""18855""
","""event"",""trial"",""time""
""fullscreenenter"",""5"",""30727""
","
","","images/earth.jpg","","","","","","","","","","","","","","fixation","","","","","",""
"d3-animate-choice","156","751766","0.0-76.0-0.7","672","1206","13","Female","false","true","true","false","""event"",""trial"",""time""
""blur"",""3"",""16261""
""focus"",""3"",""18855""
""fullscreenenter"",""5"",""30727""
","""event"",""trial"",""time""
""blur"",""3"",""16261""
","""event"",""trial"",""time""
""focus"",""3"",""18855""
","""event"",""trial"",""time""
""fullscreenenter"",""5"",""30727""
","
","769","","49","","","3000","1","","","images/earth.jpg","images/rocket1","images/rocket2","null","images/rocket2","","1","real","null","1","","",""
"d3-animate-choice","157","755468","0.0-76.0-1.7","672","1206","13","Female","false","true","true","false","""event"",""trial"",""time""
""blur"",""3"",""16261""
""focus"",""3"",""18855""
""fullscreenenter"",""5"",""30727""
","""event"",""trial"",""time""
""blur"",""3"",""16261""
","""event"",""trial"",""time""
""focus"",""3"",""18855""
","""event"",""trial"",""time""
""fullscreenenter"",""5"",""30727""
","
","1694","","49","","","3000","1","","","images/redplanet1.jpg","images/alien2","images/alien1","images/rocket2","images/alien1","images/t.png","2","real","false","1","rare","1","2022-03-18 00:15:00.295"
"two-step-fixation","158","756483","0.0-76.0-2.7","672","1206","13","Female","false","true","true","false","""event"",""trial"",""time""
""blur"",""3"",""16261""
""focus"",""3"",""18855""
""fullscreenenter"",""5"",""30727""
","""event"",""trial"",""time""
""blur"",""3"",""16261""
","""event"",""trial"",""time""
""focus"",""3"",""18855""
","""event"",""trial"",""time""
""fullscreenenter"",""5"",""30727""
","
","","images/earth.jpg","","","","","","","","","","","","","","fixation","","","","","",""
"d3-animate-choice","159","758804","0.0-76.0-0.8","672","1206","13","Female","false","true","true","false","""event"",""trial"",""time""
""blur"",""3"",""16261""
""focus"",""3"",""18855""
""fullscreenenter"",""5"",""30727""
","""event"",""trial"",""time""
""blur"",""3"",""16261""
","""event"",""trial"",""time""
""focus"",""3"",""18855""
","""event"",""trial"",""time""
""fullscreenenter"",""5"",""30727""
","
","304","","49","","","3000","1","","","images/earth.jpg","images/rocket1","images/rocket2","null","images/rocket2","","1","real","null","1","","",""
"d3-animate-choice","160","761201","0.0-76.0-1.8","672","1206","13","Female","false","true","true","false","""event"",""trial"",""time""
""blur"",""3"",""16261""
""focus"",""3"",""18855""
""fullscreenenter"",""5"",""30727""
","""event"",""trial"",""time""
""blur"",""3"",""16261""
","""event"",""trial"",""time""
""focus"",""3"",""18855""
","""event"",""trial"",""time""
""fullscreenenter"",""5"",""30727""
","
","391","","49","","","3000","1","","","images/purpleplanet.jpg","images/alien4","images/alien3","images/rocket2","images/alien3","images/t.png","2","real","true","1","common","1","2022-03-18 00:15:06.028"
"two-step-fixation","161","762210","0.0-76.0-2.8","672","1206","13","Female","false","true","true","false","""event"",""trial"",""time""
""blur"",""3"",""16261""
""focus"",""3"",""18855""
""fullscreenenter"",""5"",""30727""
","""event"",""trial"",""time""
""blur"",""3"",""16261""
","""event"",""trial"",""time""
""focus"",""3"",""18855""
","""event"",""trial"",""time""
""fullscreenenter"",""5"",""30727""
","
","","images/earth.jpg","","","","","","","","","","","","","","fixation","","","","","",""
"d3-animate-choice","162","764509","0.0-76.0-0.9","672","1206","13","Female","false","true","true","false","""event"",""trial"",""time""
""blur"",""3"",""16261""
""focus"",""3"",""18855""
""fullscreenenter"",""5"",""30727""
","""event"",""trial"",""time""
""blur"",""3"",""16261""
","""event"",""trial"",""time""
""focus"",""3"",""18855""
","""event"",""trial"",""time""
""fullscreenenter"",""5"",""30727""
","
","283","","49","","","3000","1","","","images/earth.jpg","images/rocket1","images/rocket2","null","images/rocket2","","1","real","null","1","","",""
"d3-animate-choice","163","767000","0.0-76.0-1.9","672","1206","13","Female","false","true","true","false","""event"",""trial"",""time""
""blur"",""3"",""16261""
""focus"",""3"",""18855""
""fullscreenenter"",""5"",""30727""
","""event"",""trial"",""time""
""blur"",""3"",""16261""
","""event"",""trial"",""time""
""focus"",""3"",""18855""
","""event"",""trial"",""time""
""fullscreenenter"",""5"",""30727""
","
","479","","49","","","3000","1","","","images/purpleplanet.jpg","images/alien4","images/alien3","images/rocket2","images/alien3","images/nothing.png","2","real","true","1","common","0","2022-03-18 00:15:11.827"
"two-step-fixation","164","768005","0.0-76.0-2.9","672","1206","13","Female","false","true","true","false","""event"",""trial"",""time""
""blur"",""3"",""16261""
""focus"",""3"",""18855""
""fullscreenenter"",""5"",""30727""
","""event"",""trial"",""time""
""blur"",""3"",""16261""
","""event"",""trial"",""time""
""focus"",""3"",""18855""
","""event"",""trial"",""time""
""fullscreenenter"",""5"",""30727""
","
","","images/earth.jpg","","","","","","","","","","","","","","fixation","","","","","",""
"d3-animate-choice","165","770254","0.0-76.0-0.10","672","1206","13","Female","false","true","true","false","""event"",""trial"",""time""
""blur"",""3"",""16261""
""focus"",""3"",""18855""
""fullscreenenter"",""5"",""30727""
","""event"",""trial"",""time""
""blur"",""3"",""16261""
","""event"",""trial"",""time""
""focus"",""3"",""18855""
","""event"",""trial"",""time""
""fullscreenenter"",""5"",""30727""
","
","247","","49","","","3000","1","","","images/earth.jpg","images/rocket1","images/rocket2","null","images/rocket2","","1","real","null","1","","",""
"d3-animate-choice","166","773082","0.0-76.0-1.10","672","1206","13","Female","false","true","true","false","""event"",""trial"",""time""
""blur"",""3"",""16261""
""focus"",""3"",""18855""
""fullscreenenter"",""5"",""30727""
","""event"",""trial"",""time""
""blur"",""3"",""16261""
","""event"",""trial"",""time""
""focus"",""3"",""18855""
","""event"",""trial"",""time""
""fullscreenenter"",""5"",""30727""
","
","813","","48","","","3000","1","","","images/purpleplanet.jpg","images/alien4","images/alien3","images/rocket2","images/alien4","images/nothing.png","2","real","true","2","common","0","2022-03-18 00:15:17.909"
"two-step-fixation","167","774088","0.0-76.0-2.10","672","1206","13","Female","false","true","true","false","""event"",""trial"",""time""
""blur"",""3"",""16261""
""focus"",""3"",""18855""
""fullscreenenter"",""5"",""30727""
","""event"",""trial"",""time""
""blur"",""3"",""16261""
","""event"",""trial"",""time""
""focus"",""3"",""18855""
","""event"",""trial"",""time""
""fullscreenenter"",""5"",""30727""
","
","","images/earth.jpg","","","","","","","","","","","","","","fixation","","","","","",""
"d3-animate-choice","168","776838","0.0-76.0-0.11","672","1206","13","Female","false","true","true","false","""event"",""trial"",""time""
""blur"",""3"",""16261""
""focus"",""3"",""18855""
""fullscreenenter"",""5"",""30727""
","""event"",""trial"",""time""
""blur"",""3"",""16261""
","""event"",""trial"",""time""
""focus"",""3"",""18855""
","""event"",""trial"",""time""
""fullscreenenter"",""5"",""30727""
","
","740","","49","","","3000","1","","","images/earth.jpg","images/rocket1","images/rocket2","null","images/rocket2","","1","real","null","1","","",""
"d3-animate-choice","169","779327","0.0-76.0-1.11","672","1206","13","Female","false","true","true","false","""event"",""trial"",""time""
""blur"",""3"",""16261""
""focus"",""3"",""18855""
""fullscreenenter"",""5"",""30727""
","""event"",""trial"",""time""
""blur"",""3"",""16261""
","""event"",""trial"",""time""
""focus"",""3"",""18855""
","""event"",""trial"",""time""
""fullscreenenter"",""5"",""30727""
","
","485","","48","","","3000","1","","","images/purpleplanet.jpg","images/alien4","images/alien3","images/rocket2","images/alien4","images/t.png","2","real","true","2","common","1","2022-03-18 00:15:24.155"
"two-step-fixation","170","780336","0.0-76.0-2.11","672","1206","13","Female","false","true","true","false","""event"",""trial"",""time""
""blur"",""3"",""16261""
""focus"",""3"",""18855""
""fullscreenenter"",""5"",""30727""
","""event"",""trial"",""time""
""blur"",""3"",""16261""
","""event"",""trial"",""time""
""focus"",""3"",""18855""
","""event"",""trial"",""time""
""fullscreenenter"",""5"",""30727""
","
","","images/earth.jpg","","","","","","","","","","","","","","fixation","","","","","",""
"d3-animate-choice","171","782615","0.0-76.0-0.12","672","1206","13","Female","false","true","true","false","""event"",""trial"",""time""
""blur"",""3"",""16261""
""focus"",""3"",""18855""
""fullscreenenter"",""5"",""30727""
","""event"",""trial"",""time""
""blur"",""3"",""16261""
","""event"",""trial"",""time""
""focus"",""3"",""18855""
","""event"",""trial"",""time""
""fullscreenenter"",""5"",""30727""
","
","275","","49","","","3000","1","","","images/earth.jpg","images/rocket1","images/rocket2","null","images/rocket2","","1","real","null","1","","",""
"d3-animate-choice","172","785124","0.0-76.0-1.12","672","1206","13","Female","false","true","true","false","""event"",""trial"",""time""
""blur"",""3"",""16261""
""focus"",""3"",""18855""
""fullscreenenter"",""5"",""30727""
","""event"",""trial"",""time""
""blur"",""3"",""16261""
","""event"",""trial"",""time""
""focus"",""3"",""18855""
","""event"",""trial"",""time""
""fullscreenenter"",""5"",""30727""
","
","500","","48","","","3000","1","","","images/purpleplanet.jpg","images/alien4","images/alien3","images/rocket2","images/alien4","images/t.png","2","real","true","2","common","1","2022-03-18 00:15:29.951"
"two-step-fixation","173","786129","0.0-76.0-2.12","672","1206","13","Female","false","true","true","false","""event"",""trial"",""time""
""blur"",""3"",""16261""
""focus"",""3"",""18855""
""fullscreenenter"",""5"",""30727""
","""event"",""trial"",""time""
""blur"",""3"",""16261""
","""event"",""trial"",""time""
""focus"",""3"",""18855""
","""event"",""trial"",""time""
""fullscreenenter"",""5"",""30727""
","
","","images/earth.jpg","","","","","","","","","","","","","","fixation","","","","","",""
"d3-animate-choice","174","788371","0.0-76.0-0.13","672","1206","13","Female","false","true","true","false","""event"",""trial"",""time""
""blur"",""3"",""16261""
""focus"",""3"",""18855""
""fullscreenenter"",""5"",""30727""
","""event"",""trial"",""time""
""blur"",""3"",""16261""
","""event"",""trial"",""time""
""focus"",""3"",""18855""
","""event"",""trial"",""time""
""fullscreenenter"",""5"",""30727""
","
","235","","49","","","3000","1","","","images/earth.jpg","images/rocket1","images/rocket2","null","images/rocket2","","1","real","null","1","","",""
"d3-animate-choice","175","790813","0.0-76.0-1.13","672","1206","13","Female","false","true","true","false","""event"",""trial"",""time""
""blur"",""3"",""16261""
""focus"",""3"",""18855""
""fullscreenenter"",""5"",""30727""
","""event"",""trial"",""time""
""blur"",""3"",""16261""
","""event"",""trial"",""time""
""focus"",""3"",""18855""
","""event"",""trial"",""time""
""fullscreenenter"",""5"",""30727""
","
","433","","48","","","3000","1","","","images/purpleplanet.jpg","images/alien4","images/alien3","images/rocket2","images/alien4","images/t.png","2","real","true","2","common","1","2022-03-18 00:15:35.640"
"two-step-fixation","176","791820","0.0-76.0-2.13","672","1206","13","Female","false","true","true","false","""event"",""trial"",""time""
""blur"",""3"",""16261""
""focus"",""3"",""18855""
""fullscreenenter"",""5"",""30727""
","""event"",""trial"",""time""
""blur"",""3"",""16261""
","""event"",""trial"",""time""
""focus"",""3"",""18855""
","""event"",""trial"",""time""
""fullscreenenter"",""5"",""30727""
","
","","images/earth.jpg","","","","","","","","","","","","","","fixation","","","","","",""
"d3-animate-choice","177","794070","0.0-76.0-0.14","672","1206","13","Female","false","true","true","false","""event"",""trial"",""time""
""blur"",""3"",""16261""
""focus"",""3"",""18855""
""fullscreenenter"",""5"",""30727""
","""event"",""trial"",""time""
""blur"",""3"",""16261""
","""event"",""trial"",""time""
""focus"",""3"",""18855""
","""event"",""trial"",""time""
""fullscreenenter"",""5"",""30727""
","
","248","","49","","","3000","1","","","images/earth.jpg","images/rocket1","images/rocket2","null","images/rocket2","","1","real","null","1","","",""
"d3-animate-choice","178","797399","0.0-76.0-1.14","672","1206","13","Female","false","true","true","false","""event"",""trial"",""time""
""blur"",""3"",""16261""
""focus"",""3"",""18855""
""fullscreenenter"",""5"",""30727""
","""event"",""trial"",""time""
""blur"",""3"",""16261""
","""event"",""trial"",""time""
""focus"",""3"",""18855""
","""event"",""trial"",""time""
""fullscreenenter"",""5"",""30727""
","
","1317","","48","","","3000","1","","","images/redplanet1.jpg","images/alien2","images/alien1","images/rocket2","images/alien2","images/t.png","2","real","false","2","rare","1","2022-03-18 00:15:42.226"
"two-step-fixation","179","798412","0.0-76.0-2.14","672","1206","13","Female","false","true","true","false","""event"",""trial"",""time""
""blur"",""3"",""16261""
""focus"",""3"",""18855""
""fullscreenenter"",""5"",""30727""
","""event"",""trial"",""time""
""blur"",""3"",""16261""
","""event"",""trial"",""time""
""focus"",""3"",""18855""
","""event"",""trial"",""time""
""fullscreenenter"",""5"",""30727""
","
","","images/earth.jpg","","","","","","","","","","","","","","fixation","","","","","",""
