"trial_type","trial_index","time_elapsed","internal_node_id","participant_id","subject_id","age","gender","rocket_sides","red_planet_first_rocket","red_display_order","purple_display_order","interactions","blur_events","focus_events","fullscreenenter_events","fullscreenexit_events","rt","stimulus","key_press","button_pressed","success","duration","valid_pressed","rts","keys","planet_text","right_text","left_text","center_text","chosen_text","reward_text","trial_stage","practice_trial","transition_type","choice","transition","reward","timestamp"
"pavlovia","0","62","0.0-0.0","260","685","17","Male","true","true","false","true","""event"",""trial"",""time""
""focus"",""1"",""1248456""
","
","""event"",""trial"",""time""
""focus"",""1"",""1248456""
","
","
","","","","","","","","","","","","","","","","","","","","","",""
"html-keyboard-response","1","1249921","0.0-1.0","260","685","17","Male","true","true","false","true","""event"",""trial"",""time""
""focus"",""1"",""1248456""
","
","""event"",""trial"",""time""
""focus"",""1"",""1248456""
","
","
","1249855.2000000179","Welcome! Press the space bar to begin.","32","","","","","","","","","","","","","","","","","","",""
"audio-keyboard-response","2","1252215","0.0-2.0","260","685","17","Male","true","true","false","true","""event"",""trial"",""time""
""focus"",""1"",""1248456""
","
","""event"",""trial"",""time""
""focus"",""1"",""1248456""
","
","
","2219","audio/beep_loop.wav","32","","","","","","","","","","","","","","","","","","",""
"audio-button-response","3","1254801","0.0-3.0","260","685","17","Male","true","true","false","true","""event"",""trial"",""time""
""focus"",""1"",""1248456""
","
","""event"",""trial"",""time""
""focus"",""1"",""1248456""
","
","
","NaN","audio/fish.mp3","","1","","","","","","","","","","","","","","","","","",""
"audio-button-response","4","1257928","0.0-4.0","260","685","17","Male","true","true","false","true","""event"",""trial"",""time""
""focus"",""1"",""1248456""
""fullscreenenter"",""5"",""1264494""
","
","""event"",""trial"",""time""
""focus"",""1"",""1248456""
","""event"",""trial"",""time""
""fullscreenenter"",""5"",""1264494""
","
","NaN","audio/tiger.mp3","","4","","","","","","","","","","","","","","","","","",""
"fullscreen","5","1265430","0.0-5.0","260","685","17","Male","true","true","false","true","""event"",""trial"",""time""
""focus"",""1"",""1248456""
""fullscreenenter"",""5"",""1264494""
","
","""event"",""trial"",""time""
""focus"",""1"",""1248456""
","""event"",""trial"",""time""
""fullscreenenter"",""5"",""1264494""
","
","","","","","true","","","","","","","","","","","","","","","","",""
"d3-instructions","6","1268177","0.0-6.0","260","685","17","Male","true","true","false","true","""event"",""trial"",""time""
""focus"",""1"",""1248456""
""fullscreenenter"",""5"",""1264494""
","
","""event"",""trial"",""time""
""focus"",""1"",""1248456""
","""event"",""trial"",""time""
""fullscreenenter"",""5"",""1264494""
","
","","","","","","","","","","","","","","","","","","","","","",""
"d3-instructions","7","1269319","0.0-7.0","260","685","17","Male","true","true","false","true","""event"",""trial"",""time""
""focus"",""1"",""1248456""
""fullscreenenter"",""5"",""1264494""
","
","""event"",""trial"",""time""
""focus"",""1"",""1248456""
","""event"",""trial"",""time""
""fullscreenenter"",""5"",""1264494""
","
","","","","","","","","","","","","","","","","","","","","","",""
"d3-instructions","8","1270402","0.0-8.0","260","685","17","Male","true","true","false","true","""event"",""trial"",""time""
""focus"",""1"",""1248456""
""fullscreenenter"",""5"",""1264494""
","
","""event"",""trial"",""time""
""focus"",""1"",""1248456""
","""event"",""trial"",""time""
""fullscreenenter"",""5"",""1264494""
","
","","","","","","","","","","","","","","","","","","","","","",""
"d3-instructions","9","1271382","0.0-9.0","260","685","17","Male","true","true","false","true","""event"",""trial"",""time""
""focus"",""1"",""1248456""
""fullscreenenter"",""5"",""1264494""
","
","""event"",""trial"",""time""
""focus"",""1"",""1248456""
","""event"",""trial"",""time""
""fullscreenenter"",""5"",""1264494""
","
","","","","","","","","","","","","","","","","","","","","","",""
"d3-instructions","10","1272258","0.0-10.0","260","685","17","Male","true","true","false","true","""event"",""trial"",""time""
""focus"",""1"",""1248456""
""fullscreenenter"",""5"",""1264494""
","
","""event"",""trial"",""time""
""focus"",""1"",""1248456""
","""event"",""trial"",""time""
""fullscreenenter"",""5"",""1264494""
","
","","","","","","","","","","","","","","","","","","","","","",""
"d3-animate-choice","11","1275654","0.0-11.0","260","685","17","Male","true","true","false","true","""event"",""trial"",""time""
""focus"",""1"",""1248456""
""fullscreenenter"",""5"",""1264494""
","
","""event"",""trial"",""time""
""focus"",""1"",""1248456""
","""event"",""trial"",""time""
""fullscreenenter"",""5"",""1264494""
","
","1375.2000000178814","","49","","","3000","1","1529.7000000178814,1736.0999999940395,1898.5999999940395,2060.7000000178814,2332.2000000178814,2481.5999999940395,2620.0999999940395,2767.0999999940395,2923.4000000059605,3075.300000011921,3181.5999999940395,3331.300000011921","49,49,49,49,49,49,49,49,49,49,49,49","images/tutgreenplanet.jpg","images/tutalien1","images/tutalien2","null","images/tutalien2","","NA","practice","null","","","",""
"d3-animate-choice","12","1277734","0.0-12.0","260","685","17","Male","true","true","false","true","""event"",""trial"",""time""
""focus"",""1"",""1248456""
""fullscreenenter"",""5"",""1264494""
","
","""event"",""trial"",""time""
""focus"",""1"",""1248456""
","""event"",""trial"",""time""
""fullscreenenter"",""5"",""1264494""
","
","74.2999999821186","","49","","","3000","1","216.59999999403954,371.59999999403954,505.7999999821186,797.6999999880791,950.2999999821186,1099.4000000059605,1258.4000000059605,1425.699999988079,1570.0999999940395,1719.199999988079,1861.5,2023.4000000059605","49,49,49,49,49,49,49,49,49,49,49,49","images/tutgreenplanet.jpg","images/tutalien1","images/tutalien2","null","images/tutalien2","","NA","practice","null","","","",""
"d3-animate-choice","13","1279839","0.0-13.0","260","685","17","Male","true","true","false","true","""event"",""trial"",""time""
""focus"",""1"",""1248456""
""fullscreenenter"",""5"",""1264494""
","
","""event"",""trial"",""time""
""focus"",""1"",""1248456""
","""event"",""trial"",""time""
""fullscreenenter"",""5"",""1264494""
","
","98.19999998807907","","49","","","3000","1","264.69999998807907,403.7999999821186,537.8999999761581,695,854.5999999940395,1003.0999999940395,1153,1302.0999999940395,1461.5,1613,1764.5,1934.5,2073.899999976158","49,49,49,49,49,49,49,49,49,49,49,49,49","images/tutgreenplanet.jpg","images/tutalien1","images/tutalien2","null","images/tutalien2","","NA","practice","null","","","",""
"d3-animate-choice","14","1281945","0.0-14.0","260","685","17","Male","true","true","false","true","""event"",""trial"",""time""
""focus"",""1"",""1248456""
""fullscreenenter"",""5"",""1264494""
","
","""event"",""trial"",""time""
""focus"",""1"",""1248456""
","""event"",""trial"",""time""
""fullscreenenter"",""5"",""1264494""
","
","100.40000000596046","","49","","","3000","1","285.5,382,1674.9000000059605,1823.9000000059605,1967.800000011921","49,49,48,48,48","images/tutgreenplanet.jpg","images/tutalien1","images/tutalien2","null","images/tutalien2","","NA","practice","null","","","",""
"d3-instructions","15","1284219","0.0-15.0","260","685","17","Male","true","true","false","true","""event"",""trial"",""time""
""focus"",""1"",""1248456""
""fullscreenenter"",""5"",""1264494""
","
","""event"",""trial"",""time""
""focus"",""1"",""1248456""
","""event"",""trial"",""time""
""fullscreenenter"",""5"",""1264494""
","
","","","","","","","","","","","","","","","","","","","","","",""
"d3-instructions","16","1285168","0.0-16.0","260","685","17","Male","true","true","false","true","""event"",""trial"",""time""
""focus"",""1"",""1248456""
""fullscreenenter"",""5"",""1264494""
","
","""event"",""trial"",""time""
""focus"",""1"",""1248456""
","""event"",""trial"",""time""
""fullscreenenter"",""5"",""1264494""
","
","","","","","","","","","","","","","","","","","","","","","",""
"d3-instructions","17","1286042","0.0-17.0","260","685","17","Male","true","true","false","true","""event"",""trial"",""time""
""focus"",""1"",""1248456""
""fullscreenenter"",""5"",""1264494""
","
","""event"",""trial"",""time""
""focus"",""1"",""1248456""
","""event"",""trial"",""time""
""fullscreenenter"",""5"",""1264494""
","
","","","","","","","","","","","","","","","","","","","","","",""
"d3-instructions","18","1286913","0.0-18.0","260","685","17","Male","true","true","false","true","""event"",""trial"",""time""
""focus"",""1"",""1248456""
""fullscreenenter"",""5"",""1264494""
","
","""event"",""trial"",""time""
""focus"",""1"",""1248456""
","""event"",""trial"",""time""
""fullscreenenter"",""5"",""1264494""
","
","","","","","","","","","","","","","","","","","","","","","",""
"d3-instructions","19","1287771","0.0-19.0","260","685","17","Male","true","true","false","true","""event"",""trial"",""time""
""focus"",""1"",""1248456""
""fullscreenenter"",""5"",""1264494""
","
","""event"",""trial"",""time""
""focus"",""1"",""1248456""
","""event"",""trial"",""time""
""fullscreenenter"",""5"",""1264494""
","
","","","","","","","","","","","","","","","","","","","","","",""
"d3-animate-choice","20","1290948","0.0-20.0","260","685","17","Male","true","true","false","true","""event"",""trial"",""time""
""focus"",""1"",""1248456""
""fullscreenenter"",""5"",""1264494""
","
","""event"",""trial"",""time""
""focus"",""1"",""1248456""
","""event"",""trial"",""time""
""fullscreenenter"",""5"",""1264494""
","
","1170.0999999940395","","49","","","3000","1","3083.399999976158","49","images/tutyellowplanet.jpg","null","images/tutalien3","null","images/tutalien3","images/nothing.png","NA","practice","null","","","",""
"d3-animate-choice","21","1293066","0.0-21.0","260","685","17","Male","true","true","false","true","""event"",""trial"",""time""
""focus"",""1"",""1248456""
""fullscreenenter"",""5"",""1264494""
","
","""event"",""trial"",""time""
""focus"",""1"",""1248456""
","""event"",""trial"",""time""
""fullscreenenter"",""5"",""1264494""
","
","112.19999998807907","","49","","","3000","1","278.69999998807907,1406.0999999940395,1642.5999999940395,1883.0999999940395,2099.699999988079","49,49,49,49,49","images/tutyellowplanet.jpg","null","images/tutalien3","null","images/tutalien3","images/t.png","NA","practice","null","","","",""
"d3-animate-choice","22","1295214","0.0-22.0","260","685","17","Male","true","true","false","true","""event"",""trial"",""time""
""focus"",""1"",""1248456""
""fullscreenenter"",""5"",""1264494""
","
","""event"",""trial"",""time""
""focus"",""1"",""1248456""
","""event"",""trial"",""time""
""fullscreenenter"",""5"",""1264494""
","
","143.5","","49","","","3000","1","328.30000001192093,503.09999999403954,689.6999999880791,869.3000000119209,1051.300000011921,1205.300000011921,1359.800000011921,1507.9000000059605,1641.9000000059605,1789.800000011921,1927.0999999940395,2078.5","49,49,49,49,49,49,49,49,49,49,49,49","images/tutyellowplanet.jpg","null","images/tutalien3","null","images/tutalien3","images/nothing.png","NA","practice","null","","","",""
"d3-animate-choice","23","1297317","0.0-23.0","260","685","17","Male","true","true","false","true","""event"",""trial"",""time""
""focus"",""1"",""1248456""
""fullscreenenter"",""5"",""1264494""
","
","""event"",""trial"",""time""
""focus"",""1"",""1248456""
","""event"",""trial"",""time""
""fullscreenenter"",""5"",""1264494""
","
","97.5","","49","","","3000","1","225.69999998807907,370.2999999821186,524.6999999880791,684.1999999880791,825.0999999940395,1004.9000000059605,1152.199999988079,1294.5,1466,1640.4000000059605,1822.9000000059605,2017.0999999940395","49,49,49,49,49,49,49,49,49,49,49,49","images/tutyellowplanet.jpg","null","images/tutalien3","null","images/tutalien3","images/nothing.png","NA","practice","null","","","",""
"d3-animate-choice","24","1299419","0.0-24.0","260","685","17","Male","true","true","false","true","""event"",""trial"",""time""
""focus"",""1"",""1248456""
""fullscreenenter"",""5"",""1264494""
","
","""event"",""trial"",""time""
""focus"",""1"",""1248456""
","""event"",""trial"",""time""
""fullscreenenter"",""5"",""1264494""
","
","97","","49","","","3000","1","304.5,483.5,655.4000000059605,860.6999999880791,1022.7999999821186,1207.0999999940395,1389.5,1577.0999999940395,1733.199999988079,1902.9000000059605,2072.0999999940395","49,49,49,49,49,49,49,49,49,49,49","images/tutyellowplanet.jpg","null","images/tutalien3","null","images/tutalien3","images/nothing.png","NA","practice","null","","","",""
"d3-animate-choice","25","1301529","0.0-25.0","260","685","17","Male","true","true","false","true","""event"",""trial"",""time""
""focus"",""1"",""1248456""
""fullscreenenter"",""5"",""1264494""
","
","""event"",""trial"",""time""
""focus"",""1"",""1248456""
","""event"",""trial"",""time""
""fullscreenenter"",""5"",""1264494""
","
","106","","49","","","3000","1","300.59999999403954,462.7999999821186,621.7999999821186,798.2999999821186,963.2999999821186,1125.5,1287.4000000059605,1474,1661.0999999940395,1833.699999988079,2009.7999999821186","49,49,49,49,49,49,49,49,49,49,49","images/tutyellowplanet.jpg","null","images/tutalien3","null","images/tutalien3","images/nothing.png","NA","practice","null","","","",""
"d3-animate-choice","26","1303622","0.0-26.0","260","685","17","Male","true","true","false","true","""event"",""trial"",""time""
""focus"",""1"",""1248456""
""fullscreenenter"",""5"",""1264494""
","
","""event"",""trial"",""time""
""focus"",""1"",""1248456""
","""event"",""trial"",""time""
""fullscreenenter"",""5"",""1264494""
","
","88.09999999403954","","49","","","3000","1","253,401.69999998807907,575.6999999880791,730.5,899.7999999821186,1073.9000000059605,1243.5,1415.5,1588.699999988079,1759.699999988079,1940.199999988079","49,49,49,49,49,49,49,49,49,49,49","images/tutyellowplanet.jpg","null","images/tutalien3","null","images/tutalien3","images/t.png","NA","practice","null","","","",""
"d3-animate-choice","27","1305655","0.0-27.0","260","685","17","Male","true","true","false","true","""event"",""trial"",""time""
""focus"",""1"",""1248456""
""fullscreenenter"",""5"",""1264494""
","
","""event"",""trial"",""time""
""focus"",""1"",""1248456""
","""event"",""trial"",""time""
""fullscreenenter"",""5"",""1264494""
","
","27","","49","","","3000","1","195.2999999821186,387.69999998807907,572.9000000059605,772.4000000059605,959.2999999821186,1157.2999999821186,1349.5999999940395,1537.5,1759,1994.0999999940395","49,49,49,49,49,49,49,49,49,49","images/tutyellowplanet.jpg","null","images/tutalien3","null","images/tutalien3","images/t.png","NA","practice","null","","","",""
"d3-animate-choice","28","1307793","0.0-28.0","260","685","17","Male","true","true","false","true","""event"",""trial"",""time""
""focus"",""1"",""1248456""
""fullscreenenter"",""5"",""1264494""
","
","""event"",""trial"",""time""
""focus"",""1"",""1248456""
","""event"",""trial"",""time""
""fullscreenenter"",""5"",""1264494""
","
","132.10000002384186","","49","","","3000","1","357.40000000596046,554.5,731.5,914.2000000178814,1086.4000000059605,1278.5,1481.1000000238419,1674.5,2065.7000000178814","49,49,49,49,49,49,49,49,49","images/tutyellowplanet.jpg","null","images/tutalien3","null","images/tutalien3","images/t.png","NA","practice","null","","","",""
"d3-animate-choice","29","1309913","0.0-29.0","260","685","17","Male","true","true","false","true","""event"",""trial"",""time""
""focus"",""1"",""1248456""
""fullscreenenter"",""5"",""1264494""
""fullscreenexit"",""30"",""1310949""
""blur"",""30"",""1313719""
""focus"",""30"",""2750230""
","""event"",""trial"",""time""
""blur"",""30"",""1313719""
","""event"",""trial"",""time""
""focus"",""1"",""1248456""
""focus"",""30"",""2750230""
","""event"",""trial"",""time""
""fullscreenenter"",""5"",""1264494""
","""event"",""trial"",""time""
""fullscreenexit"",""30"",""1310949""
","114.5","","49","","","3000","1","285.19999998807907,483.30000001192093,778.8000000119209,1023.5999999940395,1231.5,1451.0999999940395,1621.300000011921,1800.4000000059605,1970.199999988079","49,49,49,49,49,49,49,49,49","images/tutyellowplanet.jpg","null","images/tutalien3","null","images/tutalien3","images/nothing.png","NA","practice","null","","","",""
"d3-instructions","30","2759643","0.0-30.0","260","685","17","Male","true","true","false","true","""event"",""trial"",""time""
""focus"",""1"",""1248456""
""fullscreenenter"",""5"",""1264494""
""fullscreenexit"",""30"",""1310949""
""blur"",""30"",""1313719""
""focus"",""30"",""2750230""
","""event"",""trial"",""time""
""blur"",""30"",""1313719""
","""event"",""trial"",""time""
""focus"",""1"",""1248456""
""focus"",""30"",""2750230""
","""event"",""trial"",""time""
""fullscreenenter"",""5"",""1264494""
","""event"",""trial"",""time""
""fullscreenexit"",""30"",""1310949""
","","","","","","","","","","","","","","","","","","","","","",""
"d3-instructions","31","2760723","0.0-31.0","260","685","17","Male","true","true","false","true","""event"",""trial"",""time""
""focus"",""1"",""1248456""
""fullscreenenter"",""5"",""1264494""
""fullscreenexit"",""30"",""1310949""
""blur"",""30"",""1313719""
""focus"",""30"",""2750230""
","""event"",""trial"",""time""
""blur"",""30"",""1313719""
","""event"",""trial"",""time""
""focus"",""1"",""1248456""
""focus"",""30"",""2750230""
","""event"",""trial"",""time""
""fullscreenenter"",""5"",""1264494""
","""event"",""trial"",""time""
""fullscreenexit"",""30"",""1310949""
","","","","","","","","","","","","","","","","","","","","","",""
"d3-instructions","32","2761598","0.0-32.0","260","685","17","Male","true","true","false","true","""event"",""trial"",""time""
""focus"",""1"",""1248456""
""fullscreenenter"",""5"",""1264494""
""fullscreenexit"",""30"",""1310949""
""blur"",""30"",""1313719""
""focus"",""30"",""2750230""
","""event"",""trial"",""time""
""blur"",""30"",""1313719""
","""event"",""trial"",""time""
""focus"",""1"",""1248456""
""focus"",""30"",""2750230""
","""event"",""trial"",""time""
""fullscreenenter"",""5"",""1264494""
","""event"",""trial"",""time""
""fullscreenexit"",""30"",""1310949""
","","","","","","","","","","","","","","","","","","","","","",""
"d3-instructions","33","2762527","0.0-33.0","260","685","17","Male","true","true","false","true","""event"",""trial"",""time""
""focus"",""1"",""1248456""
""fullscreenenter"",""5"",""1264494""
""fullscreenexit"",""30"",""1310949""
""blur"",""30"",""1313719""
""focus"",""30"",""2750230""
","""event"",""trial"",""time""
""blur"",""30"",""1313719""
","""event"",""trial"",""time""
""focus"",""1"",""1248456""
""focus"",""30"",""2750230""
","""event"",""trial"",""time""
""fullscreenenter"",""5"",""1264494""
","""event"",""trial"",""time""
""fullscreenexit"",""30"",""1310949""
","","","","","","","","","","","","","","","","","","","","","",""
"d3-animate-choice","34","2765701","0.0-34.0","260","685","17","Male","true","true","false","true","""event"",""trial"",""time""
""focus"",""1"",""1248456""
""fullscreenenter"",""5"",""1264494""
""fullscreenexit"",""30"",""1310949""
""blur"",""30"",""1313719""
""focus"",""30"",""2750230""
","""event"",""trial"",""time""
""blur"",""30"",""1313719""
","""event"",""trial"",""time""
""focus"",""1"",""1248456""
""focus"",""30"",""2750230""
","""event"",""trial"",""time""
""fullscreenenter"",""5"",""1264494""
","""event"",""trial"",""time""
""fullscreenexit"",""30"",""1310949""
","1166.9000000059605","","49","","","3000","1","1343.300000011921,1686.5999999940395,1851.5,2020.0999999940395,2194.4000000059605,2378.9000000059605,2558.300000011921,2736.5,2934.4000000059605,3104.5","49,49,49,49,49,49,49,49,49,49","images/tutgreenplanet.jpg","images/tutalien1","images/tutalien2","null","images/tutalien2","images/t.png","NA","practice","null","","","",""
"d3-animate-choice","35","2767812","0.0-35.0","260","685","17","Male","true","true","false","true","""event"",""trial"",""time""
""focus"",""1"",""1248456""
""fullscreenenter"",""5"",""1264494""
""fullscreenexit"",""30"",""1310949""
""blur"",""30"",""1313719""
""focus"",""30"",""2750230""
","""event"",""trial"",""time""
""blur"",""30"",""1313719""
","""event"",""trial"",""time""
""focus"",""1"",""1248456""
""focus"",""30"",""2750230""
","""event"",""trial"",""time""
""fullscreenenter"",""5"",""1264494""
","""event"",""trial"",""time""
""fullscreenexit"",""30"",""1310949""
","103.30000001192093","","49","","","3000","1","282.59999999403954,468.7000000178814,655,835.4000000059605,1015.7000000178814,1220.800000011921,1404,1573.4000000059605,1762,1962.4000000059605","49,49,49,49,49,49,49,49,49,49","images/tutgreenplanet.jpg","images/tutalien1","images/tutalien2","null","images/tutalien2","images/t.png","NA","practice","null","","","",""
"d3-animate-choice","36","2769850","0.0-36.0","260","685","17","Male","true","true","false","true","""event"",""trial"",""time""
""focus"",""1"",""1248456""
""fullscreenenter"",""5"",""1264494""
""fullscreenexit"",""30"",""1310949""
""blur"",""30"",""1313719""
""focus"",""30"",""2750230""
","""event"",""trial"",""time""
""blur"",""30"",""1313719""
","""event"",""trial"",""time""
""focus"",""1"",""1248456""
""focus"",""30"",""2750230""
","""event"",""trial"",""time""
""fullscreenenter"",""5"",""1264494""
","""event"",""trial"",""time""
""fullscreenexit"",""30"",""1310949""
","28.19999998807907","","49","","","3000","1","235.39999997615814,422.09999999403954,622.0999999940395,800,975.8999999761581,1164.2999999821186,1341.199999988079,1516.7999999821186,1755.199999988079,1942.2999999821186","49,49,49,49,49,49,49,49,49,49","images/tutgreenplanet.jpg","images/tutalien1","images/tutalien2","null","images/tutalien2","images/t.png","NA","practice","null","","","",""
"d3-animate-choice","37","2771942","0.0-37.0","260","685","17","Male","true","true","false","true","""event"",""trial"",""time""
""focus"",""1"",""1248456""
""fullscreenenter"",""5"",""1264494""
""fullscreenexit"",""30"",""1310949""
""blur"",""30"",""1313719""
""focus"",""30"",""2750230""
","""event"",""trial"",""time""
""blur"",""30"",""1313719""
","""event"",""trial"",""time""
""focus"",""1"",""1248456""
""focus"",""30"",""2750230""
","""event"",""trial"",""time""
""fullscreenenter"",""5"",""1264494""
","""event"",""trial"",""time""
""fullscreenexit"",""30"",""1310949""
","87.69999998807907","","49","","","3000","1","268.19999998807907,463.59999999403954,657.4000000059605,849.5,1023.5,1187.2999999821186,1387.2999999821186,1562.5999999940395,1752.9000000059605,1936.699999988079","49,49,49,49,49,49,49,49,49,49","images/tutgreenplanet.jpg","images/tutalien1","images/tutalien2","null","images/tutalien2","images/t.png","NA","practice","null","","","",""
"d3-animate-choice","38","2773967","0.0-38.0","260","685","17","Male","true","true","false","true","""event"",""trial"",""time""
""focus"",""1"",""1248456""
""fullscreenenter"",""5"",""1264494""
""fullscreenexit"",""30"",""1310949""
""blur"",""30"",""1313719""
""focus"",""30"",""2750230""
","""event"",""trial"",""time""
""blur"",""30"",""1313719""
","""event"",""trial"",""time""
""focus"",""1"",""1248456""
""focus"",""30"",""2750230""
","""event"",""trial"",""time""
""fullscreenenter"",""5"",""1264494""
","""event"",""trial"",""time""
""fullscreenexit"",""30"",""1310949""
","21.099999994039536","","49","","","3000","1","199.40000000596046,386.09999999403954,566.4000000059605,738.5,916.5,1102.0999999940395,1294.2000000178814,1453.0999999940395,1644.2000000178814,1819.800000011921,1995.800000011921","49,49,49,49,49,49,49,49,49,49,49","images/tutgreenplanet.jpg","images/tutalien1","images/tutalien2","null","images/tutalien2","images/t.png","NA","practice","null","","","",""
"d3-animate-choice","39","2776123","0.0-39.0","260","685","17","Male","true","true","false","true","""event"",""trial"",""time""
""focus"",""1"",""1248456""
""fullscreenenter"",""5"",""1264494""
""fullscreenexit"",""30"",""1310949""
""blur"",""30"",""1313719""
""focus"",""30"",""2750230""
","""event"",""trial"",""time""
""blur"",""30"",""1313719""
","""event"",""trial"",""time""
""focus"",""1"",""1248456""
""focus"",""30"",""2750230""
","""event"",""trial"",""time""
""fullscreenenter"",""5"",""1264494""
","""event"",""trial"",""time""
""fullscreenexit"",""30"",""1310949""
","152.09999999403954","","49","","","3000","1","320.59999999403954,498,675.5999999940395,880.4000000059605,1040.5,1224.2999999821186,1402.199999988079,1597.0999999940395,1790.5999999940395,1948.5999999940395,2140","49,49,49,49,49,49,49,49,49,49,49","images/tutgreenplanet.jpg","images/tutalien1","images/tutalien2","null","images/tutalien2","images/t.png","NA","practice","null","","","",""
"d3-animate-choice","40","2778296","0.0-40.0","260","685","17","Male","true","true","false","true","""event"",""trial"",""time""
""focus"",""1"",""1248456""
""fullscreenenter"",""5"",""1264494""
""fullscreenexit"",""30"",""1310949""
""blur"",""30"",""1313719""
""focus"",""30"",""2750230""
","""event"",""trial"",""time""
""blur"",""30"",""1313719""
","""event"",""trial"",""time""
""focus"",""1"",""1248456""
""focus"",""30"",""2750230""
","""event"",""trial"",""time""
""fullscreenenter"",""5"",""1264494""
","""event"",""trial"",""time""
""fullscreenexit"",""30"",""1310949""
","166.40000000596046","","49","","","3000","1","357,515.5999999940395,697.0999999940395,870.5999999940395,1071.9000000059605,1267.800000011921,1447,1632.199999988079,1832.199999988079,2013.5999999940395","49,49,49,49,49,49,49,49,49,49","images/tutgreenplanet.jpg","images/tutalien1","images/tutalien2","null","images/tutalien2","images/t.png","NA","practice","null","","","",""
"d3-animate-choice","41","2780333","0.0-41.0","260","685","17","Male","true","true","false","true","""event"",""trial"",""time""
""focus"",""1"",""1248456""
""fullscreenenter"",""5"",""1264494""
""fullscreenexit"",""30"",""1310949""
""blur"",""30"",""1313719""
""focus"",""30"",""2750230""
","""event"",""trial"",""time""
""blur"",""30"",""1313719""
","""event"",""trial"",""time""
""focus"",""1"",""1248456""
""focus"",""30"",""2750230""
","""event"",""trial"",""time""
""fullscreenenter"",""5"",""1264494""
","""event"",""trial"",""time""
""fullscreenexit"",""30"",""1310949""
","32.69999998807907","","49","","","3000","1","210.59999999403954,386,570.3999999761581,778.1999999880791,977,1173,1362.2999999821186,1553.7999999821186,1744.199999988079,1948.2999999821186","49,49,49,49,49,49,49,49,49,49","images/tutgreenplanet.jpg","images/tutalien1","images/tutalien2","null","images/tutalien2","images/t.png","NA","practice","null","","","",""
"d3-animate-choice","42","2782430","0.0-42.0","260","685","17","Male","true","true","false","true","""event"",""trial"",""time""
""focus"",""1"",""1248456""
""fullscreenenter"",""5"",""1264494""
""fullscreenexit"",""30"",""1310949""
""blur"",""30"",""1313719""
""focus"",""30"",""2750230""
","""event"",""trial"",""time""
""blur"",""30"",""1313719""
","""event"",""trial"",""time""
""focus"",""1"",""1248456""
""focus"",""30"",""2750230""
","""event"",""trial"",""time""
""fullscreenenter"",""5"",""1264494""
","""event"",""trial"",""time""
""fullscreenexit"",""30"",""1310949""
","91.7999999821186","","49","","","3000","1","279.90000000596046,464.7999999821186,661,841.0999999940395,1039.699999988079,1229.4000000059605,1455.5999999940395,1642.5999999940395,1834.9000000059605,2035.699999988079","49,49,49,49,49,49,49,49,49,49","images/tutgreenplanet.jpg","images/tutalien1","images/tutalien2","null","images/tutalien2","images/t.png","NA","practice","null","","","",""
"d3-animate-choice","43","2784575","0.0-43.0","260","685","17","Male","true","true","false","true","""event"",""trial"",""time""
""focus"",""1"",""1248456""
""fullscreenenter"",""5"",""1264494""
""fullscreenexit"",""30"",""1310949""
""blur"",""30"",""1313719""
""focus"",""30"",""2750230""
","""event"",""trial"",""time""
""blur"",""30"",""1313719""
","""event"",""trial"",""time""
""focus"",""1"",""1248456""
""focus"",""30"",""2750230""
","""event"",""trial"",""time""
""fullscreenenter"",""5"",""1264494""
","""event"",""trial"",""time""
""fullscreenexit"",""30"",""1310949""
","139.30000001192093","","49","","","3000","1","346.7000000178814,547.4000000059605,744.8000000119209,954.6000000238419,1146.9000000059605,1374.2000000178814,1557.2000000178814,1747.5,1935.6000000238419,2115.4000000059605","49,49,49,49,49,49,49,49,49,49","images/tutgreenplanet.jpg","images/tutalien1","images/tutalien2","null","images/tutalien2","images/t.png","NA","practice","null","","","",""
"d3-instructions","44","2796844","0.0-44.0","260","685","17","Male","true","true","false","true","""event"",""trial"",""time""
""focus"",""1"",""1248456""
""fullscreenenter"",""5"",""1264494""
""fullscreenexit"",""30"",""1310949""
""blur"",""30"",""1313719""
""focus"",""30"",""2750230""
","""event"",""trial"",""time""
""blur"",""30"",""1313719""
","""event"",""trial"",""time""
""focus"",""1"",""1248456""
""focus"",""30"",""2750230""
","""event"",""trial"",""time""
""fullscreenenter"",""5"",""1264494""
","""event"",""trial"",""time""
""fullscreenexit"",""30"",""1310949""
","","","","","","","","","","","","","","","","","","","","","",""
"d3-instructions","45","2797898","0.0-45.0","260","685","17","Male","true","true","false","true","""event"",""trial"",""time""
""focus"",""1"",""1248456""
""fullscreenenter"",""5"",""1264494""
""fullscreenexit"",""30"",""1310949""
""blur"",""30"",""1313719""
""focus"",""30"",""2750230""
","""event"",""trial"",""time""
""blur"",""30"",""1313719""
","""event"",""trial"",""time""
""focus"",""1"",""1248456""
""focus"",""30"",""2750230""
","""event"",""trial"",""time""
""fullscreenenter"",""5"",""1264494""
","""event"",""trial"",""time""
""fullscreenexit"",""30"",""1310949""
","","","","","","","","","","","","","","","","","","","","","",""
"d3-instructions","46","2798892","0.0-46.0","260","685","17","Male","true","true","false","true","""event"",""trial"",""time""
""focus"",""1"",""1248456""
""fullscreenenter"",""5"",""1264494""
""fullscreenexit"",""30"",""1310949""
""blur"",""30"",""1313719""
""focus"",""30"",""2750230""
","""event"",""trial"",""time""
""blur"",""30"",""1313719""
","""event"",""trial"",""time""
""focus"",""1"",""1248456""
""focus"",""30"",""2750230""
","""event"",""trial"",""time""
""fullscreenenter"",""5"",""1264494""
","""event"",""trial"",""time""
""fullscreenexit"",""30"",""1310949""
","","","","","","","","","","","","","","","","","","","","","",""
"d3-instructions","47","2799790","0.0-47.0","260","685","17","Male","true","true","false","true","""event"",""trial"",""time""
""focus"",""1"",""1248456""
""fullscreenenter"",""5"",""1264494""
""fullscreenexit"",""30"",""1310949""
""blur"",""30"",""1313719""
""focus"",""30"",""2750230""
","""event"",""trial"",""time""
""blur"",""30"",""1313719""
","""event"",""trial"",""time""
""focus"",""1"",""1248456""
""focus"",""30"",""2750230""
","""event"",""trial"",""time""
""fullscreenenter"",""5"",""1264494""
","""event"",""trial"",""time""
""fullscreenexit"",""30"",""1310949""
","","","","","","","","","","","","","","","","","","","","","",""
"d3-instructions","48","2800598","0.0-48.0","260","685","17","Male","true","true","false","true","""event"",""trial"",""time""
""focus"",""1"",""1248456""
""fullscreenenter"",""5"",""1264494""
""fullscreenexit"",""30"",""1310949""
""blur"",""30"",""1313719""
""focus"",""30"",""2750230""
","""event"",""trial"",""time""
""blur"",""30"",""1313719""
","""event"",""trial"",""time""
""focus"",""1"",""1248456""
""focus"",""30"",""2750230""
","""event"",""trial"",""time""
""fullscreenenter"",""5"",""1264494""
","""event"",""trial"",""time""
""fullscreenexit"",""30"",""1310949""
","","","","","","","","","","","","","","","","","","","","","",""
"d3-instructions","49","2801379","0.0-49.0","260","685","17","Male","true","true","false","true","""event"",""trial"",""time""
""focus"",""1"",""1248456""
""fullscreenenter"",""5"",""1264494""
""fullscreenexit"",""30"",""1310949""
""blur"",""30"",""1313719""
""focus"",""30"",""2750230""
","""event"",""trial"",""time""
""blur"",""30"",""1313719""
","""event"",""trial"",""time""
""focus"",""1"",""1248456""
""focus"",""30"",""2750230""
","""event"",""trial"",""time""
""fullscreenenter"",""5"",""1264494""
","""event"",""trial"",""time""
""fullscreenexit"",""30"",""1310949""
","","","","","","","","","","","","","","","","","","","","","",""
"d3-instructions","50","2802193","0.0-50.0","260","685","17","Male","true","true","false","true","""event"",""trial"",""time""
""focus"",""1"",""1248456""
""fullscreenenter"",""5"",""1264494""
""fullscreenexit"",""30"",""1310949""
""blur"",""30"",""1313719""
""focus"",""30"",""2750230""
","""event"",""trial"",""time""
""blur"",""30"",""1313719""
","""event"",""trial"",""time""
""focus"",""1"",""1248456""
""focus"",""30"",""2750230""
","""event"",""trial"",""time""
""fullscreenenter"",""5"",""1264494""
","""event"",""trial"",""time""
""fullscreenexit"",""30"",""1310949""
","","","","","","","","","","","","","","","","","","","","","",""
"d3-instructions","51","2803480","0.0-51.0","260","685","17","Male","true","true","false","true","""event"",""trial"",""time""
""focus"",""1"",""1248456""
""fullscreenenter"",""5"",""1264494""
""fullscreenexit"",""30"",""1310949""
""blur"",""30"",""1313719""
""focus"",""30"",""2750230""
","""event"",""trial"",""time""
""blur"",""30"",""1313719""
","""event"",""trial"",""time""
""focus"",""1"",""1248456""
""focus"",""30"",""2750230""
","""event"",""trial"",""time""
""fullscreenenter"",""5"",""1264494""
","""event"",""trial"",""time""
""fullscreenexit"",""30"",""1310949""
","","","","","","","","","","","","","","","","","","","","","",""
"d3-instructions","52","2804287","0.0-52.0","260","685","17","Male","true","true","false","true","""event"",""trial"",""time""
""focus"",""1"",""1248456""
""fullscreenenter"",""5"",""1264494""
""fullscreenexit"",""30"",""1310949""
""blur"",""30"",""1313719""
""focus"",""30"",""2750230""
","""event"",""trial"",""time""
""blur"",""30"",""1313719""
","""event"",""trial"",""time""
""focus"",""1"",""1248456""
""focus"",""30"",""2750230""
","""event"",""trial"",""time""
""fullscreenenter"",""5"",""1264494""
","""event"",""trial"",""time""
""fullscreenexit"",""30"",""1310949""
","","","","","","","","","","","","","","","","","","","","","",""
"d3-instructions","53","2805237","0.0-53.0","260","685","17","Male","true","true","false","true","""event"",""trial"",""time""
""focus"",""1"",""1248456""
""fullscreenenter"",""5"",""1264494""
""fullscreenexit"",""30"",""1310949""
""blur"",""30"",""1313719""
""focus"",""30"",""2750230""
","""event"",""trial"",""time""
""blur"",""30"",""1313719""
","""event"",""trial"",""time""
""focus"",""1"",""1248456""
""focus"",""30"",""2750230""
","""event"",""trial"",""time""
""fullscreenenter"",""5"",""1264494""
","""event"",""trial"",""time""
""fullscreenexit"",""30"",""1310949""
","","","","","","","","","","","","","","","","","","","","","",""
"d3-instructions","54","2805989","0.0-54.0","260","685","17","Male","true","true","false","true","""event"",""trial"",""time""
""focus"",""1"",""1248456""
""fullscreenenter"",""5"",""1264494""
""fullscreenexit"",""30"",""1310949""
""blur"",""30"",""1313719""
""focus"",""30"",""2750230""
","""event"",""trial"",""time""
""blur"",""30"",""1313719""
","""event"",""trial"",""time""
""focus"",""1"",""1248456""
""focus"",""30"",""2750230""
","""event"",""trial"",""time""
""fullscreenenter"",""5"",""1264494""
","""event"",""trial"",""time""
""fullscreenexit"",""30"",""1310949""
","","","","","","","","","","","","","","","","","","","","","",""
"d3-instructions","55","2806695","0.0-55.0","260","685","17","Male","true","true","false","true","""event"",""trial"",""time""
""focus"",""1"",""1248456""
""fullscreenenter"",""5"",""1264494""
""fullscreenexit"",""30"",""1310949""
""blur"",""30"",""1313719""
""focus"",""30"",""2750230""
","""event"",""trial"",""time""
""blur"",""30"",""1313719""
","""event"",""trial"",""time""
""focus"",""1"",""1248456""
""focus"",""30"",""2750230""
","""event"",""trial"",""time""
""fullscreenenter"",""5"",""1264494""
","""event"",""trial"",""time""
""fullscreenexit"",""30"",""1310949""
","","","","","","","","","","","","","","","","","","","","","",""
"d3-instructions","56","2808272","0.0-56.0","260","685","17","Male","true","true","false","true","""event"",""trial"",""time""
""focus"",""1"",""1248456""
""fullscreenenter"",""5"",""1264494""
""fullscreenexit"",""30"",""1310949""
""blur"",""30"",""1313719""
""focus"",""30"",""2750230""
","""event"",""trial"",""time""
""blur"",""30"",""1313719""
","""event"",""trial"",""time""
""focus"",""1"",""1248456""
""focus"",""30"",""2750230""
","""event"",""trial"",""time""
""fullscreenenter"",""5"",""1264494""
","""event"",""trial"",""time""
""fullscreenexit"",""30"",""1310949""
","","","","","","","","","","","","","","","","","","","","","",""
"d3-instructions","57","2808911","0.0-57.0","260","685","17","Male","true","true","false","true","""event"",""trial"",""time""
""focus"",""1"",""1248456""
""fullscreenenter"",""5"",""1264494""
""fullscreenexit"",""30"",""1310949""
""blur"",""30"",""1313719""
""focus"",""30"",""2750230""
","""event"",""trial"",""time""
""blur"",""30"",""1313719""
","""event"",""trial"",""time""
""focus"",""1"",""1248456""
""focus"",""30"",""2750230""
","""event"",""trial"",""time""
""fullscreenenter"",""5"",""1264494""
","""event"",""trial"",""time""
""fullscreenexit"",""30"",""1310949""
","","","","","","","","","","","","","","","","","","","","","",""
"d3-instructions","58","2809855","0.0-58.0","260","685","17","Male","true","true","false","true","""event"",""trial"",""time""
""focus"",""1"",""1248456""
""fullscreenenter"",""5"",""1264494""
""fullscreenexit"",""30"",""1310949""
""blur"",""30"",""1313719""
""focus"",""30"",""2750230""
","""event"",""trial"",""time""
""blur"",""30"",""1313719""
","""event"",""trial"",""time""
""focus"",""1"",""1248456""
""focus"",""30"",""2750230""
","""event"",""trial"",""time""
""fullscreenenter"",""5"",""1264494""
","""event"",""trial"",""time""
""fullscreenexit"",""30"",""1310949""
","","","","","","","","","","","","","","","","","","","","","",""
"d3-instructions","59","2810620","0.0-59.0","260","685","17","Male","true","true","false","true","""event"",""trial"",""time""
""focus"",""1"",""1248456""
""fullscreenenter"",""5"",""1264494""
""fullscreenexit"",""30"",""1310949""
""blur"",""30"",""1313719""
""focus"",""30"",""2750230""
","""event"",""trial"",""time""
""blur"",""30"",""1313719""
","""event"",""trial"",""time""
""focus"",""1"",""1248456""
""focus"",""30"",""2750230""
","""event"",""trial"",""time""
""fullscreenenter"",""5"",""1264494""
","""event"",""trial"",""time""
""fullscreenexit"",""30"",""1310949""
","","","","","","","","","","","","","","","","","","","","","",""
"d3-instructions","60","2811517","0.0-60.0","260","685","17","Male","true","true","false","true","""event"",""trial"",""time""
""focus"",""1"",""1248456""
""fullscreenenter"",""5"",""1264494""
""fullscreenexit"",""30"",""1310949""
""blur"",""30"",""1313719""
""focus"",""30"",""2750230""
","""event"",""trial"",""time""
""blur"",""30"",""1313719""
","""event"",""trial"",""time""
""focus"",""1"",""1248456""
""focus"",""30"",""2750230""
","""event"",""trial"",""time""
""fullscreenenter"",""5"",""1264494""
","""event"",""trial"",""time""
""fullscreenexit"",""30"",""1310949""
","","","","","","","","","","","","","","","","","","","","","",""
"d3-animate-choice","61","2815004","0.0-61.0-0.0","260","685","17","Male","true","true","false","true","""event"",""trial"",""time""
""focus"",""1"",""1248456""
""fullscreenenter"",""5"",""1264494""
""fullscreenexit"",""30"",""1310949""
""blur"",""30"",""1313719""
""focus"",""30"",""2750230""
","""event"",""trial"",""time""
""blur"",""30"",""1313719""
","""event"",""trial"",""time""
""focus"",""1"",""1248456""
""focus"",""30"",""2750230""
","""event"",""trial"",""time""
""fullscreenenter"",""5"",""1264494""
","""event"",""trial"",""time""
""fullscreenexit"",""30"",""1310949""
","925.5","","32","","","3000","1","1474.5,1763.5999999940395,2029.5999999940395","49,49,49","images/earth.jpg","images/tutrocket1","images/tutrocket2","null","images/tutrocket2","","1","practice","null","","","",""
"d3-animate-choice","62","2817402","0.0-61.0-1.0","260","685","17","Male","true","true","false","true","""event"",""trial"",""time""
""focus"",""1"",""1248456""
""fullscreenenter"",""5"",""1264494""
""fullscreenexit"",""30"",""1310949""
""blur"",""30"",""1313719""
""focus"",""30"",""2750230""
","""event"",""trial"",""time""
""blur"",""30"",""1313719""
","""event"",""trial"",""time""
""focus"",""1"",""1248456""
""focus"",""30"",""2750230""
","""event"",""trial"",""time""
""fullscreenenter"",""5"",""1264494""
","""event"",""trial"",""time""
""fullscreenexit"",""30"",""1310949""
","378.7999999821186","","49","","","3000","1","666.3999999761581,1440.3999999761581,1648.8999999761581,1838.199999988079,2024.7999999821186,2207.2999999821186","49,49,49,49,49,49","images/tutyellowplanet.jpg","images/tutalien4","images/tutalien3","images/tutrocket2","images/tutalien3","images/nothing.png","2","practice","true","1","common","0","2022-02-08 03:13:07.486"
"two-step-fixation","63","2818417","0.0-61.0-2.0","260","685","17","Male","true","true","false","true","""event"",""trial"",""time""
""focus"",""1"",""1248456""
""fullscreenenter"",""5"",""1264494""
""fullscreenexit"",""30"",""1310949""
""blur"",""30"",""1313719""
""focus"",""30"",""2750230""
","""event"",""trial"",""time""
""blur"",""30"",""1313719""
","""event"",""trial"",""time""
""focus"",""1"",""1248456""
""focus"",""30"",""2750230""
","""event"",""trial"",""time""
""fullscreenenter"",""5"",""1264494""
","""event"",""trial"",""time""
""fullscreenexit"",""30"",""1310949""
","","images/earth.jpg","","","","","","","","","","","","","","fixation","","","","","",""
"d3-animate-choice","64","2820514","0.0-61.0-0.1","260","685","17","Male","true","true","false","true","""event"",""trial"",""time""
""focus"",""1"",""1248456""
""fullscreenenter"",""5"",""1264494""
""fullscreenexit"",""30"",""1310949""
""blur"",""30"",""1313719""
""focus"",""30"",""2750230""
","""event"",""trial"",""time""
""blur"",""30"",""1313719""
","""event"",""trial"",""time""
""focus"",""1"",""1248456""
""focus"",""30"",""2750230""
","""event"",""trial"",""time""
""fullscreenenter"",""5"",""1264494""
","""event"",""trial"",""time""
""fullscreenexit"",""30"",""1310949""
","90.5","","49","","","3000","1","301.90000000596046,492.2999999821186,691,885.4000000059605,1078.2999999821186,1283.4000000059605,1502.5999999940395,1740.4000000059605,1914.9000000059605,2091.2999999821186","49,49,49,49,49,49,49,49,49,49","images/earth.jpg","images/tutrocket1","images/tutrocket2","null","images/tutrocket2","","1","practice","null","1","","",""
"d3-animate-choice","65","2822729","0.0-61.0-1.1","260","685","17","Male","true","true","false","true","""event"",""trial"",""time""
""focus"",""1"",""1248456""
""fullscreenenter"",""5"",""1264494""
""fullscreenexit"",""30"",""1310949""
""blur"",""30"",""1313719""
""focus"",""30"",""2750230""
","""event"",""trial"",""time""
""blur"",""30"",""1313719""
","""event"",""trial"",""time""
""focus"",""1"",""1248456""
""focus"",""30"",""2750230""
","""event"",""trial"",""time""
""fullscreenenter"",""5"",""1264494""
","""event"",""trial"",""time""
""fullscreenexit"",""30"",""1310949""
","207.30000001192093","","49","","","3000","1","395.80000001192093,592.2000000178814,797.9000000059605,979.8000000119209,1181.9000000059605,1404.5,1608.9000000059605","49,49,49,49,49,49,49","images/tutgreenplanet.jpg","images/tutalien2","images/tutalien1","images/tutrocket2","images/tutalien1","images/nothing.png","2","practice","false","1","rare","0","2022-02-08 03:13:12.812"
"two-step-fixation","66","2823734","0.0-61.0-2.1","260","685","17","Male","true","true","false","true","""event"",""trial"",""time""
""focus"",""1"",""1248456""
""fullscreenenter"",""5"",""1264494""
""fullscreenexit"",""30"",""1310949""
""blur"",""30"",""1313719""
""focus"",""30"",""2750230""
","""event"",""trial"",""time""
""blur"",""30"",""1313719""
","""event"",""trial"",""time""
""focus"",""1"",""1248456""
""focus"",""30"",""2750230""
","""event"",""trial"",""time""
""fullscreenenter"",""5"",""1264494""
","""event"",""trial"",""time""
""fullscreenexit"",""30"",""1310949""
","","images/earth.jpg","","","","","","","","","","","","","","fixation","","","","","",""
"d3-animate-choice","67","2825850","0.0-61.0-0.2","260","685","17","Male","true","true","false","true","""event"",""trial"",""time""
""focus"",""1"",""1248456""
""fullscreenenter"",""5"",""1264494""
""fullscreenexit"",""30"",""1310949""
""blur"",""30"",""1313719""
""focus"",""30"",""2750230""
","""event"",""trial"",""time""
""blur"",""30"",""1313719""
","""event"",""trial"",""time""
""focus"",""1"",""1248456""
""focus"",""30"",""2750230""
","""event"",""trial"",""time""
""fullscreenenter"",""5"",""1264494""
","""event"",""trial"",""time""
""fullscreenexit"",""30"",""1310949""
","109.59999999403954","","48","","","3000","1","273.09999999403954,608.2999999821186,804.5,839.9000000059605,985.2999999821186,1159.7999999821186,1328.9000000059605,1476.9000000059605,1645.5,1783.199999988079,1980.7999999821186","48,49,48,192,48,48,48,48,48,48,48","images/earth.jpg","images/tutrocket1","images/tutrocket2","null","images/tutrocket1","","1","practice","null","2","","",""
"d3-animate-choice","68","2827858","0.0-61.0-1.2","260","685","17","Male","true","true","false","true","""event"",""trial"",""time""
""focus"",""1"",""1248456""
""fullscreenenter"",""5"",""1264494""
""fullscreenexit"",""30"",""1310949""
""blur"",""30"",""1313719""
""focus"",""30"",""2750230""
","""event"",""trial"",""time""
""blur"",""30"",""1313719""
","""event"",""trial"",""time""
""focus"",""1"",""1248456""
""focus"",""30"",""2750230""
","""event"",""trial"",""time""
""fullscreenenter"",""5"",""1264494""
","""event"",""trial"",""time""
""fullscreenexit"",""30"",""1310949""
","0.5","","48","","","3000","1","300.5,506.2000000178814,686.1000000238419,889.3000000119209,1102.7000000178814,1290.5,1488.300000011921,1667.2000000178814,1826.6000000238419,1972.1000000238419","48,48,48,48,48,48,48,48,48,48","images/tutyellowplanet.jpg","images/tutalien4","images/tutalien3","images/tutrocket1","images/tutalien4","images/nothing.png","2","practice","false","2","rare","0","2022-02-08 03:13:17.941"
"two-step-fixation","69","2828867","0.0-61.0-2.2","260","685","17","Male","true","true","false","true","""event"",""trial"",""time""
""focus"",""1"",""1248456""
""fullscreenenter"",""5"",""1264494""
""fullscreenexit"",""30"",""1310949""
""blur"",""30"",""1313719""
""focus"",""30"",""2750230""
","""event"",""trial"",""time""
""blur"",""30"",""1313719""
","""event"",""trial"",""time""
""focus"",""1"",""1248456""
""focus"",""30"",""2750230""
","""event"",""trial"",""time""
""fullscreenenter"",""5"",""1264494""
","""event"",""trial"",""time""
""fullscreenexit"",""30"",""1310949""
","","images/earth.jpg","","","","","","","","","","","","","","fixation","","","","","",""
"d3-animate-choice","70","2830876","0.0-61.0-0.3","260","685","17","Male","true","true","false","true","""event"",""trial"",""time""
""focus"",""1"",""1248456""
""fullscreenenter"",""5"",""1264494""
""fullscreenexit"",""30"",""1310949""
""blur"",""30"",""1313719""
""focus"",""30"",""2750230""
","""event"",""trial"",""time""
""blur"",""30"",""1313719""
","""event"",""trial"",""time""
""focus"",""1"",""1248456""
""focus"",""30"",""2750230""
","""event"",""trial"",""time""
""fullscreenenter"",""5"",""1264494""
","""event"",""trial"",""time""
""fullscreenexit"",""30"",""1310949""
","2.199999988079071","","48","","","3000","1","169.80000001192093,342.30000001192093,553.6999999880791,718.8000000119209,895.4000000059605,1086.5999999940395,1260.9000000059605,1424,1609.699999988079,1794.9000000059605,1955.699999988079","48,48,48,48,48,48,48,48,48,48,48","images/earth.jpg","images/tutrocket1","images/tutrocket2","null","images/tutrocket1","","1","practice","null","2","","",""
"d3-animate-choice","71","2833009","0.0-61.0-1.3","260","685","17","Male","true","true","false","true","""event"",""trial"",""time""
""focus"",""1"",""1248456""
""fullscreenenter"",""5"",""1264494""
""fullscreenexit"",""30"",""1310949""
""blur"",""30"",""1313719""
""focus"",""30"",""2750230""
","""event"",""trial"",""time""
""blur"",""30"",""1313719""
","""event"",""trial"",""time""
""focus"",""1"",""1248456""
""focus"",""30"",""2750230""
","""event"",""trial"",""time""
""fullscreenenter"",""5"",""1264494""
","""event"",""trial"",""time""
""fullscreenexit"",""30"",""1310949""
","125.59999999403954","","48","","","3000","1","308.7999999821186,475,649.0999999940395,825.2999999821186,1016.9000000059605,1196.5,1376.4000000059605,1575.2999999821186,1725.5999999940395,1913.199999988079,2091.4000000059605","48,48,48,48,48,48,48,48,48,48,48","images/tutgreenplanet.jpg","images/tutalien2","images/tutalien1","images/tutrocket1","images/tutalien2","images/nothing.png","2","practice","true","2","common","0","2022-02-08 03:13:23.092"
"two-step-fixation","72","2834017","0.0-61.0-2.3","260","685","17","Male","true","true","false","true","""event"",""trial"",""time""
""focus"",""1"",""1248456""
""fullscreenenter"",""5"",""1264494""
""fullscreenexit"",""30"",""1310949""
""blur"",""30"",""1313719""
""focus"",""30"",""2750230""
","""event"",""trial"",""time""
""blur"",""30"",""1313719""
","""event"",""trial"",""time""
""focus"",""1"",""1248456""
""focus"",""30"",""2750230""
","""event"",""trial"",""time""
""fullscreenenter"",""5"",""1264494""
","""event"",""trial"",""time""
""fullscreenexit"",""30"",""1310949""
","","images/earth.jpg","","","","","","","","","","","","","","fixation","","","","","",""
"d3-animate-choice","73","2836147","0.0-61.0-0.4","260","685","17","Male","true","true","false","true","""event"",""trial"",""time""
""focus"",""1"",""1248456""
""fullscreenenter"",""5"",""1264494""
""fullscreenexit"",""30"",""1310949""
""blur"",""30"",""1313719""
""focus"",""30"",""2750230""
","""event"",""trial"",""time""
""blur"",""30"",""1313719""
","""event"",""trial"",""time""
""focus"",""1"",""1248456""
""focus"",""30"",""2750230""
","""event"",""trial"",""time""
""fullscreenenter"",""5"",""1264494""
","""event"",""trial"",""time""
""fullscreenexit"",""30"",""1310949""
","123","","48","","","3000","1","169.80000001192093,306,330.90000000596046,507,533.0999999940395,688,692.8000000119209,884.5,907.7000000178814,1076.2000000178814,1091.300000011921,1273,1280.2000000178814,1468.0999999940395,1475.300000011921,1659.7000000178814,1683.2000000178814,1862.9000000059605,1870.7000000178814,2045.9000000059605,2049","49,48,49,48,49,48,49,48,49,48,49,49,48,48,49,48,49,48,49,49,48","images/earth.jpg","images/tutrocket1","images/tutrocket2","null","images/tutrocket1","","1","practice","null","2","","",""
"d3-animate-choice","74","2838247","0.0-61.0-1.4","260","685","17","Male","true","true","false","true","""event"",""trial"",""time""
""focus"",""1"",""1248456""
""fullscreenenter"",""5"",""1264494""
""fullscreenexit"",""30"",""1310949""
""blur"",""30"",""1313719""
""focus"",""30"",""2750230""
","""event"",""trial"",""time""
""blur"",""30"",""1313719""
","""event"",""trial"",""time""
""focus"",""1"",""1248456""
""focus"",""30"",""2750230""
","""event"",""trial"",""time""
""fullscreenenter"",""5"",""1264494""
","""event"",""trial"",""time""
""fullscreenexit"",""30"",""1310949""
","96.30000001192093","","49","","","3000","1","118.90000000596046,302.80000001192093,323,503,532.3000000119209,696.4000000059605,729.8000000119209,882,936.5999999940395,1102.2000000178814,1140.5,1331.5,1342.2000000178814,1525.7000000178814,1545.2000000178814,1723.4000000059605,1744.0999999940395,1916.2000000178814,1941.2000000178814","48,49,48,49,48,49,48,49,48,49,48,49,48,49,48,49,48,49,48","images/tutgreenplanet.jpg","images/tutalien2","images/tutalien1","images/tutrocket1","images/tutalien1","images/nothing.png","2","practice","true","1","common","0","2022-02-08 03:13:28.330"
"two-step-fixation","75","2839252","0.0-61.0-2.4","260","685","17","Male","true","true","false","true","""event"",""trial"",""time""
""focus"",""1"",""1248456""
""fullscreenenter"",""5"",""1264494""
""fullscreenexit"",""30"",""1310949""
""blur"",""30"",""1313719""
""focus"",""30"",""2750230""
","""event"",""trial"",""time""
""blur"",""30"",""1313719""
","""event"",""trial"",""time""
""focus"",""1"",""1248456""
""focus"",""30"",""2750230""
","""event"",""trial"",""time""
""fullscreenenter"",""5"",""1264494""
","""event"",""trial"",""time""
""fullscreenexit"",""30"",""1310949""
","","images/earth.jpg","","","","","","","","","","","","","","fixation","","","","","",""
"d3-animate-choice","76","2841308","0.0-61.0-0.5","260","685","17","Male","true","true","false","true","""event"",""trial"",""time""
""focus"",""1"",""1248456""
""fullscreenenter"",""5"",""1264494""
""fullscreenexit"",""30"",""1310949""
""blur"",""30"",""1313719""
""focus"",""30"",""2750230""
","""event"",""trial"",""time""
""blur"",""30"",""1313719""
","""event"",""trial"",""time""
""focus"",""1"",""1248456""
""focus"",""30"",""2750230""
","""event"",""trial"",""time""
""fullscreenenter"",""5"",""1264494""
","""event"",""trial"",""time""
""fullscreenexit"",""30"",""1310949""
","47.900000005960464","","48","","","3000","1","58.900000005960464,241.59999999403954,244.5,449.40000000596046,450.59999999403954,665.6999999880791,670.1999999880791,870,879.0999999940395,1068.9000000059605,1105,1277.4000000059605,1312.699999988079,1480.7999999821186,1531.4000000059605,1681.2999999821186,1739.9000000059605,1895.5999999940395,1971.199999988079","49,49,48,49,48,48,49,48,49,48,49,48,49,48,49,48,49,48,49","images/earth.jpg","images/tutrocket1","images/tutrocket2","null","images/tutrocket1","","1","practice","null","2","","",""
"d3-animate-choice","77","2843373","0.0-61.0-1.5","260","685","17","Male","true","true","false","true","""event"",""trial"",""time""
""focus"",""1"",""1248456""
""fullscreenenter"",""5"",""1264494""
""fullscreenexit"",""30"",""1310949""
""blur"",""30"",""1313719""
""focus"",""30"",""2750230""
","""event"",""trial"",""time""
""blur"",""30"",""1313719""
","""event"",""trial"",""time""
""focus"",""1"",""1248456""
""focus"",""30"",""2750230""
","""event"",""trial"",""time""
""fullscreenenter"",""5"",""1264494""
","""event"",""trial"",""time""
""fullscreenexit"",""30"",""1310949""
","56.400000005960464","","48","","","3000","1","162.69999998807907,271.69999998807907,383.09999999403954,492.30000001192093,575.3000000119209,717.4000000059605,777.3000000119209,930.1999999880791,998.0999999940395,1142.0999999940395,1194.0999999940395,1359,1403.300000011921,1574.800000011921,1636.0999999940395,1797.5999999940395,1839.699999988079,2032.0999999940395","49,48,49,48,49,48,49,48,49,48,49,48,49,48,49,48,49,48","images/tutyellowplanet.jpg","images/tutalien4","images/tutalien3","images/tutrocket1","images/tutalien4","images/t.png","2","practice","false","2","rare","1","2022-02-08 03:13:33.456"
"two-step-fixation","78","2844378","0.0-61.0-2.5","260","685","17","Male","true","true","false","true","""event"",""trial"",""time""
""focus"",""1"",""1248456""
""fullscreenenter"",""5"",""1264494""
""fullscreenexit"",""30"",""1310949""
""blur"",""30"",""1313719""
""focus"",""30"",""2750230""
","""event"",""trial"",""time""
""blur"",""30"",""1313719""
","""event"",""trial"",""time""
""focus"",""1"",""1248456""
""focus"",""30"",""2750230""
","""event"",""trial"",""time""
""fullscreenenter"",""5"",""1264494""
","""event"",""trial"",""time""
""fullscreenexit"",""30"",""1310949""
","","images/earth.jpg","","","","","","","","","","","","","","fixation","","","","","",""
"d3-animate-choice","79","2846504","0.0-61.0-0.6","260","685","17","Male","true","true","false","true","""event"",""trial"",""time""
""focus"",""1"",""1248456""
""fullscreenenter"",""5"",""1264494""
""fullscreenexit"",""30"",""1310949""
""blur"",""30"",""1313719""
""focus"",""30"",""2750230""
","""event"",""trial"",""time""
""blur"",""30"",""1313719""
","""event"",""trial"",""time""
""focus"",""1"",""1248456""
""focus"",""30"",""2750230""
","""event"",""trial"",""time""
""fullscreenenter"",""5"",""1264494""
","""event"",""trial"",""time""
""fullscreenexit"",""30"",""1310949""
","118.7000000178814","","48","","","3000","1","181.09999999403954,328.30000001192093,389.09999999403954,562.3000000119209,643.7000000178814,791.5999999940395,864.7000000178814,1029.9000000059605,1080.4000000059605,1266.300000011921,1322.800000011921,1522.7000000178814,1577.9000000059605,1753.2000000178814,1816.800000011921,2012.300000011921,2078.9000000059605","49,48,49,48,49,48,49,48,49,48,49,48,49,48,49,48,49","images/earth.jpg","images/tutrocket1","images/tutrocket2","null","images/tutrocket1","","1","practice","null","2","","",""
"d3-animate-choice","80","2848667","0.0-61.0-1.6","260","685","17","Male","true","true","false","true","""event"",""trial"",""time""
""focus"",""1"",""1248456""
""fullscreenenter"",""5"",""1264494""
""fullscreenexit"",""30"",""1310949""
""blur"",""30"",""1313719""
""focus"",""30"",""2750230""
","""event"",""trial"",""time""
""blur"",""30"",""1313719""
","""event"",""trial"",""time""
""focus"",""1"",""1248456""
""focus"",""30"",""2750230""
","""event"",""trial"",""time""
""fullscreenenter"",""5"",""1264494""
","""event"",""trial"",""time""
""fullscreenexit"",""30"",""1310949""
","156.2999999821186","","48","","","3000","1","220.19999998807907,408.5,432.59999999403954,613.8999999761581,675.0999999940395,834.1999999880791,947,1039.5999999940395,1178.5999999940395,1279.5999999940395,1449.0999999940395,1502.7999999821186,1676.699999988079,1755.699999988079,1938.7999999821186,2005.0999999940395,2146.5999999940395","49,49,48,49,48,49,48,49,48,49,48,49,48,49,48,49,48","images/tutgreenplanet.jpg","images/tutalien2","images/tutalien1","images/tutrocket1","images/tutalien2","images/nothing.png","2","practice","true","2","common","0","2022-02-08 03:13:38.750"
"two-step-fixation","81","2849678","0.0-61.0-2.6","260","685","17","Male","true","true","false","true","""event"",""trial"",""time""
""focus"",""1"",""1248456""
""fullscreenenter"",""5"",""1264494""
""fullscreenexit"",""30"",""1310949""
""blur"",""30"",""1313719""
""focus"",""30"",""2750230""
","""event"",""trial"",""time""
""blur"",""30"",""1313719""
","""event"",""trial"",""time""
""focus"",""1"",""1248456""
""focus"",""30"",""2750230""
","""event"",""trial"",""time""
""fullscreenenter"",""5"",""1264494""
","""event"",""trial"",""time""
""fullscreenexit"",""30"",""1310949""
","","images/earth.jpg","","","","","","","","","","","","","","fixation","","","","","",""
"d3-animate-choice","82","2851824","0.0-61.0-0.7","260","685","17","Male","true","true","false","true","""event"",""trial"",""time""
""focus"",""1"",""1248456""
""fullscreenenter"",""5"",""1264494""
""fullscreenexit"",""30"",""1310949""
""blur"",""30"",""1313719""
""focus"",""30"",""2750230""
","""event"",""trial"",""time""
""blur"",""30"",""1313719""
","""event"",""trial"",""time""
""focus"",""1"",""1248456""
""focus"",""30"",""2750230""
","""event"",""trial"",""time""
""fullscreenenter"",""5"",""1264494""
","""event"",""trial"",""time""
""fullscreenexit"",""30"",""1310949""
","137.09999999403954","","48","","","3000","1","159.7999999821186,330,527.0999999940395,587.9000000059605,754.6999999880791,779.4000000059605,974.6999999880791,1076.2999999821186,1192.5999999940395,1420.199999988079,1717.9000000059605,1975.9000000059605","49,49,48,49,48,49,48,49,48,48,49,49","images/earth.jpg","images/tutrocket1","images/tutrocket2","null","images/tutrocket1","","1","practice","null","2","","",""
"d3-animate-choice","83","2853839","0.0-61.0-1.7","260","685","17","Male","true","true","false","true","""event"",""trial"",""time""
""focus"",""1"",""1248456""
""fullscreenenter"",""5"",""1264494""
""fullscreenexit"",""30"",""1310949""
""blur"",""30"",""1313719""
""focus"",""30"",""2750230""
","""event"",""trial"",""time""
""blur"",""30"",""1313719""
","""event"",""trial"",""time""
""focus"",""1"",""1248456""
""focus"",""30"",""2750230""
","""event"",""trial"",""time""
""fullscreenenter"",""5"",""1264494""
","""event"",""trial"",""time""
""fullscreenexit"",""30"",""1310949""
","8.400000005960464","","48","","","3000","1","58.79999998211861,283.19999998807907,316.09999999403954,553.5,570.0999999940395,868,899.9000000059605,1206.9000000059605,1338.0999999940395,1626.4000000059605,1707.0999999940395,1919.4000000059605","49,48,49,49,48,48,49,48,49,48,49,48","images/tutgreenplanet.jpg","images/tutalien2","images/tutalien1","images/tutrocket1","images/tutalien2","images/nothing.png","2","practice","true","2","common","0","2022-02-08 03:13:43.922"
"two-step-fixation","84","2854843","0.0-61.0-2.7","260","685","17","Male","true","true","false","true","""event"",""trial"",""time""
""focus"",""1"",""1248456""
""fullscreenenter"",""5"",""1264494""
""fullscreenexit"",""30"",""1310949""
""blur"",""30"",""1313719""
""focus"",""30"",""2750230""
","""event"",""trial"",""time""
""blur"",""30"",""1313719""
","""event"",""trial"",""time""
""focus"",""1"",""1248456""
""focus"",""30"",""2750230""
","""event"",""trial"",""time""
""fullscreenenter"",""5"",""1264494""
","""event"",""trial"",""time""
""fullscreenexit"",""30"",""1310949""
","","images/earth.jpg","","","","","","","","","","","","","","fixation","","","","","",""
"d3-animate-choice","85","2856894","0.0-61.0-0.8","260","685","17","Male","true","true","false","true","""event"",""trial"",""time""
""focus"",""1"",""1248456""
""fullscreenenter"",""5"",""1264494""
""fullscreenexit"",""30"",""1310949""
""blur"",""30"",""1313719""
""focus"",""30"",""2750230""
","""event"",""trial"",""time""
""blur"",""30"",""1313719""
","""event"",""trial"",""time""
""focus"",""1"",""1248456""
""focus"",""30"",""2750230""
","""event"",""trial"",""time""
""fullscreenenter"",""5"",""1264494""
","""event"",""trial"",""time""
""fullscreenexit"",""30"",""1310949""
","44.099999994039536","","49","","","3000","1","221.09999999403954,400.90000000596046,564.2000000178814,648.9000000059605,779,878.8000000119209,1018.0999999940395,1136.0999999940395,1240.9000000059605,1394,1493.9000000059605,1656.0999999940395,1781.7000000178814,1889.800000011921,2029.0999999940395","49,48,49,48,49,48,49,48,49,48,49,48,49,48,49","images/earth.jpg","images/tutrocket1","images/tutrocket2","null","images/tutrocket2","","1","practice","null","1","","",""
"d3-animate-choice","86","2859000","0.0-61.0-1.8","260","685","17","Male","true","true","false","true","""event"",""trial"",""time""
""focus"",""1"",""1248456""
""fullscreenenter"",""5"",""1264494""
""fullscreenexit"",""30"",""1310949""
""blur"",""30"",""1313719""
""focus"",""30"",""2750230""
","""event"",""trial"",""time""
""blur"",""30"",""1313719""
","""event"",""trial"",""time""
""focus"",""1"",""1248456""
""focus"",""30"",""2750230""
","""event"",""trial"",""time""
""fullscreenenter"",""5"",""1264494""
","""event"",""trial"",""time""
""fullscreenexit"",""30"",""1310949""
","101.2000000178814","","48","","","3000","1","234.7000000178814,442.5,604.4000000059605,706.1000000238419,875.7000000178814,959.2000000178814,1142.9000000059605,1258.800000011921,1385,1520.4000000059605,1642.4000000059605,1783.9000000059605,1892.300000011921,2048","49,49,48,49,48,49,48,49,48,49,48,49,48,49","images/tutyellowplanet.jpg","images/tutalien4","images/tutalien3","images/tutrocket2","images/tutalien4","images/t.png","2","practice","true","2","common","1","2022-02-08 03:13:49.083"
"two-step-fixation","87","2860005","0.0-61.0-2.8","260","685","17","Male","true","true","false","true","""event"",""trial"",""time""
""focus"",""1"",""1248456""
""fullscreenenter"",""5"",""1264494""
""fullscreenexit"",""30"",""1310949""
""blur"",""30"",""1313719""
""focus"",""30"",""2750230""
","""event"",""trial"",""time""
""blur"",""30"",""1313719""
","""event"",""trial"",""time""
""focus"",""1"",""1248456""
""focus"",""30"",""2750230""
","""event"",""trial"",""time""
""fullscreenenter"",""5"",""1264494""
","""event"",""trial"",""time""
""fullscreenexit"",""30"",""1310949""
","","images/earth.jpg","","","","","","","","","","","","","","fixation","","","","","",""
"d3-animate-choice","88","2862076","0.0-61.0-0.9","260","685","17","Male","true","true","false","true","""event"",""trial"",""time""
""focus"",""1"",""1248456""
""fullscreenenter"",""5"",""1264494""
""fullscreenexit"",""30"",""1310949""
""blur"",""30"",""1313719""
""focus"",""30"",""2750230""
","""event"",""trial"",""time""
""blur"",""30"",""1313719""
","""event"",""trial"",""time""
""focus"",""1"",""1248456""
""focus"",""30"",""2750230""
","""event"",""trial"",""time""
""fullscreenenter"",""5"",""1264494""
","""event"",""trial"",""time""
""fullscreenexit"",""30"",""1310949""
","61.29999998211861","","48","","","3000","1","160.5,332.2999999821186,389.59999999403954,595,625.1999999880791,822.7999999821186,848.6999999880791,1061.699999988079,1097.699999988079,1320.7999999821186,1333,1548.699999988079,1599.5999999940395,1750.5,1821.8999999761581,1965.5999999940395,2023.3999999761581","49,48,49,48,49,48,49,48,49,48,49,49,48,49,48,49,48","images/earth.jpg","images/tutrocket1","images/tutrocket2","null","images/tutrocket1","","1","practice","null","2","","",""
"d3-animate-choice","89","2864197","0.0-61.0-1.9","260","685","17","Male","true","true","false","true","""event"",""trial"",""time""
""focus"",""1"",""1248456""
""fullscreenenter"",""5"",""1264494""
""fullscreenexit"",""30"",""1310949""
""blur"",""30"",""1313719""
""focus"",""30"",""2750230""
","""event"",""trial"",""time""
""blur"",""30"",""1313719""
","""event"",""trial"",""time""
""focus"",""1"",""1248456""
""focus"",""30"",""2750230""
","""event"",""trial"",""time""
""fullscreenenter"",""5"",""1264494""
","""event"",""trial"",""time""
""fullscreenexit"",""30"",""1310949""
","115.5","","49","","","3000","1","146,313.09999999403954,379.7999999821186,1118.4000000059605,1346,1554.4000000059605,1608.4000000059605,1818.7999999821186,1833.5999999940395,2001.9000000059605","48,48,49,48,48,49,48,48,49,48","images/tutgreenplanet.jpg","images/tutalien2","images/tutalien1","images/tutrocket1","images/tutalien1","images/t.png","2","practice","true","1","common","1","2022-02-08 03:13:54.281"
"two-step-fixation","90","2865203","0.0-61.0-2.9","260","685","17","Male","true","true","false","true","""event"",""trial"",""time""
""focus"",""1"",""1248456""
""fullscreenenter"",""5"",""1264494""
""fullscreenexit"",""30"",""1310949""
""blur"",""30"",""1313719""
""focus"",""30"",""2750230""
","""event"",""trial"",""time""
""blur"",""30"",""1313719""
","""event"",""trial"",""time""
""focus"",""1"",""1248456""
""focus"",""30"",""2750230""
","""event"",""trial"",""time""
""fullscreenenter"",""5"",""1264494""
","""event"",""trial"",""time""
""fullscreenexit"",""30"",""1310949""
","","images/earth.jpg","","","","","","","","","","","","","","fixation","","","","","",""
"d3-animate-choice","91","2867446","0.0-61.0-0.10","260","685","17","Male","true","true","false","true","""event"",""trial"",""time""
""focus"",""1"",""1248456""
""fullscreenenter"",""5"",""1264494""
""fullscreenexit"",""30"",""1310949""
""blur"",""30"",""1313719""
""focus"",""30"",""2750230""
","""event"",""trial"",""time""
""blur"",""30"",""1313719""
","""event"",""trial"",""time""
""focus"",""1"",""1248456""
""focus"",""30"",""2750230""
","""event"",""trial"",""time""
""fullscreenenter"",""5"",""1264494""
","""event"",""trial"",""time""
""fullscreenexit"",""30"",""1310949""
","235.7000000178814","","48","","","3000","1","465.2000000178814,555.5,672.1000000238419,758.4000000059605,904.9000000059605,1008.6000000238419,1228,1231,1501.300000011921,1641.6000000238419,1724.9000000059605,1881.2000000178814,1951.2000000178814,2151.800000011921","49,48,49,48,49,48,48,49,48,49,48,49,48,48","images/earth.jpg","images/tutrocket1","images/tutrocket2","null","images/tutrocket1","","1","practice","null","2","","",""
"d3-animate-choice","92","2869572","0.0-61.0-1.10","260","685","17","Male","true","true","false","true","""event"",""trial"",""time""
""focus"",""1"",""1248456""
""fullscreenenter"",""5"",""1264494""
""fullscreenexit"",""30"",""1310949""
""blur"",""30"",""1313719""
""focus"",""30"",""2750230""
","""event"",""trial"",""time""
""blur"",""30"",""1313719""
","""event"",""trial"",""time""
""focus"",""1"",""1248456""
""focus"",""30"",""2750230""
","""event"",""trial"",""time""
""fullscreenenter"",""5"",""1264494""
","""event"",""trial"",""time""
""fullscreenexit"",""30"",""1310949""
","119.2000000178814","","48","","","3000","1","341.90000000596046,585.7000000178814,929.9000000059605,1130.0999999940395,1387.9000000059605,1526.7000000178814,1753.5,1987","49,49,48,49,48,49,49,49","images/tutgreenplanet.jpg","images/tutalien2","images/tutalien1","images/tutrocket1","images/tutalien2","images/nothing.png","2","practice","true","2","common","0","2022-02-08 03:13:59.655"
"two-step-fixation","93","2870578","0.0-61.0-2.10","260","685","17","Male","true","true","false","true","""event"",""trial"",""time""
""focus"",""1"",""1248456""
""fullscreenenter"",""5"",""1264494""
""fullscreenexit"",""30"",""1310949""
""blur"",""30"",""1313719""
""focus"",""30"",""2750230""
","""event"",""trial"",""time""
""blur"",""30"",""1313719""
","""event"",""trial"",""time""
""focus"",""1"",""1248456""
""focus"",""30"",""2750230""
","""event"",""trial"",""time""
""fullscreenenter"",""5"",""1264494""
","""event"",""trial"",""time""
""fullscreenexit"",""30"",""1310949""
","","images/earth.jpg","","","","","","","","","","","","","","fixation","","","","","",""
"d3-animate-choice","94","2872633","0.0-61.0-0.11","260","685","17","Male","true","true","false","true","""event"",""trial"",""time""
""focus"",""1"",""1248456""
""fullscreenenter"",""5"",""1264494""
""fullscreenexit"",""30"",""1310949""
""blur"",""30"",""1313719""
""focus"",""30"",""2750230""
","""event"",""trial"",""time""
""blur"",""30"",""1313719""
","""event"",""trial"",""time""
""focus"",""1"",""1248456""
""focus"",""30"",""2750230""
","""event"",""trial"",""time""
""fullscreenenter"",""5"",""1264494""
","""event"",""trial"",""time""
""fullscreenexit"",""30"",""1310949""
","48.10000002384186","","49","","","3000","1","326.10000002384186,649.2000000178814,831.4000000059605,1117.1000000238419,1288.9000000059605,1571.6000000238419,1693.800000011921,2001","49,48,49,48,49,48,49,48","images/earth.jpg","images/tutrocket1","images/tutrocket2","null","images/tutrocket2","","1","practice","null","1","","",""
"d3-animate-choice","95","2874702","0.0-61.0-1.11","260","685","17","Male","true","true","false","true","""event"",""trial"",""time""
""focus"",""1"",""1248456""
""fullscreenenter"",""5"",""1264494""
""fullscreenexit"",""30"",""1310949""
""blur"",""30"",""1313719""
""focus"",""30"",""2750230""
","""event"",""trial"",""time""
""blur"",""30"",""1313719""
","""event"",""trial"",""time""
""focus"",""1"",""1248456""
""focus"",""30"",""2750230""
","""event"",""trial"",""time""
""fullscreenenter"",""5"",""1264494""
","""event"",""trial"",""time""
""fullscreenexit"",""30"",""1310949""
","61.400000005960464","","49","","","3000","1","361,592.4000000059605,782.2000000178814,1017.9000000059605,1090.6000000238419,1240.6000000238419,1404.2000000178814,1544.6000000238419,1775,1835.300000011921,2053.2000000178814","49,48,49,49,48,49,48,49,48,49,49","images/tutyellowplanet.jpg","images/tutalien4","images/tutalien3","images/tutrocket2","images/tutalien3","images/t.png","2","practice","true","1","common","1","2022-02-08 03:14:04.785"
"two-step-fixation","96","2875708","0.0-61.0-2.11","260","685","17","Male","true","true","false","true","""event"",""trial"",""time""
""focus"",""1"",""1248456""
""fullscreenenter"",""5"",""1264494""
""fullscreenexit"",""30"",""1310949""
""blur"",""30"",""1313719""
""focus"",""30"",""2750230""
","""event"",""trial"",""time""
""blur"",""30"",""1313719""
","""event"",""trial"",""time""
""focus"",""1"",""1248456""
""focus"",""30"",""2750230""
","""event"",""trial"",""time""
""fullscreenenter"",""5"",""1264494""
","""event"",""trial"",""time""
""fullscreenexit"",""30"",""1310949""
","","images/earth.jpg","","","","","","","","","","","","","","fixation","","","","","",""
"d3-animate-choice","97","2877769","0.0-61.0-0.12","260","685","17","Male","true","true","false","true","""event"",""trial"",""time""
""focus"",""1"",""1248456""
""fullscreenenter"",""5"",""1264494""
""fullscreenexit"",""30"",""1310949""
""blur"",""30"",""1313719""
""focus"",""30"",""2750230""
","""event"",""trial"",""time""
""blur"",""30"",""1313719""
","""event"",""trial"",""time""
""focus"",""1"",""1248456""
""focus"",""30"",""2750230""
","""event"",""trial"",""time""
""fullscreenenter"",""5"",""1264494""
","""event"",""trial"",""time""
""fullscreenexit"",""30"",""1310949""
","54","","49","","","3000","1","325.30000001192093,371.90000000596046,648.3000000119209,957.9000000059605,966.4000000059605,1232.800000011921,1314.7000000178814,1532.2000000178814,1591.9000000059605,1791.800000011921,1868.9000000059605","48,49,49,49,48,49,48,49,48,49,48","images/earth.jpg","images/tutrocket1","images/tutrocket2","null","images/tutrocket2","","1","practice","null","1","","",""
"d3-animate-choice","98","2879784","0.0-61.0-1.12","260","685","17","Male","true","true","false","true","""event"",""trial"",""time""
""focus"",""1"",""1248456""
""fullscreenenter"",""5"",""1264494""
""fullscreenexit"",""30"",""1310949""
""blur"",""30"",""1313719""
""focus"",""30"",""2750230""
","""event"",""trial"",""time""
""blur"",""30"",""1313719""
","""event"",""trial"",""time""
""focus"",""1"",""1248456""
""focus"",""30"",""2750230""
","""event"",""trial"",""time""
""fullscreenenter"",""5"",""1264494""
","""event"",""trial"",""time""
""fullscreenexit"",""30"",""1310949""
","7.0999999940395355","","49","","","3000","1","61.900000005960464,250.69999998807907,429.5,539,773.5,786.6999999880791,1073.9000000059605,1076.699999988079,1328.9000000059605,1412.199999988079,1584.9000000059605,1744.199999988079,1845.4000000059605","48,49,48,49,48,49,49,48,49,48,49,48,49","images/tutyellowplanet.jpg","images/tutalien4","images/tutalien3","images/tutrocket2","images/tutalien3","images/t.png","2","practice","true","1","common","1","2022-02-08 03:14:09.867"
"two-step-fixation","99","2880789","0.0-61.0-2.12","260","685","17","Male","true","true","false","true","""event"",""trial"",""time""
""focus"",""1"",""1248456""
""fullscreenenter"",""5"",""1264494""
""fullscreenexit"",""30"",""1310949""
""blur"",""30"",""1313719""
""focus"",""30"",""2750230""
","""event"",""trial"",""time""
""blur"",""30"",""1313719""
","""event"",""trial"",""time""
""focus"",""1"",""1248456""
""focus"",""30"",""2750230""
","""event"",""trial"",""time""
""fullscreenenter"",""5"",""1264494""
","""event"",""trial"",""time""
""fullscreenexit"",""30"",""1310949""
","","images/earth.jpg","","","","","","","","","","","","","","fixation","","","","","",""
"d3-animate-choice","100","2882828","0.0-61.0-0.13","260","685","17","Male","true","true","false","true","""event"",""trial"",""time""
""focus"",""1"",""1248456""
""fullscreenenter"",""5"",""1264494""
""fullscreenexit"",""30"",""1310949""
""blur"",""30"",""1313719""
""focus"",""30"",""2750230""
","""event"",""trial"",""time""
""blur"",""30"",""1313719""
","""event"",""trial"",""time""
""focus"",""1"",""1248456""
""focus"",""30"",""2750230""
","""event"",""trial"",""time""
""fullscreenenter"",""5"",""1264494""
","""event"",""trial"",""time""
""fullscreenexit"",""30"",""1310949""
","31.099999994039536","","49","","","3000","1","270.5,308.19999998807907,507.7999999821186,625.1999999880791,793,1018.2999999821186,1094,1384,1414.699999988079,1669.5999999940395,1698.9000000059605,1999.9000000059605","48,49,49,48,49,48,49,48,49,49,48,48","images/earth.jpg","images/tutrocket1","images/tutrocket2","null","images/tutrocket2","","1","practice","null","1","","",""
"d3-animate-choice","101","2885008","0.0-61.0-1.13","260","685","17","Male","true","true","false","true","""event"",""trial"",""time""
""focus"",""1"",""1248456""
""fullscreenenter"",""5"",""1264494""
""fullscreenexit"",""30"",""1310949""
""blur"",""30"",""1313719""
""focus"",""30"",""2750230""
","""event"",""trial"",""time""
""blur"",""30"",""1313719""
","""event"",""trial"",""time""
""focus"",""1"",""1248456""
""focus"",""30"",""2750230""
","""event"",""trial"",""time""
""fullscreenenter"",""5"",""1264494""
","""event"",""trial"",""time""
""fullscreenexit"",""30"",""1310949""
","175.2000000178814","","49","","","3000","1","413.59999999403954,522.8000000119209,738.2000000178814,872.0999999940395,1028.7000000178814,1179.9000000059605,1282.7000000178814,1440,1617.800000011921,1707.9000000059605,1880,2041.2000000178814","48,49,48,49,48,49,48,49,48,49,48,49","images/tutyellowplanet.jpg","images/tutalien4","images/tutalien3","images/tutrocket2","images/tutalien3","images/nothing.png","2","practice","true","1","common","0","2022-02-08 03:14:15.091"
"two-step-fixation","102","2886013","0.0-61.0-2.13","260","685","17","Male","true","true","false","true","""event"",""trial"",""time""
""focus"",""1"",""1248456""
""fullscreenenter"",""5"",""1264494""
""fullscreenexit"",""30"",""1310949""
""blur"",""30"",""1313719""
""focus"",""30"",""2750230""
","""event"",""trial"",""time""
""blur"",""30"",""1313719""
","""event"",""trial"",""time""
""focus"",""1"",""1248456""
""focus"",""30"",""2750230""
","""event"",""trial"",""time""
""fullscreenenter"",""5"",""1264494""
","""event"",""trial"",""time""
""fullscreenexit"",""30"",""1310949""
","","images/earth.jpg","","","","","","","","","","","","","","fixation","","","","","",""
"d3-animate-choice","103","2888148","0.0-61.0-0.14","260","685","17","Male","true","true","false","true","""event"",""trial"",""time""
""focus"",""1"",""1248456""
""fullscreenenter"",""5"",""1264494""
""fullscreenexit"",""30"",""1310949""
""blur"",""30"",""1313719""
""focus"",""30"",""2750230""
","""event"",""trial"",""time""
""blur"",""30"",""1313719""
","""event"",""trial"",""time""
""focus"",""1"",""1248456""
""focus"",""30"",""2750230""
","""event"",""trial"",""time""
""fullscreenenter"",""5"",""1264494""
","""event"",""trial"",""time""
""fullscreenexit"",""30"",""1310949""
","128.90000000596046","","48","","","3000","1","229.09999999403954,393.80000001192093,507.5,674.5999999940395,739.5,967.0999999940395,995.6999999880791,1185.0999999940395,1335.699999988079,1443.5,1584.5,1686.300000011921,1818.800000011921,1897.5999999940395,2063.4000000059605,2097.9000000059605","49,48,49,48,49,49,48,49,48,49,48,49,48,49,48,49","images/earth.jpg","images/tutrocket1","images/tutrocket2","null","images/tutrocket1","","1","practice","null","2","","",""
"d3-animate-choice","104","2890338","0.0-61.0-1.14","260","685","17","Male","true","true","false","true","""event"",""trial"",""time""
""focus"",""1"",""1248456""
""fullscreenenter"",""5"",""1264494""
""fullscreenexit"",""30"",""1310949""
""blur"",""30"",""1313719""
""focus"",""30"",""2750230""
","""event"",""trial"",""time""
""blur"",""30"",""1313719""
","""event"",""trial"",""time""
""focus"",""1"",""1248456""
""focus"",""30"",""2750230""
","""event"",""trial"",""time""
""fullscreenenter"",""5"",""1264494""
","""event"",""trial"",""time""
""fullscreenexit"",""30"",""1310949""
","174.69999998807907","","48","","","3000","1","181.2999999821186,425.09999999403954,440,644.5999999940395,672.6999999880791,891.6999999880791,1016.0999999940395,1118.4000000059605,1370.2999999821186,1397.0999999940395,1599.5999999940395,1646,1851.5,1962.699999988079,2098.9000000059605","49,48,49,49,48,49,48,49,48,49,48,49,49,48,49","images/tutgreenplanet.jpg","images/tutalien2","images/tutalien1","images/tutrocket1","images/tutalien2","images/nothing.png","2","practice","true","2","common","0","2022-02-08 03:14:20.421"
"two-step-fixation","105","2891344","0.0-61.0-2.14","260","685","17","Male","true","true","false","true","""event"",""trial"",""time""
""focus"",""1"",""1248456""
""fullscreenenter"",""5"",""1264494""
""fullscreenexit"",""30"",""1310949""
""blur"",""30"",""1313719""
""focus"",""30"",""2750230""
","""event"",""trial"",""time""
""blur"",""30"",""1313719""
","""event"",""trial"",""time""
""focus"",""1"",""1248456""
""focus"",""30"",""2750230""
","""event"",""trial"",""time""
""fullscreenenter"",""5"",""1264494""
","""event"",""trial"",""time""
""fullscreenexit"",""30"",""1310949""
","","images/earth.jpg","","","","","","","","","","","","","","fixation","","","","","",""
"d3-animate-choice","106","2893493","0.0-61.0-0.15","260","685","17","Male","true","true","false","true","""event"",""trial"",""time""
""focus"",""1"",""1248456""
""fullscreenenter"",""5"",""1264494""
""fullscreenexit"",""30"",""1310949""
""blur"",""30"",""1313719""
""focus"",""30"",""2750230""
","""event"",""trial"",""time""
""blur"",""30"",""1313719""
","""event"",""trial"",""time""
""focus"",""1"",""1248456""
""focus"",""30"",""2750230""
","""event"",""trial"",""time""
""fullscreenenter"",""5"",""1264494""
","""event"",""trial"",""time""
""fullscreenexit"",""30"",""1310949""
","144.09999999403954","","48","","","3000","1","254.59999999403954,501.30000001192093,712.5,778.2000000178814,1010.2000000178814,1209.4000000059605,1273,1536.5999999940395,1541.0999999940395,1790.9000000059605,1812.4000000059605,2058.800000011921,2132.5999999940395","49,49,48,49,49,48,49,48,49,49,48,49,48","images/earth.jpg","images/tutrocket1","images/tutrocket2","null","images/tutrocket1","","1","practice","null","2","","",""
"d3-animate-choice","107","2895681","0.0-61.0-1.15","260","685","17","Male","true","true","false","true","""event"",""trial"",""time""
""focus"",""1"",""1248456""
""fullscreenenter"",""5"",""1264494""
""fullscreenexit"",""30"",""1310949""
""blur"",""30"",""1313719""
""focus"",""30"",""2750230""
","""event"",""trial"",""time""
""blur"",""30"",""1313719""
","""event"",""trial"",""time""
""focus"",""1"",""1248456""
""focus"",""30"",""2750230""
","""event"",""trial"",""time""
""fullscreenenter"",""5"",""1264494""
","""event"",""trial"",""time""
""fullscreenexit"",""30"",""1310949""
","182","","49","","","3000","1","271.39999997615814,450.39999997615814,531.7999999821186,705.1999999880791,863,962.2999999821186,1131,1209.8999999761581,1393.5,1451.5,1632.2999999821186,1689.5999999940395,1885.3999999761581,1962.7999999821186,2109.399999976158","48,49,48,49,48,49,48,49,48,49,48,49,48,49,48","images/tutgreenplanet.jpg","images/tutalien2","images/tutalien1","images/tutrocket1","images/tutalien1","images/nothing.png","2","practice","true","1","common","0","2022-02-08 03:14:25.764"
"two-step-fixation","108","2896688","0.0-61.0-2.15","260","685","17","Male","true","true","false","true","""event"",""trial"",""time""
""focus"",""1"",""1248456""
""fullscreenenter"",""5"",""1264494""
""fullscreenexit"",""30"",""1310949""
""blur"",""30"",""1313719""
""focus"",""30"",""2750230""
","""event"",""trial"",""time""
""blur"",""30"",""1313719""
","""event"",""trial"",""time""
""focus"",""1"",""1248456""
""focus"",""30"",""2750230""
","""event"",""trial"",""time""
""fullscreenenter"",""5"",""1264494""
","""event"",""trial"",""time""
""fullscreenexit"",""30"",""1310949""
","","images/earth.jpg","","","","","","","","","","","","","","fixation","","","","","",""
"d3-animate-choice","109","2898761","0.0-61.0-0.16","260","685","17","Male","true","true","false","true","""event"",""trial"",""time""
""focus"",""1"",""1248456""
""fullscreenenter"",""5"",""1264494""
""fullscreenexit"",""30"",""1310949""
""blur"",""30"",""1313719""
""focus"",""30"",""2750230""
","""event"",""trial"",""time""
""blur"",""30"",""1313719""
","""event"",""trial"",""time""
""focus"",""1"",""1248456""
""focus"",""30"",""2750230""
","""event"",""trial"",""time""
""fullscreenenter"",""5"",""1264494""
","""event"",""trial"",""time""
""fullscreenexit"",""30"",""1310949""
","65.90000000596046","","48","","","3000","1","300.5,335.10000002384186,568.1000000238419,677.7000000178814,931.4000000059605,1061.6000000238419,1169.7000000178814,1313.800000011921,1354.4000000059605,1564.4000000059605,1614.9000000059605,1770.5,1814.300000011921,1985.2000000178814,2033.7000000178814","48,49,49,48,48,49,48,49,48,48,49,48,49,48,49","images/earth.jpg","images/tutrocket1","images/tutrocket2","null","images/tutrocket1","","1","practice","null","2","","",""
"d3-animate-choice","110","2900880","0.0-61.0-1.16","260","685","17","Male","true","true","false","true","""event"",""trial"",""time""
""focus"",""1"",""1248456""
""fullscreenenter"",""5"",""1264494""
""fullscreenexit"",""30"",""1310949""
""blur"",""30"",""1313719""
""focus"",""30"",""2750230""
","""event"",""trial"",""time""
""blur"",""30"",""1313719""
","""event"",""trial"",""time""
""focus"",""1"",""1248456""
""focus"",""30"",""2750230""
","""event"",""trial"",""time""
""fullscreenenter"",""5"",""1264494""
","""event"",""trial"",""time""
""fullscreenexit"",""30"",""1310949""
","100.7999999821186","","48","","","3000","1","220.90000000596046,314.19999998807907,404.2999999821186,534.1999999880791,762.2999999821186,885.5,1019.9000000059605,1132.9000000059605,1231.199999988079,1343.5,1470.7999999821186,1585.5999999940395,1682.199999988079,1809.5,1912.5999999940395,2019.9000000059605","49,48,49,48,48,49,48,49,48,49,48,49,48,49,48,49","images/tutgreenplanet.jpg","images/tutalien2","images/tutalien1","images/tutrocket1","images/tutalien2","images/nothing.png","2","practice","true","2","common","0","2022-02-08 03:14:30.963"
"two-step-fixation","111","2901886","0.0-61.0-2.16","260","685","17","Male","true","true","false","true","""event"",""trial"",""time""
""focus"",""1"",""1248456""
""fullscreenenter"",""5"",""1264494""
""fullscreenexit"",""30"",""1310949""
""blur"",""30"",""1313719""
""focus"",""30"",""2750230""
","""event"",""trial"",""time""
""blur"",""30"",""1313719""
","""event"",""trial"",""time""
""focus"",""1"",""1248456""
""focus"",""30"",""2750230""
","""event"",""trial"",""time""
""fullscreenenter"",""5"",""1264494""
","""event"",""trial"",""time""
""fullscreenexit"",""30"",""1310949""
","","images/earth.jpg","","","","","","","","","","","","","","fixation","","","","","",""
"d3-animate-choice","112","2903934","0.0-61.0-0.17","260","685","17","Male","true","true","false","true","""event"",""trial"",""time""
""focus"",""1"",""1248456""
""fullscreenenter"",""5"",""1264494""
""fullscreenexit"",""30"",""1310949""
""blur"",""30"",""1313719""
""focus"",""30"",""2750230""
","""event"",""trial"",""time""
""blur"",""30"",""1313719""
","""event"",""trial"",""time""
""focus"",""1"",""1248456""
""focus"",""30"",""2750230""
","""event"",""trial"",""time""
""fullscreenenter"",""5"",""1264494""
","""event"",""trial"",""time""
""fullscreenexit"",""30"",""1310949""
","37.80000001192093","","48","","","3000","1","142,257.19999998807907,381.19999998807907,528.4000000059605,634,760.5,853.6999999880791,1016.1999999880791,1117.5,1295,1343.5,1531.5,1590,1744.199999988079,1851.5999999940395,2003.4000000059605","49,48,49,48,49,48,49,48,49,48,49,48,49,48,49,48","images/earth.jpg","images/tutrocket1","images/tutrocket2","null","images/tutrocket1","","1","practice","null","2","","",""
"d3-animate-choice","113","2906252","0.0-61.0-1.17","260","685","17","Male","true","true","false","true","""event"",""trial"",""time""
""focus"",""1"",""1248456""
""fullscreenenter"",""5"",""1264494""
""fullscreenexit"",""30"",""1310949""
""blur"",""30"",""1313719""
""focus"",""30"",""2750230""
","""event"",""trial"",""time""
""blur"",""30"",""1313719""
","""event"",""trial"",""time""
""focus"",""1"",""1248456""
""focus"",""30"",""2750230""
","""event"",""trial"",""time""
""fullscreenenter"",""5"",""1264494""
","""event"",""trial"",""time""
""fullscreenexit"",""30"",""1310949""
","304.09999999403954","","49","","","3000","1","","","images/tutgreenplanet.jpg","images/tutalien2","images/tutalien1","images/tutrocket1","images/tutalien1","images/nothing.png","2","practice","true","1","common","0","2022-02-08 03:14:36.335"
"two-step-fixation","114","2907259","0.0-61.0-2.17","260","685","17","Male","true","true","false","true","""event"",""trial"",""time""
""focus"",""1"",""1248456""
""fullscreenenter"",""5"",""1264494""
""fullscreenexit"",""30"",""1310949""
""blur"",""30"",""1313719""
""focus"",""30"",""2750230""
","""event"",""trial"",""time""
""blur"",""30"",""1313719""
","""event"",""trial"",""time""
""focus"",""1"",""1248456""
""focus"",""30"",""2750230""
","""event"",""trial"",""time""
""fullscreenenter"",""5"",""1264494""
","""event"",""trial"",""time""
""fullscreenexit"",""30"",""1310949""
","","images/earth.jpg","","","","","","","","","","","","","","fixation","","","","","",""
"d3-animate-choice","115","2909358","0.0-61.0-0.18","260","685","17","Male","true","true","false","true","""event"",""trial"",""time""
""focus"",""1"",""1248456""
""fullscreenenter"",""5"",""1264494""
""fullscreenexit"",""30"",""1310949""
""blur"",""30"",""1313719""
""focus"",""30"",""2750230""
","""event"",""trial"",""time""
""blur"",""30"",""1313719""
","""event"",""trial"",""time""
""focus"",""1"",""1248456""
""focus"",""30"",""2750230""
","""event"",""trial"",""time""
""fullscreenenter"",""5"",""1264494""
","""event"",""trial"",""time""
""fullscreenexit"",""30"",""1310949""
","85.30000001192093","","49","","","3000","1","271.7000000178814,460.2000000178814,872.5,1077.2000000178814,1250.300000011921,1437.800000011921,1632.7000000178814,1801.5,2008.9000000059605","49,48,48,48,48,48,48,48,48","images/earth.jpg","images/tutrocket1","images/tutrocket2","null","images/tutrocket2","","1","practice","null","1","","",""
"d3-animate-choice","116","2911446","0.0-61.0-1.18","260","685","17","Male","true","true","false","true","""event"",""trial"",""time""
""focus"",""1"",""1248456""
""fullscreenenter"",""5"",""1264494""
""fullscreenexit"",""30"",""1310949""
""blur"",""30"",""1313719""
""focus"",""30"",""2750230""
","""event"",""trial"",""time""
""blur"",""30"",""1313719""
","""event"",""trial"",""time""
""focus"",""1"",""1248456""
""focus"",""30"",""2750230""
","""event"",""trial"",""time""
""fullscreenenter"",""5"",""1264494""
","""event"",""trial"",""time""
""fullscreenexit"",""30"",""1310949""
","79","","48","","","3000","1","256.40000000596046,461.7000000178814,658.3000000119209,828.0999999940395,1037.5999999940395,1226.4000000059605,1414.4000000059605,1608.5999999940395,1798.0999999940395,2000.7000000178814","48,48,48,48,48,48,48,48,48,48","images/tutyellowplanet.jpg","images/tutalien4","images/tutalien3","images/tutrocket2","images/tutalien4","images/nothing.png","2","practice","true","2","common","0","2022-02-08 03:14:41.530"
"two-step-fixation","117","2912453","0.0-61.0-2.18","260","685","17","Male","true","true","false","true","""event"",""trial"",""time""
""focus"",""1"",""1248456""
""fullscreenenter"",""5"",""1264494""
""fullscreenexit"",""30"",""1310949""
""blur"",""30"",""1313719""
""focus"",""30"",""2750230""
","""event"",""trial"",""time""
""blur"",""30"",""1313719""
","""event"",""trial"",""time""
""focus"",""1"",""1248456""
""focus"",""30"",""2750230""
","""event"",""trial"",""time""
""fullscreenenter"",""5"",""1264494""
","""event"",""trial"",""time""
""fullscreenexit"",""30"",""1310949""
","","images/earth.jpg","","","","","","","","","","","","","","fixation","","","","","",""
"d3-animate-choice","118","2914586","0.0-61.0-0.19","260","685","17","Male","true","true","false","true","""event"",""trial"",""time""
""focus"",""1"",""1248456""
""fullscreenenter"",""5"",""1264494""
""fullscreenexit"",""30"",""1310949""
""blur"",""30"",""1313719""
""focus"",""30"",""2750230""
","""event"",""trial"",""time""
""blur"",""30"",""1313719""
","""event"",""trial"",""time""
""focus"",""1"",""1248456""
""focus"",""30"",""2750230""
","""event"",""trial"",""time""
""fullscreenenter"",""5"",""1264494""
","""event"",""trial"",""time""
""fullscreenexit"",""30"",""1310949""
","121.7000000178814","","48","","","3000","1","277.2000000178814,514.0999999940395,727.5,905.2000000178814,1144.5,1339.5,1550.7000000178814,1765.4000000059605,1975.7000000178814","48,48,48,48,48,48,48,48,48","images/earth.jpg","images/tutrocket1","images/tutrocket2","null","images/tutrocket1","","1","practice","null","2","","",""
"d3-animate-choice","119","2916646","0.0-61.0-1.19","260","685","17","Male","true","true","false","true","""event"",""trial"",""time""
""focus"",""1"",""1248456""
""fullscreenenter"",""5"",""1264494""
""fullscreenexit"",""30"",""1310949""
""blur"",""30"",""1313719""
""focus"",""30"",""2750230""
","""event"",""trial"",""time""
""blur"",""30"",""1313719""
","""event"",""trial"",""time""
""focus"",""1"",""1248456""
""focus"",""30"",""2750230""
","""event"",""trial"",""time""
""fullscreenenter"",""5"",""1264494""
","""event"",""trial"",""time""
""fullscreenexit"",""30"",""1310949""
","52.89999997615814","","48","","","3000","1","","","images/tutgreenplanet.jpg","images/tutalien2","images/tutalien1","images/tutrocket1","images/tutalien2","images/nothing.png","2","practice","true","2","common","0","2022-02-08 03:14:46.729"
"two-step-fixation","120","2917652","0.0-61.0-2.19","260","685","17","Male","true","true","false","true","""event"",""trial"",""time""
""focus"",""1"",""1248456""
""fullscreenenter"",""5"",""1264494""
""fullscreenexit"",""30"",""1310949""
""blur"",""30"",""1313719""
""focus"",""30"",""2750230""
","""event"",""trial"",""time""
""blur"",""30"",""1313719""
","""event"",""trial"",""time""
""focus"",""1"",""1248456""
""focus"",""30"",""2750230""
","""event"",""trial"",""time""
""fullscreenenter"",""5"",""1264494""
","""event"",""trial"",""time""
""fullscreenexit"",""30"",""1310949""
","","images/earth.jpg","","","","","","","","","","","","","","fixation","","","","","",""
"d3-instructions","121","2920686","0.0-62.0","260","685","17","Male","true","true","false","true","""event"",""trial"",""time""
""focus"",""1"",""1248456""
""fullscreenenter"",""5"",""1264494""
""fullscreenexit"",""30"",""1310949""
""blur"",""30"",""1313719""
""focus"",""30"",""2750230""
","""event"",""trial"",""time""
""blur"",""30"",""1313719""
","""event"",""trial"",""time""
""focus"",""1"",""1248456""
""focus"",""30"",""2750230""
","""event"",""trial"",""time""
""fullscreenenter"",""5"",""1264494""
","""event"",""trial"",""time""
""fullscreenexit"",""30"",""1310949""
","","","","","","","","","","","","","","","","","","","","","",""
"audio-keyboard-response","122","2923748","0.0-63.0","260","685","17","Male","true","true","false","true","""event"",""trial"",""time""
""focus"",""1"",""1248456""
""fullscreenenter"",""5"",""1264494""
""fullscreenexit"",""30"",""1310949""
""blur"",""30"",""1313719""
""focus"",""30"",""2750230""
","""event"",""trial"",""time""
""blur"",""30"",""1313719""
","""event"",""trial"",""time""
""focus"",""1"",""1248456""
""focus"",""30"",""2750230""
","""event"",""trial"",""time""
""fullscreenenter"",""5"",""1264494""
","""event"",""trial"",""time""
""fullscreenexit"",""30"",""1310949""
","3051","audio/instructions/treasure_feedback.wav","32","","","","","","","","","","","","","","","","","","",""
"d3-instructions","123","2927307","0.0-64.0","260","685","17","Male","true","true","false","true","""event"",""trial"",""time""
""focus"",""1"",""1248456""
""fullscreenenter"",""5"",""1264494""
""fullscreenexit"",""30"",""1310949""
""blur"",""30"",""1313719""
""focus"",""30"",""2750230""
","""event"",""trial"",""time""
""blur"",""30"",""1313719""
","""event"",""trial"",""time""
""focus"",""1"",""1248456""
""focus"",""30"",""2750230""
","""event"",""trial"",""time""
""fullscreenenter"",""5"",""1264494""
","""event"",""trial"",""time""
""fullscreenexit"",""30"",""1310949""
","","","","","","","","","","","","","","","","","","","","","",""
"d3-instructions","124","2928573","0.0-65.0","260","685","17","Male","true","true","false","true","""event"",""trial"",""time""
""focus"",""1"",""1248456""
""fullscreenenter"",""5"",""1264494""
""fullscreenexit"",""30"",""1310949""
""blur"",""30"",""1313719""
""focus"",""30"",""2750230""
","""event"",""trial"",""time""
""blur"",""30"",""1313719""
","""event"",""trial"",""time""
""focus"",""1"",""1248456""
""focus"",""30"",""2750230""
","""event"",""trial"",""time""
""fullscreenenter"",""5"",""1264494""
","""event"",""trial"",""time""
""fullscreenexit"",""30"",""1310949""
","","","","","","","","","","","","","","","","","","","","","",""
"d3-instructions","125","2930008","0.0-66.0","260","685","17","Male","true","true","false","true","""event"",""trial"",""time""
""focus"",""1"",""1248456""
""fullscreenenter"",""5"",""1264494""
""fullscreenexit"",""30"",""1310949""
""blur"",""30"",""1313719""
""focus"",""30"",""2750230""
","""event"",""trial"",""time""
""blur"",""30"",""1313719""
","""event"",""trial"",""time""
""focus"",""1"",""1248456""
""focus"",""30"",""2750230""
","""event"",""trial"",""time""
""fullscreenenter"",""5"",""1264494""
","""event"",""trial"",""time""
""fullscreenexit"",""30"",""1310949""
","","","","","","","","","","","","","","","","","","","","","",""
"d3-instructions","126","2930811","0.0-67.0","260","685","17","Male","true","true","false","true","""event"",""trial"",""time""
""focus"",""1"",""1248456""
""fullscreenenter"",""5"",""1264494""
""fullscreenexit"",""30"",""1310949""
""blur"",""30"",""1313719""
""focus"",""30"",""2750230""
","""event"",""trial"",""time""
""blur"",""30"",""1313719""
","""event"",""trial"",""time""
""focus"",""1"",""1248456""
""focus"",""30"",""2750230""
","""event"",""trial"",""time""
""fullscreenenter"",""5"",""1264494""
","""event"",""trial"",""time""
""fullscreenexit"",""30"",""1310949""
","","","","","","","","","","","","","","","","","","","","","",""
