"trial_type","trial_index","time_elapsed","internal_node_id","participant_id","subject_id","age","gender","rocket_sides","red_planet_first_rocket","red_display_order","purple_display_order","interactions","blur_events","focus_events","fullscreenenter_events","fullscreenexit_events","rt","stimulus","key_press","button_pressed","success","duration","valid_pressed","rts","keys","planet_text","right_text","left_text","center_text","chosen_text","reward_text","trial_stage","practice_trial","transition_type","choice","transition","reward","timestamp"
"pavlovia","0","4","0.0-0.0","2575","4972","16","Female","true","true","true","false","
","
","
","
","
","","","","","","","","","","","","","","","","","","","","","",""
"html-keyboard-response","1","1647","0.0-1.0","2575","4972","16","Female","true","true","true","false","
","
","
","
","
","1641.9000000953674","Welcome! Press the space bar to begin.","32","","","","","","","","","","","","","","","","","","",""
"audio-keyboard-response","2","5688","0.0-2.0","2575","4972","16","Female","true","true","true","false","
","
","
","
","
","4040","audio/beep_loop.wav","32","","","","","","","","","","","","","","","","","","",""
"audio-button-response","3","8470","0.0-3.0","2575","4972","16","Female","true","true","true","false","
","
","
","
","
","NaN","audio/fish.mp3","","1","","","","","","","","","","","","","","","","","",""
"audio-button-response","4","11580","0.0-4.0","2575","4972","16","Female","true","true","true","false","""event"",""trial"",""time""
""fullscreenenter"",""5"",""14078""
","
","
","""event"",""trial"",""time""
""fullscreenenter"",""5"",""14078""
","
","NaN","audio/tiger.mp3","","4","","","","","","","","","","","","","","","","","",""
"fullscreen","5","15046","0.0-5.0","2575","4972","16","Female","true","true","true","false","""event"",""trial"",""time""
""fullscreenenter"",""5"",""14078""
","
","
","""event"",""trial"",""time""
""fullscreenenter"",""5"",""14078""
","
","","","","","true","","","","","","","","","","","","","","","","",""
"d3-instructions","6","23577","0.0-6.0","2575","4972","16","Female","true","true","true","false","""event"",""trial"",""time""
""fullscreenenter"",""5"",""14078""
","
","
","""event"",""trial"",""time""
""fullscreenenter"",""5"",""14078""
","
","","","","","","","","","","","","","","","","","","","","","",""
"d3-instructions","7","26443","0.0-7.0","2575","4972","16","Female","true","true","true","false","""event"",""trial"",""time""
""fullscreenenter"",""5"",""14078""
","
","
","""event"",""trial"",""time""
""fullscreenenter"",""5"",""14078""
","
","","","","","","","","","","","","","","","","","","","","","",""
"d3-instructions","8","30896","0.0-8.0","2575","4972","16","Female","true","true","true","false","""event"",""trial"",""time""
""fullscreenenter"",""5"",""14078""
","
","
","""event"",""trial"",""time""
""fullscreenenter"",""5"",""14078""
","
","","","","","","","","","","","","","","","","","","","","","",""
"d3-instructions","9","33208","0.0-9.0","2575","4972","16","Female","true","true","true","false","""event"",""trial"",""time""
""fullscreenenter"",""5"",""14078""
","
","
","""event"",""trial"",""time""
""fullscreenenter"",""5"",""14078""
","
","","","","","","","","","","","","","","","","","","","","","",""
"d3-instructions","10","37731","0.0-10.0","2575","4972","16","Female","true","true","true","false","""event"",""trial"",""time""
""fullscreenenter"",""5"",""14078""
","
","
","""event"",""trial"",""time""
""fullscreenenter"",""5"",""14078""
","
","","","","","","","","","","","","","","","","","","","","","",""
"d3-animate-choice","11","40928","0.0-11.0","2575","4972","16","Female","true","true","true","false","""event"",""trial"",""time""
""fullscreenenter"",""5"",""14078""
","
","
","""event"",""trial"",""time""
""fullscreenenter"",""5"",""14078""
","
","1176.6000001430511","","49","","","3000","1","","","images/tutgreenplanet.jpg","images/tutalien1","images/tutalien2","null","images/tutalien2","","NA","practice","null","","","",""
"d3-animate-choice","12","43265","0.0-12.0","2575","4972","16","Female","true","true","true","false","""event"",""trial"",""time""
""fullscreenenter"",""5"",""14078""
","
","
","""event"",""trial"",""time""
""fullscreenenter"",""5"",""14078""
","
","319.59999990463257","","49","","","3000","1","","","images/tutgreenplanet.jpg","images/tutalien1","images/tutalien2","null","images/tutalien2","","NA","practice","null","","","",""
"d3-animate-choice","13","45544","0.0-13.0","2575","4972","16","Female","true","true","true","false","""event"",""trial"",""time""
""fullscreenenter"",""5"",""14078""
","
","
","""event"",""trial"",""time""
""fullscreenenter"",""5"",""14078""
","
","268.90000009536743","","48","","","3000","1","","","images/tutgreenplanet.jpg","images/tutalien1","images/tutalien2","null","images/tutalien1","","NA","practice","null","","","",""
"d3-animate-choice","14","48242","0.0-14.0","2575","4972","16","Female","true","true","true","false","""event"",""trial"",""time""
""fullscreenenter"",""5"",""14078""
","
","
","""event"",""trial"",""time""
""fullscreenenter"",""5"",""14078""
","
","679.2999999523163","","48","","","3000","1","","","images/tutgreenplanet.jpg","images/tutalien1","images/tutalien2","null","images/tutalien1","","NA","practice","null","","","",""
"d3-instructions","15","50308","0.0-15.0","2575","4972","16","Female","true","true","true","false","""event"",""trial"",""time""
""fullscreenenter"",""5"",""14078""
","
","
","""event"",""trial"",""time""
""fullscreenenter"",""5"",""14078""
","
","","","","","","","","","","","","","","","","","","","","","",""
"d3-instructions","16","52213","0.0-16.0","2575","4972","16","Female","true","true","true","false","""event"",""trial"",""time""
""fullscreenenter"",""5"",""14078""
","
","
","""event"",""trial"",""time""
""fullscreenenter"",""5"",""14078""
","
","","","","","","","","","","","","","","","","","","","","","",""
"d3-instructions","17","54063","0.0-17.0","2575","4972","16","Female","true","true","true","false","""event"",""trial"",""time""
""fullscreenenter"",""5"",""14078""
","
","
","""event"",""trial"",""time""
""fullscreenenter"",""5"",""14078""
","
","","","","","","","","","","","","","","","","","","","","","",""
"d3-instructions","18","56002","0.0-18.0","2575","4972","16","Female","true","true","true","false","""event"",""trial"",""time""
""fullscreenenter"",""5"",""14078""
","
","
","""event"",""trial"",""time""
""fullscreenenter"",""5"",""14078""
","
","","","","","","","","","","","","","","","","","","","","","",""
"d3-instructions","19","58481","0.0-19.0","2575","4972","16","Female","true","true","true","false","""event"",""trial"",""time""
""fullscreenenter"",""5"",""14078""
","
","
","""event"",""trial"",""time""
""fullscreenenter"",""5"",""14078""
","
","","","","","","","","","","","","","","","","","","","","","",""
"d3-animate-choice","20","60975","0.0-20.0","2575","4972","16","Female","true","true","true","false","""event"",""trial"",""time""
""fullscreenenter"",""5"",""14078""
","
","
","""event"",""trial"",""time""
""fullscreenenter"",""5"",""14078""
","
","478.7000000476837","","49","","","3000","1","1908.6000001430511","49","images/tutyellowplanet.jpg","null","images/tutalien3","null","images/tutalien3","images/t.png","NA","practice","null","","","",""
"d3-animate-choice","21","63254","0.0-21.0","2575","4972","16","Female","true","true","true","false","""event"",""trial"",""time""
""fullscreenenter"",""5"",""14078""
","
","
","""event"",""trial"",""time""
""fullscreenenter"",""5"",""14078""
","
","272.10000014305115","","49","","","3000","1","494.5","48","images/tutyellowplanet.jpg","null","images/tutalien3","null","images/tutalien3","images/t.png","NA","practice","null","","","",""
"d3-animate-choice","22","65679","0.0-22.0","2575","4972","16","Female","true","true","true","false","""event"",""trial"",""time""
""fullscreenenter"",""5"",""14078""
","
","
","""event"",""trial"",""time""
""fullscreenenter"",""5"",""14078""
","
","306.7999999523163","","48","","","3000","1","419.2000000476837,2389.7999999523163","49,49","images/tutyellowplanet.jpg","null","images/tutalien3","null","images/tutalien3","images/nothing.png","NA","practice","null","","","",""
"d3-animate-choice","23","68119","0.0-23.0","2575","4972","16","Female","true","true","true","false","""event"",""trial"",""time""
""fullscreenenter"",""5"",""14078""
","
","
","""event"",""trial"",""time""
""fullscreenenter"",""5"",""14078""
","
","427.2000000476837","","49","","","3000","1","1196.4000000953674","49","images/tutyellowplanet.jpg","null","images/tutalien3","null","images/tutalien3","images/t.png","NA","practice","null","","","",""
"d3-animate-choice","24","70471","0.0-24.0","2575","4972","16","Female","true","true","true","false","""event"",""trial"",""time""
""fullscreenenter"",""5"",""14078""
","
","
","""event"",""trial"",""time""
""fullscreenenter"",""5"",""14078""
","
","335.40000009536743","","49","","","3000","1","","","images/tutyellowplanet.jpg","null","images/tutalien3","null","images/tutalien3","images/nothing.png","NA","practice","null","","","",""
"d3-animate-choice","25","72738","0.0-25.0","2575","4972","16","Female","true","true","true","false","""event"",""trial"",""time""
""fullscreenenter"",""5"",""14078""
","
","
","""event"",""trial"",""time""
""fullscreenenter"",""5"",""14078""
","
","255.40000009536743","","49","","","3000","1","","","images/tutyellowplanet.jpg","null","images/tutalien3","null","images/tutalien3","images/t.png","NA","practice","null","","","",""
"d3-animate-choice","26","75083","0.0-26.0","2575","4972","16","Female","true","true","true","false","""event"",""trial"",""time""
""fullscreenenter"",""5"",""14078""
","
","
","""event"",""trial"",""time""
""fullscreenenter"",""5"",""14078""
","
","329","","49","","","3000","1","","","images/tutyellowplanet.jpg","null","images/tutalien3","null","images/tutalien3","images/t.png","NA","practice","null","","","",""
"d3-animate-choice","27","77220","0.0-27.0","2575","4972","16","Female","true","true","true","false","""event"",""trial"",""time""
""fullscreenenter"",""5"",""14078""
","
","
","""event"",""trial"",""time""
""fullscreenenter"",""5"",""14078""
","
","132.90000009536743","","49","","","3000","1","","","images/tutyellowplanet.jpg","null","images/tutalien3","null","images/tutalien3","images/nothing.png","NA","practice","null","","","",""
"d3-animate-choice","28","79494","0.0-28.0","2575","4972","16","Female","true","true","true","false","""event"",""trial"",""time""
""fullscreenenter"",""5"",""14078""
","
","
","""event"",""trial"",""time""
""fullscreenenter"",""5"",""14078""
","
","268.7999999523163","","49","","","3000","1","1694.7000000476837,2078.0999999046326","49,49","images/tutyellowplanet.jpg","null","images/tutalien3","null","images/tutalien3","images/t.png","NA","practice","null","","","",""
"d3-animate-choice","29","81598","0.0-29.0","2575","4972","16","Female","true","true","true","false","""event"",""trial"",""time""
""fullscreenenter"",""5"",""14078""
","
","
","""event"",""trial"",""time""
""fullscreenenter"",""5"",""14078""
","
","101.19999980926514","","49","","","3000","1","427.7999999523163,817,1235.8999998569489,1883","49,49,49,49","images/tutyellowplanet.jpg","null","images/tutalien3","null","images/tutalien3","images/t.png","NA","practice","null","","","",""
"d3-instructions","30","90774","0.0-30.0","2575","4972","16","Female","true","true","true","false","""event"",""trial"",""time""
""fullscreenenter"",""5"",""14078""
","
","
","""event"",""trial"",""time""
""fullscreenenter"",""5"",""14078""
","
","","","","","","","","","","","","","","","","","","","","","",""
"d3-instructions","31","96368","0.0-31.0","2575","4972","16","Female","true","true","true","false","""event"",""trial"",""time""
""fullscreenenter"",""5"",""14078""
","
","
","""event"",""trial"",""time""
""fullscreenenter"",""5"",""14078""
","
","","","","","","","","","","","","","","","","","","","","","",""
"d3-instructions","32","97557","0.0-32.0","2575","4972","16","Female","true","true","true","false","""event"",""trial"",""time""
""fullscreenenter"",""5"",""14078""
","
","
","""event"",""trial"",""time""
""fullscreenenter"",""5"",""14078""
","
","","","","","","","","","","","","","","","","","","","","","",""
"d3-instructions","33","98613","0.0-33.0","2575","4972","16","Female","true","true","true","false","""event"",""trial"",""time""
""fullscreenenter"",""5"",""14078""
","
","
","""event"",""trial"",""time""
""fullscreenenter"",""5"",""14078""
","
","","","","","","","","","","","","","","","","","","","","","",""
"d3-animate-choice","34","101172","0.0-34.0","2575","4972","16","Female","true","true","true","false","""event"",""trial"",""time""
""fullscreenenter"",""5"",""14078""
","
","
","""event"",""trial"",""time""
""fullscreenenter"",""5"",""14078""
","
","544.7000000476837","","49","","","3000","1","","","images/tutgreenplanet.jpg","images/tutalien1","images/tutalien2","null","images/tutalien2","images/nothing.png","NA","practice","null","","","",""
"d3-animate-choice","35","103422","0.0-35.0","2575","4972","16","Female","true","true","true","false","""event"",""trial"",""time""
""fullscreenenter"",""5"",""14078""
","
","
","""event"",""trial"",""time""
""fullscreenenter"",""5"",""14078""
","
","244.5","","48","","","3000","1","","","images/tutgreenplanet.jpg","images/tutalien1","images/tutalien2","null","images/tutalien1","images/nothing.png","NA","practice","null","","","",""
"d3-animate-choice","36","105571","0.0-36.0","2575","4972","16","Female","true","true","true","false","""event"",""trial"",""time""
""fullscreenenter"",""5"",""14078""
","
","
","""event"",""trial"",""time""
""fullscreenenter"",""5"",""14078""
","
","132.09999990463257","","49","","","3000","1","","","images/tutgreenplanet.jpg","images/tutalien1","images/tutalien2","null","images/tutalien2","images/t.png","NA","practice","null","","","",""
"d3-animate-choice","37","108014","0.0-37.0","2575","4972","16","Female","true","true","true","false","""event"",""trial"",""time""
""fullscreenenter"",""5"",""14078""
","
","
","""event"",""trial"",""time""
""fullscreenenter"",""5"",""14078""
","
","432.60000014305115","","49","","","3000","1","1954.7999999523163","49","images/tutgreenplanet.jpg","images/tutalien1","images/tutalien2","null","images/tutalien2","images/t.png","NA","practice","null","","","",""
"d3-animate-choice","38","110094","0.0-38.0","2575","4972","16","Female","true","true","true","false","""event"",""trial"",""time""
""fullscreenenter"",""5"",""14078""
","
","
","""event"",""trial"",""time""
""fullscreenenter"",""5"",""14078""
","
","70.29999995231628","","49","","","3000","1","494.40000009536743","49","images/tutgreenplanet.jpg","images/tutalien1","images/tutalien2","null","images/tutalien2","images/t.png","NA","practice","null","","","",""
"d3-animate-choice","39","112910","0.0-39.0","2575","4972","16","Female","true","true","true","false","""event"",""trial"",""time""
""fullscreenenter"",""5"",""14078""
","
","
","""event"",""trial"",""time""
""fullscreenenter"",""5"",""14078""
","
","810.4000000953674","","49","","","3000","1","","","images/tutgreenplanet.jpg","images/tutalien1","images/tutalien2","null","images/tutalien2","images/t.png","NA","practice","null","","","",""
"d3-animate-choice","40","115221","0.0-40.0","2575","4972","16","Female","true","true","true","false","""event"",""trial"",""time""
""fullscreenenter"",""5"",""14078""
","
","
","""event"",""trial"",""time""
""fullscreenenter"",""5"",""14078""
","
","304.7999999523163","","49","","","3000","1","1708.6000001430511,2010.2000000476837","49,49","images/tutgreenplanet.jpg","images/tutalien1","images/tutalien2","null","images/tutalien2","images/nothing.png","NA","practice","null","","","",""
"d3-animate-choice","41","117230","0.0-41.0","2575","4972","16","Female","true","true","true","false","""event"",""trial"",""time""
""fullscreenenter"",""5"",""14078""
","
","
","""event"",""trial"",""time""
""fullscreenenter"",""5"",""14078""
","
","3.700000047683716","","49","","","3000","1","280.7000000476837,859.1000001430511,1305.8000001907349,1725.1000001430511","49,49,49,49","images/tutgreenplanet.jpg","images/tutalien1","images/tutalien2","null","images/tutalien2","images/t.png","NA","practice","null","","","",""
"d3-animate-choice","42","119346","0.0-42.0","2575","4972","16","Female","true","true","true","false","""event"",""trial"",""time""
""fullscreenenter"",""5"",""14078""
","
","
","""event"",""trial"",""time""
""fullscreenenter"",""5"",""14078""
","
","103.20000004768372","","49","","","3000","1","475.40000009536743,1182.2000000476837,1577.5,1995.2000000476837","49,49,49,49","images/tutgreenplanet.jpg","images/tutalien1","images/tutalien2","null","images/tutalien2","images/t.png","NA","practice","null","","","",""
"d3-animate-choice","43","121590","0.0-43.0","2575","4972","16","Female","true","true","true","false","""event"",""trial"",""time""
""fullscreenenter"",""5"",""14078""
","
","
","""event"",""trial"",""time""
""fullscreenenter"",""5"",""14078""
","
","237.5","","49","","","3000","1","2166.7000000476837","49","images/tutgreenplanet.jpg","images/tutalien1","images/tutalien2","null","images/tutalien2","images/t.png","NA","practice","null","","","",""
"d3-instructions","44","125320","0.0-44.0","2575","4972","16","Female","true","true","true","false","""event"",""trial"",""time""
""fullscreenenter"",""5"",""14078""
","
","
","""event"",""trial"",""time""
""fullscreenenter"",""5"",""14078""
","
","","","","","","","","","","","","","","","","","","","","","",""
"d3-instructions","45","126545","0.0-45.0","2575","4972","16","Female","true","true","true","false","""event"",""trial"",""time""
""fullscreenenter"",""5"",""14078""
","
","
","""event"",""trial"",""time""
""fullscreenenter"",""5"",""14078""
","
","","","","","","","","","","","","","","","","","","","","","",""
"d3-instructions","46","164068","0.0-46.0","2575","4972","16","Female","true","true","true","false","""event"",""trial"",""time""
""fullscreenenter"",""5"",""14078""
","
","
","""event"",""trial"",""time""
""fullscreenenter"",""5"",""14078""
","
","","","","","","","","","","","","","","","","","","","","","",""
"d3-instructions","47","166222","0.0-47.0","2575","4972","16","Female","true","true","true","false","""event"",""trial"",""time""
""fullscreenenter"",""5"",""14078""
","
","
","""event"",""trial"",""time""
""fullscreenenter"",""5"",""14078""
","
","","","","","","","","","","","","","","","","","","","","","",""
"d3-instructions","48","168841","0.0-48.0","2575","4972","16","Female","true","true","true","false","""event"",""trial"",""time""
""fullscreenenter"",""5"",""14078""
","
","
","""event"",""trial"",""time""
""fullscreenenter"",""5"",""14078""
","
","","","","","","","","","","","","","","","","","","","","","",""
"d3-instructions","49","169702","0.0-49.0","2575","4972","16","Female","true","true","true","false","""event"",""trial"",""time""
""fullscreenenter"",""5"",""14078""
","
","
","""event"",""trial"",""time""
""fullscreenenter"",""5"",""14078""
","
","","","","","","","","","","","","","","","","","","","","","",""
"d3-instructions","50","170269","0.0-50.0","2575","4972","16","Female","true","true","true","false","""event"",""trial"",""time""
""fullscreenenter"",""5"",""14078""
","
","
","""event"",""trial"",""time""
""fullscreenenter"",""5"",""14078""
","
","","","","","","","","","","","","","","","","","","","","","",""
"d3-instructions","51","171050","0.0-51.0","2575","4972","16","Female","true","true","true","false","""event"",""trial"",""time""
""fullscreenenter"",""5"",""14078""
","
","
","""event"",""trial"",""time""
""fullscreenenter"",""5"",""14078""
","
","","","","","","","","","","","","","","","","","","","","","",""
"d3-instructions","52","171652","0.0-52.0","2575","4972","16","Female","true","true","true","false","""event"",""trial"",""time""
""fullscreenenter"",""5"",""14078""
","
","
","""event"",""trial"",""time""
""fullscreenenter"",""5"",""14078""
","
","","","","","","","","","","","","","","","","","","","","","",""
"d3-instructions","53","172593","0.0-53.0","2575","4972","16","Female","true","true","true","false","""event"",""trial"",""time""
""fullscreenenter"",""5"",""14078""
","
","
","""event"",""trial"",""time""
""fullscreenenter"",""5"",""14078""
","
","","","","","","","","","","","","","","","","","","","","","",""
"d3-instructions","54","173314","0.0-54.0","2575","4972","16","Female","true","true","true","false","""event"",""trial"",""time""
""fullscreenenter"",""5"",""14078""
","
","
","""event"",""trial"",""time""
""fullscreenenter"",""5"",""14078""
","
","","","","","","","","","","","","","","","","","","","","","",""
"d3-instructions","55","173990","0.0-55.0","2575","4972","16","Female","true","true","true","false","""event"",""trial"",""time""
""fullscreenenter"",""5"",""14078""
","
","
","""event"",""trial"",""time""
""fullscreenenter"",""5"",""14078""
","
","","","","","","","","","","","","","","","","","","","","","",""
"d3-instructions","56","175154","0.0-56.0","2575","4972","16","Female","true","true","true","false","""event"",""trial"",""time""
""fullscreenenter"",""5"",""14078""
","
","
","""event"",""trial"",""time""
""fullscreenenter"",""5"",""14078""
","
","","","","","","","","","","","","","","","","","","","","","",""
"d3-instructions","57","175946","0.0-57.0","2575","4972","16","Female","true","true","true","false","""event"",""trial"",""time""
""fullscreenenter"",""5"",""14078""
","
","
","""event"",""trial"",""time""
""fullscreenenter"",""5"",""14078""
","
","","","","","","","","","","","","","","","","","","","","","",""
"d3-instructions","58","179902","0.0-58.0","2575","4972","16","Female","true","true","true","false","""event"",""trial"",""time""
""fullscreenenter"",""5"",""14078""
","
","
","""event"",""trial"",""time""
""fullscreenenter"",""5"",""14078""
","
","","","","","","","","","","","","","","","","","","","","","",""
"d3-instructions","59","180801","0.0-59.0","2575","4972","16","Female","true","true","true","false","""event"",""trial"",""time""
""fullscreenenter"",""5"",""14078""
","
","
","""event"",""trial"",""time""
""fullscreenenter"",""5"",""14078""
","
","","","","","","","","","","","","","","","","","","","","","",""
"d3-instructions","60","181921","0.0-60.0","2575","4972","16","Female","true","true","true","false","""event"",""trial"",""time""
""fullscreenenter"",""5"",""14078""
","
","
","""event"",""trial"",""time""
""fullscreenenter"",""5"",""14078""
","
","","","","","","","","","","","","","","","","","","","","","",""
"d3-animate-choice","61","184406","0.0-61.0-0.0","2575","4972","16","Female","true","true","true","false","""event"",""trial"",""time""
""fullscreenenter"",""5"",""14078""
","
","
","""event"",""trial"",""time""
""fullscreenenter"",""5"",""14078""
","
","477","","49","","","3000","1","","","images/earth.jpg","images/tutrocket2","images/tutrocket1","null","images/tutrocket1","","1","practice","null","1","","",""
"d3-animate-choice","62","186972","0.0-61.0-1.0","2575","4972","16","Female","true","true","true","false","""event"",""trial"",""time""
""fullscreenenter"",""5"",""14078""
","
","
","""event"",""trial"",""time""
""fullscreenenter"",""5"",""14078""
","
","538.6999998092651","","49","","","3000","1","","","images/tutgreenplanet.jpg","images/tutalien2","images/tutalien1","images/tutrocket1","images/tutalien1","images/t.png","2","practice","true","1","common","1","2022-12-05 23:15:50.577"
"two-step-fixation","63","187987","0.0-61.0-2.0","2575","4972","16","Female","true","true","true","false","""event"",""trial"",""time""
""fullscreenenter"",""5"",""14078""
","
","
","""event"",""trial"",""time""
""fullscreenenter"",""5"",""14078""
","
","","images/earth.jpg","","","","","","","","","","","","","","fixation","","","","","",""
"d3-animate-choice","64","190253","0.0-61.0-0.1","2575","4972","16","Female","true","true","true","false","""event"",""trial"",""time""
""fullscreenenter"",""5"",""14078""
","
","
","""event"",""trial"",""time""
""fullscreenenter"",""5"",""14078""
","
","258.2999999523163","","49","","","3000","1","1388.4000000953674,1747.0999999046326,2093.2999999523163","49,49,49","images/earth.jpg","images/tutrocket2","images/tutrocket1","null","images/tutrocket1","","1","practice","null","1","","",""
"d3-animate-choice","65","192390","0.0-61.0-1.1","2575","4972","16","Female","true","true","true","false","""event"",""trial"",""time""
""fullscreenenter"",""5"",""14078""
","
","
","""event"",""trial"",""time""
""fullscreenenter"",""5"",""14078""
","
","131.90000009536743","","49","","","3000","1","420.7999999523163","49","images/tutyellowplanet.jpg","images/tutalien4","images/tutalien3","images/tutrocket1","images/tutalien3","images/nothing.png","2","practice","false","1","rare","0","2022-12-05 23:15:55.995"
"two-step-fixation","66","193397","0.0-61.0-2.1","2575","4972","16","Female","true","true","true","false","""event"",""trial"",""time""
""fullscreenenter"",""5"",""14078""
","
","
","""event"",""trial"",""time""
""fullscreenenter"",""5"",""14078""
","
","","images/earth.jpg","","","","","","","","","","","","","","fixation","","","","","",""
"d3-animate-choice","67","195702","0.0-61.0-0.2","2575","4972","16","Female","true","true","true","false","""event"",""trial"",""time""
""fullscreenenter"",""5"",""14078""
","
","
","""event"",""trial"",""time""
""fullscreenenter"",""5"",""14078""
","
","294.7000000476837","","49","","","3000","1","","","images/earth.jpg","images/tutrocket2","images/tutrocket1","null","images/tutrocket1","","1","practice","null","1","","",""
"d3-animate-choice","68","198026","0.0-61.0-1.2","2575","4972","16","Female","true","true","true","false","""event"",""trial"",""time""
""fullscreenenter"",""5"",""14078""
","
","
","""event"",""trial"",""time""
""fullscreenenter"",""5"",""14078""
","
","303.2000000476837","","49","","","3000","1","","","images/tutgreenplanet.jpg","images/tutalien2","images/tutalien1","images/tutrocket1","images/tutalien1","images/nothing.png","2","practice","true","1","common","0","2022-12-05 23:16:01.631"
"two-step-fixation","69","199043","0.0-61.0-2.2","2575","4972","16","Female","true","true","true","false","""event"",""trial"",""time""
""fullscreenenter"",""5"",""14078""
","
","
","""event"",""trial"",""time""
""fullscreenenter"",""5"",""14078""
","
","","images/earth.jpg","","","","","","","","","","","","","","fixation","","","","","",""
"d3-animate-choice","70","201316","0.0-61.0-0.3","2575","4972","16","Female","true","true","true","false","""event"",""trial"",""time""
""fullscreenenter"",""5"",""14078""
","
","
","""event"",""trial"",""time""
""fullscreenenter"",""5"",""14078""
","
","260","","49","","","3000","1","","","images/earth.jpg","images/tutrocket2","images/tutrocket1","null","images/tutrocket1","","1","practice","null","1","","",""
"d3-animate-choice","71","203766","0.0-61.0-1.3","2575","4972","16","Female","true","true","true","false","""event"",""trial"",""time""
""fullscreenenter"",""5"",""14078""
","
","
","""event"",""trial"",""time""
""fullscreenenter"",""5"",""14078""
","
","444.5","","49","","","3000","1","","","images/tutgreenplanet.jpg","images/tutalien2","images/tutalien1","images/tutrocket1","images/tutalien1","images/t.png","2","practice","true","1","common","1","2022-12-05 23:16:07.371"
"two-step-fixation","72","204774","0.0-61.0-2.3","2575","4972","16","Female","true","true","true","false","""event"",""trial"",""time""
""fullscreenenter"",""5"",""14078""
","
","
","""event"",""trial"",""time""
""fullscreenenter"",""5"",""14078""
","
","","images/earth.jpg","","","","","","","","","","","","","","fixation","","","","","",""
"d3-animate-choice","73","207050","0.0-61.0-0.4","2575","4972","16","Female","true","true","true","false","""event"",""trial"",""time""
""fullscreenenter"",""5"",""14078""
","
","
","""event"",""trial"",""time""
""fullscreenenter"",""5"",""14078""
","
","257.09999990463257","","49","","","3000","1","1926.5","48","images/earth.jpg","images/tutrocket2","images/tutrocket1","null","images/tutrocket1","","1","practice","null","1","","",""
"d3-animate-choice","74","209182","0.0-61.0-1.4","2575","4972","16","Female","true","true","true","false","""event"",""trial"",""time""
""fullscreenenter"",""5"",""14078""
","
","
","""event"",""trial"",""time""
""fullscreenenter"",""5"",""14078""
","
","120.29999995231628","","49","","","3000","1","","","images/tutgreenplanet.jpg","images/tutalien2","images/tutalien1","images/tutrocket1","images/tutalien1","images/nothing.png","2","practice","true","1","common","0","2022-12-05 23:16:12.787"
"two-step-fixation","75","210195","0.0-61.0-2.4","2575","4972","16","Female","true","true","true","false","""event"",""trial"",""time""
""fullscreenenter"",""5"",""14078""
","
","
","""event"",""trial"",""time""
""fullscreenenter"",""5"",""14078""
","
","","images/earth.jpg","","","","","","","","","","","","","","fixation","","","","","",""
"d3-animate-choice","76","212483","0.0-61.0-0.5","2575","4972","16","Female","true","true","true","false","""event"",""trial"",""time""
""fullscreenenter"",""5"",""14078""
","
","
","""event"",""trial"",""time""
""fullscreenenter"",""5"",""14078""
","
","271.5","","48","","","3000","1","","","images/earth.jpg","images/tutrocket2","images/tutrocket1","null","images/tutrocket2","","1","practice","null","2","","",""
"d3-animate-choice","77","214870","0.0-61.0-1.5","2575","4972","16","Female","true","true","true","false","""event"",""trial"",""time""
""fullscreenenter"",""5"",""14078""
","
","
","""event"",""trial"",""time""
""fullscreenenter"",""5"",""14078""
","
","377.5","","48","","","3000","1","","","images/tutgreenplanet.jpg","images/tutalien2","images/tutalien1","images/tutrocket2","images/tutalien2","images/nothing.png","2","practice","false","2","rare","0","2022-12-05 23:16:18.475"
"two-step-fixation","78","215873","0.0-61.0-2.5","2575","4972","16","Female","true","true","true","false","""event"",""trial"",""time""
""fullscreenenter"",""5"",""14078""
","
","
","""event"",""trial"",""time""
""fullscreenenter"",""5"",""14078""
","
","","images/earth.jpg","","","","","","","","","","","","","","fixation","","","","","",""
"d3-animate-choice","79","218139","0.0-61.0-0.6","2575","4972","16","Female","true","true","true","false","""event"",""trial"",""time""
""fullscreenenter"",""5"",""14078""
","
","
","""event"",""trial"",""time""
""fullscreenenter"",""5"",""14078""
","
","261.10000014305115","","48","","","3000","1","","","images/earth.jpg","images/tutrocket2","images/tutrocket1","null","images/tutrocket2","","1","practice","null","2","","",""
"d3-animate-choice","80","220536","0.0-61.0-1.6","2575","4972","16","Female","true","true","true","false","""event"",""trial"",""time""
""fullscreenenter"",""5"",""14078""
","
","
","""event"",""trial"",""time""
""fullscreenenter"",""5"",""14078""
","
","394","","48","","","3000","1","","","images/tutyellowplanet.jpg","images/tutalien4","images/tutalien3","images/tutrocket2","images/tutalien4","images/t.png","2","practice","true","2","common","1","2022-12-05 23:16:24.141"
"two-step-fixation","81","221549","0.0-61.0-2.6","2575","4972","16","Female","true","true","true","false","""event"",""trial"",""time""
""fullscreenenter"",""5"",""14078""
","
","
","""event"",""trial"",""time""
""fullscreenenter"",""5"",""14078""
","
","","images/earth.jpg","","","","","","","","","","","","","","fixation","","","","","",""
"d3-animate-choice","82","223951","0.0-61.0-0.7","2575","4972","16","Female","true","true","true","false","""event"",""trial"",""time""
""fullscreenenter"",""5"",""14078""
","
","
","""event"",""trial"",""time""
""fullscreenenter"",""5"",""14078""
","
","395","","48","","","3000","1","598.5","48","images/earth.jpg","images/tutrocket2","images/tutrocket1","null","images/tutrocket2","","1","practice","null","2","","",""
"d3-animate-choice","83","226533","0.0-61.0-1.7","2575","4972","16","Female","true","true","true","false","""event"",""trial"",""time""
""fullscreenenter"",""5"",""14078""
","
","
","""event"",""trial"",""time""
""fullscreenenter"",""5"",""14078""
","
","576.1000001430511","","48","","","3000","1","","","images/tutyellowplanet.jpg","images/tutalien4","images/tutalien3","images/tutrocket2","images/tutalien4","images/nothing.png","2","practice","true","2","common","0","2022-12-05 23:16:30.138"
"two-step-fixation","84","227542","0.0-61.0-2.7","2575","4972","16","Female","true","true","true","false","""event"",""trial"",""time""
""fullscreenenter"",""5"",""14078""
","
","
","""event"",""trial"",""time""
""fullscreenenter"",""5"",""14078""
","
","","images/earth.jpg","","","","","","","","","","","","","","fixation","","","","","",""
"d3-animate-choice","85","229771","0.0-61.0-0.8","2575","4972","16","Female","true","true","true","false","""event"",""trial"",""time""
""fullscreenenter"",""5"",""14078""
","
","
","""event"",""trial"",""time""
""fullscreenenter"",""5"",""14078""
","
","222.89999985694885","","49","","","3000","1","737.3999998569489,1132.5999999046326,1494.3999998569489,1908.0999999046326","49,49,49,49","images/earth.jpg","images/tutrocket2","images/tutrocket1","null","images/tutrocket1","","1","practice","null","1","","",""
"d3-animate-choice","86","231855","0.0-61.0-1.8","2575","4972","16","Female","true","true","true","false","""event"",""trial"",""time""
""fullscreenenter"",""5"",""14078""
","
","
","""event"",""trial"",""time""
""fullscreenenter"",""5"",""14078""
","
","76.5","","49","","","3000","1","517.7000000476837","49","images/tutgreenplanet.jpg","images/tutalien2","images/tutalien1","images/tutrocket1","images/tutalien1","images/t.png","2","practice","true","1","common","1","2022-12-05 23:16:35.460"
"two-step-fixation","87","232861","0.0-61.0-2.8","2575","4972","16","Female","true","true","true","false","""event"",""trial"",""time""
""fullscreenenter"",""5"",""14078""
","
","
","""event"",""trial"",""time""
""fullscreenenter"",""5"",""14078""
","
","","images/earth.jpg","","","","","","","","","","","","","","fixation","","","","","",""
"d3-animate-choice","88","235045","0.0-61.0-0.9","2575","4972","16","Female","true","true","true","false","""event"",""trial"",""time""
""fullscreenenter"",""5"",""14078""
","
","
","""event"",""trial"",""time""
""fullscreenenter"",""5"",""14078""
","
","161.29999995231628","","49","","","3000","1","763.7000000476837,1190,1683.1000001430511","49,49,49","images/earth.jpg","images/tutrocket2","images/tutrocket1","null","images/tutrocket1","","1","practice","null","1","","",""
"d3-animate-choice","89","237198","0.0-61.0-1.9","2575","4972","16","Female","true","true","true","false","""event"",""trial"",""time""
""fullscreenenter"",""5"",""14078""
","
","
","""event"",""trial"",""time""
""fullscreenenter"",""5"",""14078""
","
","146.90000009536743","","49","","","3000","1","600.9000000953674,1230.5,1707.1000001430511","49,49,49","images/tutgreenplanet.jpg","images/tutalien2","images/tutalien1","images/tutrocket1","images/tutalien1","images/nothing.png","2","practice","true","1","common","0","2022-12-05 23:16:40.803"
"two-step-fixation","90","238204","0.0-61.0-2.9","2575","4972","16","Female","true","true","true","false","""event"",""trial"",""time""
""fullscreenenter"",""5"",""14078""
","
","
","""event"",""trial"",""time""
""fullscreenenter"",""5"",""14078""
","
","","images/earth.jpg","","","","","","","","","","","","","","fixation","","","","","",""
"d3-animate-choice","91","240277","0.0-61.0-0.10","2575","4972","16","Female","true","true","true","false","""event"",""trial"",""time""
""fullscreenenter"",""5"",""14078""
","
","
","""event"",""trial"",""time""
""fullscreenenter"",""5"",""14078""
","
","68.39999985694885","","49","","","3000","1","1009.7999999523163,1855.8999998569489","49,49","images/earth.jpg","images/tutrocket2","images/tutrocket1","null","images/tutrocket1","","1","practice","null","1","","",""
"d3-animate-choice","92","243462","0.0-61.0-1.10","2575","4972","16","Female","true","true","true","false","""event"",""trial"",""time""
""fullscreenenter"",""5"",""14078""
","
","
","""event"",""trial"",""time""
""fullscreenenter"",""5"",""14078""
","
","1175.4000000953674","","49","","","3000","1","","","images/tutgreenplanet.jpg","images/tutalien2","images/tutalien1","images/tutrocket1","images/tutalien1","images/nothing.png","2","practice","true","1","common","0","2022-12-05 23:16:47.067"
"two-step-fixation","93","244469","0.0-61.0-2.10","2575","4972","16","Female","true","true","true","false","""event"",""trial"",""time""
""fullscreenenter"",""5"",""14078""
","
","
","""event"",""trial"",""time""
""fullscreenenter"",""5"",""14078""
","
","","images/earth.jpg","","","","","","","","","","","","","","fixation","","","","","",""
"d3-animate-choice","94","246836","0.0-61.0-0.11","2575","4972","16","Female","true","true","true","false","""event"",""trial"",""time""
""fullscreenenter"",""5"",""14078""
","
","
","""event"",""trial"",""time""
""fullscreenenter"",""5"",""14078""
","
","359.60000014305115","","48","","","3000","1","","","images/earth.jpg","images/tutrocket2","images/tutrocket1","null","images/tutrocket2","","1","practice","null","2","","",""
"d3-animate-choice","95","248926","0.0-61.0-1.11","2575","4972","16","Female","true","true","true","false","""event"",""trial"",""time""
""fullscreenenter"",""5"",""14078""
","
","
","""event"",""trial"",""time""
""fullscreenenter"",""5"",""14078""
","
","80.20000004768372","","49","","","3000","1","309","49","images/tutyellowplanet.jpg","images/tutalien4","images/tutalien3","images/tutrocket2","images/tutalien3","images/nothing.png","2","practice","true","1","common","0","2022-12-05 23:16:52.531"
"two-step-fixation","96","249934","0.0-61.0-2.11","2575","4972","16","Female","true","true","true","false","""event"",""trial"",""time""
""fullscreenenter"",""5"",""14078""
","
","
","""event"",""trial"",""time""
""fullscreenenter"",""5"",""14078""
","
","","images/earth.jpg","","","","","","","","","","","","","","fixation","","","","","",""
"d3-animate-choice","97","252268","0.0-61.0-0.12","2575","4972","16","Female","true","true","true","false","""event"",""trial"",""time""
""fullscreenenter"",""5"",""14078""
","
","
","""event"",""trial"",""time""
""fullscreenenter"",""5"",""14078""
","
","330.2000000476837","","49","","","3000","1","1916.8000001907349,2276.600000143051","48,48","images/earth.jpg","images/tutrocket2","images/tutrocket1","null","images/tutrocket1","","1","practice","null","1","","",""
"d3-animate-choice","98","254501","0.0-61.0-1.12","2575","4972","16","Female","true","true","true","false","""event"",""trial"",""time""
""fullscreenenter"",""5"",""14078""
","
","
","""event"",""trial"",""time""
""fullscreenenter"",""5"",""14078""
","
","229.19999980926514","","48","","","3000","1","","","images/tutgreenplanet.jpg","images/tutalien2","images/tutalien1","images/tutrocket1","images/tutalien2","images/nothing.png","2","practice","true","2","common","0","2022-12-05 23:16:58.106"
"two-step-fixation","99","255509","0.0-61.0-2.12","2575","4972","16","Female","true","true","true","false","""event"",""trial"",""time""
""fullscreenenter"",""5"",""14078""
","
","
","""event"",""trial"",""time""
""fullscreenenter"",""5"",""14078""
","
","","images/earth.jpg","","","","","","","","","","","","","","fixation","","","","","",""
"d3-animate-choice","100","257958","0.0-61.0-0.13","2575","4972","16","Female","true","true","true","false","""event"",""trial"",""time""
""fullscreenenter"",""5"",""14078""
","
","
","""event"",""trial"",""time""
""fullscreenenter"",""5"",""14078""
","
","437.7999999523163","","49","","","3000","1","1888.5","49","images/earth.jpg","images/tutrocket2","images/tutrocket1","null","images/tutrocket1","","1","practice","null","1","","",""
"d3-animate-choice","101","260358","0.0-61.0-1.13","2575","4972","16","Female","true","true","true","false","""event"",""trial"",""time""
""fullscreenenter"",""5"",""14078""
","
","
","""event"",""trial"",""time""
""fullscreenenter"",""5"",""14078""
","
","393.10000014305115","","49","","","3000","1","","","images/tutgreenplanet.jpg","images/tutalien2","images/tutalien1","images/tutrocket1","images/tutalien1","images/nothing.png","2","practice","true","1","common","0","2022-12-05 23:17:03.963"
"two-step-fixation","102","261365","0.0-61.0-2.13","2575","4972","16","Female","true","true","true","false","""event"",""trial"",""time""
""fullscreenenter"",""5"",""14078""
","
","
","""event"",""trial"",""time""
""fullscreenenter"",""5"",""14078""
","
","","images/earth.jpg","","","","","","","","","","","","","","fixation","","","","","",""
"d3-animate-choice","103","263381","0.0-61.0-0.14","2575","4972","16","Female","true","true","true","false","""event"",""trial"",""time""
""fullscreenenter"",""5"",""14078""
","
","
","""event"",""trial"",""time""
""fullscreenenter"",""5"",""14078""
","
","10.800000190734863","","48","","","3000","1","","","images/earth.jpg","images/tutrocket2","images/tutrocket1","null","images/tutrocket2","","1","practice","null","2","","",""
"d3-animate-choice","104","265638","0.0-61.0-1.14","2575","4972","16","Female","true","true","true","false","""event"",""trial"",""time""
""fullscreenenter"",""5"",""14078""
","
","
","""event"",""trial"",""time""
""fullscreenenter"",""5"",""14078""
","
","249.70000004768372","","49","","","3000","1","","","images/tutyellowplanet.jpg","images/tutalien4","images/tutalien3","images/tutrocket2","images/tutalien3","images/t.png","2","practice","true","1","common","1","2022-12-05 23:17:09.243"
"two-step-fixation","105","266646","0.0-61.0-2.14","2575","4972","16","Female","true","true","true","false","""event"",""trial"",""time""
""fullscreenenter"",""5"",""14078""
","
","
","""event"",""trial"",""time""
""fullscreenenter"",""5"",""14078""
","
","","images/earth.jpg","","","","","","","","","","","","","","fixation","","","","","",""
"d3-animate-choice","106","269268","0.0-61.0-0.15","2575","4972","16","Female","true","true","true","false","""event"",""trial"",""time""
""fullscreenenter"",""5"",""14078""
","
","
","""event"",""trial"",""time""
""fullscreenenter"",""5"",""14078""
","
","615.5","","48","","","3000","1","","","images/earth.jpg","images/tutrocket2","images/tutrocket1","null","images/tutrocket2","","1","practice","null","2","","",""
"d3-animate-choice","107","271758","0.0-61.0-1.15","2575","4972","16","Female","true","true","true","false","""event"",""trial"",""time""
""fullscreenenter"",""5"",""14078""
","
","
","""event"",""trial"",""time""
""fullscreenenter"",""5"",""14078""
","
","481.39999985694885","","49","","","3000","1","","","images/tutyellowplanet.jpg","images/tutalien4","images/tutalien3","images/tutrocket2","images/tutalien3","images/nothing.png","2","practice","true","1","common","0","2022-12-05 23:17:15.364"
"two-step-fixation","108","272766","0.0-61.0-2.15","2575","4972","16","Female","true","true","true","false","""event"",""trial"",""time""
""fullscreenenter"",""5"",""14078""
","
","
","""event"",""trial"",""time""
""fullscreenenter"",""5"",""14078""
","
","","images/earth.jpg","","","","","","","","","","","","","","fixation","","","","","",""
"d3-animate-choice","109","275117","0.0-61.0-0.16","2575","4972","16","Female","true","true","true","false","""event"",""trial"",""time""
""fullscreenenter"",""5"",""14078""
","
","
","""event"",""trial"",""time""
""fullscreenenter"",""5"",""14078""
","
","345.5","","48","","","3000","1","","","images/earth.jpg","images/tutrocket2","images/tutrocket1","null","images/tutrocket2","","1","practice","null","2","","",""
"d3-animate-choice","110","277990","0.0-61.0-1.16","2575","4972","16","Female","true","true","true","false","""event"",""trial"",""time""
""fullscreenenter"",""5"",""14078""
","
","
","""event"",""trial"",""time""
""fullscreenenter"",""5"",""14078""
","
","865.0999999046326","","48","","","3000","1","","","images/tutyellowplanet.jpg","images/tutalien4","images/tutalien3","images/tutrocket2","images/tutalien4","images/nothing.png","2","practice","true","2","common","0","2022-12-05 23:17:21.595"
"two-step-fixation","111","278998","0.0-61.0-2.16","2575","4972","16","Female","true","true","true","false","""event"",""trial"",""time""
""fullscreenenter"",""5"",""14078""
","
","
","""event"",""trial"",""time""
""fullscreenenter"",""5"",""14078""
","
","","images/earth.jpg","","","","","","","","","","","","","","fixation","","","","","",""
"d3-animate-choice","112","281454","0.0-61.0-0.17","2575","4972","16","Female","true","true","true","false","""event"",""trial"",""time""
""fullscreenenter"",""5"",""14078""
","
","
","""event"",""trial"",""time""
""fullscreenenter"",""5"",""14078""
","
","445.69999980926514","","48","","","3000","1","","","images/earth.jpg","images/tutrocket2","images/tutrocket1","null","images/tutrocket2","","1","practice","null","2","","",""
"d3-animate-choice","113","283470","0.0-61.0-1.17","2575","4972","16","Female","true","true","true","false","""event"",""trial"",""time""
""fullscreenenter"",""5"",""14078""
","
","
","""event"",""trial"",""time""
""fullscreenenter"",""5"",""14078""
","
","10.799999952316284","","48","","","3000","1","","","images/tutyellowplanet.jpg","images/tutalien4","images/tutalien3","images/tutrocket2","images/tutalien4","images/nothing.png","2","practice","true","2","common","0","2022-12-05 23:17:27.075"
"two-step-fixation","114","284487","0.0-61.0-2.17","2575","4972","16","Female","true","true","true","false","""event"",""trial"",""time""
""fullscreenenter"",""5"",""14078""
","
","
","""event"",""trial"",""time""
""fullscreenenter"",""5"",""14078""
","
","","images/earth.jpg","","","","","","","","","","","","","","fixation","","","","","",""
"d3-animate-choice","115","286532","0.0-61.0-0.18","2575","4972","16","Female","true","true","true","false","""event"",""trial"",""time""
""fullscreenenter"",""5"",""14078""
","
","
","""event"",""trial"",""time""
""fullscreenenter"",""5"",""14078""
","
","36.90000009536743","","49","","","3000","1","","","images/earth.jpg","images/tutrocket2","images/tutrocket1","null","images/tutrocket1","","1","practice","null","1","","",""
"d3-animate-choice","116","288782","0.0-61.0-1.18","2575","4972","16","Female","true","true","true","false","""event"",""trial"",""time""
""fullscreenenter"",""5"",""14078""
","
","
","""event"",""trial"",""time""
""fullscreenenter"",""5"",""14078""
","
","247.5","","49","","","3000","1","","","images/tutgreenplanet.jpg","images/tutalien2","images/tutalien1","images/tutrocket1","images/tutalien1","images/t.png","2","practice","true","1","common","1","2022-12-05 23:17:32.387"
"two-step-fixation","117","289790","0.0-61.0-2.18","2575","4972","16","Female","true","true","true","false","""event"",""trial"",""time""
""fullscreenenter"",""5"",""14078""
","
","
","""event"",""trial"",""time""
""fullscreenenter"",""5"",""14078""
","
","","images/earth.jpg","","","","","","","","","","","","","","fixation","","","","","",""
"d3-animate-choice","118","292189","0.0-61.0-0.19","2575","4972","16","Female","true","true","true","false","""event"",""trial"",""time""
""fullscreenenter"",""5"",""14078""
","
","
","""event"",""trial"",""time""
""fullscreenenter"",""5"",""14078""
","
","392.5","","49","","","3000","1","","","images/earth.jpg","images/tutrocket2","images/tutrocket1","null","images/tutrocket1","","1","practice","null","1","","",""
"d3-animate-choice","119","294573","0.0-61.0-1.19","2575","4972","16","Female","true","true","true","false","""event"",""trial"",""time""
""fullscreenenter"",""5"",""14078""
","
","
","""event"",""trial"",""time""
""fullscreenenter"",""5"",""14078""
","
","376","","49","","","3000","1","2080.7999999523163","49","images/tutgreenplanet.jpg","images/tutalien2","images/tutalien1","images/tutrocket1","images/tutalien1","images/t.png","2","practice","true","1","common","1","2022-12-05 23:17:38.179"
"two-step-fixation","120","295582","0.0-61.0-2.19","2575","4972","16","Female","true","true","true","false","""event"",""trial"",""time""
""fullscreenenter"",""5"",""14078""
","
","
","""event"",""trial"",""time""
""fullscreenenter"",""5"",""14078""
","
","","images/earth.jpg","","","","","","","","","","","","","","fixation","","","","","",""
"d3-instructions","121","439608","0.0-62.0","2575","4972","16","Female","true","true","true","false","""event"",""trial"",""time""
""fullscreenenter"",""5"",""14078""
","
","
","""event"",""trial"",""time""
""fullscreenenter"",""5"",""14078""
","
","","","","","","","","","","","","","","","","","","","","","",""
"audio-keyboard-response","122","441446","0.0-63.0","2575","4972","16","Female","true","true","true","false","""event"",""trial"",""time""
""fullscreenenter"",""5"",""14078""
","
","
","""event"",""trial"",""time""
""fullscreenenter"",""5"",""14078""
","
","1832","audio/instructions/treasure_feedback.wav","32","","","","","","","","","","","","","","","","","","",""
"d3-instructions","123","443383","0.0-64.0","2575","4972","16","Female","true","true","true","false","""event"",""trial"",""time""
""fullscreenenter"",""5"",""14078""
","
","
","""event"",""trial"",""time""
""fullscreenenter"",""5"",""14078""
","
","","","","","","","","","","","","","","","","","","","","","",""
"d3-instructions","124","444658","0.0-65.0","2575","4972","16","Female","true","true","true","false","""event"",""trial"",""time""
""fullscreenenter"",""5"",""14078""
","
","
","""event"",""trial"",""time""
""fullscreenenter"",""5"",""14078""
","
","","","","","","","","","","","","","","","","","","","","","",""
"d3-instructions","125","447266","0.0-66.0","2575","4972","16","Female","true","true","true","false","""event"",""trial"",""time""
""fullscreenenter"",""5"",""14078""
","
","
","""event"",""trial"",""time""
""fullscreenenter"",""5"",""14078""
","
","","","","","","","","","","","","","","","","","","","","","",""
"d3-instructions","126","448228","0.0-67.0","2575","4972","16","Female","true","true","true","false","""event"",""trial"",""time""
""fullscreenenter"",""5"",""14078""
","
","
","""event"",""trial"",""time""
""fullscreenenter"",""5"",""14078""
","
","","","","","","","","","","","","","","","","","","","","","",""
"d3-instructions","127","449038","0.0-68.0","2575","4972","16","Female","true","true","true","false","""event"",""trial"",""time""
""fullscreenenter"",""5"",""14078""
","
","
","""event"",""trial"",""time""
""fullscreenenter"",""5"",""14078""
","
","","","","","","","","","","","","","","","","","","","","","",""
"instructions-quiz","128","451596","0.0-69.0","2575","4972","16","Female","true","true","true","false","""event"",""trial"",""time""
""fullscreenenter"",""5"",""14078""
","
","
","""event"",""trial"",""time""
""fullscreenenter"",""5"",""14078""
","
","2553.9000000953674","audio/quiz/Q1_Prompt.wav","","1","","","","","","","","","","","","","","","","","",""
"audio-keyboard-response","129","460764","0.0-70.0","2575","4972","16","Female","true","true","true","false","""event"",""trial"",""time""
""fullscreenenter"",""5"",""14078""
","
","
","""event"",""trial"",""time""
""fullscreenenter"",""5"",""14078""
","
","null","audio/quiz/Q1_Correct.wav","null","","","","","","","","","","","","","","","","","","",""
"instructions-quiz","130","478848","0.0-71.0","2575","4972","16","Female","true","true","true","false","""event"",""trial"",""time""
""fullscreenenter"",""5"",""14078""
","
","
","""event"",""trial"",""time""
""fullscreenenter"",""5"",""14078""
","
","18081.39999985695","audio/quiz/Q2_Prompt.wav","","1","","","","","","","","","","","","","","","","","",""
"audio-keyboard-response","131","492925","0.0-72.0","2575","4972","16","Female","true","true","true","false","""event"",""trial"",""time""
""fullscreenenter"",""5"",""14078""
","
","
","""event"",""trial"",""time""
""fullscreenenter"",""5"",""14078""
","
","null","audio/quiz/Q2_Incorrect.wav","null","","","","","","","","","","","","","","","","","","",""
"instructions-quiz","132","494519","0.0-73.0","2575","4972","16","Female","true","true","true","false","""event"",""trial"",""time""
""fullscreenenter"",""5"",""14078""
","
","
","""event"",""trial"",""time""
""fullscreenenter"",""5"",""14078""
","
","1590.2999999523163","audio/quiz/Q3_Prompt.wav","","1","","","","","","","","","","","","","","","","","",""
"audio-keyboard-response","133","500315","0.0-74.0","2575","4972","16","Female","true","true","true","false","""event"",""trial"",""time""
""fullscreenenter"",""5"",""14078""
","
","
","""event"",""trial"",""time""
""fullscreenenter"",""5"",""14078""
","
","null","audio/quiz/Q3_Correct.wav","null","","","","","","","","","","","","","","","","","","",""
"d3-instructions","134","504272","0.0-75.0","2575","4972","16","Female","true","true","true","false","""event"",""trial"",""time""
""fullscreenenter"",""5"",""14078""
","
","
","""event"",""trial"",""time""
""fullscreenenter"",""5"",""14078""
","
","","","","","","","","","","","","","","","","","","","","","",""
"d3-animate-choice","135","507190","0.0-76.0-0.0","2575","4972","16","Female","true","true","true","false","""event"",""trial"",""time""
""fullscreenenter"",""5"",""14078""
","
","
","""event"",""trial"",""time""
""fullscreenenter"",""5"",""14078""
","
","909.2000000476837","","48","","","3000","1","","","images/earth.jpg","images/rocket2","images/rocket1","null","images/rocket2","","1","real","null","2","","",""
"d3-animate-choice","136","509466","0.0-76.0-1.0","2575","4972","16","Female","true","true","true","false","""event"",""trial"",""time""
""fullscreenenter"",""5"",""14078""
","
","
","""event"",""trial"",""time""
""fullscreenenter"",""5"",""14078""
","
","264.60000014305115","","49","","","3000","1","","","images/purpleplanet.jpg","images/alien4","images/alien3","images/rocket2","images/alien3","images/nothing.png","2","real","true","1","common","0","2022-12-05 23:21:13.072"
"two-step-fixation","137","510481","0.0-76.0-2.0","2575","4972","16","Female","true","true","true","false","""event"",""trial"",""time""
""fullscreenenter"",""5"",""14078""
","
","
","""event"",""trial"",""time""
""fullscreenenter"",""5"",""14078""
","
","","images/earth.jpg","","","","","","","","","","","","","","fixation","","","","","",""
"d3-animate-choice","138","512782","0.0-76.0-0.1","2575","4972","16","Female","true","true","true","false","""event"",""trial"",""time""
""fullscreenenter"",""5"",""14078""
","
","
","""event"",""trial"",""time""
""fullscreenenter"",""5"",""14078""
","
","293.7000000476837","","48","","","3000","1","","","images/earth.jpg","images/rocket2","images/rocket1","null","images/rocket2","","1","real","null","2","","",""
"d3-animate-choice","139","515206","0.0-76.0-1.1","2575","4972","16","Female","true","true","true","false","""event"",""trial"",""time""
""fullscreenenter"",""5"",""14078""
","
","
","""event"",""trial"",""time""
""fullscreenenter"",""5"",""14078""
","
","416.5","","49","","","3000","1","","","images/purpleplanet.jpg","images/alien4","images/alien3","images/rocket2","images/alien3","images/nothing.png","2","real","true","1","common","0","2022-12-05 23:21:18.811"
"two-step-fixation","140","516211","0.0-76.0-2.1","2575","4972","16","Female","true","true","true","false","""event"",""trial"",""time""
""fullscreenenter"",""5"",""14078""
","
","
","""event"",""trial"",""time""
""fullscreenenter"",""5"",""14078""
","
","","images/earth.jpg","","","","","","","","","","","","","","fixation","","","","","",""
"d3-animate-choice","141","518529","0.0-76.0-0.2","2575","4972","16","Female","true","true","true","false","""event"",""trial"",""time""
""fullscreenenter"",""5"",""14078""
","
","
","""event"",""trial"",""time""
""fullscreenenter"",""5"",""14078""
","
","307","","48","","","3000","1","","","images/earth.jpg","images/rocket2","images/rocket1","null","images/rocket2","","1","real","null","2","","",""
"d3-animate-choice","142","521215","0.0-76.0-1.2","2575","4972","16","Female","true","true","true","false","""event"",""trial"",""time""
""fullscreenenter"",""5"",""14078""
","
","
","""event"",""trial"",""time""
""fullscreenenter"",""5"",""14078""
","
","680.6000001430511","","48","","","3000","1","","","images/redplanet1.jpg","images/alien2","images/alien1","images/rocket2","images/alien2","images/t.png","2","real","false","2","rare","1","2022-12-05 23:21:24.820"
"two-step-fixation","143","522223","0.0-76.0-2.2","2575","4972","16","Female","true","true","true","false","""event"",""trial"",""time""
""fullscreenenter"",""5"",""14078""
","
","
","""event"",""trial"",""time""
""fullscreenenter"",""5"",""14078""
","
","","images/earth.jpg","","","","","","","","","","","","","","fixation","","","","","",""
"d3-animate-choice","144","524542","0.0-76.0-0.3","2575","4972","16","Female","true","true","true","false","""event"",""trial"",""time""
""fullscreenenter"",""5"",""14078""
","
","
","""event"",""trial"",""time""
""fullscreenenter"",""5"",""14078""
","
","311","","49","","","3000","1","","","images/earth.jpg","images/rocket2","images/rocket1","null","images/rocket1","","1","real","null","1","","",""
"d3-animate-choice","145","526758","0.0-76.0-1.3","2575","4972","16","Female","true","true","true","false","""event"",""trial"",""time""
""fullscreenenter"",""5"",""14078""
","
","
","""event"",""trial"",""time""
""fullscreenenter"",""5"",""14078""
","
","207.69999980926514","","48","","","3000","1","","","images/purpleplanet.jpg","images/alien4","images/alien3","images/rocket1","images/alien4","images/t.png","2","real","false","2","rare","1","2022-12-05 23:21:30.363"
"two-step-fixation","146","527767","0.0-76.0-2.3","2575","4972","16","Female","true","true","true","false","""event"",""trial"",""time""
""fullscreenenter"",""5"",""14078""
","
","
","""event"",""trial"",""time""
""fullscreenenter"",""5"",""14078""
","
","","images/earth.jpg","","","","","","","","","","","","","","fixation","","","","","",""
"d3-animate-choice","147","530048","0.0-76.0-0.4","2575","4972","16","Female","true","true","true","false","""event"",""trial"",""time""
""fullscreenenter"",""5"",""14078""
","
","
","""event"",""trial"",""time""
""fullscreenenter"",""5"",""14078""
","
","266.5","","49","","","3000","1","","","images/earth.jpg","images/rocket2","images/rocket1","null","images/rocket1","","1","real","null","1","","",""
"d3-animate-choice","148","532382","0.0-76.0-1.4","2575","4972","16","Female","true","true","true","false","""event"",""trial"",""time""
""fullscreenenter"",""5"",""14078""
","
","
","""event"",""trial"",""time""
""fullscreenenter"",""5"",""14078""
","
","327.09999990463257","","48","","","3000","1","","","images/redplanet1.jpg","images/alien2","images/alien1","images/rocket1","images/alien2","images/t.png","2","real","true","2","common","1","2022-12-05 23:21:35.987"
"two-step-fixation","149","533391","0.0-76.0-2.4","2575","4972","16","Female","true","true","true","false","""event"",""trial"",""time""
""fullscreenenter"",""5"",""14078""
","
","
","""event"",""trial"",""time""
""fullscreenenter"",""5"",""14078""
","
","","images/earth.jpg","","","","","","","","","","","","","","fixation","","","","","",""
"d3-animate-choice","150","535592","0.0-76.0-0.5","2575","4972","16","Female","true","true","true","false","""event"",""trial"",""time""
""fullscreenenter"",""5"",""14078""
","
","
","""event"",""trial"",""time""
""fullscreenenter"",""5"",""14078""
","
","186.40000009536743","","49","","","3000","1","2136.9000000953674","48","images/earth.jpg","images/rocket2","images/rocket1","null","images/rocket1","","1","real","null","1","","",""
"d3-animate-choice","151","538742","0.0-76.0-1.5","2575","4972","16","Female","true","true","true","false","""event"",""trial"",""time""
""fullscreenenter"",""5"",""14078""
","
","
","""event"",""trial"",""time""
""fullscreenenter"",""5"",""14078""
","
","1141.0999999046326","","48","","","3000","1","","","images/redplanet1.jpg","images/alien2","images/alien1","images/rocket1","images/alien2","images/nothing.png","2","real","true","2","common","0","2022-12-05 23:21:42.347"
"two-step-fixation","152","539751","0.0-76.0-2.5","2575","4972","16","Female","true","true","true","false","""event"",""trial"",""time""
""fullscreenenter"",""5"",""14078""
","
","
","""event"",""trial"",""time""
""fullscreenenter"",""5"",""14078""
","
","","images/earth.jpg","","","","","","","","","","","","","","fixation","","","","","",""
"d3-animate-choice","153","542007","0.0-76.0-0.6","2575","4972","16","Female","true","true","true","false","""event"",""trial"",""time""
""fullscreenenter"",""5"",""14078""
","
","
","""event"",""trial"",""time""
""fullscreenenter"",""5"",""14078""
","
","250","","48","","","3000","1","416.59999990463257,621.5999999046326,834.2999999523163,1027.5999999046326","48,48,48,48","images/earth.jpg","images/rocket2","images/rocket1","null","images/rocket2","","1","real","null","2","","",""
"d3-animate-choice","154","544340","0.0-76.0-1.6","2575","4972","16","Female","true","true","true","false","""event"",""trial"",""time""
""fullscreenenter"",""5"",""14078""
","
","
","""event"",""trial"",""time""
""fullscreenenter"",""5"",""14078""
","
","328","","48","","","3000","1","","","images/purpleplanet.jpg","images/alien4","images/alien3","images/rocket2","images/alien4","images/t.png","2","real","true","2","common","1","2022-12-05 23:21:47.946"
"two-step-fixation","155","545350","0.0-76.0-2.6","2575","4972","16","Female","true","true","true","false","""event"",""trial"",""time""
""fullscreenenter"",""5"",""14078""
","
","
","""event"",""trial"",""time""
""fullscreenenter"",""5"",""14078""
","
","","images/earth.jpg","","","","","","","","","","","","","","fixation","","","","","",""
"d3-animate-choice","156","547767","0.0-76.0-0.7","2575","4972","16","Female","true","true","true","false","""event"",""trial"",""time""
""fullscreenenter"",""5"",""14078""
","
","
","""event"",""trial"",""time""
""fullscreenenter"",""5"",""14078""
","
","408.2000000476837","","48","","","3000","1","","","images/earth.jpg","images/rocket2","images/rocket1","null","images/rocket2","","1","real","null","2","","",""
"d3-animate-choice","157","550055","0.0-76.0-1.7","2575","4972","16","Female","true","true","true","false","""event"",""trial"",""time""
""fullscreenenter"",""5"",""14078""
","
","
","""event"",""trial"",""time""
""fullscreenenter"",""5"",""14078""
","
","275.89999985694885","","48","","","3000","1","","","images/redplanet1.jpg","images/alien2","images/alien1","images/rocket2","images/alien2","images/t.png","2","real","false","2","rare","1","2022-12-05 23:21:53.660"
"two-step-fixation","158","551062","0.0-76.0-2.7","2575","4972","16","Female","true","true","true","false","""event"",""trial"",""time""
""fullscreenenter"",""5"",""14078""
","
","
","""event"",""trial"",""time""
""fullscreenenter"",""5"",""14078""
","
","","images/earth.jpg","","","","","","","","","","","","","","fixation","","","","","",""
"d3-animate-choice","159","553446","0.0-76.0-0.8","2575","4972","16","Female","true","true","true","false","""event"",""trial"",""time""
""fullscreenenter"",""5"",""14078""
","
","
","""event"",""trial"",""time""
""fullscreenenter"",""5"",""14078""
","
","375.7999999523163","","48","","","3000","1","","","images/earth.jpg","images/rocket2","images/rocket1","null","images/rocket2","","1","real","null","2","","",""
"d3-animate-choice","160","555950","0.0-76.0-1.8","2575","4972","16","Female","true","true","true","false","""event"",""trial"",""time""
""fullscreenenter"",""5"",""14078""
","
","
","""event"",""trial"",""time""
""fullscreenenter"",""5"",""14078""
","
","496.80000019073486","","48","","","3000","1","","","images/redplanet1.jpg","images/alien2","images/alien1","images/rocket2","images/alien2","images/nothing.png","2","real","false","2","rare","0","2022-12-05 23:21:59.555"
"two-step-fixation","161","556958","0.0-76.0-2.8","2575","4972","16","Female","true","true","true","false","""event"",""trial"",""time""
""fullscreenenter"",""5"",""14078""
","
","
","""event"",""trial"",""time""
""fullscreenenter"",""5"",""14078""
","
","","images/earth.jpg","","","","","","","","","","","","","","fixation","","","","","",""
"d3-animate-choice","162","559654","0.0-76.0-0.9","2575","4972","16","Female","true","true","true","false","""event"",""trial"",""time""
""fullscreenenter"",""5"",""14078""
","
","
","""event"",""trial"",""time""
""fullscreenenter"",""5"",""14078""
","
","682.2000000476837","","49","","","3000","1","2149.2999999523163","49","images/earth.jpg","images/rocket2","images/rocket1","null","images/rocket1","","1","real","null","1","","",""
"d3-animate-choice","163","561997","0.0-76.0-1.9","2575","4972","16","Female","true","true","true","false","""event"",""trial"",""time""
""fullscreenenter"",""5"",""14078""
","
","
","""event"",""trial"",""time""
""fullscreenenter"",""5"",""14078""
","
","317.2000000476837","","49","","","3000","1","","","images/redplanet1.jpg","images/alien2","images/alien1","images/rocket1","images/alien1","images/t.png","2","real","true","1","common","1","2022-12-05 23:22:05.602"
"two-step-fixation","164","563006","0.0-76.0-2.9","2575","4972","16","Female","true","true","true","false","""event"",""trial"",""time""
""fullscreenenter"",""5"",""14078""
","
","
","""event"",""trial"",""time""
""fullscreenenter"",""5"",""14078""
","
","","images/earth.jpg","","","","","","","","","","","","","","fixation","","","","","",""
"d3-animate-choice","165","565654","0.0-76.0-0.10","2575","4972","16","Female","true","true","true","false","""event"",""trial"",""time""
""fullscreenenter"",""5"",""14078""
","
","
","""event"",""trial"",""time""
""fullscreenenter"",""5"",""14078""
","
","635.5","","49","","","3000","1","","","images/earth.jpg","images/rocket2","images/rocket1","null","images/rocket1","","1","real","null","1","","",""
"d3-animate-choice","166","567906","0.0-76.0-1.10","2575","4972","16","Female","true","true","true","false","""event"",""trial"",""time""
""fullscreenenter"",""5"",""14078""
","
","
","""event"",""trial"",""time""
""fullscreenenter"",""5"",""14078""
","
","246.70000004768372","","49","","","3000","1","","","images/redplanet1.jpg","images/alien2","images/alien1","images/rocket1","images/alien1","images/t.png","2","real","true","1","common","1","2022-12-05 23:22:11.511"
"two-step-fixation","167","568919","0.0-76.0-2.10","2575","4972","16","Female","true","true","true","false","""event"",""trial"",""time""
""fullscreenenter"",""5"",""14078""
","
","
","""event"",""trial"",""time""
""fullscreenenter"",""5"",""14078""
","
","","images/earth.jpg","","","","","","","","","","","","","","fixation","","","","","",""
"d3-animate-choice","168","571230","0.0-76.0-0.11","2575","4972","16","Female","true","true","true","false","""event"",""trial"",""time""
""fullscreenenter"",""5"",""14078""
","
","
","""event"",""trial"",""time""
""fullscreenenter"",""5"",""14078""
","
","304.2000000476837","","49","","","3000","1","","","images/earth.jpg","images/rocket2","images/rocket1","null","images/rocket1","","1","real","null","1","","",""
"d3-animate-choice","169","573479","0.0-76.0-1.11","2575","4972","16","Female","true","true","true","false","""event"",""trial"",""time""
""fullscreenenter"",""5"",""14078""
","
","
","""event"",""trial"",""time""
""fullscreenenter"",""5"",""14078""
","
","241.70000004768372","","49","","","3000","1","","","images/redplanet1.jpg","images/alien2","images/alien1","images/rocket1","images/alien1","images/nothing.png","2","real","true","1","common","0","2022-12-05 23:22:17.084"
"two-step-fixation","170","574486","0.0-76.0-2.11","2575","4972","16","Female","true","true","true","false","""event"",""trial"",""time""
""fullscreenenter"",""5"",""14078""
","
","
","""event"",""trial"",""time""
""fullscreenenter"",""5"",""14078""
","
","","images/earth.jpg","","","","","","","","","","","","","","fixation","","","","","",""
"d3-animate-choice","171","576846","0.0-76.0-0.12","2575","4972","16","Female","true","true","true","false","""event"",""trial"",""time""
""fullscreenenter"",""5"",""14078""
","
","
","""event"",""trial"",""time""
""fullscreenenter"",""5"",""14078""
","
","355.7000000476837","","48","","","3000","1","","","images/earth.jpg","images/rocket2","images/rocket1","null","images/rocket2","","1","real","null","2","","",""
"d3-animate-choice","172","579388","0.0-76.0-1.12","2575","4972","16","Female","true","true","true","false","""event"",""trial"",""time""
""fullscreenenter"",""5"",""14078""
","
","
","""event"",""trial"",""time""
""fullscreenenter"",""5"",""14078""
","
","531.4000000953674","","48","","","3000","1","","","images/redplanet1.jpg","images/alien2","images/alien1","images/rocket2","images/alien2","images/nothing.png","2","real","false","2","rare","0","2022-12-05 23:22:22.993"
"two-step-fixation","173","580400","0.0-76.0-2.12","2575","4972","16","Female","true","true","true","false","""event"",""trial"",""time""
""fullscreenenter"",""5"",""14078""
","
","
","""event"",""trial"",""time""
""fullscreenenter"",""5"",""14078""
","
","","images/earth.jpg","","","","","","","","","","","","","","fixation","","","","","",""
"d3-animate-choice","174","582463","0.0-76.0-0.13","2575","4972","16","Female","true","true","true","false","""event"",""trial"",""time""
""fullscreenenter"",""5"",""14078""
","
","
","""event"",""trial"",""time""
""fullscreenenter"",""5"",""14078""
","
","49.40000009536743","","48","","","3000","1","","","images/earth.jpg","images/rocket2","images/rocket1","null","images/rocket2","","1","real","null","2","","",""
"d3-animate-choice","175","584980","0.0-76.0-1.13","2575","4972","16","Female","true","true","true","false","""event"",""trial"",""time""
""fullscreenenter"",""5"",""14078""
","
","
","""event"",""trial"",""time""
""fullscreenenter"",""5"",""14078""
","
","499","","48","","","3000","1","","","images/redplanet1.jpg","images/alien2","images/alien1","images/rocket2","images/alien2","images/t.png","2","real","false","2","rare","1","2022-12-05 23:22:28.585"
"two-step-fixation","176","585998","0.0-76.0-2.13","2575","4972","16","Female","true","true","true","false","""event"",""trial"",""time""
""fullscreenenter"",""5"",""14078""
","
","
","""event"",""trial"",""time""
""fullscreenenter"",""5"",""14078""
","
","","images/earth.jpg","","","","","","","","","","","","","","fixation","","","","","",""
"d3-animate-choice","177","588518","0.0-76.0-0.14","2575","4972","16","Female","true","true","true","false","""event"",""trial"",""time""
""fullscreenenter"",""5"",""14078""
","
","
","""event"",""trial"",""time""
""fullscreenenter"",""5"",""14078""
","
","513.1000001430511","","48","","","3000","1","","","images/earth.jpg","images/rocket2","images/rocket1","null","images/rocket2","","1","real","null","2","","",""
"d3-animate-choice","178","590789","0.0-76.0-1.14","2575","4972","16","Female","true","true","true","false","""event"",""trial"",""time""
""fullscreenenter"",""5"",""14078""
","
","
","""event"",""trial"",""time""
""fullscreenenter"",""5"",""14078""
","
","265.89999985694885","","48","","","3000","1","","","images/purpleplanet.jpg","images/alien4","images/alien3","images/rocket2","images/alien4","images/t.png","2","real","true","2","common","1","2022-12-05 23:22:34.394"
"two-step-fixation","179","591798","0.0-76.0-2.14","2575","4972","16","Female","true","true","true","false","""event"",""trial"",""time""
""fullscreenenter"",""5"",""14078""
","
","
","""event"",""trial"",""time""
""fullscreenenter"",""5"",""14078""
","
","","images/earth.jpg","","","","","","","","","","","","","","fixation","","","","","",""
"d3-animate-choice","180","593903","0.0-76.0-0.15","2575","4972","16","Female","true","true","true","false","""event"",""trial"",""time""
""fullscreenenter"",""5"",""14078""
","
","
","""event"",""trial"",""time""
""fullscreenenter"",""5"",""14078""
","
","90.70000004768372","","48","","","3000","1","","","images/earth.jpg","images/rocket2","images/rocket1","null","images/rocket2","","1","real","null","2","","",""
"d3-animate-choice","181","596214","0.0-76.0-1.15","2575","4972","16","Female","true","true","true","false","""event"",""trial"",""time""
""fullscreenenter"",""5"",""14078""
","
","
","""event"",""trial"",""time""
""fullscreenenter"",""5"",""14078""
","
","302.7999999523163","","48","","","3000","1","","","images/redplanet1.jpg","images/alien2","images/alien1","images/rocket2","images/alien2","images/nothing.png","2","real","false","2","rare","0","2022-12-05 23:22:39.819"
"two-step-fixation","182","597218","0.0-76.0-2.15","2575","4972","16","Female","true","true","true","false","""event"",""trial"",""time""
""fullscreenenter"",""5"",""14078""
","
","
","""event"",""trial"",""time""
""fullscreenenter"",""5"",""14078""
","
","","images/earth.jpg","","","","","","","","","","","","","","fixation","","","","","",""
"d3-animate-choice","183","599647","0.0-76.0-0.16","2575","4972","16","Female","true","true","true","false","""event"",""trial"",""time""
""fullscreenenter"",""5"",""14078""
","
","
","""event"",""trial"",""time""
""fullscreenenter"",""5"",""14078""
","
","416.5","","48","","","3000","1","","","images/earth.jpg","images/rocket2","images/rocket1","null","images/rocket2","","1","real","null","2","","",""
"d3-animate-choice","184","602006","0.0-76.0-1.16","2575","4972","16","Female","true","true","true","false","""event"",""trial"",""time""
""fullscreenenter"",""5"",""14078""
","
","
","""event"",""trial"",""time""
""fullscreenenter"",""5"",""14078""
","
","351","","48","","","3000","1","","","images/purpleplanet.jpg","images/alien4","images/alien3","images/rocket2","images/alien4","images/t.png","2","real","true","2","common","1","2022-12-05 23:22:45.611"
"two-step-fixation","185","603013","0.0-76.0-2.16","2575","4972","16","Female","true","true","true","false","""event"",""trial"",""time""
""fullscreenenter"",""5"",""14078""
","
","
","""event"",""trial"",""time""
""fullscreenenter"",""5"",""14078""
","
","","images/earth.jpg","","","","","","","","","","","","","","fixation","","","","","",""
"d3-animate-choice","186","605018","0.0-76.0-0.17","2575","4972","16","Female","true","true","true","false","""event"",""trial"",""time""
""fullscreenenter"",""5"",""14078""
","
","
","""event"",""trial"",""time""
""fullscreenenter"",""5"",""14078""
","
","0.9000000953674316","","48","","","3000","1","","","images/earth.jpg","images/rocket2","images/rocket1","null","images/rocket2","","1","real","null","2","","",""
"d3-animate-choice","187","607486","0.0-76.0-1.17","2575","4972","16","Female","true","true","true","false","""event"",""trial"",""time""
""fullscreenenter"",""5"",""14078""
","
","
","""event"",""trial"",""time""
""fullscreenenter"",""5"",""14078""
","
","461.2000000476837","","48","","","3000","1","","","images/redplanet1.jpg","images/alien2","images/alien1","images/rocket2","images/alien2","images/t.png","2","real","false","2","rare","1","2022-12-05 23:22:51.091"
"two-step-fixation","188","608493","0.0-76.0-2.17","2575","4972","16","Female","true","true","true","false","""event"",""trial"",""time""
""fullscreenenter"",""5"",""14078""
","
","
","""event"",""trial"",""time""
""fullscreenenter"",""5"",""14078""
","
","","images/earth.jpg","","","","","","","","","","","","","","fixation","","","","","",""
"d3-animate-choice","189","610774","0.0-76.0-0.18","2575","4972","16","Female","true","true","true","false","""event"",""trial"",""time""
""fullscreenenter"",""5"",""14078""
","
","
","""event"",""trial"",""time""
""fullscreenenter"",""5"",""14078""
","
","269.80000019073486","","48","","","3000","1","","","images/earth.jpg","images/rocket2","images/rocket1","null","images/rocket2","","1","real","null","2","","",""
"d3-animate-choice","190","613174","0.0-76.0-1.18","2575","4972","16","Female","true","true","true","false","""event"",""trial"",""time""
""fullscreenenter"",""5"",""14078""
","
","
","""event"",""trial"",""time""
""fullscreenenter"",""5"",""14078""
","
","394.7999999523163","","48","","","3000","1","","","images/purpleplanet.jpg","images/alien4","images/alien3","images/rocket2","images/alien4","images/nothing.png","2","real","true","2","common","0","2022-12-05 23:22:56.779"
"two-step-fixation","191","614182","0.0-76.0-2.18","2575","4972","16","Female","true","true","true","false","""event"",""trial"",""time""
""fullscreenenter"",""5"",""14078""
","
","
","""event"",""trial"",""time""
""fullscreenenter"",""5"",""14078""
","
","","images/earth.jpg","","","","","","","","","","","","","","fixation","","","","","",""
"d3-animate-choice","192","616446","0.0-76.0-0.19","2575","4972","16","Female","true","true","true","false","""event"",""trial"",""time""
""fullscreenenter"",""5"",""14078""
","
","
","""event"",""trial"",""time""
""fullscreenenter"",""5"",""14078""
","
","253.79999995231628","","48","","","3000","1","1296.0999999046326,1732,2099.4000000953674","48,48,48","images/earth.jpg","images/rocket2","images/rocket1","null","images/rocket2","","1","real","null","2","","",""
"d3-animate-choice","193","618710","0.0-76.0-1.19","2575","4972","16","Female","true","true","true","false","""event"",""trial"",""time""
""fullscreenenter"",""5"",""14078""
","
","
","""event"",""trial"",""time""
""fullscreenenter"",""5"",""14078""
","
","254.09999990463257","","48","","","3000","1","663.0999999046326,1493.6999998092651","48,48","images/redplanet1.jpg","images/alien2","images/alien1","images/rocket2","images/alien2","images/nothing.png","2","real","false","2","rare","0","2022-12-05 23:23:02.315"
"two-step-fixation","194","619716","0.0-76.0-2.19","2575","4972","16","Female","true","true","true","false","""event"",""trial"",""time""
""fullscreenenter"",""5"",""14078""
","
","
","""event"",""trial"",""time""
""fullscreenenter"",""5"",""14078""
","
","","images/earth.jpg","","","","","","","","","","","","","","fixation","","","","","",""
"d3-animate-choice","195","621821","0.0-76.0-0.20","2575","4972","16","Female","true","true","true","false","""event"",""trial"",""time""
""fullscreenenter"",""5"",""14078""
","
","
","""event"",""trial"",""time""
""fullscreenenter"",""5"",""14078""
","
","95.70000004768372","","48","","","3000","1","499.7000000476837,936.2999999523163,1642.7000000476837","48,48,48","images/earth.jpg","images/rocket2","images/rocket1","null","images/rocket2","","1","real","null","2","","",""
"d3-animate-choice","196","624073","0.0-76.0-1.20","2575","4972","16","Female","true","true","true","false","""event"",""trial"",""time""
""fullscreenenter"",""5"",""14078""
","
","
","""event"",""trial"",""time""
""fullscreenenter"",""5"",""14078""
","
","245.20000004768372","","48","","","3000","1","1166.3000001907349,2069.4000000953674","48,48","images/purpleplanet.jpg","images/alien4","images/alien3","images/rocket2","images/alien4","images/nothing.png","2","real","true","2","common","0","2022-12-05 23:23:07.678"
"two-step-fixation","197","625086","0.0-76.0-2.20","2575","4972","16","Female","true","true","true","false","""event"",""trial"",""time""
""fullscreenenter"",""5"",""14078""
","
","
","""event"",""trial"",""time""
""fullscreenenter"",""5"",""14078""
","
","","images/earth.jpg","","","","","","","","","","","","","","fixation","","","","","",""
"d3-animate-choice","198","627246","0.0-76.0-0.21","2575","4972","16","Female","true","true","true","false","""event"",""trial"",""time""
""fullscreenenter"",""5"",""14078""
","
","
","""event"",""trial"",""time""
""fullscreenenter"",""5"",""14078""
","
","147.29999995231628","","48","","","3000","1","1764","48","images/earth.jpg","images/rocket2","images/rocket1","null","images/rocket2","","1","real","null","2","","",""
"d3-animate-choice","199","629637","0.0-76.0-1.21","2575","4972","16","Female","true","true","true","false","""event"",""trial"",""time""
""fullscreenenter"",""5"",""14078""
","
","
","""event"",""trial"",""time""
""fullscreenenter"",""5"",""14078""
","
","383.5","","48","","","3000","1","","","images/redplanet1.jpg","images/alien2","images/alien1","images/rocket2","images/alien2","images/t.png","2","real","false","2","rare","1","2022-12-05 23:23:13.242"
"two-step-fixation","200","630646","0.0-76.0-2.21","2575","4972","16","Female","true","true","true","false","""event"",""trial"",""time""
""fullscreenenter"",""5"",""14078""
","
","
","""event"",""trial"",""time""
""fullscreenenter"",""5"",""14078""
","
","","images/earth.jpg","","","","","","","","","","","","","","fixation","","","","","",""
"d3-animate-choice","201","633115","0.0-76.0-0.22","2575","4972","16","Female","true","true","true","false","""event"",""trial"",""time""
""fullscreenenter"",""5"",""14078""
","
","
","""event"",""trial"",""time""
""fullscreenenter"",""5"",""14078""
","
","463","","48","","","3000","1","939,2100.5","48,48","images/earth.jpg","images/rocket2","images/rocket1","null","images/rocket2","","1","real","null","2","","",""
"d3-animate-choice","202","635614","0.0-76.0-1.22","2575","4972","16","Female","true","true","true","false","""event"",""trial"",""time""
""fullscreenenter"",""5"",""14078""
","
","
","""event"",""trial"",""time""
""fullscreenenter"",""5"",""14078""
","
","495.5","","48","","","3000","1","","","images/purpleplanet.jpg","images/alien4","images/alien3","images/rocket2","images/alien4","images/nothing.png","2","real","true","2","common","0","2022-12-05 23:23:19.219"
"two-step-fixation","203","636621","0.0-76.0-2.22","2575","4972","16","Female","true","true","true","false","""event"",""trial"",""time""
""fullscreenenter"",""5"",""14078""
","
","
","""event"",""trial"",""time""
""fullscreenenter"",""5"",""14078""
","
","","images/earth.jpg","","","","","","","","","","","","","","fixation","","","","","",""
"d3-animate-choice","204","639062","0.0-76.0-0.23","2575","4972","16","Female","true","true","true","false","""event"",""trial"",""time""
""fullscreenenter"",""5"",""14078""
","
","
","""event"",""trial"",""time""
""fullscreenenter"",""5"",""14078""
","
","435.09999990463257","","49","","","3000","1","","","images/earth.jpg","images/rocket2","images/rocket1","null","images/rocket1","","1","real","null","1","","",""
"d3-animate-choice","205","641141","0.0-76.0-1.23","2575","4972","16","Female","true","true","true","false","""event"",""trial"",""time""
""fullscreenenter"",""5"",""14078""
","
","
","""event"",""trial"",""time""
""fullscreenenter"",""5"",""14078""
","
","67.70000004768372","","49","","","3000","1","","","images/redplanet1.jpg","images/alien2","images/alien1","images/rocket1","images/alien1","images/t.png","2","real","true","1","common","1","2022-12-05 23:23:24.746"
"two-step-fixation","206","642147","0.0-76.0-2.23","2575","4972","16","Female","true","true","true","false","""event"",""trial"",""time""
""fullscreenenter"",""5"",""14078""
","
","
","""event"",""trial"",""time""
""fullscreenenter"",""5"",""14078""
","
","","images/earth.jpg","","","","","","","","","","","","","","fixation","","","","","",""
"d3-animate-choice","207","644325","0.0-76.0-0.24","2575","4972","16","Female","true","true","true","false","""event"",""trial"",""time""
""fullscreenenter"",""5"",""14078""
","
","
","""event"",""trial"",""time""
""fullscreenenter"",""5"",""14078""
","
","166.5","","49","","","3000","1","895.2999999523163,1222.0999999046326,1496.5999999046326,1846.5999999046326","49,49,49,49","images/earth.jpg","images/rocket2","images/rocket1","null","images/rocket1","","1","real","null","1","","",""
"d3-animate-choice","208","646397","0.0-76.0-1.24","2575","4972","16","Female","true","true","true","false","""event"",""trial"",""time""
""fullscreenenter"",""5"",""14078""
","
","
","""event"",""trial"",""time""
""fullscreenenter"",""5"",""14078""
","
","61.19999980926514","","49","","","3000","1","478.09999990463257,1053.5999999046326,1821.5999999046326","49,49,49","images/redplanet1.jpg","images/alien2","images/alien1","images/rocket1","images/alien1","images/t.png","2","real","true","1","common","1","2022-12-05 23:23:30.002"
"two-step-fixation","209","647406","0.0-76.0-2.24","2575","4972","16","Female","true","true","true","false","""event"",""trial"",""time""
""fullscreenenter"",""5"",""14078""
","
","
","""event"",""trial"",""time""
""fullscreenenter"",""5"",""14078""
","
","","images/earth.jpg","","","","","","","","","","","","","","fixation","","","","","",""
"d3-animate-choice","210","649621","0.0-76.0-0.25","2575","4972","16","Female","true","true","true","false","""event"",""trial"",""time""
""fullscreenenter"",""5"",""14078""
","
","
","""event"",""trial"",""time""
""fullscreenenter"",""5"",""14078""
","
","205.19999980926514","","49","","","3000","1","480.39999985694885,860,1365.3999998569489,1873.7999999523163","49,49,49,49","images/earth.jpg","images/rocket2","images/rocket1","null","images/rocket1","","1","real","null","1","","",""
"d3-animate-choice","211","653309","0.0-76.0-1.25","2575","4972","16","Female","true","true","true","false","""event"",""trial"",""time""
""fullscreenenter"",""5"",""14078""
","
","
","""event"",""trial"",""time""
""fullscreenenter"",""5"",""14078""
","
","1683.5","","49","","","3000","1","","","images/purpleplanet.jpg","images/alien4","images/alien3","images/rocket1","images/alien3","images/nothing.png","2","real","false","1","rare","0","2022-12-05 23:23:36.915"
"two-step-fixation","212","654317","0.0-76.0-2.25","2575","4972","16","Female","true","true","true","false","""event"",""trial"",""time""
""fullscreenenter"",""5"",""14078""
","
","
","""event"",""trial"",""time""
""fullscreenenter"",""5"",""14078""
","
","","images/earth.jpg","","","","","","","","","","","","","","fixation","","","","","",""
"d3-animate-choice","213","656545","0.0-76.0-0.26","2575","4972","16","Female","true","true","true","false","""event"",""trial"",""time""
""fullscreenenter"",""5"",""14078""
","
","
","""event"",""trial"",""time""
""fullscreenenter"",""5"",""14078""
","
","223.29999995231628","","49","","","3000","1","","","images/earth.jpg","images/rocket2","images/rocket1","null","images/rocket1","","1","real","null","1","","",""
"d3-animate-choice","214","658853","0.0-76.0-1.26","2575","4972","16","Female","true","true","true","false","""event"",""trial"",""time""
""fullscreenenter"",""5"",""14078""
","
","
","""event"",""trial"",""time""
""fullscreenenter"",""5"",""14078""
","
","302.19999980926514","","49","","","3000","1","1767.7999999523163","49","images/redplanet1.jpg","images/alien2","images/alien1","images/rocket1","images/alien1","images/nothing.png","2","real","true","1","common","0","2022-12-05 23:23:42.459"
"two-step-fixation","215","659861","0.0-76.0-2.26","2575","4972","16","Female","true","true","true","false","""event"",""trial"",""time""
""fullscreenenter"",""5"",""14078""
","
","
","""event"",""trial"",""time""
""fullscreenenter"",""5"",""14078""
","
","","images/earth.jpg","","","","","","","","","","","","","","fixation","","","","","",""
"d3-animate-choice","216","662461","0.0-76.0-0.27","2575","4972","16","Female","true","true","true","false","""event"",""trial"",""time""
""fullscreenenter"",""5"",""14078""
","
","
","""event"",""trial"",""time""
""fullscreenenter"",""5"",""14078""
","
","588","","48","","","3000","1","","","images/earth.jpg","images/rocket2","images/rocket1","null","images/rocket2","","1","real","null","2","","",""
"d3-animate-choice","217","664878","0.0-76.0-1.27","2575","4972","16","Female","true","true","true","false","""event"",""trial"",""time""
""fullscreenenter"",""5"",""14078""
","
","
","""event"",""trial"",""time""
""fullscreenenter"",""5"",""14078""
","
","405","","48","","","3000","1","","","images/purpleplanet.jpg","images/alien4","images/alien3","images/rocket2","images/alien4","images/nothing.png","2","real","true","2","common","0","2022-12-05 23:23:48.483"
"two-step-fixation","218","665886","0.0-76.0-2.27","2575","4972","16","Female","true","true","true","false","""event"",""trial"",""time""
""fullscreenenter"",""5"",""14078""
","
","
","""event"",""trial"",""time""
""fullscreenenter"",""5"",""14078""
","
","","images/earth.jpg","","","","","","","","","","","","","","fixation","","","","","",""
"d3-animate-choice","219","668211","0.0-76.0-0.28","2575","4972","16","Female","true","true","true","false","""event"",""trial"",""time""
""fullscreenenter"",""5"",""14078""
","
","
","""event"",""trial"",""time""
""fullscreenenter"",""5"",""14078""
","
","314.5","","49","","","3000","1","","","images/earth.jpg","images/rocket2","images/rocket1","null","images/rocket1","","1","real","null","1","","",""
"d3-animate-choice","220","672223","0.0-76.0-1.28","2575","4972","16","Female","true","true","true","false","""event"",""trial"",""time""
""fullscreenenter"",""5"",""14078""
","
","
","""event"",""trial"",""time""
""fullscreenenter"",""5"",""14078""
","
","585.2000000476837","","50","","","3000","1","2251.7999999523163,2741.5,3307.2000000476837,3776.9000000953674","50,50,50,48","images/redplanet1.jpg","images/alien2","images/alien1","images/rocket1","images/alien2","","2","real","true","","common","0","2022-12-05 23:23:55.829"
"two-step-fixation","221","673229","0.0-76.0-2.28","2575","4972","16","Female","true","true","true","false","""event"",""trial"",""time""
""fullscreenenter"",""5"",""14078""
","
","
","""event"",""trial"",""time""
""fullscreenenter"",""5"",""14078""
","
","","images/earth.jpg","","","","","","","","","","","","","","fixation","","","","","",""
"d3-animate-choice","222","675718","0.0-76.0-0.29","2575","4972","16","Female","true","true","true","false","""event"",""trial"",""time""
""fullscreenenter"",""5"",""14078""
","
","
","""event"",""trial"",""time""
""fullscreenenter"",""5"",""14078""
","
","481.89999985694885","","49","","","3000","1","","","images/earth.jpg","images/rocket2","images/rocket1","null","images/rocket1","","1","real","null","1","","",""
"d3-animate-choice","223","678023","0.0-76.0-1.29","2575","4972","16","Female","true","true","true","false","""event"",""trial"",""time""
""fullscreenenter"",""5"",""14078""
","
","
","""event"",""trial"",""time""
""fullscreenenter"",""5"",""14078""
","
","294.5","","48","","","3000","1","","","images/redplanet1.jpg","images/alien2","images/alien1","images/rocket1","images/alien2","images/t.png","2","real","true","2","common","1","2022-12-05 23:24:01.628"
"two-step-fixation","224","679030","0.0-76.0-2.29","2575","4972","16","Female","true","true","true","false","""event"",""trial"",""time""
""fullscreenenter"",""5"",""14078""
","
","
","""event"",""trial"",""time""
""fullscreenenter"",""5"",""14078""
","
","","images/earth.jpg","","","","","","","","","","","","","","fixation","","","","","",""
"d3-animate-choice","225","683047","0.0-76.0-0.30","2575","4972","16","Female","true","true","true","false","""event"",""trial"",""time""
""fullscreenenter"",""5"",""14078""
","
","
","""event"",""trial"",""time""
""fullscreenenter"",""5"",""14078""
","
","2164.7000000476837","","48","","","3000","1","","","images/earth.jpg","images/rocket2","images/rocket1","null","images/rocket2","","1","real","null","2","","",""
"d3-animate-choice","226","685343","0.0-76.0-1.30","2575","4972","16","Female","true","true","true","false","""event"",""trial"",""time""
""fullscreenenter"",""5"",""14078""
","
","
","""event"",""trial"",""time""
""fullscreenenter"",""5"",""14078""
","
","291.09999990463257","","48","","","3000","1","","","images/redplanet1.jpg","images/alien2","images/alien1","images/rocket2","images/alien2","images/t.png","2","real","false","2","rare","1","2022-12-05 23:24:08.948"
"two-step-fixation","227","686349","0.0-76.0-2.30","2575","4972","16","Female","true","true","true","false","""event"",""trial"",""time""
""fullscreenenter"",""5"",""14078""
","
","
","""event"",""trial"",""time""
""fullscreenenter"",""5"",""14078""
","
","","images/earth.jpg","","","","","","","","","","","","","","fixation","","","","","",""
"d3-animate-choice","228","689574","0.0-76.0-0.31","2575","4972","16","Female","true","true","true","false","""event"",""trial"",""time""
""fullscreenenter"",""5"",""14078""
","
","
","""event"",""trial"",""time""
""fullscreenenter"",""5"",""14078""
","
","1216.2999999523163","","49","","","3000","1","","","images/earth.jpg","images/rocket2","images/rocket1","null","images/rocket1","","1","real","null","1","","",""
"d3-animate-choice","229","691654","0.0-76.0-1.31","2575","4972","16","Female","true","true","true","false","""event"",""trial"",""time""
""fullscreenenter"",""5"",""14078""
","
","
","""event"",""trial"",""time""
""fullscreenenter"",""5"",""14078""
","
","70.60000014305115","","48","","","3000","1","294.90000009536743","48","images/redplanet1.jpg","images/alien2","images/alien1","images/rocket1","images/alien2","images/t.png","2","real","true","2","common","1","2022-12-05 23:24:15.259"
"two-step-fixation","230","692662","0.0-76.0-2.31","2575","4972","16","Female","true","true","true","false","""event"",""trial"",""time""
""fullscreenenter"",""5"",""14078""
","
","
","""event"",""trial"",""time""
""fullscreenenter"",""5"",""14078""
","
","","images/earth.jpg","","","","","","","","","","","","","","fixation","","","","","",""
"d3-animate-choice","231","695238","0.0-76.0-0.32","2575","4972","16","Female","true","true","true","false","""event"",""trial"",""time""
""fullscreenenter"",""5"",""14078""
","
","
","""event"",""trial"",""time""
""fullscreenenter"",""5"",""14078""
","
","569.2000000476837","","49","","","3000","1","","","images/earth.jpg","images/rocket2","images/rocket1","null","images/rocket1","","1","real","null","1","","",""
"d3-animate-choice","232","697524","0.0-76.0-1.32","2575","4972","16","Female","true","true","true","false","""event"",""trial"",""time""
""fullscreenenter"",""5"",""14078""
","
","
","""event"",""trial"",""time""
""fullscreenenter"",""5"",""14078""
","
","280","","48","","","3000","1","","","images/redplanet1.jpg","images/alien2","images/alien1","images/rocket1","images/alien2","images/nothing.png","2","real","true","2","common","0","2022-12-05 23:24:21.129"
"two-step-fixation","233","698533","0.0-76.0-2.32","2575","4972","16","Female","true","true","true","false","""event"",""trial"",""time""
""fullscreenenter"",""5"",""14078""
","
","
","""event"",""trial"",""time""
""fullscreenenter"",""5"",""14078""
","
","","images/earth.jpg","","","","","","","","","","","","","","fixation","","","","","",""
"d3-animate-choice","234","700950","0.0-76.0-0.33","2575","4972","16","Female","true","true","true","false","""event"",""trial"",""time""
""fullscreenenter"",""5"",""14078""
","
","
","""event"",""trial"",""time""
""fullscreenenter"",""5"",""14078""
","
","408.7000000476837","","49","","","3000","1","2363","49","images/earth.jpg","images/rocket2","images/rocket1","null","images/rocket1","","1","real","null","1","","",""
"d3-animate-choice","235","703373","0.0-76.0-1.33","2575","4972","16","Female","true","true","true","false","""event"",""trial"",""time""
""fullscreenenter"",""5"",""14078""
","
","
","""event"",""trial"",""time""
""fullscreenenter"",""5"",""14078""
","
","420.19999980926514","","49","","","3000","1","925.6999998092651","49","images/purpleplanet.jpg","images/alien4","images/alien3","images/rocket1","images/alien3","images/nothing.png","2","real","false","1","rare","0","2022-12-05 23:24:26.978"
"two-step-fixation","236","704381","0.0-76.0-2.33","2575","4972","16","Female","true","true","true","false","""event"",""trial"",""time""
""fullscreenenter"",""5"",""14078""
","
","
","""event"",""trial"",""time""
""fullscreenenter"",""5"",""14078""
","
","","images/earth.jpg","","","","","","","","","","","","","","fixation","","","","","",""
"d3-animate-choice","237","707413","0.0-76.0-0.34","2575","4972","16","Female","true","true","true","false","""event"",""trial"",""time""
""fullscreenenter"",""5"",""14078""
","
","
","""event"",""trial"",""time""
""fullscreenenter"",""5"",""14078""
","
","1025.1999998092651","","48","","","3000","1","1196.5,2492.5,2667.199999809265,2898.899999856949","48,48,48,48","images/earth.jpg","images/rocket2","images/rocket1","null","images/rocket2","","1","real","null","2","","",""
"d3-animate-choice","238","709471","0.0-76.0-1.34","2575","4972","16","Female","true","true","true","false","""event"",""trial"",""time""
""fullscreenenter"",""5"",""14078""
","
","
","""event"",""trial"",""time""
""fullscreenenter"",""5"",""14078""
","
","43.90000009536743","","48","","","3000","1","228.90000009536743,445.7000000476837","48,48","images/purpleplanet.jpg","images/alien4","images/alien3","images/rocket2","images/alien4","images/t.png","2","real","true","2","common","1","2022-12-05 23:24:33.076"
"two-step-fixation","239","710478","0.0-76.0-2.34","2575","4972","16","Female","true","true","true","false","""event"",""trial"",""time""
""fullscreenenter"",""5"",""14078""
","
","
","""event"",""trial"",""time""
""fullscreenenter"",""5"",""14078""
","
","","images/earth.jpg","","","","","","","","","","","","","","fixation","","","","","",""
"d3-animate-choice","240","712790","0.0-76.0-0.35","2575","4972","16","Female","true","true","true","false","""event"",""trial"",""time""
""fullscreenenter"",""5"",""14078""
","
","
","""event"",""trial"",""time""
""fullscreenenter"",""5"",""14078""
","
","307.60000014305115","","48","","","3000","1","1666.7000000476837,2182","48,48","images/earth.jpg","images/rocket2","images/rocket1","null","images/rocket2","","1","real","null","2","","",""
"d3-animate-choice","241","715124","0.0-76.0-1.35","2575","4972","16","Female","true","true","true","false","""event"",""trial"",""time""
""fullscreenenter"",""5"",""14078""
","
","
","""event"",""trial"",""time""
""fullscreenenter"",""5"",""14078""
","
","324.7999999523163","","48","","","3000","1","","","images/purpleplanet.jpg","images/alien4","images/alien3","images/rocket2","images/alien4","images/t.png","2","real","true","2","common","1","2022-12-05 23:24:38.729"
"two-step-fixation","242","716133","0.0-76.0-2.35","2575","4972","16","Female","true","true","true","false","""event"",""trial"",""time""
""fullscreenenter"",""5"",""14078""
","
","
