"trial_type","trial_index","time_elapsed","internal_node_id","participant_id","subject_id","age","gender","rocket_sides","red_planet_first_rocket","red_display_order","purple_display_order","interactions","blur_events","focus_events","fullscreenenter_events","fullscreenexit_events","rt","stimulus","key_press","button_pressed","success","duration","valid_pressed","rts","keys","planet_text","right_text","left_text","center_text","chosen_text","reward_text","trial_stage","practice_trial","transition_type","choice","transition","reward","timestamp"
"pavlovia","0","8","0.0-0.0","201","4974","17","Male","false","true","false","true","
","
","
","
","
","","","","","","","","","","","","","","","","","","","","","",""
"html-keyboard-response","1","1072","0.0-1.0","201","4974","17","Male","false","true","false","true","
","
","
","
","
","1063","Welcome! Press the space bar to begin.","32","","","","","","","","","","","","","","","","","","",""
"audio-keyboard-response","2","2703","0.0-2.0","201","4974","17","Male","false","true","false","true","""event"",""trial"",""time""
""blur"",""3"",""6627""
""focus"",""3"",""6629""
","""event"",""trial"",""time""
""blur"",""3"",""6627""
","""event"",""trial"",""time""
""focus"",""3"",""6629""
","
","
","1557","audio/beep_loop.wav","32","","","","","","","","","","","","","","","","","","",""
"audio-button-response","3","7223","0.0-3.0","201","4974","17","Male","false","true","false","true","""event"",""trial"",""time""
""blur"",""3"",""6627""
""focus"",""3"",""6629""
","""event"",""trial"",""time""
""blur"",""3"",""6627""
","""event"",""trial"",""time""
""focus"",""3"",""6629""
","
","
","NaN","audio/fish.mp3","","1","","","","","","","","","","","","","","","","","",""
"audio-button-response","4","9607","0.0-4.0","201","4974","17","Male","false","true","false","true","""event"",""trial"",""time""
""blur"",""3"",""6627""
""focus"",""3"",""6629""
""fullscreenenter"",""5"",""11717""
","""event"",""trial"",""time""
""blur"",""3"",""6627""
","""event"",""trial"",""time""
""focus"",""3"",""6629""
","""event"",""trial"",""time""
""fullscreenenter"",""5"",""11717""
","
","NaN","audio/tiger.mp3","","4","","","","","","","","","","","","","","","","","",""
"fullscreen","5","12703","0.0-5.0","201","4974","17","Male","false","true","false","true","""event"",""trial"",""time""
""blur"",""3"",""6627""
""focus"",""3"",""6629""
""fullscreenenter"",""5"",""11717""
","""event"",""trial"",""time""
""blur"",""3"",""6627""
","""event"",""trial"",""time""
""focus"",""3"",""6629""
","""event"",""trial"",""time""
""fullscreenenter"",""5"",""11717""
","
","","","","","true","","","","","","","","","","","","","","","","",""
"d3-instructions","6","18816","0.0-6.0","201","4974","17","Male","false","true","false","true","""event"",""trial"",""time""
""blur"",""3"",""6627""
""focus"",""3"",""6629""
""fullscreenenter"",""5"",""11717""
","""event"",""trial"",""time""
""blur"",""3"",""6627""
","""event"",""trial"",""time""
""focus"",""3"",""6629""
","""event"",""trial"",""time""
""fullscreenenter"",""5"",""11717""
","
","","","","","","","","","","","","","","","","","","","","","",""
"d3-instructions","7","22223","0.0-7.0","201","4974","17","Male","false","true","false","true","""event"",""trial"",""time""
""blur"",""3"",""6627""
""focus"",""3"",""6629""
""fullscreenenter"",""5"",""11717""
","""event"",""trial"",""time""
""blur"",""3"",""6627""
","""event"",""trial"",""time""
""focus"",""3"",""6629""
","""event"",""trial"",""time""
""fullscreenenter"",""5"",""11717""
","
","","","","","","","","","","","","","","","","","","","","","",""
"d3-instructions","8","24425","0.0-8.0","201","4974","17","Male","false","true","false","true","""event"",""trial"",""time""
""blur"",""3"",""6627""
""focus"",""3"",""6629""
""fullscreenenter"",""5"",""11717""
","""event"",""trial"",""time""
""blur"",""3"",""6627""
","""event"",""trial"",""time""
""focus"",""3"",""6629""
","""event"",""trial"",""time""
""fullscreenenter"",""5"",""11717""
","
","","","","","","","","","","","","","","","","","","","","","",""
"d3-instructions","9","27697","0.0-9.0","201","4974","17","Male","false","true","false","true","""event"",""trial"",""time""
""blur"",""3"",""6627""
""focus"",""3"",""6629""
""fullscreenenter"",""5"",""11717""
","""event"",""trial"",""time""
""blur"",""3"",""6627""
","""event"",""trial"",""time""
""focus"",""3"",""6629""
","""event"",""trial"",""time""
""fullscreenenter"",""5"",""11717""
","
","","","","","","","","","","","","","","","","","","","","","",""
"d3-instructions","10","32477","0.0-10.0","201","4974","17","Male","false","true","false","true","""event"",""trial"",""time""
""blur"",""3"",""6627""
""focus"",""3"",""6629""
""fullscreenenter"",""5"",""11717""
","""event"",""trial"",""time""
""blur"",""3"",""6627""
","""event"",""trial"",""time""
""focus"",""3"",""6629""
","""event"",""trial"",""time""
""fullscreenenter"",""5"",""11717""
","
","","","","","","","","","","","","","","","","","","","","","",""
"d3-animate-choice","11","38528","0.0-11.0","201","4974","17","Male","false","true","false","true","""event"",""trial"",""time""
""blur"",""3"",""6627""
""focus"",""3"",""6629""
""fullscreenenter"",""5"",""11717""
","""event"",""trial"",""time""
""blur"",""3"",""6627""
","""event"",""trial"",""time""
""focus"",""3"",""6629""
","""event"",""trial"",""time""
""fullscreenenter"",""5"",""11717""
","
","1150.2000000029802","","97","","","3000","1","1759.9000000059605,2265.2000000029802,2571.1000000089407,4040.9000000059605","96,97,96,49","images/tutgreenplanet.jpg","images/tutalien1","images/tutalien2","null","images/tutalien2","","NA","practice","null","","","",""
"d3-animate-choice","12","40767","0.0-12.0","201","4974","17","Male","false","true","false","true","""event"",""trial"",""time""
""blur"",""3"",""6627""
""focus"",""3"",""6629""
""fullscreenenter"",""5"",""11717""
","""event"",""trial"",""time""
""blur"",""3"",""6627""
","""event"",""trial"",""time""
""focus"",""3"",""6629""
","""event"",""trial"",""time""
""fullscreenenter"",""5"",""11717""
","
","228.09999999403954","","48","","","3000","1","","","images/tutgreenplanet.jpg","images/tutalien1","images/tutalien2","null","images/tutalien1","","NA","practice","null","","","",""
"d3-animate-choice","13","43071","0.0-13.0","201","4974","17","Male","false","true","false","true","""event"",""trial"",""time""
""blur"",""3"",""6627""
""focus"",""3"",""6629""
""fullscreenenter"",""5"",""11717""
","""event"",""trial"",""time""
""blur"",""3"",""6627""
","""event"",""trial"",""time""
""focus"",""3"",""6629""
","""event"",""trial"",""time""
""fullscreenenter"",""5"",""11717""
","
","299.29999999701977","","49","","","3000","1","1790.4000000059605","48","images/tutgreenplanet.jpg","images/tutalien1","images/tutalien2","null","images/tutalien2","","NA","practice","null","","","",""
"d3-animate-choice","14","45079","0.0-14.0","201","4974","17","Male","false","true","false","true","""event"",""trial"",""time""
""blur"",""3"",""6627""
""focus"",""3"",""6629""
""fullscreenenter"",""5"",""11717""
","""event"",""trial"",""time""
""blur"",""3"",""6627""
","""event"",""trial"",""time""
""focus"",""3"",""6629""
","""event"",""trial"",""time""
""fullscreenenter"",""5"",""11717""
","
","0.19999998807907104","","48","","","3000","1","","","images/tutgreenplanet.jpg","images/tutalien1","images/tutalien2","null","images/tutalien1","","NA","practice","null","","","",""
"d3-instructions","15","48540","0.0-15.0","201","4974","17","Male","false","true","false","true","""event"",""trial"",""time""
""blur"",""3"",""6627""
""focus"",""3"",""6629""
""fullscreenenter"",""5"",""11717""
","""event"",""trial"",""time""
""blur"",""3"",""6627""
","""event"",""trial"",""time""
""focus"",""3"",""6629""
","""event"",""trial"",""time""
""fullscreenenter"",""5"",""11717""
","
","","","","","","","","","","","","","","","","","","","","","",""
"d3-instructions","16","49978","0.0-16.0","201","4974","17","Male","false","true","false","true","""event"",""trial"",""time""
""blur"",""3"",""6627""
""focus"",""3"",""6629""
""fullscreenenter"",""5"",""11717""
","""event"",""trial"",""time""
""blur"",""3"",""6627""
","""event"",""trial"",""time""
""focus"",""3"",""6629""
","""event"",""trial"",""time""
""fullscreenenter"",""5"",""11717""
","
","","","","","","","","","","","","","","","","","","","","","",""
"d3-instructions","17","51574","0.0-17.0","201","4974","17","Male","false","true","false","true","""event"",""trial"",""time""
""blur"",""3"",""6627""
""focus"",""3"",""6629""
""fullscreenenter"",""5"",""11717""
","""event"",""trial"",""time""
""blur"",""3"",""6627""
","""event"",""trial"",""time""
""focus"",""3"",""6629""
","""event"",""trial"",""time""
""fullscreenenter"",""5"",""11717""
","
","","","","","","","","","","","","","","","","","","","","","",""
"d3-instructions","18","53325","0.0-18.0","201","4974","17","Male","false","true","false","true","""event"",""trial"",""time""
""blur"",""3"",""6627""
""focus"",""3"",""6629""
""fullscreenenter"",""5"",""11717""
","""event"",""trial"",""time""
""blur"",""3"",""6627""
","""event"",""trial"",""time""
""focus"",""3"",""6629""
","""event"",""trial"",""time""
""fullscreenenter"",""5"",""11717""
","
","","","","","","","","","","","","","","","","","","","","","",""
"d3-instructions","19","56340","0.0-19.0","201","4974","17","Male","false","true","false","true","""event"",""trial"",""time""
""blur"",""3"",""6627""
""focus"",""3"",""6629""
""fullscreenenter"",""5"",""11717""
","""event"",""trial"",""time""
""blur"",""3"",""6627""
","""event"",""trial"",""time""
""focus"",""3"",""6629""
","""event"",""trial"",""time""
""fullscreenenter"",""5"",""11717""
","
","","","","","","","","","","","","","","","","","","","","","",""
"d3-animate-choice","20","59711","0.0-20.0","201","4974","17","Male","false","true","false","true","""event"",""trial"",""time""
""blur"",""3"",""6627""
""focus"",""3"",""6629""
""fullscreenenter"",""5"",""11717""
","""event"",""trial"",""time""
""blur"",""3"",""6627""
","""event"",""trial"",""time""
""focus"",""3"",""6629""
","""event"",""trial"",""time""
""fullscreenenter"",""5"",""11717""
","
","1365.5999999940395","","49","","","3000","1","2809.8999999910593","49","images/tutyellowplanet.jpg","null","images/tutalien3","null","images/tutalien3","images/t.png","NA","practice","null","","","",""
"d3-animate-choice","21","62071","0.0-21.0","201","4974","17","Male","false","true","false","true","""event"",""trial"",""time""
""blur"",""3"",""6627""
""focus"",""3"",""6629""
""fullscreenenter"",""5"",""11717""
","""event"",""trial"",""time""
""blur"",""3"",""6627""
","""event"",""trial"",""time""
""focus"",""3"",""6629""
","""event"",""trial"",""time""
""fullscreenenter"",""5"",""11717""
","
","351.59999999403954","","49","","","3000","1","1846.2999999970198","49","images/tutyellowplanet.jpg","null","images/tutalien3","null","images/tutalien3","images/t.png","NA","practice","null","","","",""
"d3-animate-choice","22","64383","0.0-22.0","201","4974","17","Male","false","true","false","true","""event"",""trial"",""time""
""blur"",""3"",""6627""
""focus"",""3"",""6629""
""fullscreenenter"",""5"",""11717""
","""event"",""trial"",""time""
""blur"",""3"",""6627""
","""event"",""trial"",""time""
""focus"",""3"",""6629""
","""event"",""trial"",""time""
""fullscreenenter"",""5"",""11717""
","
","304.59999999403954","","49","","","3000","1","","","images/tutyellowplanet.jpg","null","images/tutalien3","null","images/tutalien3","images/t.png","NA","practice","null","","","",""
"d3-animate-choice","23","66671","0.0-23.0","201","4974","17","Male","false","true","false","true","""event"",""trial"",""time""
""blur"",""3"",""6627""
""focus"",""3"",""6629""
""fullscreenenter"",""5"",""11717""
","""event"",""trial"",""time""
""blur"",""3"",""6627""
","""event"",""trial"",""time""
""focus"",""3"",""6629""
","""event"",""trial"",""time""
""fullscreenenter"",""5"",""11717""
","
","281.5","","49","","","3000","1","","","images/tutyellowplanet.jpg","null","images/tutalien3","null","images/tutalien3","images/nothing.png","NA","practice","null","","","",""
"d3-animate-choice","24","69039","0.0-24.0","201","4974","17","Male","false","true","false","true","""event"",""trial"",""time""
""blur"",""3"",""6627""
""focus"",""3"",""6629""
""fullscreenenter"",""5"",""11717""
","""event"",""trial"",""time""
""blur"",""3"",""6627""
","""event"",""trial"",""time""
""focus"",""3"",""6629""
","""event"",""trial"",""time""
""fullscreenenter"",""5"",""11717""
","
","363.09999999403954","","49","","","3000","1","","","images/tutyellowplanet.jpg","null","images/tutalien3","null","images/tutalien3","images/nothing.png","NA","practice","null","","","",""
"d3-animate-choice","25","71319","0.0-25.0","201","4974","17","Male","false","true","false","true","""event"",""trial"",""time""
""blur"",""3"",""6627""
""focus"",""3"",""6629""
""fullscreenenter"",""5"",""11717""
","""event"",""trial"",""time""
""blur"",""3"",""6627""
","""event"",""trial"",""time""
""focus"",""3"",""6629""
","""event"",""trial"",""time""
""fullscreenenter"",""5"",""11717""
","
","271.40000000596046","","49","","","3000","1","","","images/tutyellowplanet.jpg","null","images/tutalien3","null","images/tutalien3","images/t.png","NA","practice","null","","","",""
"d3-animate-choice","26","73615","0.0-26.0","201","4974","17","Male","false","true","false","true","""event"",""trial"",""time""
""blur"",""3"",""6627""
""focus"",""3"",""6629""
""fullscreenenter"",""5"",""11717""
","""event"",""trial"",""time""
""blur"",""3"",""6627""
","""event"",""trial"",""time""
""focus"",""3"",""6629""
","""event"",""trial"",""time""
""fullscreenenter"",""5"",""11717""
","
","285.09999999403954","","49","","","3000","1","","","images/tutyellowplanet.jpg","null","images/tutalien3","null","images/tutalien3","images/t.png","NA","practice","null","","","",""
"d3-animate-choice","27","75911","0.0-27.0","201","4974","17","Male","false","true","false","true","""event"",""trial"",""time""
""blur"",""3"",""6627""
""focus"",""3"",""6629""
""fullscreenenter"",""5"",""11717""
","""event"",""trial"",""time""
""blur"",""3"",""6627""
","""event"",""trial"",""time""
""focus"",""3"",""6629""
","""event"",""trial"",""time""
""fullscreenenter"",""5"",""11717""
","
","287.5","","49","","","3000","1","","","images/tutyellowplanet.jpg","null","images/tutalien3","null","images/tutalien3","images/t.png","NA","practice","null","","","",""
"d3-animate-choice","28","78231","0.0-28.0","201","4974","17","Male","false","true","false","true","""event"",""trial"",""time""
""blur"",""3"",""6627""
""focus"",""3"",""6629""
""fullscreenenter"",""5"",""11717""
","""event"",""trial"",""time""
""blur"",""3"",""6627""
","""event"",""trial"",""time""
""focus"",""3"",""6629""
","""event"",""trial"",""time""
""fullscreenenter"",""5"",""11717""
","
","313.20000000298023","","49","","","3000","1","","","images/tutyellowplanet.jpg","null","images/tutalien3","null","images/tutalien3","images/t.png","NA","practice","null","","","",""
"d3-animate-choice","29","80679","0.0-29.0","201","4974","17","Male","false","true","false","true","""event"",""trial"",""time""
""blur"",""3"",""6627""
""focus"",""3"",""6629""
""fullscreenenter"",""5"",""11717""
","""event"",""trial"",""time""
""blur"",""3"",""6627""
","""event"",""trial"",""time""
""focus"",""3"",""6629""
","""event"",""trial"",""time""
""fullscreenenter"",""5"",""11717""
","
","440.09999999403954","","49","","","3000","1","","","images/tutyellowplanet.jpg","null","images/tutalien3","null","images/tutalien3","images/t.png","NA","practice","null","","","",""
"d3-instructions","30","83030","0.0-30.0","201","4974","17","Male","false","true","false","true","""event"",""trial"",""time""
""blur"",""3"",""6627""
""focus"",""3"",""6629""
""fullscreenenter"",""5"",""11717""
","""event"",""trial"",""time""
""blur"",""3"",""6627""
","""event"",""trial"",""time""
""focus"",""3"",""6629""
","""event"",""trial"",""time""
""fullscreenenter"",""5"",""11717""
","
","","","","","","","","","","","","","","","","","","","","","",""
"d3-instructions","31","84656","0.0-31.0","201","4974","17","Male","false","true","false","true","""event"",""trial"",""time""
""blur"",""3"",""6627""
""focus"",""3"",""6629""
""fullscreenenter"",""5"",""11717""
","""event"",""trial"",""time""
""blur"",""3"",""6627""
","""event"",""trial"",""time""
""focus"",""3"",""6629""
","""event"",""trial"",""time""
""fullscreenenter"",""5"",""11717""
","
","","","","","","","","","","","","","","","","","","","","","",""
"d3-instructions","32","86318","0.0-32.0","201","4974","17","Male","false","true","false","true","""event"",""trial"",""time""
""blur"",""3"",""6627""
""focus"",""3"",""6629""
""fullscreenenter"",""5"",""11717""
","""event"",""trial"",""time""
""blur"",""3"",""6627""
","""event"",""trial"",""time""
""focus"",""3"",""6629""
","""event"",""trial"",""time""
""fullscreenenter"",""5"",""11717""
","
","","","","","","","","","","","","","","","","","","","","","",""
"d3-instructions","33","88201","0.0-33.0","201","4974","17","Male","false","true","false","true","""event"",""trial"",""time""
""blur"",""3"",""6627""
""focus"",""3"",""6629""
""fullscreenenter"",""5"",""11717""
","""event"",""trial"",""time""
""blur"",""3"",""6627""
","""event"",""trial"",""time""
""focus"",""3"",""6629""
","""event"",""trial"",""time""
""fullscreenenter"",""5"",""11717""
","
","","","","","","","","","","","","","","","","","","","","","",""
"d3-animate-choice","34","91159","0.0-34.0","201","4974","17","Male","false","true","false","true","""event"",""trial"",""time""
""blur"",""3"",""6627""
""focus"",""3"",""6629""
""fullscreenenter"",""5"",""11717""
","""event"",""trial"",""time""
""blur"",""3"",""6627""
","""event"",""trial"",""time""
""focus"",""3"",""6629""
","""event"",""trial"",""time""
""fullscreenenter"",""5"",""11717""
","
","949.7999999970198","","49","","","3000","1","","","images/tutgreenplanet.jpg","images/tutalien1","images/tutalien2","null","images/tutalien2","images/nothing.png","NA","practice","null","","","",""
"d3-animate-choice","35","93871","0.0-35.0","201","4974","17","Male","false","true","false","true","""event"",""trial"",""time""
""blur"",""3"",""6627""
""focus"",""3"",""6629""
""fullscreenenter"",""5"",""11717""
","""event"",""trial"",""time""
""blur"",""3"",""6627""
","""event"",""trial"",""time""
""focus"",""3"",""6629""
","""event"",""trial"",""time""
""fullscreenenter"",""5"",""11717""
","
","706.5","","49","","","3000","1","","","images/tutgreenplanet.jpg","images/tutalien1","images/tutalien2","null","images/tutalien2","images/t.png","NA","practice","null","","","",""
"d3-animate-choice","36","96407","0.0-36.0","201","4974","17","Male","false","true","false","true","""event"",""trial"",""time""
""blur"",""3"",""6627""
""focus"",""3"",""6629""
""fullscreenenter"",""5"",""11717""
","""event"",""trial"",""time""
""blur"",""3"",""6627""
","""event"",""trial"",""time""
""focus"",""3"",""6629""
","""event"",""trial"",""time""
""fullscreenenter"",""5"",""11717""
","
","528","","49","","","3000","1","","","images/tutgreenplanet.jpg","images/tutalien1","images/tutalien2","null","images/tutalien2","images/t.png","NA","practice","null","","","",""
"d3-animate-choice","37","98951","0.0-37.0","201","4974","17","Male","false","true","false","true","""event"",""trial"",""time""
""blur"",""3"",""6627""
""focus"",""3"",""6629""
""fullscreenenter"",""5"",""11717""
","""event"",""trial"",""time""
""blur"",""3"",""6627""
","""event"",""trial"",""time""
""focus"",""3"",""6629""
","""event"",""trial"",""time""
""fullscreenenter"",""5"",""11717""
","
","538","","49","","","3000","1","","","images/tutgreenplanet.jpg","images/tutalien1","images/tutalien2","null","images/tutalien2","images/t.png","NA","practice","null","","","",""
"d3-animate-choice","38","101279","0.0-38.0","201","4974","17","Male","false","true","false","true","""event"",""trial"",""time""
""blur"",""3"",""6627""
""focus"",""3"",""6629""
""fullscreenenter"",""5"",""11717""
","""event"",""trial"",""time""
""blur"",""3"",""6627""
","""event"",""trial"",""time""
""focus"",""3"",""6629""
","""event"",""trial"",""time""
""fullscreenenter"",""5"",""11717""
","
","321","","49","","","3000","1","","","images/tutgreenplanet.jpg","images/tutalien1","images/tutalien2","null","images/tutalien2","images/t.png","NA","practice","null","","","",""
"d3-animate-choice","39","103751","0.0-39.0","201","4974","17","Male","false","true","false","true","""event"",""trial"",""time""
""blur"",""3"",""6627""
""focus"",""3"",""6629""
""fullscreenenter"",""5"",""11717""
","""event"",""trial"",""time""
""blur"",""3"",""6627""
","""event"",""trial"",""time""
""focus"",""3"",""6629""
","""event"",""trial"",""time""
""fullscreenenter"",""5"",""11717""
","
","465.20000000298023","","49","","","3000","1","","","images/tutgreenplanet.jpg","images/tutalien1","images/tutalien2","null","images/tutalien2","images/t.png","NA","practice","null","","","",""
"d3-animate-choice","40","106055","0.0-40.0","201","4974","17","Male","false","true","false","true","""event"",""trial"",""time""
""blur"",""3"",""6627""
""focus"",""3"",""6629""
""fullscreenenter"",""5"",""11717""
","""event"",""trial"",""time""
""blur"",""3"",""6627""
","""event"",""trial"",""time""
""focus"",""3"",""6629""
","""event"",""trial"",""time""
""fullscreenenter"",""5"",""11717""
","
","294.29999999701977","","49","","","3000","1","","","images/tutgreenplanet.jpg","images/tutalien1","images/tutalien2","null","images/tutalien2","images/t.png","NA","practice","null","","","",""
"d3-animate-choice","41","108359","0.0-41.0","201","4974","17","Male","false","true","false","true","""event"",""trial"",""time""
""blur"",""3"",""6627""
""focus"",""3"",""6629""
""fullscreenenter"",""5"",""11717""
","""event"",""trial"",""time""
""blur"",""3"",""6627""
","""event"",""trial"",""time""
""focus"",""3"",""6629""
","""event"",""trial"",""time""
""fullscreenenter"",""5"",""11717""
","
","292.90000000596046","","49","","","3000","1","","","images/tutgreenplanet.jpg","images/tutalien1","images/tutalien2","null","images/tutalien2","images/t.png","NA","practice","null","","","",""
"d3-animate-choice","42","110631","0.0-42.0","201","4974","17","Male","false","true","false","true","""event"",""trial"",""time""
""blur"",""3"",""6627""
""focus"",""3"",""6629""
""fullscreenenter"",""5"",""11717""
","""event"",""trial"",""time""
""blur"",""3"",""6627""
","""event"",""trial"",""time""
""focus"",""3"",""6629""
","""event"",""trial"",""time""
""fullscreenenter"",""5"",""11717""
","
","266.69999998807907","","49","","","3000","1","","","images/tutgreenplanet.jpg","images/tutalien1","images/tutalien2","null","images/tutalien2","images/t.png","NA","practice","null","","","",""
"d3-animate-choice","43","112951","0.0-43.0","201","4974","17","Male","false","true","false","true","""event"",""trial"",""time""
""blur"",""3"",""6627""
""focus"",""3"",""6629""
""fullscreenenter"",""5"",""11717""
","""event"",""trial"",""time""
""blur"",""3"",""6627""
","""event"",""trial"",""time""
""focus"",""3"",""6629""
","""event"",""trial"",""time""
""fullscreenenter"",""5"",""11717""
","
","311.80000001192093","","49","","","3000","1","","","images/tutgreenplanet.jpg","images/tutalien1","images/tutalien2","null","images/tutalien2","images/nothing.png","NA","practice","null","","","",""
"d3-instructions","44","115398","0.0-44.0","201","4974","17","Male","false","true","false","true","""event"",""trial"",""time""
""blur"",""3"",""6627""
""focus"",""3"",""6629""
""fullscreenenter"",""5"",""11717""
","""event"",""trial"",""time""
""blur"",""3"",""6627""
","""event"",""trial"",""time""
""focus"",""3"",""6629""
","""event"",""trial"",""time""
""fullscreenenter"",""5"",""11717""
","
","","","","","","","","","","","","","","","","","","","","","",""
"d3-instructions","45","116888","0.0-45.0","201","4974","17","Male","false","true","false","true","""event"",""trial"",""time""
""blur"",""3"",""6627""
""focus"",""3"",""6629""
""fullscreenenter"",""5"",""11717""
","""event"",""trial"",""time""
""blur"",""3"",""6627""
","""event"",""trial"",""time""
""focus"",""3"",""6629""
","""event"",""trial"",""time""
""fullscreenenter"",""5"",""11717""
","
","","","","","","","","","","","","","","","","","","","","","",""
"d3-instructions","46","118108","0.0-46.0","201","4974","17","Male","false","true","false","true","""event"",""trial"",""time""
""blur"",""3"",""6627""
""focus"",""3"",""6629""
""fullscreenenter"",""5"",""11717""
","""event"",""trial"",""time""
""blur"",""3"",""6627""
","""event"",""trial"",""time""
""focus"",""3"",""6629""
","""event"",""trial"",""time""
""fullscreenenter"",""5"",""11717""
","
","","","","","","","","","","","","","","","","","","","","","",""
"d3-instructions","47","119685","0.0-47.0","201","4974","17","Male","false","true","false","true","""event"",""trial"",""time""
""blur"",""3"",""6627""
""focus"",""3"",""6629""
""fullscreenenter"",""5"",""11717""
","""event"",""trial"",""time""
""blur"",""3"",""6627""
","""event"",""trial"",""time""
""focus"",""3"",""6629""
","""event"",""trial"",""time""
""fullscreenenter"",""5"",""11717""
","
","","","","","","","","","","","","","","","","","","","","","",""
"d3-instructions","48","121490","0.0-48.0","201","4974","17","Male","false","true","false","true","""event"",""trial"",""time""
""blur"",""3"",""6627""
""focus"",""3"",""6629""
""fullscreenenter"",""5"",""11717""
","""event"",""trial"",""time""
""blur"",""3"",""6627""
","""event"",""trial"",""time""
""focus"",""3"",""6629""
","""event"",""trial"",""time""
""fullscreenenter"",""5"",""11717""
","
","","","","","","","","","","","","","","","","","","","","","",""
"d3-instructions","49","122779","0.0-49.0","201","4974","17","Male","false","true","false","true","""event"",""trial"",""time""
""blur"",""3"",""6627""
""focus"",""3"",""6629""
""fullscreenenter"",""5"",""11717""
","""event"",""trial"",""time""
""blur"",""3"",""6627""
","""event"",""trial"",""time""
""focus"",""3"",""6629""
","""event"",""trial"",""time""
""fullscreenenter"",""5"",""11717""
","
","","","","","","","","","","","","","","","","","","","","","",""
"d3-instructions","50","124142","0.0-50.0","201","4974","17","Male","false","true","false","true","""event"",""trial"",""time""
""blur"",""3"",""6627""
""focus"",""3"",""6629""
""fullscreenenter"",""5"",""11717""
","""event"",""trial"",""time""
""blur"",""3"",""6627""
","""event"",""trial"",""time""
""focus"",""3"",""6629""
","""event"",""trial"",""time""
""fullscreenenter"",""5"",""11717""
","
","","","","","","","","","","","","","","","","","","","","","",""
"d3-instructions","51","125250","0.0-51.0","201","4974","17","Male","false","true","false","true","""event"",""trial"",""time""
""blur"",""3"",""6627""
""focus"",""3"",""6629""
""fullscreenenter"",""5"",""11717""
","""event"",""trial"",""time""
""blur"",""3"",""6627""
","""event"",""trial"",""time""
""focus"",""3"",""6629""
","""event"",""trial"",""time""
""fullscreenenter"",""5"",""11717""
","
","","","","","","","","","","","","","","","","","","","","","",""
"d3-instructions","52","126318","0.0-52.0","201","4974","17","Male","false","true","false","true","""event"",""trial"",""time""
""blur"",""3"",""6627""
""focus"",""3"",""6629""
""fullscreenenter"",""5"",""11717""
","""event"",""trial"",""time""
""blur"",""3"",""6627""
","""event"",""trial"",""time""
""focus"",""3"",""6629""
","""event"",""trial"",""time""
""fullscreenenter"",""5"",""11717""
","
","","","","","","","","","","","","","","","","","","","","","",""
"d3-instructions","53","127937","0.0-53.0","201","4974","17","Male","false","true","false","true","""event"",""trial"",""time""
""blur"",""3"",""6627""
""focus"",""3"",""6629""
""fullscreenenter"",""5"",""11717""
","""event"",""trial"",""time""
""blur"",""3"",""6627""
","""event"",""trial"",""time""
""focus"",""3"",""6629""
","""event"",""trial"",""time""
""fullscreenenter"",""5"",""11717""
","
","","","","","","","","","","","","","","","","","","","","","",""
"d3-instructions","54","129856","0.0-54.0","201","4974","17","Male","false","true","false","true","""event"",""trial"",""time""
""blur"",""3"",""6627""
""focus"",""3"",""6629""
""fullscreenenter"",""5"",""11717""
","""event"",""trial"",""time""
""blur"",""3"",""6627""
","""event"",""trial"",""time""
""focus"",""3"",""6629""
","""event"",""trial"",""time""
""fullscreenenter"",""5"",""11717""
","
","","","","","","","","","","","","","","","","","","","","","",""
"d3-instructions","55","131880","0.0-55.0","201","4974","17","Male","false","true","false","true","""event"",""trial"",""time""
""blur"",""3"",""6627""
""focus"",""3"",""6629""
""fullscreenenter"",""5"",""11717""
","""event"",""trial"",""time""
""blur"",""3"",""6627""
","""event"",""trial"",""time""
""focus"",""3"",""6629""
","""event"",""trial"",""time""
""fullscreenenter"",""5"",""11717""
","
","","","","","","","","","","","","","","","","","","","","","",""
"d3-instructions","56","133717","0.0-56.0","201","4974","17","Male","false","true","false","true","""event"",""trial"",""time""
""blur"",""3"",""6627""
""focus"",""3"",""6629""
""fullscreenenter"",""5"",""11717""
","""event"",""trial"",""time""
""blur"",""3"",""6627""
","""event"",""trial"",""time""
""focus"",""3"",""6629""
","""event"",""trial"",""time""
""fullscreenenter"",""5"",""11717""
","
","","","","","","","","","","","","","","","","","","","","","",""
"d3-instructions","57","136215","0.0-57.0","201","4974","17","Male","false","true","false","true","""event"",""trial"",""time""
""blur"",""3"",""6627""
""focus"",""3"",""6629""
""fullscreenenter"",""5"",""11717""
","""event"",""trial"",""time""
""blur"",""3"",""6627""
","""event"",""trial"",""time""
""focus"",""3"",""6629""
","""event"",""trial"",""time""
""fullscreenenter"",""5"",""11717""
","
","","","","","","","","","","","","","","","","","","","","","",""
"d3-instructions","58","138204","0.0-58.0","201","4974","17","Male","false","true","false","true","""event"",""trial"",""time""
""blur"",""3"",""6627""
""focus"",""3"",""6629""
""fullscreenenter"",""5"",""11717""
","""event"",""trial"",""time""
""blur"",""3"",""6627""
","""event"",""trial"",""time""
""focus"",""3"",""6629""
","""event"",""trial"",""time""
""fullscreenenter"",""5"",""11717""
","
","","","","","","","","","","","","","","","","","","","","","",""
"d3-instructions","59","139795","0.0-59.0","201","4974","17","Male","false","true","false","true","""event"",""trial"",""time""
""blur"",""3"",""6627""
""focus"",""3"",""6629""
""fullscreenenter"",""5"",""11717""
","""event"",""trial"",""time""
""blur"",""3"",""6627""
","""event"",""trial"",""time""
""focus"",""3"",""6629""
","""event"",""trial"",""time""
""fullscreenenter"",""5"",""11717""
","
","","","","","","","","","","","","","","","","","","","","","",""
"d3-instructions","60","141362","0.0-60.0","201","4974","17","Male","false","true","false","true","""event"",""trial"",""time""
""blur"",""3"",""6627""
""focus"",""3"",""6629""
""fullscreenenter"",""5"",""11717""
","""event"",""trial"",""time""
""blur"",""3"",""6627""
","""event"",""trial"",""time""
""focus"",""3"",""6629""
","""event"",""trial"",""time""
""fullscreenenter"",""5"",""11717""
","
","","","","","","","","","","","","","","","","","","","","","",""
"d3-animate-choice","61","144143","0.0-61.0-0.0","201","4974","17","Male","false","true","false","true","""event"",""trial"",""time""
""blur"",""3"",""6627""
""focus"",""3"",""6629""
""fullscreenenter"",""5"",""11717""
","""event"",""trial"",""time""
""blur"",""3"",""6627""
","""event"",""trial"",""time""
""focus"",""3"",""6629""
","""event"",""trial"",""time""
""fullscreenenter"",""5"",""11717""
","
","772.8999999910593","","49","","","3000","1","","","images/earth.jpg","images/tutrocket1","images/tutrocket2","null","images/tutrocket2","","1","practice","null","1","","",""
"d3-animate-choice","62","147207","0.0-61.0-1.0","201","4974","17","Male","false","true","false","true","""event"",""trial"",""time""
""blur"",""3"",""6627""
""focus"",""3"",""6629""
""fullscreenenter"",""5"",""11717""
","""event"",""trial"",""time""
""blur"",""3"",""6627""
","""event"",""trial"",""time""
""focus"",""3"",""6629""
","""event"",""trial"",""time""
""fullscreenenter"",""5"",""11717""
","
","1054.7000000029802","","49","","","3000","1","","","images/tutyellowplanet.jpg","images/tutalien4","images/tutalien3","images/tutrocket2","images/tutalien3","images/t.png","2","practice","true","1","common","1","2022-12-05 23:44:39.133"
"two-step-fixation","63","148215","0.0-61.0-2.0","201","4974","17","Male","false","true","false","true","""event"",""trial"",""time""
""blur"",""3"",""6627""
""focus"",""3"",""6629""
""fullscreenenter"",""5"",""11717""
","""event"",""trial"",""time""
""blur"",""3"",""6627""
","""event"",""trial"",""time""
""focus"",""3"",""6629""
","""event"",""trial"",""time""
""fullscreenenter"",""5"",""11717""
","
","","images/earth.jpg","","","","","","","","","","","","","","fixation","","","","","",""
"d3-animate-choice","64","152232","0.0-61.0-0.1","201","4974","17","Male","false","true","false","true","""event"",""trial"",""time""
""blur"",""3"",""6627""
""focus"",""3"",""6629""
""fullscreenenter"",""5"",""11717""
","""event"",""trial"",""time""
""blur"",""3"",""6627""
","""event"",""trial"",""time""
""focus"",""3"",""6629""
","""event"",""trial"",""time""
""fullscreenenter"",""5"",""11717""
","
","2038","","48","","","3000","1","","","images/earth.jpg","images/tutrocket1","images/tutrocket2","null","images/tutrocket1","","1","practice","null","2","","",""
"d3-animate-choice","65","155527","0.0-61.0-1.1","201","4974","17","Male","false","true","false","true","""event"",""trial"",""time""
""blur"",""3"",""6627""
""focus"",""3"",""6629""
""fullscreenenter"",""5"",""11717""
","""event"",""trial"",""time""
""blur"",""3"",""6627""
","""event"",""trial"",""time""
""focus"",""3"",""6629""
","""event"",""trial"",""time""
""fullscreenenter"",""5"",""11717""
","
","1289.5999999940395","","48","","","3000","1","","","images/tutgreenplanet.jpg","images/tutalien2","images/tutalien1","images/tutrocket1","images/tutalien2","images/nothing.png","2","practice","true","2","common","0","2022-12-05 23:44:47.452"
"two-step-fixation","66","156535","0.0-61.0-2.1","201","4974","17","Male","false","true","false","true","""event"",""trial"",""time""
""blur"",""3"",""6627""
""focus"",""3"",""6629""
""fullscreenenter"",""5"",""11717""
","""event"",""trial"",""time""
""blur"",""3"",""6627""
","""event"",""trial"",""time""
""focus"",""3"",""6629""
","""event"",""trial"",""time""
""fullscreenenter"",""5"",""11717""
","
","","images/earth.jpg","","","","","","","","","","","","","","fixation","","","","","",""
"d3-animate-choice","67","158887","0.0-61.0-0.2","201","4974","17","Male","false","true","false","true","""event"",""trial"",""time""
""blur"",""3"",""6627""
""focus"",""3"",""6629""
""fullscreenenter"",""5"",""11717""
","""event"",""trial"",""time""
""blur"",""3"",""6627""
","""event"",""trial"",""time""
""focus"",""3"",""6629""
","""event"",""trial"",""time""
""fullscreenenter"",""5"",""11717""
","
","344.6000000089407","","49","","","3000","1","","","images/earth.jpg","images/tutrocket1","images/tutrocket2","null","images/tutrocket2","","1","practice","null","1","","",""
"d3-animate-choice","68","161631","0.0-61.0-1.2","201","4974","17","Male","false","true","false","true","""event"",""trial"",""time""
""blur"",""3"",""6627""
""focus"",""3"",""6629""
""fullscreenenter"",""5"",""11717""
","""event"",""trial"",""time""
""blur"",""3"",""6627""
","""event"",""trial"",""time""
""focus"",""3"",""6629""
","""event"",""trial"",""time""
""fullscreenenter"",""5"",""11717""
","
","737.5","","49","","","3000","1","","","images/tutgreenplanet.jpg","images/tutalien2","images/tutalien1","images/tutrocket2","images/tutalien1","images/nothing.png","2","practice","false","1","rare","0","2022-12-05 23:44:53.556"
"two-step-fixation","69","162639","0.0-61.0-2.2","201","4974","17","Male","false","true","false","true","""event"",""trial"",""time""
""blur"",""3"",""6627""
""focus"",""3"",""6629""
""fullscreenenter"",""5"",""11717""
","""event"",""trial"",""time""
""blur"",""3"",""6627""
","""event"",""trial"",""time""
""focus"",""3"",""6629""
","""event"",""trial"",""time""
""fullscreenenter"",""5"",""11717""
","
","","images/earth.jpg","","","","","","","","","","","","","","fixation","","","","","",""
"d3-animate-choice","70","164975","0.0-61.0-0.3","201","4974","17","Male","false","true","false","true","""event"",""trial"",""time""
""blur"",""3"",""6627""
""focus"",""3"",""6629""
""fullscreenenter"",""5"",""11717""
","""event"",""trial"",""time""
""blur"",""3"",""6627""
","""event"",""trial"",""time""
""focus"",""3"",""6629""
","""event"",""trial"",""time""
""fullscreenenter"",""5"",""11717""
","
","323.80000001192093","","49","","","3000","1","","","images/earth.jpg","images/tutrocket1","images/tutrocket2","null","images/tutrocket2","","1","practice","null","1","","",""
"d3-animate-choice","71","167367","0.0-61.0-1.3","201","4974","17","Male","false","true","false","true","""event"",""trial"",""time""
""blur"",""3"",""6627""
""focus"",""3"",""6629""
""fullscreenenter"",""5"",""11717""
","""event"",""trial"",""time""
""blur"",""3"",""6627""
","""event"",""trial"",""time""
""focus"",""3"",""6629""
","""event"",""trial"",""time""
""fullscreenenter"",""5"",""11717""
","
","383.79999999701977","","48","","","3000","1","","","images/tutyellowplanet.jpg","images/tutalien4","images/tutalien3","images/tutrocket2","images/tutalien4","images/t.png","2","practice","true","2","common","1","2022-12-05 23:44:59.292"
"two-step-fixation","72","168375","0.0-61.0-2.3","201","4974","17","Male","false","true","false","true","""event"",""trial"",""time""
""blur"",""3"",""6627""
""focus"",""3"",""6629""
""fullscreenenter"",""5"",""11717""
","""event"",""trial"",""time""
""blur"",""3"",""6627""
","""event"",""trial"",""time""
""focus"",""3"",""6629""
","""event"",""trial"",""time""
""fullscreenenter"",""5"",""11717""
","
","","images/earth.jpg","","","","","","","","","","","","","","fixation","","","","","",""
"d3-animate-choice","73","170679","0.0-61.0-0.4","201","4974","17","Male","false","true","false","true","""event"",""trial"",""time""
""blur"",""3"",""6627""
""focus"",""3"",""6629""
""fullscreenenter"",""5"",""11717""
","""event"",""trial"",""time""
""blur"",""3"",""6627""
","""event"",""trial"",""time""
""focus"",""3"",""6629""
","""event"",""trial"",""time""
""fullscreenenter"",""5"",""11717""
","
","292.3999999910593","","49","","","3000","1","","","images/earth.jpg","images/tutrocket1","images/tutrocket2","null","images/tutrocket2","","1","practice","null","1","","",""
"d3-animate-choice","74","173415","0.0-61.0-1.4","201","4974","17","Male","false","true","false","true","""event"",""trial"",""time""
""blur"",""3"",""6627""
""focus"",""3"",""6629""
""fullscreenenter"",""5"",""11717""
","""event"",""trial"",""time""
""blur"",""3"",""6627""
","""event"",""trial"",""time""
""focus"",""3"",""6629""
","""event"",""trial"",""time""
""fullscreenenter"",""5"",""11717""
","
","727.5","","48","","","3000","1","","","images/tutyellowplanet.jpg","images/tutalien4","images/tutalien3","images/tutrocket2","images/tutalien4","images/t.png","2","practice","true","2","common","1","2022-12-05 23:45:05.340"
"two-step-fixation","75","174423","0.0-61.0-2.4","201","4974","17","Male","false","true","false","true","""event"",""trial"",""time""
""blur"",""3"",""6627""
""focus"",""3"",""6629""
""fullscreenenter"",""5"",""11717""
","""event"",""trial"",""time""
""blur"",""3"",""6627""
","""event"",""trial"",""time""
""focus"",""3"",""6629""
","""event"",""trial"",""time""
""fullscreenenter"",""5"",""11717""
","
","","images/earth.jpg","","","","","","","","","","","","","","fixation","","","","","",""
"d3-animate-choice","76","176743","0.0-61.0-0.5","201","4974","17","Male","false","true","false","true","""event"",""trial"",""time""
""blur"",""3"",""6627""
""focus"",""3"",""6629""
""fullscreenenter"",""5"",""11717""
","""event"",""trial"",""time""
""blur"",""3"",""6627""
","""event"",""trial"",""time""
""focus"",""3"",""6629""
","""event"",""trial"",""time""
""fullscreenenter"",""5"",""11717""
","
","312.79999999701977","","49","","","3000","1","","","images/earth.jpg","images/tutrocket1","images/tutrocket2","null","images/tutrocket2","","1","practice","null","1","","",""
"d3-animate-choice","77","179079","0.0-61.0-1.5","201","4974","17","Male","false","true","false","true","""event"",""trial"",""time""
""blur"",""3"",""6627""
""focus"",""3"",""6629""
""fullscreenenter"",""5"",""11717""
","""event"",""trial"",""time""
""blur"",""3"",""6627""
","""event"",""trial"",""time""
""focus"",""3"",""6629""
","""event"",""trial"",""time""
""fullscreenenter"",""5"",""11717""
","
","327.29999999701977","","48","","","3000","1","","","images/tutyellowplanet.jpg","images/tutalien4","images/tutalien3","images/tutrocket2","images/tutalien4","images/t.png","2","practice","true","2","common","1","2022-12-05 23:45:11.004"
"two-step-fixation","78","180087","0.0-61.0-2.5","201","4974","17","Male","false","true","false","true","""event"",""trial"",""time""
""blur"",""3"",""6627""
""focus"",""3"",""6629""
""fullscreenenter"",""5"",""11717""
","""event"",""trial"",""time""
""blur"",""3"",""6627""
","""event"",""trial"",""time""
""focus"",""3"",""6629""
","""event"",""trial"",""time""
""fullscreenenter"",""5"",""11717""
","
","","images/earth.jpg","","","","","","","","","","","","","","fixation","","","","","",""
"d3-animate-choice","79","182427","0.0-61.0-0.6","201","4974","17","Male","false","true","false","true","""event"",""trial"",""time""
""blur"",""3"",""6627""
""focus"",""3"",""6629""
""fullscreenenter"",""5"",""11717""
","""event"",""trial"",""time""
""blur"",""3"",""6627""
","""event"",""trial"",""time""
""focus"",""3"",""6629""
","""event"",""trial"",""time""
""fullscreenenter"",""5"",""11717""
","
","335.29999999701977","","49","","","3000","1","2166","48","images/earth.jpg","images/tutrocket1","images/tutrocket2","null","images/tutrocket2","","1","practice","null","1","","",""
"d3-animate-choice","80","184983","0.0-61.0-1.6","201","4974","17","Male","false","true","false","true","""event"",""trial"",""time""
""blur"",""3"",""6627""
""focus"",""3"",""6629""
""fullscreenenter"",""5"",""11717""
","""event"",""trial"",""time""
""blur"",""3"",""6627""
","""event"",""trial"",""time""
""focus"",""3"",""6629""
","""event"",""trial"",""time""
""fullscreenenter"",""5"",""11717""
","
","545.9000000059605","","48","","","3000","1","1030.2000000029802","48","images/tutyellowplanet.jpg","images/tutalien4","images/tutalien3","images/tutrocket2","images/tutalien4","images/t.png","2","practice","true","2","common","1","2022-12-05 23:45:16.908"
"two-step-fixation","81","185991","0.0-61.0-2.6","201","4974","17","Male","false","true","false","true","""event"",""trial"",""time""
""blur"",""3"",""6627""
""focus"",""3"",""6629""
""fullscreenenter"",""5"",""11717""
","""event"",""trial"",""time""
""blur"",""3"",""6627""
","""event"",""trial"",""time""
""focus"",""3"",""6629""
","""event"",""trial"",""time""
""fullscreenenter"",""5"",""11717""
","
","","images/earth.jpg","","","","","","","","","","","","","","fixation","","","","","",""
"d3-animate-choice","82","188279","0.0-61.0-0.7","201","4974","17","Male","false","true","false","true","""event"",""trial"",""time""
""blur"",""3"",""6627""
""focus"",""3"",""6629""
""fullscreenenter"",""5"",""11717""
","""event"",""trial"",""time""
""blur"",""3"",""6627""
","""event"",""trial"",""time""
""focus"",""3"",""6629""
","""event"",""trial"",""time""
""fullscreenenter"",""5"",""11717""
","
","278.59999999403954","","49","","","3000","1","","","images/earth.jpg","images/tutrocket1","images/tutrocket2","null","images/tutrocket2","","1","practice","null","1","","",""
"d3-animate-choice","83","190623","0.0-61.0-1.7","201","4974","17","Male","false","true","false","true","""event"",""trial"",""time""
""blur"",""3"",""6627""
""focus"",""3"",""6629""
""fullscreenenter"",""5"",""11717""
","""event"",""trial"",""time""
""blur"",""3"",""6627""
","""event"",""trial"",""time""
""focus"",""3"",""6629""
","""event"",""trial"",""time""
""fullscreenenter"",""5"",""11717""
","
","337.3999999910593","","48","","","3000","1","","","images/tutyellowplanet.jpg","images/tutalien4","images/tutalien3","images/tutrocket2","images/tutalien4","images/nothing.png","2","practice","true","2","common","0","2022-12-05 23:45:22.548"
"two-step-fixation","84","191631","0.0-61.0-2.7","201","4974","17","Male","false","true","false","true","""event"",""trial"",""time""
""blur"",""3"",""6627""
""focus"",""3"",""6629""
""fullscreenenter"",""5"",""11717""
","""event"",""trial"",""time""
""blur"",""3"",""6627""
","""event"",""trial"",""time""
""focus"",""3"",""6629""
","""event"",""trial"",""time""
""fullscreenenter"",""5"",""11717""
","
","","images/earth.jpg","","","","","","","","","","","","","","fixation","","","","","",""
"d3-animate-choice","85","193999","0.0-61.0-0.8","201","4974","17","Male","false","true","false","true","""event"",""trial"",""time""
""blur"",""3"",""6627""
""focus"",""3"",""6629""
""fullscreenenter"",""5"",""11717""
","""event"",""trial"",""time""
""blur"",""3"",""6627""
","""event"",""trial"",""time""
""focus"",""3"",""6629""
","""event"",""trial"",""time""
""fullscreenenter"",""5"",""11717""
","
","359.70000000298023","","48","","","3000","1","","","images/earth.jpg","images/tutrocket1","images/tutrocket2","null","images/tutrocket1","","1","practice","null","2","","",""
"d3-animate-choice","86","196576","0.0-61.0-1.8","201","4974","17","Male","false","true","false","true","""event"",""trial"",""time""
""blur"",""3"",""6627""
""focus"",""3"",""6629""
""fullscreenenter"",""5"",""11717""
","""event"",""trial"",""time""
""blur"",""3"",""6627""
","""event"",""trial"",""time""
""focus"",""3"",""6629""
","""event"",""trial"",""time""
""fullscreenenter"",""5"",""11717""
","
","567","","49","","","3000","1","","","images/tutyellowplanet.jpg","images/tutalien4","images/tutalien3","images/tutrocket1","images/tutalien3","images/nothing.png","2","practice","false","1","rare","0","2022-12-05 23:45:28.501"
"two-step-fixation","87","197583","0.0-61.0-2.8","201","4974","17","Male","false","true","false","true","""event"",""trial"",""time""
""blur"",""3"",""6627""
""focus"",""3"",""6629""
""fullscreenenter"",""5"",""11717""
","""event"",""trial"",""time""
""blur"",""3"",""6627""
","""event"",""trial"",""time""
""focus"",""3"",""6629""
","""event"",""trial"",""time""
""fullscreenenter"",""5"",""11717""
","
","","images/earth.jpg","","","","","","","","","","","","","","fixation","","","","","",""
"d3-animate-choice","88","199863","0.0-61.0-0.9","201","4974","17","Male","false","true","false","true","""event"",""trial"",""time""
""blur"",""3"",""6627""
""focus"",""3"",""6629""
""fullscreenenter"",""5"",""11717""
","""event"",""trial"",""time""
""blur"",""3"",""6627""
","""event"",""trial"",""time""
""focus"",""3"",""6629""
","""event"",""trial"",""time""
""fullscreenenter"",""5"",""11717""
","
","273.6000000089407","","48","","","3000","1","","","images/earth.jpg","images/tutrocket1","images/tutrocket2","null","images/tutrocket1","","1","practice","null","2","","",""
"d3-animate-choice","89","202527","0.0-61.0-1.9","201","4974","17","Male","false","true","false","true","""event"",""trial"",""time""
""blur"",""3"",""6627""
""focus"",""3"",""6629""
""fullscreenenter"",""5"",""11717""
","""event"",""trial"",""time""
""blur"",""3"",""6627""
","""event"",""trial"",""time""
""focus"",""3"",""6629""
","""event"",""trial"",""time""
""fullscreenenter"",""5"",""11717""
","
","652.6000000089407","","49","","","3000","1","","","images/tutgreenplanet.jpg","images/tutalien2","images/tutalien1","images/tutrocket1","images/tutalien1","images/nothing.png","2","practice","true","1","common","0","2022-12-05 23:45:34.452"
"two-step-fixation","90","203535","0.0-61.0-2.9","201","4974","17","Male","false","true","false","true","""event"",""trial"",""time""
""blur"",""3"",""6627""
""focus"",""3"",""6629""
""fullscreenenter"",""5"",""11717""
","""event"",""trial"",""time""
""blur"",""3"",""6627""
","""event"",""trial"",""time""
""focus"",""3"",""6629""
","""event"",""trial"",""time""
""fullscreenenter"",""5"",""11717""
","
","","images/earth.jpg","","","","","","","","","","","","","","fixation","","","","","",""
"d3-animate-choice","91","205823","0.0-61.0-0.10","201","4974","17","Male","false","true","false","true","""event"",""trial"",""time""
""blur"",""3"",""6627""
""focus"",""3"",""6629""
""fullscreenenter"",""5"",""11717""
","""event"",""trial"",""time""
""blur"",""3"",""6627""
","""event"",""trial"",""time""
""focus"",""3"",""6629""
","""event"",""trial"",""time""
""fullscreenenter"",""5"",""11717""
","
","282.59999999403954","","48","","","3000","1","","","images/earth.jpg","images/tutrocket1","images/tutrocket2","null","images/tutrocket1","","1","practice","null","2","","",""
"d3-animate-choice","92","208199","0.0-61.0-1.10","201","4974","17","Male","false","true","false","true","""event"",""trial"",""time""
""blur"",""3"",""6627""
""focus"",""3"",""6629""
""fullscreenenter"",""5"",""11717""
","""event"",""trial"",""time""
""blur"",""3"",""6627""
","""event"",""trial"",""time""
""focus"",""3"",""6629""
","""event"",""trial"",""time""
""fullscreenenter"",""5"",""11717""
","
","371.5","","49","","","3000","1","","","images/tutgreenplanet.jpg","images/tutalien2","images/tutalien1","images/tutrocket1","images/tutalien1","images/nothing.png","2","practice","true","1","common","0","2022-12-05 23:45:40.124"
"two-step-fixation","93","209207","0.0-61.0-2.10","201","4974","17","Male","false","true","false","true","""event"",""trial"",""time""
""blur"",""3"",""6627""
""focus"",""3"",""6629""
""fullscreenenter"",""5"",""11717""
","""event"",""trial"",""time""
""blur"",""3"",""6627""
","""event"",""trial"",""time""
""focus"",""3"",""6629""
","""event"",""trial"",""time""
""fullscreenenter"",""5"",""11717""
","
","","images/earth.jpg","","","","","","","","","","","","","","fixation","","","","","",""
"d3-animate-choice","94","211495","0.0-61.0-0.11","201","4974","17","Male","false","true","false","true","""event"",""trial"",""time""
""blur"",""3"",""6627""
""focus"",""3"",""6629""
""fullscreenenter"",""5"",""11717""
","""event"",""trial"",""time""
""blur"",""3"",""6627""
","""event"",""trial"",""time""
""focus"",""3"",""6629""
","""event"",""trial"",""time""
""fullscreenenter"",""5"",""11717""
","
","283.5","","48","","","3000","1","","","images/earth.jpg","images/tutrocket1","images/tutrocket2","null","images/tutrocket1","","1","practice","null","2","","",""
"d3-animate-choice","95","213879","0.0-61.0-1.11","201","4974","17","Male","false","true","false","true","""event"",""trial"",""time""
""blur"",""3"",""6627""
""focus"",""3"",""6629""
""fullscreenenter"",""5"",""11717""
","""event"",""trial"",""time""
""blur"",""3"",""6627""
","""event"",""trial"",""time""
""focus"",""3"",""6629""
","""event"",""trial"",""time""
""fullscreenenter"",""5"",""11717""
","
","379.5","","48","","","3000","1","","","images/tutgreenplanet.jpg","images/tutalien2","images/tutalien1","images/tutrocket1","images/tutalien2","images/nothing.png","2","practice","true","2","common","0","2022-12-05 23:45:45.804"
"two-step-fixation","96","214887","0.0-61.0-2.11","201","4974","17","Male","false","true","false","true","""event"",""trial"",""time""
""blur"",""3"",""6627""
""focus"",""3"",""6629""
""fullscreenenter"",""5"",""11717""
","""event"",""trial"",""time""
""blur"",""3"",""6627""
","""event"",""trial"",""time""
""focus"",""3"",""6629""
","""event"",""trial"",""time""
""fullscreenenter"",""5"",""11717""
","
","","images/earth.jpg","","","","","","","","","","","","","","fixation","","","","","",""
"d3-animate-choice","97","217136","0.0-61.0-0.12","201","4974","17","Male","false","true","false","true","""event"",""trial"",""time""
""blur"",""3"",""6627""
""focus"",""3"",""6629""
""fullscreenenter"",""5"",""11717""
","""event"",""trial"",""time""
""blur"",""3"",""6627""
","""event"",""trial"",""time""
""focus"",""3"",""6629""
","""event"",""trial"",""time""
""fullscreenenter"",""5"",""11717""
","
","244.90000000596046","","48","","","3000","1","","","images/earth.jpg","images/tutrocket1","images/tutrocket2","null","images/tutrocket1","","1","practice","null","2","","",""
"d3-animate-choice","98","219719","0.0-61.0-1.12","201","4974","17","Male","false","true","false","true","""event"",""trial"",""time""
""blur"",""3"",""6627""
""focus"",""3"",""6629""
""fullscreenenter"",""5"",""11717""
","""event"",""trial"",""time""
""blur"",""3"",""6627""
","""event"",""trial"",""time""
""focus"",""3"",""6629""
","""event"",""trial"",""time""
""fullscreenenter"",""5"",""11717""
","
","578.5","","48","","","3000","1","","","images/tutgreenplanet.jpg","images/tutalien2","images/tutalien1","images/tutrocket1","images/tutalien2","images/nothing.png","2","practice","true","2","common","0","2022-12-05 23:45:51.644"
"two-step-fixation","99","220727","0.0-61.0-2.12","201","4974","17","Male","false","true","false","true","""event"",""trial"",""time""
""blur"",""3"",""6627""
""focus"",""3"",""6629""
""fullscreenenter"",""5"",""11717""
","""event"",""trial"",""time""
""blur"",""3"",""6627""
","""event"",""trial"",""time""
""focus"",""3"",""6629""
","""event"",""trial"",""time""
""fullscreenenter"",""5"",""11717""
","
","","images/earth.jpg","","","","","","","","","","","","","","fixation","","","","","",""
"d3-animate-choice","100","223031","0.0-61.0-0.13","201","4974","17","Male","false","true","false","true","""event"",""trial"",""time""
""blur"",""3"",""6627""
""focus"",""3"",""6629""
""fullscreenenter"",""5"",""11717""
","""event"",""trial"",""time""
""blur"",""3"",""6627""
","""event"",""trial"",""time""
""focus"",""3"",""6629""
","""event"",""trial"",""time""
""fullscreenenter"",""5"",""11717""
","
","294.5","","49","","","3000","1","","","images/earth.jpg","images/tutrocket1","images/tutrocket2","null","images/tutrocket2","","1","practice","null","1","","",""
"d3-animate-choice","101","225415","0.0-61.0-1.13","201","4974","17","Male","false","true","false","true","""event"",""trial"",""time""
""blur"",""3"",""6627""
""focus"",""3"",""6629""
""fullscreenenter"",""5"",""11717""
","""event"",""trial"",""time""
""blur"",""3"",""6627""
","""event"",""trial"",""time""
""focus"",""3"",""6629""
","""event"",""trial"",""time""
""fullscreenenter"",""5"",""11717""
","
","377.30000001192093","","49","","","3000","1","","","images/tutyellowplanet.jpg","images/tutalien4","images/tutalien3","images/tutrocket2","images/tutalien3","images/nothing.png","2","practice","true","1","common","0","2022-12-05 23:45:57.340"
"two-step-fixation","102","226423","0.0-61.0-2.13","201","4974","17","Male","false","true","false","true","""event"",""trial"",""time""
""blur"",""3"",""6627""
""focus"",""3"",""6629""
""fullscreenenter"",""5"",""11717""
","""event"",""trial"",""time""
""blur"",""3"",""6627""
","""event"",""trial"",""time""
""focus"",""3"",""6629""
","""event"",""trial"",""time""
""fullscreenenter"",""5"",""11717""
","
","","images/earth.jpg","","","","","","","","","","","","","","fixation","","","","","",""
"d3-animate-choice","103","228751","0.0-61.0-0.14","201","4974","17","Male","false","true","false","true","""event"",""trial"",""time""
""blur"",""3"",""6627""
""focus"",""3"",""6629""
""fullscreenenter"",""5"",""11717""
","""event"",""trial"",""time""
""blur"",""3"",""6627""
","""event"",""trial"",""time""
""focus"",""3"",""6629""
","""event"",""trial"",""time""
""fullscreenenter"",""5"",""11717""
","
","317.29999999701977","","49","","","3000","1","","","images/earth.jpg","images/tutrocket1","images/tutrocket2","null","images/tutrocket2","","1","practice","null","1","","",""
"d3-animate-choice","104","231344","0.0-61.0-1.14","201","4974","17","Male","false","true","false","true","""event"",""trial"",""time""
""blur"",""3"",""6627""
""focus"",""3"",""6629""
""fullscreenenter"",""5"",""11717""
","""event"",""trial"",""time""
""blur"",""3"",""6627""
","""event"",""trial"",""time""
""focus"",""3"",""6629""
","""event"",""trial"",""time""
""fullscreenenter"",""5"",""11717""
","
","587.7999999970198","","48","","","3000","1","","","images/tutyellowplanet.jpg","images/tutalien4","images/tutalien3","images/tutrocket2","images/tutalien4","images/t.png","2","practice","true","2","common","1","2022-12-05 23:46:03.269"
"two-step-fixation","105","232351","0.0-61.0-2.14","201","4974","17","Male","false","true","false","true","""event"",""trial"",""time""
""blur"",""3"",""6627""
""focus"",""3"",""6629""
""fullscreenenter"",""5"",""11717""
","""event"",""trial"",""time""
""blur"",""3"",""6627""
","""event"",""trial"",""time""
""focus"",""3"",""6629""
","""event"",""trial"",""time""
""fullscreenenter"",""5"",""11717""
","
","","images/earth.jpg","","","","","","","","","","","","","","fixation","","","","","",""
"d3-animate-choice","106","234655","0.0-61.0-0.15","201","4974","17","Male","false","true","false","true","""event"",""trial"",""time""
""blur"",""3"",""6627""
""focus"",""3"",""6629""
""fullscreenenter"",""5"",""11717""
","""event"",""trial"",""time""
""blur"",""3"",""6627""
","""event"",""trial"",""time""
""focus"",""3"",""6629""
","""event"",""trial"",""time""
""fullscreenenter"",""5"",""11717""
","
","293.90000000596046","","49","","","3000","1","","","images/earth.jpg","images/tutrocket1","images/tutrocket2","null","images/tutrocket2","","1","practice","null","1","","",""
"d3-animate-choice","107","236959","0.0-61.0-1.15","201","4974","17","Male","false","true","false","true","""event"",""trial"",""time""
""blur"",""3"",""6627""
""focus"",""3"",""6629""
""fullscreenenter"",""5"",""11717""
","""event"",""trial"",""time""
""blur"",""3"",""6627""
","""event"",""trial"",""time""
""focus"",""3"",""6629""
","""event"",""trial"",""time""
""fullscreenenter"",""5"",""11717""
","
","298.5","","48","","","3000","1","","","images/tutyellowplanet.jpg","images/tutalien4","images/tutalien3","images/tutrocket2","images/tutalien4","images/t.png","2","practice","true","2","common","1","2022-12-05 23:46:08.885"
"two-step-fixation","108","237967","0.0-61.0-2.15","201","4974","17","Male","false","true","false","true","""event"",""trial"",""time""
""blur"",""3"",""6627""
""focus"",""3"",""6629""
""fullscreenenter"",""5"",""11717""
","""event"",""trial"",""time""
""blur"",""3"",""6627""
","""event"",""trial"",""time""
""focus"",""3"",""6629""
","""event"",""trial"",""time""
""fullscreenenter"",""5"",""11717""
","
","","images/earth.jpg","","","","","","","","","","","","","","fixation","","","","","",""
"d3-animate-choice","109","240278","0.0-61.0-0.16","201","4974","17","Male","false","true","false","true","""event"",""trial"",""time""
""blur"",""3"",""6627""
""focus"",""3"",""6629""
""fullscreenenter"",""5"",""11717""
","""event"",""trial"",""time""
""blur"",""3"",""6627""
","""event"",""trial"",""time""
""focus"",""3"",""6629""
","""event"",""trial"",""time""
""fullscreenenter"",""5"",""11717""
","
","302.40000000596046","","49","","","3000","1","","","images/earth.jpg","images/tutrocket1","images/tutrocket2","null","images/tutrocket2","","1","practice","null","1","","",""
"d3-animate-choice","110","242776","0.0-61.0-1.16","201","4974","17","Male","false","true","false","true","""event"",""trial"",""time""
""blur"",""3"",""6627""
""focus"",""3"",""6629""
""fullscreenenter"",""5"",""11717""
","""event"",""trial"",""time""
""blur"",""3"",""6627""
","""event"",""trial"",""time""
""focus"",""3"",""6629""
","""event"",""trial"",""time""
""fullscreenenter"",""5"",""11717""
","
","493.3999999910593","","48","","","3000","1","","","images/tutgreenplanet.jpg","images/tutalien2","images/tutalien1","images/tutrocket2","images/tutalien2","images/nothing.png","2","practice","false","2","rare","0","2022-12-05 23:46:14.701"
"two-step-fixation","111","243783","0.0-61.0-2.16","201","4974","17","Male","false","true","false","true","""event"",""trial"",""time""
""blur"",""3"",""6627""
""focus"",""3"",""6629""
""fullscreenenter"",""5"",""11717""
","""event"",""trial"",""time""
""blur"",""3"",""6627""
","""event"",""trial"",""time""
""focus"",""3"",""6629""
","""event"",""trial"",""time""
""fullscreenenter"",""5"",""11717""
","
","","images/earth.jpg","","","","","","","","","","","","","","fixation","","","","","",""
"d3-animate-choice","112","246157","0.0-61.0-0.17","201","4974","17","Male","false","true","false","true","""event"",""trial"",""time""
""blur"",""3"",""6627""
""focus"",""3"",""6629""
""fullscreenenter"",""5"",""11717""
","""event"",""trial"",""time""
""blur"",""3"",""6627""
","""event"",""trial"",""time""
""focus"",""3"",""6629""
","""event"",""trial"",""time""
""fullscreenenter"",""5"",""11717""
","
","365.40000000596046","","48","","","3000","1","","","images/earth.jpg","images/tutrocket1","images/tutrocket2","null","images/tutrocket1","","1","practice","null","2","","",""
"d3-animate-choice","113","249143","0.0-61.0-1.17","201","4974","17","Male","false","true","false","true","""event"",""trial"",""time""
""blur"",""3"",""6627""
""focus"",""3"",""6629""
""fullscreenenter"",""5"",""11717""
","""event"",""trial"",""time""
""blur"",""3"",""6627""
","""event"",""trial"",""time""
""focus"",""3"",""6629""
","""event"",""trial"",""time""
""fullscreenenter"",""5"",""11717""
","
","978.1999999880791","","49","","","3000","1","","","images/tutgreenplanet.jpg","images/tutalien2","images/tutalien1","images/tutrocket1","images/tutalien1","images/t.png","2","practice","true","1","common","1","2022-12-05 23:46:21.069"
"two-step-fixation","114","250151","0.0-61.0-2.17","201","4974","17","Male","false","true","false","true","""event"",""trial"",""time""
""blur"",""3"",""6627""
""focus"",""3"",""6629""
""fullscreenenter"",""5"",""11717""
","""event"",""trial"",""time""
""blur"",""3"",""6627""
","""event"",""trial"",""time""
""focus"",""3"",""6629""
","""event"",""trial"",""time""
""fullscreenenter"",""5"",""11717""
","
","","images/earth.jpg","","","","","","","","","","","","","","fixation","","","","","",""
"d3-animate-choice","115","252447","0.0-61.0-0.18","201","4974","17","Male","false","true","false","true","""event"",""trial"",""time""
""blur"",""3"",""6627""
""focus"",""3"",""6629""
""fullscreenenter"",""5"",""11717""
","""event"",""trial"",""time""
""blur"",""3"",""6627""
","""event"",""trial"",""time""
""focus"",""3"",""6629""
","""event"",""trial"",""time""
""fullscreenenter"",""5"",""11717""
","
","291.19999998807907","","48","","","3000","1","","","images/earth.jpg","images/tutrocket1","images/tutrocket2","null","images/tutrocket1","","1","practice","null","2","","",""
"d3-animate-choice","116","254703","0.0-61.0-1.18","201","4974","17","Male","false","true","false","true","""event"",""trial"",""time""
""blur"",""3"",""6627""
""focus"",""3"",""6629""
""fullscreenenter"",""5"",""11717""
","""event"",""trial"",""time""
""blur"",""3"",""6627""
","""event"",""trial"",""time""
""focus"",""3"",""6629""
","""event"",""trial"",""time""
""fullscreenenter"",""5"",""11717""
","
","248.70000000298023","","49","","","3000","1","","","images/tutyellowplanet.jpg","images/tutalien4","images/tutalien3","images/tutrocket1","images/tutalien3","images/t.png","2","practice","false","1","rare","1","2022-12-05 23:46:26.628"
"two-step-fixation","117","255711","0.0-61.0-2.18","201","4974","17","Male","false","true","false","true","""event"",""trial"",""time""
""blur"",""3"",""6627""
""focus"",""3"",""6629""
""fullscreenenter"",""5"",""11717""
","""event"",""trial"",""time""
""blur"",""3"",""6627""
","""event"",""trial"",""time""
""focus"",""3"",""6629""
","""event"",""trial"",""time""
""fullscreenenter"",""5"",""11717""
","
","","images/earth.jpg","","","","","","","","","","","","","","fixation","","","","","",""
"d3-animate-choice","118","258055","0.0-61.0-0.19","201","4974","17","Male","false","true","false","true","""event"",""trial"",""time""
""blur"",""3"",""6627""
""focus"",""3"",""6629""
""fullscreenenter"",""5"",""11717""
","""event"",""trial"",""time""
""blur"",""3"",""6627""
","""event"",""trial"",""time""
""focus"",""3"",""6629""
","""event"",""trial"",""time""
""fullscreenenter"",""5"",""11717""
","
","333.40000000596046","","48","","","3000","1","","","images/earth.jpg","images/tutrocket1","images/tutrocket2","null","images/tutrocket1","","1","practice","null","2","","",""
"d3-animate-choice","119","260583","0.0-61.0-1.19","201","4974","17","Male","false","true","false","true","""event"",""trial"",""time""
""blur"",""3"",""6627""
""focus"",""3"",""6629""
""fullscreenenter"",""5"",""11717""
","""event"",""trial"",""time""
""blur"",""3"",""6627""
","""event"",""trial"",""time""
""focus"",""3"",""6629""
","""event"",""trial"",""time""
""fullscreenenter"",""5"",""11717""
","
","522.2000000029802","","49","","","3000","1","","","images/tutgreenplanet.jpg","images/tutalien2","images/tutalien1","images/tutrocket1","images/tutalien1","images/t.png","2","practice","true","1","common","1","2022-12-05 23:46:32.508"
"two-step-fixation","120","261591","0.0-61.0-2.19","201","4974","17","Male","false","true","false","true","""event"",""trial"",""time""
""blur"",""3"",""6627""
""focus"",""3"",""6629""
""fullscreenenter"",""5"",""11717""
","""event"",""trial"",""time""
""blur"",""3"",""6627""
","""event"",""trial"",""time""
""focus"",""3"",""6629""
","""event"",""trial"",""time""
""fullscreenenter"",""5"",""11717""
","
","","images/earth.jpg","","","","","","","","","","","","","","fixation","","","","","",""
"d3-instructions","121","265477","0.0-62.0","201","4974","17","Male","false","true","false","true","""event"",""trial"",""time""
""blur"",""3"",""6627""
""focus"",""3"",""6629""
""fullscreenenter"",""5"",""11717""
","""event"",""trial"",""time""
""blur"",""3"",""6627""
","""event"",""trial"",""time""
""focus"",""3"",""6629""
","""event"",""trial"",""time""
""fullscreenenter"",""5"",""11717""
","
","","","","","","","","","","","","","","","","","","","","","",""
"audio-keyboard-response","122","267258","0.0-63.0","201","4974","17","Male","false","true","false","true","""event"",""trial"",""time""
""blur"",""3"",""6627""
""focus"",""3"",""6629""
""fullscreenenter"",""5"",""11717""
","""event"",""trial"",""time""
""blur"",""3"",""6627""
","""event"",""trial"",""time""
""focus"",""3"",""6629""
","""event"",""trial"",""time""
""fullscreenenter"",""5"",""11717""
","
","1781","audio/instructions/treasure_feedback.wav","32","","","","","","","","","","","","","","","","","","",""
"d3-instructions","123","269705","0.0-64.0","201","4974","17","Male","false","true","false","true","""event"",""trial"",""time""
""blur"",""3"",""6627""
""focus"",""3"",""6629""
""fullscreenenter"",""5"",""11717""
","""event"",""trial"",""time""
""blur"",""3"",""6627""
","""event"",""trial"",""time""
""focus"",""3"",""6629""
","""event"",""trial"",""time""
""fullscreenenter"",""5"",""11717""
","
","","","","","","","","","","","","","","","","","","","","","",""
"d3-instructions","124","271491","0.0-65.0","201","4974","17","Male","false","true","false","true","""event"",""trial"",""time""
""blur"",""3"",""6627""
""focus"",""3"",""6629""
""fullscreenenter"",""5"",""11717""
","""event"",""trial"",""time""
""blur"",""3"",""6627""
","""event"",""trial"",""time""
""focus"",""3"",""6629""
","""event"",""trial"",""time""
""fullscreenenter"",""5"",""11717""
","
","","","","","","","","","","","","","","","","","","","","","",""
"d3-instructions","125","273361","0.0-66.0","201","4974","17","Male","false","true","false","true","""event"",""trial"",""time""
""blur"",""3"",""6627""
""focus"",""3"",""6629""
""fullscreenenter"",""5"",""11717""
","""event"",""trial"",""time""
""blur"",""3"",""6627""
","""event"",""trial"",""time""
""focus"",""3"",""6629""
","""event"",""trial"",""time""
""fullscreenenter"",""5"",""11717""
","
","","","","","","","","","","","","","","","","","","","","","",""
"d3-instructions","126","274639","0.0-67.0","201","4974","17","Male","false","true","false","true","""event"",""trial"",""time""
""blur"",""3"",""6627""
""focus"",""3"",""6629""
""fullscreenenter"",""5"",""11717""
","""event"",""trial"",""time""
""blur"",""3"",""6627""
","""event"",""trial"",""time""
""focus"",""3"",""6629""
","""event"",""trial"",""time""
""fullscreenenter"",""5"",""11717""
","
","","","","","","","","","","","","","","","","","","","","","",""
"d3-instructions","127","276025","0.0-68.0","201","4974","17","Male","false","true","false","true","""event"",""trial"",""time""
""blur"",""3"",""6627""
""focus"",""3"",""6629""
""fullscreenenter"",""5"",""11717""
","""event"",""trial"",""time""
""blur"",""3"",""6627""
","""event"",""trial"",""time""
""focus"",""3"",""6629""
","""event"",""trial"",""time""
""fullscreenenter"",""5"",""11717""
","
","","","","","","","","","","","","","","","","","","","","","",""
"instructions-quiz","128","278365","0.0-69.0","201","4974","17","Male","false","true","false","true","""event"",""trial"",""time""
""blur"",""3"",""6627""
""focus"",""3"",""6629""
""fullscreenenter"",""5"",""11717""
","""event"",""trial"",""time""
""blur"",""3"",""6627""
","""event"",""trial"",""time""
""focus"",""3"",""6629""
","""event"",""trial"",""time""
""fullscreenenter"",""5"",""11717""
","
","2336.9000000059605","audio/quiz/Q1_Prompt.wav","","1","","","","","","","","","","","","","","","","","",""
"audio-keyboard-response","129","279450","0.0-70.0","201","4974","17","Male","false","true","false","true","""event"",""trial"",""time""
""blur"",""3"",""6627""
""focus"",""3"",""6629""
""fullscreenenter"",""5"",""11717""
","""event"",""trial"",""time""
""blur"",""3"",""6627""
","""event"",""trial"",""time""
""focus"",""3"",""6629""
","""event"",""trial"",""time""
""fullscreenenter"",""5"",""11717""
","
","1088","audio/quiz/Q1_Correct.wav","32","","","","","","","","","","","","","","","","","","",""
"instructions-quiz","130","282556","0.0-71.0","201","4974","17","Male","false","true","false","true","""event"",""trial"",""time""
""blur"",""3"",""6627""
""focus"",""3"",""6629""
""fullscreenenter"",""5"",""11717""
","""event"",""trial"",""time""
""blur"",""3"",""6627""
","""event"",""trial"",""time""
""focus"",""3"",""6629""
","""event"",""trial"",""time""
""fullscreenenter"",""5"",""11717""
","
","3103.2999999970198","audio/quiz/Q2_Prompt.wav","","1","","","","","","","","","","","","","","","","","",""
"audio-keyboard-response","131","283574","0.0-72.0","201","4974","17","Male","false","true","false","true","""event"",""trial"",""time""
""blur"",""3"",""6627""
""focus"",""3"",""6629""
""fullscreenenter"",""5"",""11717""
","""event"",""trial"",""time""
""blur"",""3"",""6627""
","""event"",""trial"",""time""
""focus"",""3"",""6629""
","""event"",""trial"",""time""
""fullscreenenter"",""5"",""11717""
","
","1013","audio/quiz/Q2_Incorrect.wav","32","","","","","","","","","","","","","","","","","","",""
"instructions-quiz","132","286044","0.0-73.0","201","4974","17","Male","false","true","false","true","""event"",""trial"",""time""
""blur"",""3"",""6627""
""focus"",""3"",""6629""
""fullscreenenter"",""5"",""11717""
","""event"",""trial"",""time""
""blur"",""3"",""6627""
","""event"",""trial"",""time""
""focus"",""3"",""6629""
","""event"",""trial"",""time""
""fullscreenenter"",""5"",""11717""
","
","2466.5999999940395","audio/quiz/Q3_Prompt.wav","","1","","","","","","","","","","","","","","","","","",""
"audio-keyboard-response","133","286660","0.0-74.0","201","4974","17","Male","false","true","false","true","""event"",""trial"",""time""
""blur"",""3"",""6627""
""focus"",""3"",""6629""
""fullscreenenter"",""5"",""11717""
","""event"",""trial"",""time""
""blur"",""3"",""6627""
","""event"",""trial"",""time""
""focus"",""3"",""6629""
","""event"",""trial"",""time""
""fullscreenenter"",""5"",""11717""
","
","608","audio/quiz/Q3_Correct.wav","32","","","","","","","","","","","","","","","","","","",""
"d3-instructions","134","288502","0.0-75.0","201","4974","17","Male","false","true","false","true","""event"",""trial"",""time""
""blur"",""3"",""6627""
""focus"",""3"",""6629""
""fullscreenenter"",""5"",""11717""
","""event"",""trial"",""time""
""blur"",""3"",""6627""
","""event"",""trial"",""time""
""focus"",""3"",""6629""
","""event"",""trial"",""time""
""fullscreenenter"",""5"",""11717""
","
","","","","","","","","","","","","","","","","","","","","","",""
"d3-animate-choice","135","291799","0.0-76.0-0.0","201","4974","17","Male","false","true","false","true","""event"",""trial"",""time""
""blur"",""3"",""6627""
""focus"",""3"",""6629""
""fullscreenenter"",""5"",""11717""
","""event"",""trial"",""time""
""blur"",""3"",""6627""
","""event"",""trial"",""time""
""focus"",""3"",""6629""
","""event"",""trial"",""time""
""fullscreenenter"",""5"",""11717""
","
","1287.8999999910593","","49","","","3000","1","","","images/earth.jpg","images/rocket1","images/rocket2","null","images/rocket2","","1","real","null","1","","",""
"d3-animate-choice","136","294471","0.0-76.0-1.0","201","4974","17","Male","false","true","false","true","""event"",""trial"",""time""
""blur"",""3"",""6627""
""focus"",""3"",""6629""
""fullscreenenter"",""5"",""11717""
","""event"",""trial"",""time""
""blur"",""3"",""6627""
","""event"",""trial"",""time""
""focus"",""3"",""6629""
","""event"",""trial"",""time""
""fullscreenenter"",""5"",""11717""
","
","662.9000000059605","","49","","","3000","1","","","images/purpleplanet.jpg","images/alien4","images/alien3","images/rocket2","images/alien3","images/nothing.png","2","real","true","1","common","0","2022-12-05 23:47:06.396"
"two-step-fixation","137","295479","0.0-76.0-2.0","201","4974","17","Male","false","true","false","true","""event"",""trial"",""time""
""blur"",""3"",""6627""
""focus"",""3"",""6629""
""fullscreenenter"",""5"",""11717""
","""event"",""trial"",""time""
""blur"",""3"",""6627""
","""event"",""trial"",""time""
""focus"",""3"",""6629""
","""event"",""trial"",""time""
""fullscreenenter"",""5"",""11717""
","
","","images/earth.jpg","","","","","","","","","","","","","","fixation","","","","","",""
"d3-animate-choice","138","297862","0.0-76.0-0.1","201","4974","17","Male","false","true","false","true","""event"",""trial"",""time""
""blur"",""3"",""6627""
""focus"",""3"",""6629""
""fullscreenenter"",""5"",""11717""
","""event"",""trial"",""time""
""blur"",""3"",""6627""
","""event"",""trial"",""time""
""focus"",""3"",""6629""
","""event"",""trial"",""time""
""fullscreenenter"",""5"",""11717""
","
","374.79999999701977","","49","","","3000","1","","","images/earth.jpg","images/rocket1","images/rocket2","null","images/rocket2","","1","real","null","1","","",""
"d3-animate-choice","139","300223","0.0-76.0-1.1","201","4974","17","Male","false","true","false","true","""event"",""trial"",""time""
""blur"",""3"",""6627""
""focus"",""3"",""6629""
""fullscreenenter"",""5"",""11717""
","""event"",""trial"",""time""
""blur"",""3"",""6627""
","""event"",""trial"",""time""
""focus"",""3"",""6629""
","""event"",""trial"",""time""
""fullscreenenter"",""5"",""11717""
","
","356.3999999910593","","48","","","3000","1","","","images/purpleplanet.jpg","images/alien4","images/alien3","images/rocket2","images/alien4","images/t.png","2","real","true","2","common","1","2022-12-05 23:47:12.148"
"two-step-fixation","140","301232","0.0-76.0-2.1","201","4974","17","Male","false","true","false","true","""event"",""trial"",""time""
""blur"",""3"",""6627""
""focus"",""3"",""6629""
""fullscreenenter"",""5"",""11717""
","""event"",""trial"",""time""
""blur"",""3"",""6627""
","""event"",""trial"",""time""
""focus"",""3"",""6629""
","""event"",""trial"",""time""
""fullscreenenter"",""5"",""11717""
","
","","images/earth.jpg","","","","","","","","","","","","","","fixation","","","","","",""
"d3-animate-choice","141","303567","0.0-76.0-0.2","201","4974","17","Male","false","true","false","true","""event"",""trial"",""time""
""blur"",""3"",""6627""
""focus"",""3"",""6629""
""fullscreenenter"",""5"",""11717""
","""event"",""trial"",""time""
""blur"",""3"",""6627""
","""event"",""trial"",""time""
""focus"",""3"",""6629""
","""event"",""trial"",""time""
""fullscreenenter"",""5"",""11717""
","
","328.90000000596046","","49","","","3000","1","","","images/earth.jpg","images/rocket1","images/rocket2","null","images/rocket2","","1","real","null","1","","",""
"d3-animate-choice","142","306263","0.0-76.0-1.2","201","4974","17","Male","false","true","false","true","""event"",""trial"",""time""
""blur"",""3"",""6627""
""focus"",""3"",""6629""
""fullscreenenter"",""5"",""11717""
","""event"",""trial"",""time""
""blur"",""3"",""6627""
","""event"",""trial"",""time""
""focus"",""3"",""6629""
","""event"",""trial"",""time""
""fullscreenenter"",""5"",""11717""
","
","686.7999999970198","","49","","","3000","1","","","images/redplanet1.jpg","images/alien2","images/alien1","images/rocket2","images/alien1","images/nothing.png","2","real","false","1","rare","0","2022-12-05 23:47:18.188"
"two-step-fixation","143","307270","0.0-76.0-2.2","201","4974","17","Male","false","true","false","true","""event"",""trial"",""time""
""blur"",""3"",""6627""
""focus"",""3"",""6629""
""fullscreenenter"",""5"",""11717""
","""event"",""trial"",""time""
""blur"",""3"",""6627""
","""event"",""trial"",""time""
""focus"",""3"",""6629""
","""event"",""trial"",""time""
""fullscreenenter"",""5"",""11717""
","
","","images/earth.jpg","","","","","","","","","","","","","","fixation","","","","","",""
"d3-animate-choice","144","309639","0.0-76.0-0.3","201","4974","17","Male","false","true","false","true","""event"",""trial"",""time""
""blur"",""3"",""6627""
""focus"",""3"",""6629""
""fullscreenenter"",""5"",""11717""
","""event"",""trial"",""time""
""blur"",""3"",""6627""
","""event"",""trial"",""time""
""focus"",""3"",""6629""
","""event"",""trial"",""time""
""fullscreenenter"",""5"",""11717""
","
","357.20000000298023","","49","","","3000","1","","","images/earth.jpg","images/rocket1","images/rocket2","null","images/rocket2","","1","real","null","1","","",""
"d3-animate-choice","145","312447","0.0-76.0-1.3","201","4974","17","Male","false","true","false","true","""event"",""trial"",""time""
""blur"",""3"",""6627""
""focus"",""3"",""6629""
""fullscreenenter"",""5"",""11717""
","""event"",""trial"",""time""
""blur"",""3"",""6627""
","""event"",""trial"",""time""
""focus"",""3"",""6629""
","""event"",""trial"",""time""
""fullscreenenter"",""5"",""11717""
","
","797.7000000029802","","48","","","3000","1","","","images/purpleplanet.jpg","images/alien4","images/alien3","images/rocket2","images/alien4","images/t.png","2","real","true","2","common","1","2022-12-05 23:47:24.372"
"two-step-fixation","146","313456","0.0-76.0-2.3","201","4974","17","Male","false","true","false","true","""event"",""trial"",""time""
""blur"",""3"",""6627""
""focus"",""3"",""6629""
""fullscreenenter"",""5"",""11717""
","""event"",""trial"",""time""
""blur"",""3"",""6627""
","""event"",""trial"",""time""
""focus"",""3"",""6629""
","""event"",""trial"",""time""
""fullscreenenter"",""5"",""11717""
","
","","images/earth.jpg","","","","","","","","","","","","","","fixation","","","","","",""
"d3-animate-choice","147","315815","0.0-76.0-0.4","201","4974","17","Male","false","true","false","true","""event"",""trial"",""time""
""blur"",""3"",""6627""
""focus"",""3"",""6629""
""fullscreenenter"",""5"",""11717""
","""event"",""trial"",""time""
""blur"",""3"",""6627""
","""event"",""trial"",""time""
""focus"",""3"",""6629""
","""event"",""trial"",""time""
""fullscreenenter"",""5"",""11717""
","
","354.69999998807907","","49","","","3000","1","","","images/earth.jpg","images/rocket1","images/rocket2","null","images/rocket2","","1","real","null","1","","",""
"d3-animate-choice","148","318191","0.0-76.0-1.4","201","4974","17","Male","false","true","false","true","""event"",""trial"",""time""
""blur"",""3"",""6627""
""focus"",""3"",""6629""
""fullscreenenter"",""5"",""11717""
","""event"",""trial"",""time""
""blur"",""3"",""6627""
","""event"",""trial"",""time""
""focus"",""3"",""6629""
","""event"",""trial"",""time""
""fullscreenenter"",""5"",""11717""
","
","366.29999999701977","","48","","","3000","1","","","images/purpleplanet.jpg","images/alien4","images/alien3","images/rocket2","images/alien4","images/t.png","2","real","true","2","common","1","2022-12-05 23:47:30.116"
"two-step-fixation","149","319199","0.0-76.0-2.4","201","4974","17","Male","false","true","false","true","""event"",""trial"",""time""
""blur"",""3"",""6627""
""focus"",""3"",""6629""
""fullscreenenter"",""5"",""11717""
","""event"",""trial"",""time""
""blur"",""3"",""6627""
","""event"",""trial"",""time""
""focus"",""3"",""6629""
","""event"",""trial"",""time""
""fullscreenenter"",""5"",""11717""
","
","","images/earth.jpg","","","","","","","","","","","","","","fixation","","","","","",""
"d3-animate-choice","150","321574","0.0-76.0-0.5","201","4974","17","Male","false","true","false","true","""event"",""trial"",""time""
""blur"",""3"",""6627""
""focus"",""3"",""6629""
""fullscreenenter"",""5"",""11717""
","""event"",""trial"",""time""
""blur"",""3"",""6627""
","""event"",""trial"",""time""
""focus"",""3"",""6629""
","""event"",""trial"",""time""
""fullscreenenter"",""5"",""11717""
","
","368.1000000089407","","49","","","3000","1","","","images/earth.jpg","images/rocket1","images/rocket2","null","images/rocket2","","1","real","null","1","","",""
"d3-animate-choice","151","323951","0.0-76.0-1.5","201","4974","17","Male","false","true","false","true","""event"",""trial"",""time""
""blur"",""3"",""6627""
""focus"",""3"",""6629""
""fullscreenenter"",""5"",""11717""
","""event"",""trial"",""time""
""blur"",""3"",""6627""
","""event"",""trial"",""time""
""focus"",""3"",""6629""
","""event"",""trial"",""time""
""fullscreenenter"",""5"",""11717""
","
","366.90000000596046","","48","","","3000","1","","","images/purpleplanet.jpg","images/alien4","images/alien3","images/rocket2","images/alien4","images/nothing.png","2","real","true","2","common","0","2022-12-05 23:47:35.876"
"two-step-fixation","152","324955","0.0-76.0-2.5","201","4974","17","Male","false","true","false","true","""event"",""trial"",""time""
""blur"",""3"",""6627""
""focus"",""3"",""6629""
""fullscreenenter"",""5"",""11717""
","""event"",""trial"",""time""
""blur"",""3"",""6627""
","""event"",""trial"",""time""
""focus"",""3"",""6629""
","""event"",""trial"",""time""
""fullscreenenter"",""5"",""11717""
","
","","images/earth.jpg","","","","","","","","","","","","","","fixation","","","","","",""
"d3-animate-choice","153","327383","0.0-76.0-0.6","201","4974","17","Male","false","true","false","true","""event"",""trial"",""time""
""blur"",""3"",""6627""
""focus"",""3"",""6629""
""fullscreenenter"",""5"",""11717""
","""event"",""trial"",""time""
""blur"",""3"",""6627""
","""event"",""trial"",""time""
""focus"",""3"",""6629""
","""event"",""trial"",""time""
""fullscreenenter"",""5"",""11717""
","
","417","","48","","","3000","1","","","images/earth.jpg","images/rocket1","images/rocket2","null","images/rocket1","","1","real","null","2","","",""
"d3-animate-choice","154","329867","0.0-76.0-1.6","201","4974","17","Male","false","true","false","true","""event"",""trial"",""time""
""blur"",""3"",""6627""
""focus"",""3"",""6629""
""fullscreenenter"",""5"",""11717""
","""event"",""trial"",""time""
""blur"",""3"",""6627""
","""event"",""trial"",""time""
""focus"",""3"",""6629""
","""event"",""trial"",""time""
""fullscreenenter"",""5"",""11717""
","
","476.09999999403954","","49","","","3000","1","","","images/redplanet1.jpg","images/alien2","images/alien1","images/rocket1","images/alien1","images/t.png","2","real","true","1","common","1","2022-12-05 23:47:41.792"
"two-step-fixation","155","330871","0.0-76.0-2.6","201","4974","17","Male","false","true","false","true","""event"",""trial"",""time""
""blur"",""3"",""6627""
""focus"",""3"",""6629""
""fullscreenenter"",""5"",""11717""
","""event"",""trial"",""time""
""blur"",""3"",""6627""
","""event"",""trial"",""time""
""focus"",""3"",""6629""
","""event"",""trial"",""time""
""fullscreenenter"",""5"",""11717""
","
","","images/earth.jpg","","","","","","","","","","","","","","fixation","","","","","",""
"d3-animate-choice","156","333175","0.0-76.0-0.7","201","4974","17","Male","false","true","false","true","""event"",""trial"",""time""
""blur"",""3"",""6627""
""focus"",""3"",""6629""
""fullscreenenter"",""5"",""11717""
","""event"",""trial"",""time""
""blur"",""3"",""6627""
","""event"",""trial"",""time""
""focus"",""3"",""6629""
","""event"",""trial"",""time""
""fullscreenenter"",""5"",""11717""
","
","299.70000000298023","","48","","","3000","1","","","images/earth.jpg","images/rocket1","images/rocket2","null","images/rocket1","","1","real","null","2","","",""
"d3-animate-choice","157","335695","0.0-76.0-1.7","201","4974","17","Male","false","true","false","true","""event"",""trial"",""time""
""blur"",""3"",""6627""
""focus"",""3"",""6629""
""fullscreenenter"",""5"",""11717""
","""event"",""trial"",""time""
""blur"",""3"",""6627""
","""event"",""trial"",""time""
""focus"",""3"",""6629""
","""event"",""trial"",""time""
""fullscreenenter"",""5"",""11717""
","
","515.3999999910593","","49","","","3000","1","","","images/redplanet1.jpg","images/alien2","images/alien1","images/rocket1","images/alien1","images/t.png","2","real","true","1","common","1","2022-12-05 23:47:47.620"
"two-step-fixation","158","336703","0.0-76.0-2.7","201","4974","17","Male","false","true","false","true","""event"",""trial"",""time""
""blur"",""3"",""6627""
""focus"",""3"",""6629""
""fullscreenenter"",""5"",""11717""
","""event"",""trial"",""time""
""blur"",""3"",""6627""
","""event"",""trial"",""time""
""focus"",""3"",""6629""
","""event"",""trial"",""time""
""fullscreenenter"",""5"",""11717""
","
","","images/earth.jpg","","","","","","","","","","","","","","fixation","","","","","",""
"d3-animate-choice","159","339009","0.0-76.0-0.8","201","4974","17","Male","false","true","false","true","""event"",""trial"",""time""
""blur"",""3"",""6627""
""focus"",""3"",""6629""
""fullscreenenter"",""5"",""11717""
","""event"",""trial"",""time""
""blur"",""3"",""6627""
","""event"",""trial"",""time""
""focus"",""3"",""6629""
","""event"",""trial"",""time""
""fullscreenenter"",""5"",""11717""
","
","302.59999999403954","","48","","","3000","1","","","images/earth.jpg","images/rocket1","images/rocket2","null","images/rocket1","","1","real","null","2","","",""
"d3-animate-choice","160","341415","0.0-76.0-1.8","201","4974","17","Male","false","true","false","true","""event"",""trial"",""time""
""blur"",""3"",""6627""
""focus"",""3"",""6629""
""fullscreenenter"",""5"",""11717""
","""event"",""trial"",""time""
""blur"",""3"",""6627""
","""event"",""trial"",""time""
""focus"",""3"",""6629""
","""event"",""trial"",""time""
""fullscreenenter"",""5"",""11717""
","
","400.40000000596046","","49","","","3000","1","","","images/redplanet1.jpg","images/alien2","images/alien1","images/rocket1","images/alien1","images/nothing.png","2","real","true","1","common","0","2022-12-05 23:47:53.340"
"two-step-fixation","161","342423","0.0-76.0-2.8","201","4974","17","Male","false","true","false","true","""event"",""trial"",""time""
""blur"",""3"",""6627""
""focus"",""3"",""6629""
""fullscreenenter"",""5"",""11717""
","""event"",""trial"",""time""
""blur"",""3"",""6627""
","""event"",""trial"",""time""
""focus"",""3"",""6629""
","""event"",""trial"",""time""
""fullscreenenter"",""5"",""11717""
","
","","images/earth.jpg","","","","","","","","","","","","","","fixation","","","","","",""
"d3-animate-choice","162","344719","0.0-76.0-0.9","201","4974","17","Male","false","true","false","true","""event"",""trial"",""time""
""blur"",""3"",""6627""
""focus"",""3"",""6629""
""fullscreenenter"",""5"",""11717""
","""event"",""trial"",""time""
""blur"",""3"",""6627""
","""event"",""trial"",""time""
""focus"",""3"",""6629""
","""event"",""trial"",""time""
""fullscreenenter"",""5"",""11717""
","
","286.79999999701977","","48","","","3000","1","","","images/earth.jpg","images/rocket1","images/rocket2","null","images/rocket1","","1","real","null","2","","",""
"d3-animate-choice","163","347039","0.0-76.0-1.9","201","4974","17","Male","false","true","false","true","""event"",""trial"",""time""
""blur"",""3"",""6627""
""focus"",""3"",""6629""
""fullscreenenter"",""5"",""11717""
","""event"",""trial"",""time""
""blur"",""3"",""6627""
","""event"",""trial"",""time""
""focus"",""3"",""6629""
","""event"",""trial"",""time""
""fullscreenenter"",""5"",""11717""
","
","312.1000000089407","","48","","","3000","1","","","images/redplanet1.jpg","images/alien2","images/alien1","images/rocket1","images/alien2","images/t.png","2","real","true","2","common","1","2022-12-05 23:47:58.964"
"two-step-fixation","164","348047","0.0-76.0-2.9","201","4974","17","Male","false","true","false","true","""event"",""trial"",""time""
""blur"",""3"",""6627""
""focus"",""3"",""6629""
""fullscreenenter"",""5"",""11717""
","""event"",""trial"",""time""
""blur"",""3"",""6627""
","""event"",""trial"",""time""
""focus"",""3"",""6629""
","""event"",""trial"",""time""
""fullscreenenter"",""5"",""11717""
","
","","images/earth.jpg","","","","","","","","","","","","","","fixation","","","","","",""
"d3-animate-choice","165","350359","0.0-76.0-0.10","201","4974","17","Male","false","true","false","true","""event"",""trial"",""time""
""blur"",""3"",""6627""
""focus"",""3"",""6629""
""fullscreenenter"",""5"",""11717""
","""event"",""trial"",""time""
""blur"",""3"",""6627""
","""event"",""trial"",""time""
""focus"",""3"",""6629""
","""event"",""trial"",""time""
""fullscreenenter"",""5"",""11717""
","
","308.5","","48","","","3000","1","","","images/earth.jpg","images/rocket1","images/rocket2","null","images/rocket1","","1","real","null","2","","",""
"d3-animate-choice","166","352671","0.0-76.0-1.10","201","4974","17","Male","false","true","false","true","""event"",""trial"",""time""
""blur"",""3"",""6627""
""focus"",""3"",""6629""
""fullscreenenter"",""5"",""11717""
","""event"",""trial"",""time""
""blur"",""3"",""6627""
","""event"",""trial"",""time""
""focus"",""3"",""6629""
","""event"",""trial"",""time""
""fullscreenenter"",""5"",""11717""
","
","303.29999999701977","","48","","","3000","1","","","images/redplanet1.jpg","images/alien2","images/alien1","images/rocket1","images/alien2","images/t.png","2","real","true","2","common","1","2022-12-05 23:48:04.596"
"two-step-fixation","167","353679","0.0-76.0-2.10","201","4974","17","Male","false","true","false","true","""event"",""trial"",""time""
""blur"",""3"",""6627""
""focus"",""3"",""6629""
""fullscreenenter"",""5"",""11717""
","""event"",""trial"",""time""
""blur"",""3"",""6627""
","""event"",""trial"",""time""
""focus"",""3"",""6629""
","""event"",""trial"",""time""
""fullscreenenter"",""5"",""11717""
","
","","images/earth.jpg","","","","","","","","","","","","","","fixation","","","","","",""
"d3-animate-choice","168","355967","0.0-76.0-0.11","201","4974","17","Male","false","true","false","true","""event"",""trial"",""time""
""blur"",""3"",""6627""
""focus"",""3"",""6629""
""fullscreenenter"",""5"",""11717""
","""event"",""trial"",""time""
""blur"",""3"",""6627""
","""event"",""trial"",""time""
""focus"",""3"",""6629""
","""event"",""trial"",""time""
""fullscreenenter"",""5"",""11717""
","
","280.90000000596046","","48","","","3000","1","","","images/earth.jpg","images/rocket1","images/rocket2","null","images/rocket1","","1","real","null","2","","",""
"d3-animate-choice","169","358303","0.0-76.0-1.11","201","4974","17","Male","false","true","false","true","""event"",""trial"",""time""
""blur"",""3"",""6627""
""focus"",""3"",""6629""
""fullscreenenter"",""5"",""11717""
","""event"",""trial"",""time""
""blur"",""3"",""6627""
","""event"",""trial"",""time""
""focus"",""3"",""6629""
","""event"",""trial"",""time""
""fullscreenenter"",""5"",""11717""
","
","326.79999999701977","","48","","","3000","1","","","images/redplanet1.jpg","images/alien2","images/alien1","images/rocket1","images/alien2","images/t.png","2","real","true","2","common","1","2022-12-05 23:48:10.228"
"two-step-fixation","170","359311","0.0-76.0-2.11","201","4974","17","Male","false","true","false","true","""event"",""trial"",""time""
""blur"",""3"",""6627""
""focus"",""3"",""6629""
""fullscreenenter"",""5"",""11717""
","""event"",""trial"",""time""
""blur"",""3"",""6627""
","""event"",""trial"",""time""
""focus"",""3"",""6629""
","""event"",""trial"",""time""
""fullscreenenter"",""5"",""11717""
","
","","images/earth.jpg","","","","","","","","","","","","","","fixation","","","","","",""
"d3-animate-choice","171","361663","0.0-76.0-0.12","201","4974","17","Male","false","true","false","true","""event"",""trial"",""time""
""blur"",""3"",""6627""
""focus"",""3"",""6629""
""fullscreenenter"",""5"",""11717""
","""event"",""trial"",""time""
""blur"",""3"",""6627""
","""event"",""trial"",""time""
""focus"",""3"",""6629""
","""event"",""trial"",""time""
""fullscreenenter"",""5"",""11717""
","
","340.79999999701977","","48","","","3000","1","","","images/earth.jpg","images/rocket1","images/rocket2","null","images/rocket1","","1","real","null","2","","",""
"d3-animate-choice","172","363988","0.0-76.0-1.12","201","4974","17","Male","false","true","false","true","""event"",""trial"",""time""
""blur"",""3"",""6627""
""focus"",""3"",""6629""
""fullscreenenter"",""5"",""11717""
","""event"",""trial"",""time""
""blur"",""3"",""6627""
","""event"",""trial"",""time""
""focus"",""3"",""6629""
","""event"",""trial"",""time""
""fullscreenenter"",""5"",""11717""
","
","318.59999999403954","","48","","","3000","1","","","images/redplanet1.jpg","images/alien2","images/alien1","images/rocket1","images/alien2","images/nothing.png","2","real","true","2","common","0","2022-12-05 23:48:15.913"
"two-step-fixation","173","364991","0.0-76.0-2.12","201","4974","17","Male","false","true","false","true","""event"",""trial"",""time""
""blur"",""3"",""6627""
""focus"",""3"",""6629""
""fullscreenenter"",""5"",""11717""
","""event"",""trial"",""time""
""blur"",""3"",""6627""
","""event"",""trial"",""time""
""focus"",""3"",""6629""
","""event"",""trial"",""time""
""fullscreenenter"",""5"",""11717""
","
","","images/earth.jpg","","","","","","","","","","","","","","fixation","","","","","",""
"d3-animate-choice","174","367383","0.0-76.0-0.13","201","4974","17","Male","false","true","false","true","""event"",""trial"",""time""
""blur"",""3"",""6627""
""focus"",""3"",""6629""
""fullscreenenter"",""5"",""11717""
","""event"",""trial"",""time""
""blur"",""3"",""6627""
","""event"",""trial"",""time""
""focus"",""3"",""6629""
","""event"",""trial"",""time""
""fullscreenenter"",""5"",""11717""
","
","383","","49","","","3000","1","","","images/earth.jpg","images/rocket1","images/rocket2","null","images/rocket2","","1","real","null","1","","",""
"d3-animate-choice","175","370015","0.0-76.0-1.13","201","4974","17","Male","false","true","false","true","""event"",""trial"",""time""
""blur"",""3"",""6627""
""focus"",""3"",""6629""
""fullscreenenter"",""5"",""11717""
","""event"",""trial"",""time""
""blur"",""3"",""6627""
","""event"",""trial"",""time""
""focus"",""3"",""6629""
","""event"",""trial"",""time""
""fullscreenenter"",""5"",""11717""
","
","623","","48","","","3000","1","","","images/purpleplanet.jpg","images/alien4","images/alien3","images/rocket2","images/alien4","images/t.png","2","real","true","2","common","1","2022-12-05 23:48:21.940"
"two-step-fixation","176","371023","0.0-76.0-2.13","201","4974","17","Male","false","true","false","true","""event"",""trial"",""time""
""blur"",""3"",""6627""
""focus"",""3"",""6629""
""fullscreenenter"",""5"",""11717""
","""event"",""trial"",""time""
""blur"",""3"",""6627""
","""event"",""trial"",""time""
""focus"",""3"",""6629""
","""event"",""trial"",""time""
""fullscreenenter"",""5"",""11717""
","
","","images/earth.jpg","","","","","","","","","","","","","","fixation","","","","","",""
"d3-animate-choice","177","373375","0.0-76.0-0.14","201","4974","17","Male","false","true","false","true","""event"",""trial"",""time""
""blur"",""3"",""6627""
""focus"",""3"",""6629""
""fullscreenenter"",""5"",""11717""
","""event"",""trial"",""time""
""blur"",""3"",""6627""
","""event"",""trial"",""time""
""focus"",""3"",""6629""
","""event"",""trial"",""time""
""fullscreenenter"",""5"",""11717""
","
","341.70000000298023","","49","","","3000","1","","","images/earth.jpg","images/rocket1","images/rocket2","null","images/rocket2","","1","real","null","1","","",""
"d3-animate-choice","178","375759","0.0-76.0-1.14","201","4974","17","Male","false","true","false","true","""event"",""trial"",""time""
""blur"",""3"",""6627""
""focus"",""3"",""6629""
""fullscreenenter"",""5"",""11717""
","""event"",""trial"",""time""
""blur"",""3"",""6627""
","""event"",""trial"",""time""
""focus"",""3"",""6629""
","""event"",""trial"",""time""
""fullscreenenter"",""5"",""11717""
","
","378.3999999910593","","48","","","3000","1","","","images/purpleplanet.jpg","images/alien4","images/alien3","images/rocket2","images/alien4","images/nothing.png","2","real","true","2","common","0","2022-12-05 23:48:27.684"
"two-step-fixation","179","376767","0.0-76.0-2.14","201","4974","17","Male","false","true","false","true","""event"",""trial"",""time""
""blur"",""3"",""6627""
""focus"",""3"",""6629""
""fullscreenenter"",""5"",""11717""
","""event"",""trial"",""time""
""blur"",""3"",""6627""
","""event"",""trial"",""time""
""focus"",""3"",""6629""
","""event"",""trial"",""time""
""fullscreenenter"",""5"",""11717""
","
