"trial_type","trial_index","time_elapsed","internal_node_id","participant_id","subject_id","age","gender","rocket_sides","red_planet_first_rocket","red_display_order","purple_display_order","interactions","blur_events","focus_events","fullscreenenter_events","fullscreenexit_events","rt","stimulus","key_press","button_pressed","success","duration","valid_pressed","rts","keys","planet_text","right_text","left_text","center_text","chosen_text","reward_text","trial_stage","practice_trial","transition_type","choice","reward","timestamp","transition"
"pavlovia","0","9","0.0-0.0","1352","1662","15","Female","true","false","false","false","
","
","
","
","
","","","","","","","","","","","","","","","","","","","","","",""
"html-keyboard-response","1","2185","0.0-1.0","1352","1662","15","Female","true","false","false","false","
","
","
","
","
","2175","Welcome! Press the space bar to begin.","32","","","","","","","","","","","","","","","","","","",""
"audio-keyboard-response","2","14465","0.0-2.0","1352","1662","15","Female","true","false","false","false","
","
","
","
","
","4429","audio/beep_loop.wav","32","","","","","","","","","","","","","","","","","","",""
"audio-button-response","3","17154","0.0-3.0","1352","1662","15","Female","true","false","false","false","
","
","
","
","
","NaN","audio/fish.mp3","","1","","","","","","","","","","","","","","","","","",""
"audio-button-response","4","20410","0.0-4.0","1352","1662","15","Female","true","false","false","false","""event"",""trial"",""time""
""fullscreenenter"",""5"",""25999""
","
","
","""event"",""trial"",""time""
""fullscreenenter"",""5"",""25999""
","
","NaN","audio/tiger.mp3","","4","","","","","","","","","","","","","","","","","",""
"fullscreen","5","26963","0.0-5.0","1352","1662","15","Female","true","false","false","false","""event"",""trial"",""time""
""fullscreenenter"",""5"",""25999""
","
","
","""event"",""trial"",""time""
""fullscreenenter"",""5"",""25999""
","
","","","","","true","","","","","","","","","","","","","","","","",""
"d3-instructions","6","40853","0.0-6.0","1352","1662","15","Female","true","false","false","false","""event"",""trial"",""time""
""fullscreenenter"",""5"",""25999""
","
","
","""event"",""trial"",""time""
""fullscreenenter"",""5"",""25999""
","
","","","","","","","","","","","","","","","","","","","","","",""
"d3-instructions","7","51295","0.0-7.0","1352","1662","15","Female","true","false","false","false","""event"",""trial"",""time""
""fullscreenenter"",""5"",""25999""
","
","
","""event"",""trial"",""time""
""fullscreenenter"",""5"",""25999""
","
","","","","","","","","","","","","","","","","","","","","","",""
"d3-instructions","8","58655","0.0-8.0","1352","1662","15","Female","true","false","false","false","""event"",""trial"",""time""
""fullscreenenter"",""5"",""25999""
","
","
","""event"",""trial"",""time""
""fullscreenenter"",""5"",""25999""
","
","","","","","","","","","","","","","","","","","","","","","",""
"d3-instructions","9","71235","0.0-9.0","1352","1662","15","Female","true","false","false","false","""event"",""trial"",""time""
""fullscreenenter"",""5"",""25999""
","
","
","""event"",""trial"",""time""
""fullscreenenter"",""5"",""25999""
","
","","","","","","","","","","","","","","","","","","","","","",""
"d3-instructions","10","92549","0.0-10.0","1352","1662","15","Female","true","false","false","false","""event"",""trial"",""time""
""fullscreenenter"",""5"",""25999""
","
","
","""event"",""trial"",""time""
""fullscreenenter"",""5"",""25999""
","
","","","","","","","","","","","","","","","","","","","","","",""
"d3-animate-choice","11","96213","0.0-11.0","1352","1662","15","Female","true","false","false","false","""event"",""trial"",""time""
""fullscreenenter"",""5"",""25999""
","
","
","""event"",""trial"",""time""
""fullscreenenter"",""5"",""25999""
","
","1653","","49","","","3000","1","","","images/tutgreenplanet.jpg","images/tutalien1","images/tutalien2","null","images/tutalien2","","NA","practice","null","","","",""
"d3-animate-choice","12","103675","0.0-12.0","1352","1662","15","Female","true","false","false","false","""event"",""trial"",""time""
""fullscreenenter"",""5"",""25999""
","
","
","""event"",""trial"",""time""
""fullscreenenter"",""5"",""25999""
","
","1726","","50","","","3000","1","3649,5012,5458","32,50,49","images/tutgreenplanet.jpg","images/tutalien1","images/tutalien2","null","images/tutalien2","","NA","practice","null","","","",""
"d3-animate-choice","13","106652","0.0-13.0","1352","1662","15","Female","true","false","false","false","""event"",""trial"",""time""
""fullscreenenter"",""5"",""25999""
","
","
","""event"",""trial"",""time""
""fullscreenenter"",""5"",""25999""
","
","974","","48","","","3000","1","","","images/tutgreenplanet.jpg","images/tutalien1","images/tutalien2","null","images/tutalien1","","NA","practice","null","","","",""
"d3-animate-choice","14","109803","0.0-14.0","1352","1662","15","Female","true","false","false","false","""event"",""trial"",""time""
""fullscreenenter"",""5"",""25999""
","
","
","""event"",""trial"",""time""
""fullscreenenter"",""5"",""25999""
","
","1148","","48","","","3000","1","","","images/tutgreenplanet.jpg","images/tutalien1","images/tutalien2","null","images/tutalien1","","NA","practice","null","","","",""
"d3-instructions","15","116233","0.0-15.0","1352","1662","15","Female","true","false","false","false","""event"",""trial"",""time""
""fullscreenenter"",""5"",""25999""
","
","
","""event"",""trial"",""time""
""fullscreenenter"",""5"",""25999""
","
","","","","","","","","","","","","","","","","","","","","","",""
"d3-instructions","16","122815","0.0-16.0","1352","1662","15","Female","true","false","false","false","""event"",""trial"",""time""
""fullscreenenter"",""5"",""25999""
","
","
","""event"",""trial"",""time""
""fullscreenenter"",""5"",""25999""
","
","","","","","","","","","","","","","","","","","","","","","",""
"d3-instructions","17","131775","0.0-17.0","1352","1662","15","Female","true","false","false","false","""event"",""trial"",""time""
""fullscreenenter"",""5"",""25999""
","
","
","""event"",""trial"",""time""
""fullscreenenter"",""5"",""25999""
","
","","","","","","","","","","","","","","","","","","","","","",""
"d3-instructions","18","145452","0.0-18.0","1352","1662","15","Female","true","false","false","false","""event"",""trial"",""time""
""fullscreenenter"",""5"",""25999""
","
","
","""event"",""trial"",""time""
""fullscreenenter"",""5"",""25999""
","
","","","","","","","","","","","","","","","","","","","","","",""
"d3-instructions","19","160156","0.0-19.0","1352","1662","15","Female","true","false","false","false","""event"",""trial"",""time""
""fullscreenenter"",""5"",""25999""
","
","
","""event"",""trial"",""time""
""fullscreenenter"",""5"",""25999""
","
","","","","","","","","","","","","","","","","","","","","","",""
"d3-animate-choice","20","163590","0.0-20.0","1352","1662","15","Female","true","false","false","false","""event"",""trial"",""time""
""fullscreenenter"",""5"",""25999""
","
","
","""event"",""trial"",""time""
""fullscreenenter"",""5"",""25999""
","
","1431","","49","","","3000","1","","","images/tutyellowplanet.jpg","null","images/tutalien3","null","images/tutalien3","images/t.png","NA","practice","null","","","",""
"d3-animate-choice","21","166028","0.0-21.0","1352","1662","15","Female","true","false","false","false","""event"",""trial"",""time""
""fullscreenenter"",""5"",""25999""
","
","
","""event"",""trial"",""time""
""fullscreenenter"",""5"",""25999""
","
","435","","49","","","3000","1","","","images/tutyellowplanet.jpg","null","images/tutalien3","null","images/tutalien3","images/t.png","NA","practice","null","","","",""
"d3-animate-choice","22","168419","0.0-22.0","1352","1662","15","Female","true","false","false","false","""event"",""trial"",""time""
""fullscreenenter"",""5"",""25999""
","
","
","""event"",""trial"",""time""
""fullscreenenter"",""5"",""25999""
","
","388","","49","","","3000","1","","","images/tutyellowplanet.jpg","null","images/tutalien3","null","images/tutalien3","images/t.png","NA","practice","null","","","",""
"d3-animate-choice","23","170802","0.0-23.0","1352","1662","15","Female","true","false","false","false","""event"",""trial"",""time""
""fullscreenenter"",""5"",""25999""
","
","
","""event"",""trial"",""time""
""fullscreenenter"",""5"",""25999""
","
","381","","49","","","3000","1","","","images/tutyellowplanet.jpg","null","images/tutalien3","null","images/tutalien3","images/t.png","NA","practice","null","","","",""
"d3-animate-choice","24","173211","0.0-24.0","1352","1662","15","Female","true","false","false","false","""event"",""trial"",""time""
""fullscreenenter"",""5"",""25999""
","
","
","""event"",""trial"",""time""
""fullscreenenter"",""5"",""25999""
","
","406","","49","","","3000","1","","","images/tutyellowplanet.jpg","null","images/tutalien3","null","images/tutalien3","images/t.png","NA","practice","null","","","",""
"d3-animate-choice","25","175567","0.0-25.0","1352","1662","15","Female","true","false","false","false","""event"",""trial"",""time""
""fullscreenenter"",""5"",""25999""
","
","
","""event"",""trial"",""time""
""fullscreenenter"",""5"",""25999""
","
","353","","49","","","3000","1","2201,2343","49,49","images/tutyellowplanet.jpg","null","images/tutalien3","null","images/tutalien3","images/t.png","NA","practice","null","","","",""
"d3-animate-choice","26","178042","0.0-26.0","1352","1662","15","Female","true","false","false","false","""event"",""trial"",""time""
""fullscreenenter"",""5"",""25999""
","
","
","""event"",""trial"",""time""
""fullscreenenter"",""5"",""25999""
","
","474","","49","","","3000","1","","","images/tutyellowplanet.jpg","null","images/tutalien3","null","images/tutalien3","images/t.png","NA","practice","null","","","",""
"d3-animate-choice","27","180529","0.0-27.0","1352","1662","15","Female","true","false","false","false","""event"",""trial"",""time""
""fullscreenenter"",""5"",""25999""
","
","
","""event"",""trial"",""time""
""fullscreenenter"",""5"",""25999""
","
","485","","49","","","3000","1","","","images/tutyellowplanet.jpg","null","images/tutalien3","null","images/tutalien3","images/nothing.png","NA","practice","null","","","",""
"d3-animate-choice","28","183184","0.0-28.0","1352","1662","15","Female","true","false","false","false","""event"",""trial"",""time""
""fullscreenenter"",""5"",""25999""
","
","
","""event"",""trial"",""time""
""fullscreenenter"",""5"",""25999""
","
","652","","49","","","3000","1","","","images/tutyellowplanet.jpg","null","images/tutalien3","null","images/tutalien3","images/t.png","NA","practice","null","","","",""
"d3-animate-choice","29","185581","0.0-29.0","1352","1662","15","Female","true","false","false","false","""event"",""trial"",""time""
""fullscreenenter"",""5"",""25999""
","
","
","""event"",""trial"",""time""
""fullscreenenter"",""5"",""25999""
","
","394","","49","","","3000","1","","","images/tutyellowplanet.jpg","null","images/tutalien3","null","images/tutalien3","images/t.png","NA","practice","null","","","",""
"d3-instructions","30","190057","0.0-30.0","1352","1662","15","Female","true","false","false","false","""event"",""trial"",""time""
""fullscreenenter"",""5"",""25999""
","
","
","""event"",""trial"",""time""
""fullscreenenter"",""5"",""25999""
","
","","","","","","","","","","","","","","","","","","","","","",""
"d3-instructions","31","197257","0.0-31.0","1352","1662","15","Female","true","false","false","false","""event"",""trial"",""time""
""fullscreenenter"",""5"",""25999""
","
","
","""event"",""trial"",""time""
""fullscreenenter"",""5"",""25999""
","
","","","","","","","","","","","","","","","","","","","","","",""
"d3-instructions","32","201832","0.0-32.0","1352","1662","15","Female","true","false","false","false","""event"",""trial"",""time""
""fullscreenenter"",""5"",""25999""
","
","
","""event"",""trial"",""time""
""fullscreenenter"",""5"",""25999""
","
","","","","","","","","","","","","","","","","","","","","","",""
"d3-instructions","33","205463","0.0-33.0","1352","1662","15","Female","true","false","false","false","""event"",""trial"",""time""
""fullscreenenter"",""5"",""25999""
","
","
","""event"",""trial"",""time""
""fullscreenenter"",""5"",""25999""
","
","","","","","","","","","","","","","","","","","","","","","",""
"d3-animate-choice","34","208769","0.0-34.0","1352","1662","15","Female","true","false","false","false","""event"",""trial"",""time""
""fullscreenenter"",""5"",""25999""
","
","
","""event"",""trial"",""time""
""fullscreenenter"",""5"",""25999""
","
","1303","","49","","","3000","1","","","images/tutgreenplanet.jpg","images/tutalien1","images/tutalien2","null","images/tutalien2","images/t.png","NA","practice","null","","","",""
"d3-animate-choice","35","211533","0.0-35.0","1352","1662","15","Female","true","false","false","false","""event"",""trial"",""time""
""fullscreenenter"",""5"",""25999""
","
","
","""event"",""trial"",""time""
""fullscreenenter"",""5"",""25999""
","
","761","","48","","","3000","1","","","images/tutgreenplanet.jpg","images/tutalien1","images/tutalien2","null","images/tutalien1","images/nothing.png","NA","practice","null","","","",""
"d3-animate-choice","36","214114","0.0-36.0","1352","1662","15","Female","true","false","false","false","""event"",""trial"",""time""
""fullscreenenter"",""5"",""25999""
","
","
","""event"",""trial"",""time""
""fullscreenenter"",""5"",""25999""
","
","579","","48","","","3000","1","","","images/tutgreenplanet.jpg","images/tutalien1","images/tutalien2","null","images/tutalien1","images/t.png","NA","practice","null","","","",""
"d3-animate-choice","37","216838","0.0-37.0","1352","1662","15","Female","true","false","false","false","""event"",""trial"",""time""
""fullscreenenter"",""5"",""25999""
","
","
","""event"",""trial"",""time""
""fullscreenenter"",""5"",""25999""
","
","721","","48","","","3000","1","","","images/tutgreenplanet.jpg","images/tutalien1","images/tutalien2","null","images/tutalien1","images/nothing.png","NA","practice","null","","","",""
"d3-animate-choice","38","219209","0.0-38.0","1352","1662","15","Female","true","false","false","false","""event"",""trial"",""time""
""fullscreenenter"",""5"",""25999""
","
","
","""event"",""trial"",""time""
""fullscreenenter"",""5"",""25999""
","
","368","","49","","","3000","1","","","images/tutgreenplanet.jpg","images/tutalien1","images/tutalien2","null","images/tutalien2","images/t.png","NA","practice","null","","","",""
"d3-animate-choice","39","221625","0.0-39.0","1352","1662","15","Female","true","false","false","false","""event"",""trial"",""time""
""fullscreenenter"",""5"",""25999""
","
","
","""event"",""trial"",""time""
""fullscreenenter"",""5"",""25999""
","
","413","","49","","","3000","1","","","images/tutgreenplanet.jpg","images/tutalien1","images/tutalien2","null","images/tutalien2","images/t.png","NA","practice","null","","","",""
"d3-animate-choice","40","224118","0.0-40.0","1352","1662","15","Female","true","false","false","false","""event"",""trial"",""time""
""fullscreenenter"",""5"",""25999""
","
","
","""event"",""trial"",""time""
""fullscreenenter"",""5"",""25999""
","
","491","","49","","","3000","1","","","images/tutgreenplanet.jpg","images/tutalien1","images/tutalien2","null","images/tutalien2","images/nothing.png","NA","practice","null","","","",""
"d3-animate-choice","41","226469","0.0-41.0","1352","1662","15","Female","true","false","false","false","""event"",""trial"",""time""
""fullscreenenter"",""5"",""25999""
","
","
","""event"",""trial"",""time""
""fullscreenenter"",""5"",""25999""
","
","348","","49","","","3000","1","","","images/tutgreenplanet.jpg","images/tutalien1","images/tutalien2","null","images/tutalien2","images/t.png","NA","practice","null","","","",""
"d3-animate-choice","42","228892","0.0-42.0","1352","1662","15","Female","true","false","false","false","""event"",""trial"",""time""
""fullscreenenter"",""5"",""25999""
","
","
","""event"",""trial"",""time""
""fullscreenenter"",""5"",""25999""
","
","420","","49","","","3000","1","","","images/tutgreenplanet.jpg","images/tutalien1","images/tutalien2","null","images/tutalien2","images/t.png","NA","practice","null","","","",""
"d3-animate-choice","43","231335","0.0-43.0","1352","1662","15","Female","true","false","false","false","""event"",""trial"",""time""
""fullscreenenter"",""5"",""25999""
","
","
","""event"",""trial"",""time""
""fullscreenenter"",""5"",""25999""
","
","441","","48","","","3000","1","","","images/tutgreenplanet.jpg","images/tutalien1","images/tutalien2","null","images/tutalien1","images/nothing.png","NA","practice","null","","","",""
"d3-instructions","44","241357","0.0-44.0","1352","1662","15","Female","true","false","false","false","""event"",""trial"",""time""
""fullscreenenter"",""5"",""25999""
","
","
","""event"",""trial"",""time""
""fullscreenenter"",""5"",""25999""
","
","","","","","","","","","","","","","","","","","","","","","",""
"d3-instructions","45","245030","0.0-45.0","1352","1662","15","Female","true","false","false","false","""event"",""trial"",""time""
""fullscreenenter"",""5"",""25999""
","
","
","""event"",""trial"",""time""
""fullscreenenter"",""5"",""25999""
","
","","","","","","","","","","","","","","","","","","","","","",""
"d3-instructions","46","248503","0.0-46.0","1352","1662","15","Female","true","false","false","false","""event"",""trial"",""time""
""fullscreenenter"",""5"",""25999""
","
","
","""event"",""trial"",""time""
""fullscreenenter"",""5"",""25999""
","
","","","","","","","","","","","","","","","","","","","","","",""
"d3-instructions","47","264970","0.0-47.0","1352","1662","15","Female","true","false","false","false","""event"",""trial"",""time""
""fullscreenenter"",""5"",""25999""
","
","
","""event"",""trial"",""time""
""fullscreenenter"",""5"",""25999""
","
","","","","","","","","","","","","","","","","","","","","","",""
"d3-instructions","48","269377","0.0-48.0","1352","1662","15","Female","true","false","false","false","""event"",""trial"",""time""
""fullscreenenter"",""5"",""25999""
","
","
","""event"",""trial"",""time""
""fullscreenenter"",""5"",""25999""
","
","","","","","","","","","","","","","","","","","","","","","",""
"d3-instructions","49","274763","0.0-49.0","1352","1662","15","Female","true","false","false","false","""event"",""trial"",""time""
""fullscreenenter"",""5"",""25999""
","
","
","""event"",""trial"",""time""
""fullscreenenter"",""5"",""25999""
","
","","","","","","","","","","","","","","","","","","","","","",""
"d3-instructions","50","282017","0.0-50.0","1352","1662","15","Female","true","false","false","false","""event"",""trial"",""time""
""fullscreenenter"",""5"",""25999""
","
","
","""event"",""trial"",""time""
""fullscreenenter"",""5"",""25999""
","
","","","","","","","","","","","","","","","","","","","","","",""
"d3-instructions","51","284896","0.0-51.0","1352","1662","15","Female","true","false","false","false","""event"",""trial"",""time""
""fullscreenenter"",""5"",""25999""
","
","
","""event"",""trial"",""time""
""fullscreenenter"",""5"",""25999""
","
","","","","","","","","","","","","","","","","","","","","","",""
"d3-instructions","52","288502","0.0-52.0","1352","1662","15","Female","true","false","false","false","""event"",""trial"",""time""
""fullscreenenter"",""5"",""25999""
","
","
","""event"",""trial"",""time""
""fullscreenenter"",""5"",""25999""
","
","","","","","","","","","","","","","","","","","","","","","",""
"d3-instructions","53","300414","0.0-53.0","1352","1662","15","Female","true","false","false","false","""event"",""trial"",""time""
""fullscreenenter"",""5"",""25999""
","
","
","""event"",""trial"",""time""
""fullscreenenter"",""5"",""25999""
","
","","","","","","","","","","","","","","","","","","","","","",""
"d3-instructions","54","313055","0.0-54.0","1352","1662","15","Female","true","false","false","false","""event"",""trial"",""time""
""fullscreenenter"",""5"",""25999""
","
","
","""event"",""trial"",""time""
""fullscreenenter"",""5"",""25999""
","
","","","","","","","","","","","","","","","","","","","","","",""
"d3-instructions","55","317526","0.0-55.0","1352","1662","15","Female","true","false","false","false","""event"",""trial"",""time""
""fullscreenenter"",""5"",""25999""
","
","
","""event"",""trial"",""time""
""fullscreenenter"",""5"",""25999""
","
","","","","","","","","","","","","","","","","","","","","","",""
"d3-instructions","56","321318","0.0-56.0","1352","1662","15","Female","true","false","false","false","""event"",""trial"",""time""
""fullscreenenter"",""5"",""25999""
","
","
","""event"",""trial"",""time""
""fullscreenenter"",""5"",""25999""
","
","","","","","","","","","","","","","","","","","","","","","",""
"d3-instructions","57","327021","0.0-57.0","1352","1662","15","Female","true","false","false","false","""event"",""trial"",""time""
""fullscreenenter"",""5"",""25999""
","
","
","""event"",""trial"",""time""
""fullscreenenter"",""5"",""25999""
","
","","","","","","","","","","","","","","","","","","","","","",""
"d3-instructions","58","337982","0.0-58.0","1352","1662","15","Female","true","false","false","false","""event"",""trial"",""time""
""fullscreenenter"",""5"",""25999""
","
","
","""event"",""trial"",""time""
""fullscreenenter"",""5"",""25999""
","
","","","","","","","","","","","","","","","","","","","","","",""
"d3-instructions","59","341805","0.0-59.0","1352","1662","15","Female","true","false","false","false","""event"",""trial"",""time""
""fullscreenenter"",""5"",""25999""
","
","
","""event"",""trial"",""time""
""fullscreenenter"",""5"",""25999""
","
","","","","","","","","","","","","","","","","","","","","","",""
"d3-instructions","60","344156","0.0-60.0","1352","1662","15","Female","true","false","false","false","""event"",""trial"",""time""
""fullscreenenter"",""5"",""25999""
","
","
","""event"",""trial"",""time""
""fullscreenenter"",""5"",""25999""
","
","","","","","","","","","","","","","","","","","","","","","",""
"d3-animate-choice","61","348163","0.0-61.0-0.0","1352","1662","15","Female","true","false","false","false","""event"",""trial"",""time""
""fullscreenenter"",""5"",""25999""
","
","
","""event"",""trial"",""time""
""fullscreenenter"",""5"",""25999""
","
","null","","null","","","3000","0","","","images/earth.jpg","images/tutrocket1","images/tutrocket2","null","","","1","practice","null","","","",""
"d3-animate-choice","62","349167","0.0-61.0-1.0","1352","1662","15","Female","true","false","false","false","""event"",""trial"",""time""
""fullscreenenter"",""5"",""25999""
","
","
","""event"",""trial"",""time""
""fullscreenenter"",""5"",""25999""
","
","1000","","48","","","0","0","","","images/earth.jpg","images/tutrocket1","images/tutrocket2","null","","","2","practice","null","2","0","2022-05-06 00:59:54.525",""
"two-step-fixation","63","350171","0.0-61.0-2.0","1352","1662","15","Female","true","false","false","false","""event"",""trial"",""time""
""fullscreenenter"",""5"",""25999""
","
","
","""event"",""trial"",""time""
""fullscreenenter"",""5"",""25999""
","
","","images/earth.jpg","","","","","","","","","","","","","","fixation","","","","","",""
"d3-animate-choice","64","352645","0.0-61.0-0.1","1352","1662","15","Female","true","false","false","false","""event"",""trial"",""time""
""fullscreenenter"",""5"",""25999""
","
","
","""event"",""trial"",""time""
""fullscreenenter"",""5"",""25999""
","
","470","","49","","","3000","1","","","images/earth.jpg","images/tutrocket1","images/tutrocket2","null","images/tutrocket2","","1","practice","null","1","","",""
"d3-animate-choice","65","355493","0.0-61.0-1.1","1352","1662","15","Female","true","false","false","false","""event"",""trial"",""time""
""fullscreenenter"",""5"",""25999""
","
","
","""event"",""trial"",""time""
""fullscreenenter"",""5"",""25999""
","
","841","","49","","","3000","1","","","images/tutgreenplanet.jpg","images/tutalien2","images/tutalien1","images/tutrocket2","images/tutalien1","images/nothing.png","2","practice","true","1","0","2022-05-06 01:00:00.851","common"
"two-step-fixation","66","356495","0.0-61.0-2.1","1352","1662","15","Female","true","false","false","false","""event"",""trial"",""time""
""fullscreenenter"",""5"",""25999""
","
","
","""event"",""trial"",""time""
""fullscreenenter"",""5"",""25999""
","
","","images/earth.jpg","","","","","","","","","","","","","","fixation","","","","","",""
"d3-animate-choice","67","359577","0.0-61.0-0.2","1352","1662","15","Female","true","false","false","false","""event"",""trial"",""time""
""fullscreenenter"",""5"",""25999""
","
","
","""event"",""trial"",""time""
""fullscreenenter"",""5"",""25999""
","
","1078","","49","","","3000","1","","","images/earth.jpg","images/tutrocket1","images/tutrocket2","null","images/tutrocket2","","1","practice","null","1","","",""
"d3-animate-choice","68","362157","0.0-61.0-1.2","1352","1662","15","Female","true","false","false","false","""event"",""trial"",""time""
""fullscreenenter"",""5"",""25999""
","
","
","""event"",""trial"",""time""
""fullscreenenter"",""5"",""25999""
","
","578","","48","","","3000","1","","","images/tutgreenplanet.jpg","images/tutalien2","images/tutalien1","images/tutrocket2","images/tutalien2","images/nothing.png","2","practice","true","2","0","2022-05-06 01:00:07.515","common"
"two-step-fixation","69","363161","0.0-61.0-2.2","1352","1662","15","Female","true","false","false","false","""event"",""trial"",""time""
""fullscreenenter"",""5"",""25999""
","
","
","""event"",""trial"",""time""
""fullscreenenter"",""5"",""25999""
","
","","images/earth.jpg","","","","","","","","","","","","","","fixation","","","","","",""
"d3-animate-choice","70","365587","0.0-61.0-0.3","1352","1662","15","Female","true","false","false","false","""event"",""trial"",""time""
""fullscreenenter"",""5"",""25999""
","
","
","""event"",""trial"",""time""
""fullscreenenter"",""5"",""25999""
","
","422","","48","","","3000","1","","","images/earth.jpg","images/tutrocket1","images/tutrocket2","null","images/tutrocket1","","1","practice","null","2","","",""
"d3-animate-choice","71","368033","0.0-61.0-1.3","1352","1662","15","Female","true","false","false","false","""event"",""trial"",""time""
""fullscreenenter"",""5"",""25999""
","
","
","""event"",""trial"",""time""
""fullscreenenter"",""5"",""25999""
","
","443","","48","","","3000","1","","","images/tutgreenplanet.jpg","images/tutalien2","images/tutalien1","images/tutrocket1","images/tutalien2","images/t.png","2","practice","false","2","1","2022-05-06 01:00:13.391","rare"
"two-step-fixation","72","369037","0.0-61.0-2.3","1352","1662","15","Female","true","false","false","false","""event"",""trial"",""time""
""fullscreenenter"",""5"",""25999""
","
","
","""event"",""trial"",""time""
""fullscreenenter"",""5"",""25999""
","
","","images/earth.jpg","","","","","","","","","","","","","","fixation","","","","","",""
"d3-animate-choice","73","371434","0.0-61.0-0.4","1352","1662","15","Female","true","false","false","false","""event"",""trial"",""time""
""fullscreenenter"",""5"",""25999""
","
","
","""event"",""trial"",""time""
""fullscreenenter"",""5"",""25999""
","
","391","","48","","","3000","1","","","images/earth.jpg","images/tutrocket1","images/tutrocket2","null","images/tutrocket1","","1","practice","null","2","","",""
"d3-animate-choice","74","374567","0.0-61.0-1.4","1352","1662","15","Female","true","false","false","false","""event"",""trial"",""time""
""fullscreenenter"",""5"",""25999""
","
","
","""event"",""trial"",""time""
""fullscreenenter"",""5"",""25999""
","
","1129","","49","","","3000","1","","","images/tutyellowplanet.jpg","images/tutalien4","images/tutalien3","images/tutrocket1","images/tutalien3","images/nothing.png","2","practice","true","1","0","2022-05-06 01:00:19.925","common"
"two-step-fixation","75","375571","0.0-61.0-2.4","1352","1662","15","Female","true","false","false","false","""event"",""trial"",""time""
""fullscreenenter"",""5"",""25999""
","
","
","""event"",""trial"",""time""
""fullscreenenter"",""5"",""25999""
","
","","images/earth.jpg","","","","","","","","","","","","","","fixation","","","","","",""
"d3-animate-choice","76","377949","0.0-61.0-0.5","1352","1662","15","Female","true","false","false","false","""event"",""trial"",""time""
""fullscreenenter"",""5"",""25999""
","
","
","""event"",""trial"",""time""
""fullscreenenter"",""5"",""25999""
","
","374","","49","","","3000","1","","","images/earth.jpg","images/tutrocket1","images/tutrocket2","null","images/tutrocket2","","1","practice","null","1","","",""
"d3-animate-choice","77","381129","0.0-61.0-1.5","1352","1662","15","Female","true","false","false","false","""event"",""trial"",""time""
""fullscreenenter"",""5"",""25999""
","
","
","""event"",""trial"",""time""
""fullscreenenter"",""5"",""25999""
","
","1177","","48","","","3000","1","","","images/tutyellowplanet.jpg","images/tutalien4","images/tutalien3","images/tutrocket2","images/tutalien4","images/t.png","2","practice","false","2","1","2022-05-06 01:00:26.487","rare"
"two-step-fixation","78","382133","0.0-61.0-2.5","1352","1662","15","Female","true","false","false","false","""event"",""trial"",""time""
""fullscreenenter"",""5"",""25999""
","
","
","""event"",""trial"",""time""
""fullscreenenter"",""5"",""25999""
","
","","images/earth.jpg","","","","","","","","","","","","","","fixation","","","","","",""
"d3-animate-choice","79","384719","0.0-61.0-0.6","1352","1662","15","Female","true","false","false","false","""event"",""trial"",""time""
""fullscreenenter"",""5"",""25999""
","
","
","""event"",""trial"",""time""
""fullscreenenter"",""5"",""25999""
","
","583","","48","","","3000","1","","","images/earth.jpg","images/tutrocket1","images/tutrocket2","null","images/tutrocket1","","1","practice","null","2","","",""
"d3-animate-choice","80","387627","0.0-61.0-1.6","1352","1662","15","Female","true","false","false","false","""event"",""trial"",""time""
""fullscreenenter"",""5"",""25999""
","
","
","""event"",""trial"",""time""
""fullscreenenter"",""5"",""25999""
","
","903","","49","","","3000","1","","","images/tutgreenplanet.jpg","images/tutalien2","images/tutalien1","images/tutrocket1","images/tutalien1","images/nothing.png","2","practice","false","1","0","2022-05-06 01:00:32.985","rare"
"two-step-fixation","81","388631","0.0-61.0-2.6","1352","1662","15","Female","true","false","false","false","""event"",""trial"",""time""
""fullscreenenter"",""5"",""25999""
","
","
","""event"",""trial"",""time""
""fullscreenenter"",""5"",""25999""
","
","","images/earth.jpg","","","","","","","","","","","","","","fixation","","","","","",""
"d3-animate-choice","82","391114","0.0-61.0-0.7","1352","1662","15","Female","true","false","false","false","""event"",""trial"",""time""
""fullscreenenter"",""5"",""25999""
","
","
","""event"",""trial"",""time""
""fullscreenenter"",""5"",""25999""
","
","479","","49","","","3000","1","","","images/earth.jpg","images/tutrocket1","images/tutrocket2","null","images/tutrocket2","","1","practice","null","1","","",""
"d3-animate-choice","83","394458","0.0-61.0-1.7","1352","1662","15","Female","true","false","false","false","""event"",""trial"",""time""
""fullscreenenter"",""5"",""25999""
","
","
","""event"",""trial"",""time""
""fullscreenenter"",""5"",""25999""
","
","1339","","49","","","3000","1","","","images/tutgreenplanet.jpg","images/tutalien2","images/tutalien1","images/tutrocket2","images/tutalien1","images/t.png","2","practice","true","1","1","2022-05-06 01:00:39.816","common"
"two-step-fixation","84","395462","0.0-61.0-2.7","1352","1662","15","Female","true","false","false","false","""event"",""trial"",""time""
""fullscreenenter"",""5"",""25999""
","
","
","""event"",""trial"",""time""
""fullscreenenter"",""5"",""25999""
","
","","images/earth.jpg","","","","","","","","","","","","","","fixation","","","","","",""
"d3-animate-choice","85","397853","0.0-61.0-0.8","1352","1662","15","Female","true","false","false","false","""event"",""trial"",""time""
""fullscreenenter"",""5"",""25999""
","
","
","""event"",""trial"",""time""
""fullscreenenter"",""5"",""25999""
","
","387","","48","","","3000","1","","","images/earth.jpg","images/tutrocket1","images/tutrocket2","null","images/tutrocket1","","1","practice","null","2","","",""
"d3-animate-choice","86","400424","0.0-61.0-1.8","1352","1662","15","Female","true","false","false","false","""event"",""trial"",""time""
""fullscreenenter"",""5"",""25999""
","
","
","""event"",""trial"",""time""
""fullscreenenter"",""5"",""25999""
","
","569","","49","","","3000","1","","","images/tutyellowplanet.jpg","images/tutalien4","images/tutalien3","images/tutrocket1","images/tutalien3","images/nothing.png","2","practice","true","1","0","2022-05-06 01:00:45.782","common"
"two-step-fixation","87","401428","0.0-61.0-2.8","1352","1662","15","Female","true","false","false","false","""event"",""trial"",""time""
""fullscreenenter"",""5"",""25999""
","
","
","""event"",""trial"",""time""
""fullscreenenter"",""5"",""25999""
","
","","images/earth.jpg","","","","","","","","","","","","","","fixation","","","","","",""
"d3-animate-choice","88","404114","0.0-61.0-0.9","1352","1662","15","Female","true","false","false","false","""event"",""trial"",""time""
""fullscreenenter"",""5"",""25999""
","
","
","""event"",""trial"",""time""
""fullscreenenter"",""5"",""25999""
","
","682","","48","","","3000","1","","","images/earth.jpg","images/tutrocket1","images/tutrocket2","null","images/tutrocket1","","1","practice","null","2","","",""
"d3-animate-choice","89","407714","0.0-61.0-1.9","1352","1662","15","Female","true","false","false","false","""event"",""trial"",""time""
""fullscreenenter"",""5"",""25999""
","
","
","""event"",""trial"",""time""
""fullscreenenter"",""5"",""25999""
","
","1596","","48","","","3000","1","","","images/tutgreenplanet.jpg","images/tutalien2","images/tutalien1","images/tutrocket1","images/tutalien2","images/t.png","2","practice","false","2","1","2022-05-06 01:00:53.072","rare"
"two-step-fixation","90","408718","0.0-61.0-2.9","1352","1662","15","Female","true","false","false","false","""event"",""trial"",""time""
""fullscreenenter"",""5"",""25999""
","
","
","""event"",""trial"",""time""
""fullscreenenter"",""5"",""25999""
","
","","images/earth.jpg","","","","","","","","","","","","","","fixation","","","","","",""
"d3-animate-choice","91","411127","0.0-61.0-0.10","1352","1662","15","Female","true","false","false","false","""event"",""trial"",""time""
""fullscreenenter"",""5"",""25999""
","
","
","""event"",""trial"",""time""
""fullscreenenter"",""5"",""25999""
","
","405","","49","","","3000","1","","","images/earth.jpg","images/tutrocket1","images/tutrocket2","null","images/tutrocket2","","1","practice","null","1","","",""
"d3-animate-choice","92","414386","0.0-61.0-1.10","1352","1662","15","Female","true","false","false","false","""event"",""trial"",""time""
""fullscreenenter"",""5"",""25999""
","
","
","""event"",""trial"",""time""
""fullscreenenter"",""5"",""25999""
","
","1256","","48","","","3000","1","","","images/tutgreenplanet.jpg","images/tutalien2","images/tutalien1","images/tutrocket2","images/tutalien2","images/nothing.png","2","practice","true","2","0","2022-05-06 01:00:59.744","common"
"two-step-fixation","93","415390","0.0-61.0-2.10","1352","1662","15","Female","true","false","false","false","""event"",""trial"",""time""
""fullscreenenter"",""5"",""25999""
","
","
","""event"",""trial"",""time""
""fullscreenenter"",""5"",""25999""
","
","","images/earth.jpg","","","","","","","","","","","","","","fixation","","","","","",""
"d3-animate-choice","94","417749","0.0-61.0-0.11","1352","1662","15","Female","true","false","false","false","""event"",""trial"",""time""
""fullscreenenter"",""5"",""25999""
","
","
","""event"",""trial"",""time""
""fullscreenenter"",""5"",""25999""
","
","355","","49","","","3000","1","","","images/earth.jpg","images/tutrocket1","images/tutrocket2","null","images/tutrocket2","","1","practice","null","1","","",""
"d3-animate-choice","95","420436","0.0-61.0-1.11","1352","1662","15","Female","true","false","false","false","""event"",""trial"",""time""
""fullscreenenter"",""5"",""25999""
","
","
","""event"",""trial"",""time""
""fullscreenenter"",""5"",""25999""
","
","684","","49","","","3000","1","","","images/tutyellowplanet.jpg","images/tutalien4","images/tutalien3","images/tutrocket2","images/tutalien3","images/nothing.png","2","practice","false","1","0","2022-05-06 01:01:05.794","rare"
"two-step-fixation","96","421440","0.0-61.0-2.11","1352","1662","15","Female","true","false","false","false","""event"",""trial"",""time""
""fullscreenenter"",""5"",""25999""
","
","
","""event"",""trial"",""time""
""fullscreenenter"",""5"",""25999""
","
","","images/earth.jpg","","","","","","","","","","","","","","fixation","","","","","",""
"d3-animate-choice","97","423821","0.0-61.0-0.12","1352","1662","15","Female","true","false","false","false","""event"",""trial"",""time""
""fullscreenenter"",""5"",""25999""
","
","
","""event"",""trial"",""time""
""fullscreenenter"",""5"",""25999""
","
","377","","49","","","3000","1","","","images/earth.jpg","images/tutrocket1","images/tutrocket2","null","images/tutrocket2","","1","practice","null","1","","",""
"d3-animate-choice","98","427002","0.0-61.0-1.12","1352","1662","15","Female","true","false","false","false","""event"",""trial"",""time""
""fullscreenenter"",""5"",""25999""
","
","
","""event"",""trial"",""time""
""fullscreenenter"",""5"",""25999""
","
","1179","","49","","","3000","1","","","images/tutgreenplanet.jpg","images/tutalien2","images/tutalien1","images/tutrocket2","images/tutalien1","images/t.png","2","practice","true","1","1","2022-05-06 01:01:12.360","common"
"two-step-fixation","99","428006","0.0-61.0-2.12","1352","1662","15","Female","true","false","false","false","""event"",""trial"",""time""
""fullscreenenter"",""5"",""25999""
","
","
","""event"",""trial"",""time""
""fullscreenenter"",""5"",""25999""
","
","","images/earth.jpg","","","","","","","","","","","","","","fixation","","","","","",""
"d3-animate-choice","100","431430","0.0-61.0-0.13","1352","1662","15","Female","true","false","false","false","""event"",""trial"",""time""
""fullscreenenter"",""5"",""25999""
","
","
","""event"",""trial"",""time""
""fullscreenenter"",""5"",""25999""
","
","1420","","49","","","3000","1","","","images/earth.jpg","images/tutrocket1","images/tutrocket2","null","images/tutrocket2","","1","practice","null","1","","",""
"d3-animate-choice","101","434226","0.0-61.0-1.13","1352","1662","15","Female","true","false","false","false","""event"",""trial"",""time""
""fullscreenenter"",""5"",""25999""
","
","
","""event"",""trial"",""time""
""fullscreenenter"",""5"",""25999""
","
","792","","49","","","3000","1","","","images/tutyellowplanet.jpg","images/tutalien4","images/tutalien3","images/tutrocket2","images/tutalien3","images/nothing.png","2","practice","false","1","0","2022-05-06 01:01:19.584","rare"
"two-step-fixation","102","435230","0.0-61.0-2.13","1352","1662","15","Female","true","false","false","false","""event"",""trial"",""time""
""fullscreenenter"",""5"",""25999""
","
","
","""event"",""trial"",""time""
""fullscreenenter"",""5"",""25999""
","
","","images/earth.jpg","","","","","","","","","","","","","","fixation","","","","","",""
"d3-animate-choice","103","437592","0.0-61.0-0.14","1352","1662","15","Female","true","false","false","false","""event"",""trial"",""time""
""fullscreenenter"",""5"",""25999""
","
","
","""event"",""trial"",""time""
""fullscreenenter"",""5"",""25999""
","
","358","","49","","","3000","1","","","images/earth.jpg","images/tutrocket1","images/tutrocket2","null","images/tutrocket2","","1","practice","null","1","","",""
"d3-animate-choice","104","440211","0.0-61.0-1.14","1352","1662","15","Female","true","false","false","false","""event"",""trial"",""time""
""fullscreenenter"",""5"",""25999""
","
","
","""event"",""trial"",""time""
""fullscreenenter"",""5"",""25999""
","
","616","","48","","","3000","1","","","images/tutyellowplanet.jpg","images/tutalien4","images/tutalien3","images/tutrocket2","images/tutalien4","images/nothing.png","2","practice","false","2","0","2022-05-06 01:01:25.569","rare"
"two-step-fixation","105","441214","0.0-61.0-2.14","1352","1662","15","Female","true","false","false","false","""event"",""trial"",""time""
""fullscreenenter"",""5"",""25999""
","
","
","""event"",""trial"",""time""
""fullscreenenter"",""5"",""25999""
","
","","images/earth.jpg","","","","","","","","","","","","","","fixation","","","","","",""
"d3-animate-choice","106","443750","0.0-61.0-0.15","1352","1662","15","Female","true","false","false","false","""event"",""trial"",""time""
""fullscreenenter"",""5"",""25999""
","
","
","""event"",""trial"",""time""
""fullscreenenter"",""5"",""25999""
","
","532","","49","","","3000","1","","","images/earth.jpg","images/tutrocket1","images/tutrocket2","null","images/tutrocket2","","1","practice","null","1","","",""
"d3-animate-choice","107","446881","0.0-61.0-1.15","1352","1662","15","Female","true","false","false","false","""event"",""trial"",""time""
""fullscreenenter"",""5"",""25999""
","
","
","""event"",""trial"",""time""
""fullscreenenter"",""5"",""25999""
","
","1128","","48","","","3000","1","","","images/tutgreenplanet.jpg","images/tutalien2","images/tutalien1","images/tutrocket2","images/tutalien2","images/nothing.png","2","practice","true","2","0","2022-05-06 01:01:32.239","common"
"two-step-fixation","108","447884","0.0-61.0-2.15","1352","1662","15","Female","true","false","false","false","""event"",""trial"",""time""
""fullscreenenter"",""5"",""25999""
","
","
","""event"",""trial"",""time""
""fullscreenenter"",""5"",""25999""
","
","","images/earth.jpg","","","","","","","","","","","","","","fixation","","","","","",""
"d3-animate-choice","109","450224","0.0-61.0-0.16","1352","1662","15","Female","true","false","false","false","""event"",""trial"",""time""
""fullscreenenter"",""5"",""25999""
","
","
","""event"",""trial"",""time""
""fullscreenenter"",""5"",""25999""
","
","335","","48","","","3000","1","","","images/earth.jpg","images/tutrocket1","images/tutrocket2","null","images/tutrocket1","","1","practice","null","2","","",""
"d3-animate-choice","110","452962","0.0-61.0-1.16","1352","1662","15","Female","true","false","false","false","""event"",""trial"",""time""
""fullscreenenter"",""5"",""25999""
","
","
","""event"",""trial"",""time""
""fullscreenenter"",""5"",""25999""
","
","735","","49","","","3000","1","","","images/tutgreenplanet.jpg","images/tutalien2","images/tutalien1","images/tutrocket1","images/tutalien1","images/nothing.png","2","practice","false","1","0","2022-05-06 01:01:38.320","rare"
"two-step-fixation","111","453965","0.0-61.0-2.16","1352","1662","15","Female","true","false","false","false","""event"",""trial"",""time""
""fullscreenenter"",""5"",""25999""
","
","
","""event"",""trial"",""time""
""fullscreenenter"",""5"",""25999""
","
","","images/earth.jpg","","","","","","","","","","","","","","fixation","","","","","",""
"d3-animate-choice","112","456366","0.0-61.0-0.17","1352","1662","15","Female","true","false","false","false","""event"",""trial"",""time""
""fullscreenenter"",""5"",""25999""
","
","
","""event"",""trial"",""time""
""fullscreenenter"",""5"",""25999""
","
","398","","48","","","3000","1","","","images/earth.jpg","images/tutrocket1","images/tutrocket2","null","images/tutrocket1","","1","practice","null","2","","",""
"d3-animate-choice","113","459789","0.0-61.0-1.17","1352","1662","15","Female","true","false","false","false","""event"",""trial"",""time""
""fullscreenenter"",""5"",""25999""
","
","
","""event"",""trial"",""time""
""fullscreenenter"",""5"",""25999""
","
","1421","","48","","","3000","1","","","images/tutyellowplanet.jpg","images/tutalien4","images/tutalien3","images/tutrocket1","images/tutalien4","images/nothing.png","2","practice","true","2","0","2022-05-06 01:01:45.147","common"
"two-step-fixation","114","460792","0.0-61.0-2.17","1352","1662","15","Female","true","false","false","false","""event"",""trial"",""time""
""fullscreenenter"",""5"",""25999""
","
","
","""event"",""trial"",""time""
""fullscreenenter"",""5"",""25999""
","
","","images/earth.jpg","","","","","","","","","","","","","","fixation","","","","","",""
"d3-animate-choice","115","463392","0.0-61.0-0.18","1352","1662","15","Female","true","false","false","false","""event"",""trial"",""time""
""fullscreenenter"",""5"",""25999""
","
","
","""event"",""trial"",""time""
""fullscreenenter"",""5"",""25999""
","
","597","","49","","","3000","1","","","images/earth.jpg","images/tutrocket1","images/tutrocket2","null","images/tutrocket2","","1","practice","null","1","","",""
"d3-animate-choice","116","466374","0.0-61.0-1.18","1352","1662","15","Female","true","false","false","false","""event"",""trial"",""time""
""fullscreenenter"",""5"",""25999""
","
","
","""event"",""trial"",""time""
""fullscreenenter"",""5"",""25999""
","
","980","","49","","","3000","1","","","images/tutyellowplanet.jpg","images/tutalien4","images/tutalien3","images/tutrocket2","images/tutalien3","images/nothing.png","2","practice","false","1","0","2022-05-06 01:01:51.732","rare"
"two-step-fixation","117","467378","0.0-61.0-2.18","1352","1662","15","Female","true","false","false","false","""event"",""trial"",""time""
""fullscreenenter"",""5"",""25999""
","
","
","""event"",""trial"",""time""
""fullscreenenter"",""5"",""25999""
","
","","images/earth.jpg","","","","","","","","","","","","","","fixation","","","","","",""
"d3-animate-choice","118","469803","0.0-61.0-0.19","1352","1662","15","Female","true","false","false","false","""event"",""trial"",""time""
""fullscreenenter"",""5"",""25999""
","
","
","""event"",""trial"",""time""
""fullscreenenter"",""5"",""25999""
","
","421","","49","","","3000","1","","","images/earth.jpg","images/tutrocket1","images/tutrocket2","null","images/tutrocket2","","1","practice","null","1","","",""
"d3-animate-choice","119","472561","0.0-61.0-1.19","1352","1662","15","Female","true","false","false","false","""event"",""trial"",""time""
""fullscreenenter"",""5"",""25999""
","
","
","""event"",""trial"",""time""
""fullscreenenter"",""5"",""25999""
","
","756","","49","","","3000","1","","","images/tutgreenplanet.jpg","images/tutalien2","images/tutalien1","images/tutrocket2","images/tutalien1","images/nothing.png","2","practice","true","1","0","2022-05-06 01:01:57.919","common"
"two-step-fixation","120","473564","0.0-61.0-2.19","1352","1662","15","Female","true","false","false","false","""event"",""trial"",""time""
""fullscreenenter"",""5"",""25999""
","
","
","""event"",""trial"",""time""
""fullscreenenter"",""5"",""25999""
","
","","images/earth.jpg","","","","","","","","","","","","","","fixation","","","","","",""
"d3-instructions","121","477979","0.0-62.0","1352","1662","15","Female","true","false","false","false","""event"",""trial"",""time""
""fullscreenenter"",""5"",""25999""
","
","
","""event"",""trial"",""time""
""fullscreenenter"",""5"",""25999""
","
","","","","","","","","","","","","","","","","","","","","","",""
"audio-keyboard-response","122","480775","0.0-63.0","1352","1662","15","Female","true","false","false","false","""event"",""trial"",""time""
""fullscreenenter"",""5"",""25999""
","
","
","""event"",""trial"",""time""
""fullscreenenter"",""5"",""25999""
","
","2792","audio/instructions/treasure_feedback.wav","77","","","","","","","","","","","","","","","","","","",""
"d3-instructions","123","490562","0.0-64.0","1352","1662","15","Female","true","false","false","false","""event"",""trial"",""time""
""fullscreenenter"",""5"",""25999""
","
","
","""event"",""trial"",""time""
""fullscreenenter"",""5"",""25999""
","
","","","","","","","","","","","","","","","","","","","","","",""
"d3-instructions","124","504912","0.0-65.0","1352","1662","15","Female","true","false","false","false","""event"",""trial"",""time""
""fullscreenenter"",""5"",""25999""
","
","
","""event"",""trial"",""time""
""fullscreenenter"",""5"",""25999""
","
","","","","","","","","","","","","","","","","","","","","","",""
"d3-instructions","125","530238","0.0-66.0","1352","1662","15","Female","true","false","false","false","""event"",""trial"",""time""
""fullscreenenter"",""5"",""25999""
","
","
","""event"",""trial"",""time""
""fullscreenenter"",""5"",""25999""
","
","","","","","","","","","","","","","","","","","","","","","",""
"d3-instructions","126","544849","0.0-67.0","1352","1662","15","Female","true","false","false","false","""event"",""trial"",""time""
""fullscreenenter"",""5"",""25999""
","
","
","""event"",""trial"",""time""
""fullscreenenter"",""5"",""25999""
","
","","","","","","","","","","","","","","","","","","","","","",""
"d3-instructions","127","550619","0.0-68.0","1352","1662","15","Female","true","false","false","false","""event"",""trial"",""time""
""fullscreenenter"",""5"",""25999""
","
","
","""event"",""trial"",""time""
""fullscreenenter"",""5"",""25999""
","
","","","","","","","","","","","","","","","","","","","","","",""
"instructions-quiz","128","554391","0.0-69.0","1352","1662","15","Female","true","false","false","false","""event"",""trial"",""time""
""fullscreenenter"",""5"",""25999""
","
","
","""event"",""trial"",""time""
""fullscreenenter"",""5"",""25999""
","
","3769","audio/quiz/Q1_Prompt.wav","","1","","","","","","","","","","","","","","","","","",""
"audio-keyboard-response","129","556396","0.0-70.0","1352","1662","15","Female","true","false","false","false","""event"",""trial"",""time""
""fullscreenenter"",""5"",""25999""
","
","
","""event"",""trial"",""time""
""fullscreenenter"",""5"",""25999""
","
","2003","audio/quiz/Q1_Correct.wav","77","","","","","","","","","","","","","","","","","","",""
"instructions-quiz","130","560411","0.0-71.0","1352","1662","15","Female","true","false","false","false","""event"",""trial"",""time""
""fullscreenenter"",""5"",""25999""
","
","
","""event"",""trial"",""time""
""fullscreenenter"",""5"",""25999""
","
","4012","audio/quiz/Q2_Prompt.wav","","0","","","","","","","","","","","","","","","","","",""
"audio-keyboard-response","131","561325","0.0-72.0","1352","1662","15","Female","true","false","false","false","""event"",""trial"",""time""
""fullscreenenter"",""5"",""25999""
","
","
","""event"",""trial"",""time""
""fullscreenenter"",""5"",""25999""
","
","908","audio/quiz/Q2_Correct.wav","32","","","","","","","","","","","","","","","","","","",""
"instructions-quiz","132","564314","0.0-73.0","1352","1662","15","Female","true","false","false","false","""event"",""trial"",""time""
""fullscreenenter"",""5"",""25999""
","
","
","""event"",""trial"",""time""
""fullscreenenter"",""5"",""25999""
","
","2985","audio/quiz/Q3_Prompt.wav","","1","","","","","","","","","","","","","","","","","",""
"audio-keyboard-response","133","564900","0.0-74.0","1352","1662","15","Female","true","false","false","false","""event"",""trial"",""time""
""fullscreenenter"",""5"",""25999""
","
","
","""event"",""trial"",""time""
""fullscreenenter"",""5"",""25999""
","
","589","audio/quiz/Q3_Correct.wav","32","","","","","","","","","","","","","","","","","","",""
"d3-instructions","134","570854","0.0-75.0","1352","1662","15","Female","true","false","false","false","""event"",""trial"",""time""
""fullscreenenter"",""5"",""25999""
","
","
","""event"",""trial"",""time""
""fullscreenenter"",""5"",""25999""
","
","","","","","","","","","","","","","","","","","","","","","",""
"d3-animate-choice","135","573983","0.0-76.0-0.0","1352","1662","15","Female","true","false","false","false","""event"",""trial"",""time""
""fullscreenenter"",""5"",""25999""
","
","
","""event"",""trial"",""time""
""fullscreenenter"",""5"",""25999""
","
","1124","","49","","","3000","1","","","images/earth.jpg","images/rocket2","images/rocket1","null","images/rocket1","","1","real","null","1","","",""
"d3-animate-choice","136","576502","0.0-76.0-1.0","1352","1662","15","Female","true","false","false","false","""event"",""trial"",""time""
""fullscreenenter"",""5"",""25999""
","
","
","""event"",""trial"",""time""
""fullscreenenter"",""5"",""25999""
","
","515","","49","","","3000","1","","","images/purpleplanet.jpg","images/alien4","images/alien3","images/rocket1","images/alien3","images/nothing.png","2","real","true","1","0","2022-05-06 01:03:41.860","common"
"two-step-fixation","137","577506","0.0-76.0-2.0","1352","1662","15","Female","true","false","false","false","""event"",""trial"",""time""
""fullscreenenter"",""5"",""25999""
","
","
","""event"",""trial"",""time""
""fullscreenenter"",""5"",""25999""
","
","","images/earth.jpg","","","","","","","","","","","","","","fixation","","","","","",""
"d3-animate-choice","138","579943","0.0-76.0-0.1","1352","1662","15","Female","true","false","false","false","""event"",""trial"",""time""
""fullscreenenter"",""5"",""25999""
","
","
","""event"",""trial"",""time""
""fullscreenenter"",""5"",""25999""
","
","432","","48","","","3000","1","","","images/earth.jpg","images/rocket2","images/rocket1","null","images/rocket2","","1","real","null","2","","",""
"d3-animate-choice","139","582779","0.0-76.0-1.1","1352","1662","15","Female","true","false","false","false","""event"",""trial"",""time""
""fullscreenenter"",""5"",""25999""
","
","
","""event"",""trial"",""time""
""fullscreenenter"",""5"",""25999""
","
","832","","49","","","3000","1","","","images/redplanet1.jpg","images/alien2","images/alien1","images/rocket2","images/alien1","images/t.png","2","real","true","1","1","2022-05-06 01:03:48.137","common"
"two-step-fixation","140","583783","0.0-76.0-2.1","1352","1662","15","Female","true","false","false","false","""event"",""trial"",""time""
""fullscreenenter"",""5"",""25999""
","
","
","""event"",""trial"",""time""
""fullscreenenter"",""5"",""25999""
","
","","images/earth.jpg","","","","","","","","","","","","","","fixation","","","","","",""
"d3-animate-choice","141","586348","0.0-76.0-0.2","1352","1662","15","Female","true","false","false","false","""event"",""trial"",""time""
""fullscreenenter"",""5"",""25999""
","
","
","""event"",""trial"",""time""
""fullscreenenter"",""5"",""25999""
","
","562","","48","","","3000","1","","","images/earth.jpg","images/rocket2","images/rocket1","null","images/rocket2","","1","real","null","2","","",""
"d3-animate-choice","142","589022","0.0-76.0-1.2","1352","1662","15","Female","true","false","false","false","""event"",""trial"",""time""
""fullscreenenter"",""5"",""25999""
","
","
","""event"",""trial"",""time""
""fullscreenenter"",""5"",""25999""
","
","670","","49","","","3000","1","","","images/redplanet1.jpg","images/alien2","images/alien1","images/rocket2","images/alien1","images/t.png","2","real","true","1","1","2022-05-06 01:03:54.380","common"
"two-step-fixation","143","590026","0.0-76.0-2.2","1352","1662","15","Female","true","false","false","false","""event"",""trial"",""time""
""fullscreenenter"",""5"",""25999""
","
","
","""event"",""trial"",""time""
""fullscreenenter"",""5"",""25999""
","
","","images/earth.jpg","","","","","","","","","","","","","","fixation","","","","","",""
"d3-animate-choice","144","592422","0.0-76.0-0.3","1352","1662","15","Female","true","false","false","false","""event"",""trial"",""time""
""fullscreenenter"",""5"",""25999""
","
","
","""event"",""trial"",""time""
""fullscreenenter"",""5"",""25999""
","
","393","","49","","","3000","1","","","images/earth.jpg","images/rocket2","images/rocket1","null","images/rocket1","","1","real","null","1","","",""
"d3-animate-choice","145","594957","0.0-76.0-1.3","1352","1662","15","Female","true","false","false","false","""event"",""trial"",""time""
""fullscreenenter"",""5"",""25999""
","
","
","""event"",""trial"",""time""
""fullscreenenter"",""5"",""25999""
","
","532","","49","","","3000","1","","","images/redplanet1.jpg","images/alien2","images/alien1","images/rocket1","images/alien1","images/nothing.png","2","real","false","1","0","2022-05-06 01:04:00.315","rare"
"two-step-fixation","146","595961","0.0-76.0-2.3","1352","1662","15","Female","true","false","false","false","""event"",""trial"",""time""
""fullscreenenter"",""5"",""25999""
","
","
","""event"",""trial"",""time""
""fullscreenenter"",""5"",""25999""
","
","","images/earth.jpg","","","","","","","","","","","","","","fixation","","","","","",""
"d3-animate-choice","147","598743","0.0-76.0-0.4","1352","1662","15","Female","true","false","false","false","""event"",""trial"",""time""
""fullscreenenter"",""5"",""25999""
","
","
","""event"",""trial"",""time""
""fullscreenenter"",""5"",""25999""
","
","778","","48","","","3000","1","","","images/earth.jpg","images/rocket2","images/rocket1","null","images/rocket2","","1","real","null","2","","",""
"d3-animate-choice","148","601457","0.0-76.0-1.4","1352","1662","15","Female","true","false","false","false","""event"",""trial"",""time""
""fullscreenenter"",""5"",""25999""
","
","
","""event"",""trial"",""time""
""fullscreenenter"",""5"",""25999""
","
","711","","49","","","3000","1","","","images/redplanet1.jpg","images/alien2","images/alien1","images/rocket2","images/alien1","images/nothing.png","2","real","true","1","0","2022-05-06 01:04:06.815","common"
"two-step-fixation","149","602461","0.0-76.0-2.4","1352","1662","15","Female","true","false","false","false","""event"",""trial"",""time""
""fullscreenenter"",""5"",""25999""
","
","
","""event"",""trial"",""time""
""fullscreenenter"",""5"",""25999""
","
","","images/earth.jpg","","","","","","","","","","","","","","fixation","","","","","",""
"d3-animate-choice","150","605222","0.0-76.0-0.5","1352","1662","15","Female","true","false","false","false","""event"",""trial"",""time""
""fullscreenenter"",""5"",""25999""
","
","
","""event"",""trial"",""time""
""fullscreenenter"",""5"",""25999""
","
","756","","48","","","3000","1","","","images/earth.jpg","images/rocket2","images/rocket1","null","images/rocket2","","1","real","null","2","","",""
"d3-animate-choice","151","608320","0.0-76.0-1.5","1352","1662","15","Female","true","false","false","false","""event"",""trial"",""time""
""fullscreenenter"",""5"",""25999""
","
","
","""event"",""trial"",""time""
""fullscreenenter"",""5"",""25999""
","
","1095","","49","","","3000","1","","","images/redplanet1.jpg","images/alien2","images/alien1","images/rocket2","images/alien1","images/t.png","2","real","true","1","1","2022-05-06 01:04:13.678","common"
"two-step-fixation","152","609324","0.0-76.0-2.5","1352","1662","15","Female","true","false","false","false","""event"",""trial"",""time""
""fullscreenenter"",""5"",""25999""
","
","
","""event"",""trial"",""time""
""fullscreenenter"",""5"",""25999""
","
","","images/earth.jpg","","","","","","","","","","","","","","fixation","","","","","",""
"d3-animate-choice","153","612003","0.0-76.0-0.6","1352","1662","15","Female","true","false","false","false","""event"",""trial"",""time""
""fullscreenenter"",""5"",""25999""
","
","
","""event"",""trial"",""time""
""fullscreenenter"",""5"",""25999""
","
","674","","48","","","3000","1","","","images/earth.jpg","images/rocket2","images/rocket1","null","images/rocket2","","1","real","null","2","","",""
"d3-animate-choice","154","615547","0.0-76.0-1.6","1352","1662","15","Female","true","false","false","false","""event"",""trial"",""time""
""fullscreenenter"",""5"",""25999""
","
","
","""event"",""trial"",""time""
""fullscreenenter"",""5"",""25999""
","
","1540","","48","","","3000","1","","","images/purpleplanet.jpg","images/alien4","images/alien3","images/rocket2","images/alien4","images/nothing.png","2","real","false","2","0","2022-05-06 01:04:20.905","rare"
"two-step-fixation","155","616551","0.0-76.0-2.6","1352","1662","15","Female","true","false","false","false","""event"",""trial"",""time""
""fullscreenenter"",""5"",""25999""
","
","
","""event"",""trial"",""time""
""fullscreenenter"",""5"",""25999""
","
","","images/earth.jpg","","","","","","","","","","","","","","fixation","","","","","",""
"d3-animate-choice","156","619133","0.0-76.0-0.7","1352","1662","15","Female","true","false","false","false","""event"",""trial"",""time""
""fullscreenenter"",""5"",""25999""
","
","
","""event"",""trial"",""time""
""fullscreenenter"",""5"",""25999""
","
","578","","49","","","3000","1","","","images/earth.jpg","images/rocket2","images/rocket1","null","images/rocket1","","1","real","null","1","","",""
"d3-animate-choice","157","621713","0.0-76.0-1.7","1352","1662","15","Female","true","false","false","false","""event"",""trial"",""time""
""fullscreenenter"",""5"",""25999""
","
","
","""event"",""trial"",""time""
""fullscreenenter"",""5"",""25999""
","
","576","","49","","","3000","1","","","images/purpleplanet.jpg","images/alien4","images/alien3","images/rocket1","images/alien3","images/t.png","2","real","true","1","1","2022-05-06 01:04:27.071","common"
"two-step-fixation","158","622717","0.0-76.0-2.7","1352","1662","15","Female","true","false","false","false","""event"",""trial"",""time""
""fullscreenenter"",""5"",""25999""
","
","
","""event"",""trial"",""time""
""fullscreenenter"",""5"",""25999""
","
","","images/earth.jpg","","","","","","","","","","","","","","fixation","","","","","",""
"d3-animate-choice","159","625172","0.0-76.0-0.8","1352","1662","15","Female","true","false","false","false","""event"",""trial"",""time""
""fullscreenenter"",""5"",""25999""
","
","
","""event"",""trial"",""time""
""fullscreenenter"",""5"",""25999""
","
","451","","48","","","3000","1","","","images/earth.jpg","images/rocket2","images/rocket1","null","images/rocket2","","1","real","null","2","","",""
"d3-animate-choice","160","628024","0.0-76.0-1.8","1352","1662","15","Female","true","false","false","false","""event"",""trial"",""time""
""fullscreenenter"",""5"",""25999""
","
","
","""event"",""trial"",""time""
""fullscreenenter"",""5"",""25999""
","
","849","","49","","","3000","1","","","images/redplanet1.jpg","images/alien2","images/alien1","images/rocket2","images/alien1","images/t.png","2","real","true","1","1","2022-05-06 01:04:33.382","common"
"two-step-fixation","161","629028","0.0-76.0-2.8","1352","1662","15","Female","true","false","false","false","""event"",""trial"",""time""
""fullscreenenter"",""5"",""25999""
","
","
","""event"",""trial"",""time""
""fullscreenenter"",""5"",""25999""
","
","","images/earth.jpg","","","","","","","","","","","","","","fixation","","","","","",""
"d3-animate-choice","162","631362","0.0-76.0-0.9","1352","1662","15","Female","true","false","false","false","""event"",""trial"",""time""
""fullscreenenter"",""5"",""25999""
","
","
","""event"",""trial"",""time""
""fullscreenenter"",""5"",""25999""
","
","330","","48","","","3000","1","","","images/earth.jpg","images/rocket2","images/rocket1","null","images/rocket2","","1","real","null","2","","",""
"d3-animate-choice","163","633869","0.0-76.0-1.9","1352","1662","15","Female","true","false","false","false","""event"",""trial"",""time""
""fullscreenenter"",""5"",""25999""
","
","
","""event"",""trial"",""time""
""fullscreenenter"",""5"",""25999""
","
","503","","49","","","3000","1","","","images/redplanet1.jpg","images/alien2","images/alien1","images/rocket2","images/alien1","images/t.png","2","real","true","1","1","2022-05-06 01:04:39.227","common"
"two-step-fixation","164","634874","0.0-76.0-2.9","1352","1662","15","Female","true","false","false","false","""event"",""trial"",""time""
""fullscreenenter"",""5"",""25999""
","
","
","""event"",""trial"",""time""
""fullscreenenter"",""5"",""25999""
","
","","images/earth.jpg","","","","","","","","","","","","","","fixation","","","","","",""
"d3-animate-choice","165","637237","0.0-76.0-0.10","1352","1662","15","Female","true","false","false","false","""event"",""trial"",""time""
""fullscreenenter"",""5"",""25999""
","
","
","""event"",""trial"",""time""
""fullscreenenter"",""5"",""25999""
","
","357","","49","","","3000","1","","","images/earth.jpg","images/rocket2","images/rocket1","null","images/rocket1","","1","real","null","1","","",""
"d3-animate-choice","166","640304","0.0-76.0-1.10","1352","1662","15","Female","true","false","false","false","""event"",""trial"",""time""
""fullscreenenter"",""5"",""25999""
","
","
","""event"",""trial"",""time""
""fullscreenenter"",""5"",""25999""
","
","1064","","48","","","3000","1","","","images/purpleplanet.jpg","images/alien4","images/alien3","images/rocket1","images/alien4","images/t.png","2","real","true","2","1","2022-05-06 01:04:45.662","common"
"two-step-fixation","167","641308","0.0-76.0-2.10","1352","1662","15","Female","true","false","false","false","""event"",""trial"",""time""
""fullscreenenter"",""5"",""25999""
","
","
","""event"",""trial"",""time""
""fullscreenenter"",""5"",""25999""
","
","","images/earth.jpg","","","","","","","","","","","","","","fixation","","","","","",""
"d3-animate-choice","168","643852","0.0-76.0-0.11","1352","1662","15","Female","true","false","false","false","""event"",""trial"",""time""
""fullscreenenter"",""5"",""25999""
","
","
","""event"",""trial"",""time""
""fullscreenenter"",""5"",""25999""
","
","539","","49","","","3000","1","","","images/earth.jpg","images/rocket2","images/rocket1","null","images/rocket1","","1","real","null","1","","",""
"d3-animate-choice","169","646341","0.0-76.0-1.11","1352","1662","15","Female","true","false","false","false","""event"",""trial"",""time""
""fullscreenenter"",""5"",""25999""
","
","
","""event"",""trial"",""time""
""fullscreenenter"",""5"",""25999""
","
","486","","48","","","3000","1","","","images/purpleplanet.jpg","images/alien4","images/alien3","images/rocket1","images/alien4","images/t.png","2","real","true","2","1","2022-05-06 01:04:51.699","common"
"two-step-fixation","170","647345","0.0-76.0-2.11","1352","1662","15","Female","true","false","false","false","""event"",""trial"",""time""
""fullscreenenter"",""5"",""25999""
","
","
","""event"",""trial"",""time""
""fullscreenenter"",""5"",""25999""
","
","","images/earth.jpg","","","","","","","","","","","","","","fixation","","","","","",""
"d3-animate-choice","171","649653","0.0-76.0-0.12","1352","1662","15","Female","true","false","false","false","""event"",""trial"",""time""
""fullscreenenter"",""5"",""25999""
","
","
","""event"",""trial"",""time""
""fullscreenenter"",""5"",""25999""
","
","303","","48","","","3000","1","","","images/earth.jpg","images/rocket2","images/rocket1","null","images/rocket2","","1","real","null","2","","",""
"d3-animate-choice","172","652492","0.0-76.0-1.12","1352","1662","15","Female","true","false","false","false","""event"",""trial"",""time""
""fullscreenenter"",""5"",""25999""
","
","
","""event"",""trial"",""time""
""fullscreenenter"",""5"",""25999""
","
","835","","49","","","3000","1","","","images/redplanet1.jpg","images/alien2","images/alien1","images/rocket2","images/alien1","images/nothing.png","2","real","true","1","0","2022-05-06 01:04:57.850","common"
"two-step-fixation","173","653496","0.0-76.0-2.12","1352","1662","15","Female","true","false","false","false","""event"",""trial"",""time""
""fullscreenenter"",""5"",""25999""
","
","
","""event"",""trial"",""time""
""fullscreenenter"",""5"",""25999""
","
","","images/earth.jpg","","","","","","","","","","","","","","fixation","","","","","",""
"d3-animate-choice","174","655805","0.0-76.0-0.13","1352","1662","15","Female","true","false","false","false","""event"",""trial"",""time""
""fullscreenenter"",""5"",""25999""
","
","
","""event"",""trial"",""time""
""fullscreenenter"",""5"",""25999""
","
","304","","49","","","3000","1","","","images/earth.jpg","images/rocket2","images/rocket1","null","images/rocket1","","1","real","null","1","","",""
"d3-animate-choice","175","658399","0.0-76.0-1.13","1352","1662","15","Female","true","false","false","false","""event"",""trial"",""time""
""fullscreenenter"",""5"",""25999""
","
","
","""event"",""trial"",""time""
""fullscreenenter"",""5"",""25999""
","
","589","","48","","","3000","1","","","images/redplanet1.jpg","images/alien2","images/alien1","images/rocket1","images/alien2","images/nothing.png","2","real","false","2","0","2022-05-06 01:05:03.757","rare"
"two-step-fixation","176","659403","0.0-76.0-2.13","1352","1662","15","Female","true","false","false","false","""event"",""trial"",""time""
""fullscreenenter"",""5"",""25999""
","
","
","""event"",""trial"",""time""
""fullscreenenter"",""5"",""25999""
","
","","images/earth.jpg","","","","","","","","","","","","","","fixation","","","","","",""
"d3-animate-choice","177","661887","0.0-76.0-0.14","1352","1662","15","Female","true","false","false","false","""event"",""trial"",""time""
""fullscreenenter"",""5"",""25999""
","
","
","""event"",""trial"",""time""
""fullscreenenter"",""5"",""25999""
","
","479","","48","","","3000","1","","","images/earth.jpg","images/rocket2","images/rocket1","null","images/rocket2","","1","real","null","2","","",""
"d3-animate-choice","178","665395","0.0-76.0-1.14","1352","1662","15","Female","true","false","false","false","""event"",""trial"",""time""
""fullscreenenter"",""5"",""25999""
","
","
","""event"",""trial"",""time""
""fullscreenenter"",""5"",""25999""
","
","1504","","49","","","3000","1","","","images/purpleplanet.jpg","images/alien4","images/alien3","images/rocket2","images/alien3","images/nothing.png","2","real","false","1","0","2022-05-06 01:05:10.753","rare"
"two-step-fixation","179","666399","0.0-76.0-2.14","1352","1662","15","Female","true","false","false","false","""event"",""trial"",""time""
""fullscreenenter"",""5"",""25999""
","
","
","""event"",""trial"",""time""
""fullscreenenter"",""5"",""25999""
","
","","images/earth.jpg","","","","","","","","","","","","","","fixation","","","","","",""
"d3-animate-choice","180","668785","0.0-76.0-0.15","1352","1662","15","Female","true","false","false","false","""event"",""trial"",""time""
""fullscreenenter"",""5"",""25999""
","
","
","""event"",""trial"",""time""
""fullscreenenter"",""5"",""25999""
","
","381","","49","","","3000","1","","","images/earth.jpg","images/rocket2","images/rocket1","null","images/rocket1","","1","real","null","1","","",""
"d3-animate-choice","181","671899","0.0-76.0-1.15","1352","1662","15","Female","true","false","false","false","""event"",""trial"",""time""
""fullscreenenter"",""5"",""25999""
","
","
","""event"",""trial"",""time""
""fullscreenenter"",""5"",""25999""
","
","1109","","48","","","3000","1","","","images/purpleplanet.jpg","images/alien4","images/alien3","images/rocket1","images/alien4","images/t.png","2","real","true","2","1","2022-05-06 01:05:17.257","common"
"two-step-fixation","182","672903","0.0-76.0-2.15","1352","1662","15","Female","true","false","false","false","""event"",""trial"",""time""
""fullscreenenter"",""5"",""25999""
","
","
","""event"",""trial"",""time""
""fullscreenenter"",""5"",""25999""
","
","","images/earth.jpg","","","","","","","","","","","","","","fixation","","","","","",""
"d3-animate-choice","183","675892","0.0-76.0-0.16","1352","1662","15","Female","true","false","false","false","""event"",""trial"",""time""
""fullscreenenter"",""5"",""25999""
","
","
","""event"",""trial"",""time""
""fullscreenenter"",""5"",""25999""
","
","984","","48","","","3000","1","","","images/earth.jpg","images/rocket2","images/rocket1","null","images/rocket2","","1","real","null","2","","",""
"d3-animate-choice","184","678594","0.0-76.0-1.16","1352","1662","15","Female","true","false","false","false","""event"",""trial"",""time""
""fullscreenenter"",""5"",""25999""
","
","
","""event"",""trial"",""time""
""fullscreenenter"",""5"",""25999""
","
","698","","48","","","3000","1","","","images/purpleplanet.jpg","images/alien4","images/alien3","images/rocket2","images/alien4","images/t.png","2","real","false","2","1","2022-05-06 01:05:23.952","rare"
"two-step-fixation","185","679598","0.0-76.0-2.16","1352","1662","15","Female","true","false","false","false","""event"",""trial"",""time""
""fullscreenenter"",""5"",""25999""
","
","
","""event"",""trial"",""time""
""fullscreenenter"",""5"",""25999""
","
","","images/earth.jpg","","","","","","","","","","","","","","fixation","","","","","",""
"d3-animate-choice","186","682328","0.0-76.0-0.17","1352","1662","15","Female","true","false","false","false","""event"",""trial"",""time""
""fullscreenenter"",""5"",""25999""
","
","
","""event"",""trial"",""time""
""fullscreenenter"",""5"",""25999""
","
","725","","48","","","3000","1","","","images/earth.jpg","images/rocket2","images/rocket1","null","images/rocket2","","1","real","null","2","","",""
"d3-animate-choice","187","685043","0.0-76.0-1.17","1352","1662","15","Female","true","false","false","false","""event"",""trial"",""time""
""fullscreenenter"",""5"",""25999""
","
","
","""event"",""trial"",""time""
""fullscreenenter"",""5"",""25999""
","
","711","","49","","","3000","1","","","images/redplanet1.jpg","images/alien2","images/alien1","images/rocket2","images/alien1","images/t.png","2","real","true","1","1","2022-05-06 01:05:30.401","common"
"two-step-fixation","188","686047","0.0-76.0-2.17","1352","1662","15","Female","true","false","false","false","""event"",""trial"",""time""
""fullscreenenter"",""5"",""25999""
","
","
","""event"",""trial"",""time""
""fullscreenenter"",""5"",""25999""
","
","","images/earth.jpg","","","","","","","","","","","","","","fixation","","","","","",""
"d3-animate-choice","189","688170","0.0-76.0-0.18","1352","1662","15","Female","true","false","false","false","""event"",""trial"",""time""
""fullscreenenter"",""5"",""25999""
","
","
","""event"",""trial"",""time""
""fullscreenenter"",""5"",""25999""
","
","119","","49","","","3000","1","","","images/earth.jpg","images/rocket2","images/rocket1","null","images/rocket1","","1","real","null","1","","",""
"d3-animate-choice","190","691380","0.0-76.0-1.18","1352","1662","15","Female","true","false","false","false","""event"",""trial"",""time""
""fullscreenenter"",""5"",""25999""
","
","
","""event"",""trial"",""time""
""fullscreenenter"",""5"",""25999""
","
","1206","","48","","","3000","1","","","images/purpleplanet.jpg","images/alien4","images/alien3","images/rocket1","images/alien4","images/t.png","2","real","true","2","1","2022-05-06 01:05:36.738","common"
"two-step-fixation","191","692384","0.0-76.0-2.18","1352","1662","15","Female","true","false","false","false","""event"",""trial"",""time""
""fullscreenenter"",""5"",""25999""
","
","
","""event"",""trial"",""time""
""fullscreenenter"",""5"",""25999""
","
","","images/earth.jpg","","","","","","","","","","","","","","fixation","","","","","",""
"d3-animate-choice","192","694976","0.0-76.0-0.19","1352","1662","15","Female","true","false","false","false","""event"",""trial"",""time""
""fullscreenenter"",""5"",""25999""
","
","
","""event"",""trial"",""time""
""fullscreenenter"",""5"",""25999""
","
","588","","49","","","3000","1","","","images/earth.jpg","images/rocket2","images/rocket1","null","images/rocket1","","1","real","null","1","","",""
"d3-animate-choice","193","697966","0.0-76.0-1.19","1352","1662","15","Female","true","false","false","false","""event"",""trial"",""time""
""fullscreenenter"",""5"",""25999""
","
","
","""event"",""trial"",""time""
""fullscreenenter"",""5"",""25999""
","
","987","","49","","","3000","1","","","images/redplanet1.jpg","images/alien2","images/alien1","images/rocket1","images/alien1","images/t.png","2","real","false","1","1","2022-05-06 01:05:43.324","rare"
"two-step-fixation","194","698970","0.0-76.0-2.19","1352","1662","15","Female","true","false","false","false","""event"",""trial"",""time""
""fullscreenenter"",""5"",""25999""
","
","
","""event"",""trial"",""time""
""fullscreenenter"",""5"",""25999""
","
","","images/earth.jpg","","","","","","","","","","","","","","fixation","","","","","",""
"d3-animate-choice","195","701410","0.0-76.0-0.20","1352","1662","15","Female","true","false","false","false","""event"",""trial"",""time""
""fullscreenenter"",""5"",""25999""
","
","
","""event"",""trial"",""time""
""fullscreenenter"",""5"",""25999""
","
","435","","48","","","3000","1","","","images/earth.jpg","images/rocket2","images/rocket1","null","images/rocket2","","1","real","null","2","","",""
"d3-animate-choice","196","704107","0.0-76.0-1.20","1352","1662","15","Female","true","false","false","false","""event"",""trial"",""time""
""fullscreenenter"",""5"",""25999""
","
","
","""event"",""trial"",""time""
""fullscreenenter"",""5"",""25999""
","
","694","","49","","","3000","1","","","images/redplanet1.jpg","images/alien2","images/alien1","images/rocket2","images/alien1","images/nothing.png","2","real","true","1","0","2022-05-06 01:05:49.465","common"
"two-step-fixation","197","705112","0.0-76.0-2.20","1352","1662","15","Female","true","false","false","false","""event"",""trial"",""time""
""fullscreenenter"",""5"",""25999""
","
","
","""event"",""trial"",""time""
""fullscreenenter"",""5"",""25999""
","
","","images/earth.jpg","","","","","","","","","","","","","","fixation","","","","","",""
"d3-animate-choice","198","707732","0.0-76.0-0.21","1352","1662","15","Female","true","false","false","false","""event"",""trial"",""time""
""fullscreenenter"",""5"",""25999""
","
","
","""event"",""trial"",""time""
""fullscreenenter"",""5"",""25999""
","
","615","","49","","","3000","1","","","images/earth.jpg","images/rocket2","images/rocket1","null","images/rocket1","","1","real","null","1","","",""
"d3-animate-choice","199","710397","0.0-76.0-1.21","1352","1662","15","Female","true","false","false","false","""event"",""trial"",""time""
""fullscreenenter"",""5"",""25999""
","
","
","""event"",""trial"",""time""
""fullscreenenter"",""5"",""25999""
","
","661","","48","","","3000","1","","","images/redplanet1.jpg","images/alien2","images/alien1","images/rocket1","images/alien2","images/t.png","2","real","false","2","1","2022-05-06 01:05:55.755","rare"
"two-step-fixation","200","711401","0.0-76.0-2.21","1352","1662","15","Female","true","false","false","false","""event"",""trial"",""time""
""fullscreenenter"",""5"",""25999""
","
","
","""event"",""trial"",""time""
""fullscreenenter"",""5"",""25999""
","
","","images/earth.jpg","","","","","","","","","","","","","","fixation","","","","","",""
"d3-animate-choice","201","714356","0.0-76.0-0.22","1352","1662","15","Female","true","false","false","false","""event"",""trial"",""time""
""fullscreenenter"",""5"",""25999""
","
","
","""event"",""trial"",""time""
""fullscreenenter"",""5"",""25999""
","
","951","","48","","","3000","1","","","images/earth.jpg","images/rocket2","images/rocket1","null","images/rocket2","","1","real","null","2","","",""
"d3-animate-choice","202","717538","0.0-76.0-1.22","1352","1662","15","Female","true","false","false","false","""event"",""trial"",""time""
""fullscreenenter"",""5"",""25999""
","
","
","""event"",""trial"",""time""
""fullscreenenter"",""5"",""25999""
","
","1178","","48","","","3000","1","","","images/redplanet1.jpg","images/alien2","images/alien1","images/rocket2","images/alien2","images/t.png","2","real","true","2","1","2022-05-06 01:06:02.896","common"
"two-step-fixation","203","718542","0.0-76.0-2.22","1352","1662","15","Female","true","false","false","false","""event"",""trial"",""time""
""fullscreenenter"",""5"",""25999""
","
","
","""event"",""trial"",""time""
""fullscreenenter"",""5"",""25999""
","
","","images/earth.jpg","","","","","","","","","","","","","","fixation","","","","","",""
"d3-animate-choice","204","720885","0.0-76.0-0.23","1352","1662","15","Female","true","false","false","false","""event"",""trial"",""time""
""fullscreenenter"",""5"",""25999""
","
","
","""event"",""trial"",""time""
""fullscreenenter"",""5"",""25999""
","
","338","","49","","","3000","1","","","images/earth.jpg","images/rocket2","images/rocket1","null","images/rocket1","","1","real","null","1","","",""
"d3-animate-choice","205","724405","0.0-76.0-1.23","1352","1662","15","Female","true","false","false","false","""event"",""trial"",""time""
""fullscreenenter"",""5"",""25999""
","
","
","""event"",""trial"",""time""
""fullscreenenter"",""5"",""25999""
","
","1516","","49","","","3000","1","","","images/purpleplanet.jpg","images/alien4","images/alien3","images/rocket1","images/alien3","images/t.png","2","real","true","1","1","2022-05-06 01:06:09.763","common"
"two-step-fixation","206","725409","0.0-76.0-2.23","1352","1662","15","Female","true","false","false","false","""event"",""trial"",""time""
""fullscreenenter"",""5"",""25999""
","
","
","""event"",""trial"",""time""
""fullscreenenter"",""5"",""25999""
","
","","images/earth.jpg","","","","","","","","","","","","","","fixation","","","","","",""
"d3-animate-choice","207","727779","0.0-76.0-0.24","1352","1662","15","Female","true","false","false","false","""event"",""trial"",""time""
""fullscreenenter"",""5"",""25999""
","
","
","""event"",""trial"",""time""
""fullscreenenter"",""5"",""25999""
","
","365","","49","","","3000","1","","","images/earth.jpg","images/rocket2","images/rocket1","null","images/rocket1","","1","real","null","1","","",""
"d3-animate-choice","208","730482","0.0-76.0-1.24","1352","1662","15","Female","true","false","false","false","""event"",""trial"",""time""
""fullscreenenter"",""5"",""25999""
","
","
","""event"",""trial"",""time""
""fullscreenenter"",""5"",""25999""
","
","700","","49","","","3000","1","","","images/purpleplanet.jpg","images/alien4","images/alien3","images/rocket1","images/alien3","images/t.png","2","real","true","1","1","2022-05-06 01:06:15.840","common"
"two-step-fixation","209","731486","0.0-76.0-2.24","1352","1662","15","Female","true","false","false","false","""event"",""trial"",""time""
""fullscreenenter"",""5"",""25999""
","
","
","""event"",""trial"",""time""
""fullscreenenter"",""5"",""25999""
","
","","images/earth.jpg","","","","","","","","","","","","","","fixation","","","","","",""
"d3-animate-choice","210","734365","0.0-76.0-0.25","1352","1662","15","Female","true","false","false","false","""event"",""trial"",""time""
""fullscreenenter"",""5"",""25999""
","
","
","""event"",""trial"",""time""
""fullscreenenter"",""5"",""25999""
","
","874","","48","","","3000","1","","","images/earth.jpg","images/rocket2","images/rocket1","null","images/rocket2","","1","real","null","2","","",""
"d3-animate-choice","211","737076","0.0-76.0-1.25","1352","1662","15","Female","true","false","false","false","""event"",""trial"",""time""
""fullscreenenter"",""5"",""25999""
","
","
","""event"",""trial"",""time""
""fullscreenenter"",""5"",""25999""
","
","707","","48","","","3000","1","","","images/redplanet1.jpg","images/alien2","images/alien1","images/rocket2","images/alien2","images/t.png","2","real","true","2","1","2022-05-06 01:06:22.434","common"
"two-step-fixation","212","738080","0.0-76.0-2.25","1352","1662","15","Female","true","false","false","false","""event"",""trial"",""time""
""fullscreenenter"",""5"",""25999""
","
","
","""event"",""trial"",""time""
""fullscreenenter"",""5"",""25999""
","
","","images/earth.jpg","","","","","","","","","","","","","","fixation","","","","","",""
"d3-animate-choice","213","740491","0.0-76.0-0.26","1352","1662","15","Female","true","false","false","false","""event"",""trial"",""time""
""fullscreenenter"",""5"",""25999""
","
","
","""event"",""trial"",""time""
""fullscreenenter"",""5"",""25999""
","
","407","","48","","","3000","1","","","images/earth.jpg","images/rocket2","images/rocket1","null","images/rocket2","","1","real","null","2","","",""
"d3-animate-choice","214","743931","0.0-76.0-1.26","1352","1662","15","Female","true","false","false","false","""event"",""trial"",""time""
""fullscreenenter"",""5"",""25999""
","
","
","""event"",""trial"",""time""
""fullscreenenter"",""5"",""25999""
","
","1436","","49","","","3000","1","","","images/purpleplanet.jpg","images/alien4","images/alien3","images/rocket2","images/alien3","images/nothing.png","2","real","false","1","0","2022-05-06 01:06:29.289","rare"
"two-step-fixation","215","744935","0.0-76.0-2.26","1352","1662","15","Female","true","false","false","false","""event"",""trial"",""time""
""fullscreenenter"",""5"",""25999""
","
","
","""event"",""trial"",""time""
""fullscreenenter"",""5"",""25999""
","
","","images/earth.jpg","","","","","","","","","","","","","","fixation","","","","","",""
"d3-animate-choice","216","747756","0.0-76.0-0.27","1352","1662","15","Female","true","false","false","false","""event"",""trial"",""time""
""fullscreenenter"",""5"",""25999""
","
","
","""event"",""trial"",""time""
""fullscreenenter"",""5"",""25999""
","
","817","","49","","","3000","1","","","images/earth.jpg","images/rocket2","images/rocket1","null","images/rocket1","","1","real","null","1","","",""
"d3-animate-choice","217","750633","0.0-76.0-1.27","1352","1662","15","Female","true","false","false","false","""event"",""trial"",""time""
""fullscreenenter"",""5"",""25999""
","
","
","""event"",""trial"",""time""
""fullscreenenter"",""5"",""25999""
","
","875","","49","","","3000","1","","","images/purpleplanet.jpg","images/alien4","images/alien3","images/rocket1","images/alien3","images/nothing.png","2","real","true","1","0","2022-05-06 01:06:35.991","common"
"two-step-fixation","218","751637","0.0-76.0-2.27","1352","1662","15","Female","true","false","false","false","""event"",""trial"",""time""
""fullscreenenter"",""5"",""25999""
","
","
","""event"",""trial"",""time""
""fullscreenenter"",""5"",""25999""
","
","","images/earth.jpg","","","","","","","","","","","","","","fixation","","","","","",""
"d3-animate-choice","219","754093","0.0-76.0-0.28","1352","1662","15","Female","true","false","false","false","""event"",""trial"",""time""
""fullscreenenter"",""5"",""25999""
","
","
","""event"",""trial"",""time""
""fullscreenenter"",""5"",""25999""
","
","452","","48","","","3000","1","","","images/earth.jpg","images/rocket2","images/rocket1","null","images/rocket2","","1","real","null","2","","",""
"d3-animate-choice","220","757444","0.0-76.0-1.28","1352","1662","15","Female","true","false","false","false","""event"",""trial"",""time""
""fullscreenenter"",""5"",""25999""
","
","
","""event"",""trial"",""time""
""fullscreenenter"",""5"",""25999""
","
","1347","","48","","","3000","1","","","images/redplanet1.jpg","images/alien2","images/alien1","images/rocket2","images/alien2","images/t.png","2","real","true","2","1","2022-05-06 01:06:42.802","common"
"two-step-fixation","221","758447","0.0-76.0-2.28","1352","1662","15","Female","true","false","false","false","""event"",""trial"",""time""
""fullscreenenter"",""5"",""25999""
","
","
","""event"",""trial"",""time""
""fullscreenenter"",""5"",""25999""
","
","","images/earth.jpg","","","","","","","","","","","","","","fixation","","","","","",""
"d3-animate-choice","222","761011","0.0-76.0-0.29","1352","1662","15","Female","true","false","false","false","""event"",""trial"",""time""
""fullscreenenter"",""5"",""25999""
","
","
","""event"",""trial"",""time""
""fullscreenenter"",""5"",""25999""
","
","561","","48","","","3000","1","","","images/earth.jpg","images/rocket2","images/rocket1","null","images/rocket2","","1","real","null","2","","",""
"d3-animate-choice","223","763825","0.0-76.0-1.29","1352","1662","15","Female","true","false","false","false","""event"",""trial"",""time""
""fullscreenenter"",""5"",""25999""
","
","
","""event"",""trial"",""time""
""fullscreenenter"",""5"",""25999""
","
","811","","48","","","3000","1","","","images/redplanet1.jpg","images/alien2","images/alien1","images/rocket2","images/alien2","images/t.png","2","real","true","2","1","2022-05-06 01:06:49.183","common"
"two-step-fixation","224","764829","0.0-76.0-2.29","1352","1662","15","Female","true","false","false","false","""event"",""trial"",""time""
""fullscreenenter"",""5"",""25999""
","
","
","""event"",""trial"",""time""
""fullscreenenter"",""5"",""25999""
","
","","images/earth.jpg","","","","","","","","","","","","","","fixation","","","","","",""
"d3-animate-choice","225","767057","0.0-76.0-0.30","1352","1662","15","Female","true","false","false","false","""event"",""trial"",""time""
""fullscreenenter"",""5"",""25999""
","
","
","""event"",""trial"",""time""
""fullscreenenter"",""5"",""25999""
","
","224","","48","","","3000","1","","","images/earth.jpg","images/rocket2","images/rocket1","null","images/rocket2","","1","real","null","2","","",""
"d3-animate-choice","226","769760","0.0-76.0-1.30","1352","1662","15","Female","true","false","false","false","""event"",""trial"",""time""
""fullscreenenter"",""5"",""25999""
","
","
","""event"",""trial"",""time""
""fullscreenenter"",""5"",""25999""
","
","699","","48","","","3000","1","","","images/redplanet1.jpg","images/alien2","images/alien1","images/rocket2","images/alien2","images/nothing.png","2","real","true","2","0","2022-05-06 01:06:55.118","common"
"two-step-fixation","227","770763","0.0-76.0-2.30","1352","1662","15","Female","true","false","false","false","""event"",""trial"",""time""
""fullscreenenter"",""5"",""25999""
","
","
","""event"",""trial"",""time""
""fullscreenenter"",""5"",""25999""
","
","","images/earth.jpg","","","","","","","","","","","","","","fixation","","","","","",""
"d3-animate-choice","228","772880","0.0-76.0-0.31","1352","1662","15","Female","true","false","false","false","""event"",""trial"",""time""
""fullscreenenter"",""5"",""25999""
","
","
","""event"",""trial"",""time""
""fullscreenenter"",""5"",""25999""
","
","112","","49","","","3000","1","","","images/earth.jpg","images/rocket2","images/rocket1","null","images/rocket1","","1","real","null","1","","",""
"d3-animate-choice","229","775842","0.0-76.0-1.31","1352","1662","15","Female","true","false","false","false","""event"",""trial"",""time""
""fullscreenenter"",""5"",""25999""
","
","
","""event"",""trial"",""time""
""fullscreenenter"",""5"",""25999""
","
","959","","49","","","3000","1","","","images/purpleplanet.jpg","images/alien4","images/alien3","images/rocket1","images/alien3","images/nothing.png","2","real","true","1","0","2022-05-06 01:07:01.200","common"
"two-step-fixation","230","776846","0.0-76.0-2.31","1352","1662","15","Female","true","false","false","false","""event"",""trial"",""time""
""fullscreenenter"",""5"",""25999""
","
","
","""event"",""trial"",""time""
""fullscreenenter"",""5"",""25999""
","
","","images/earth.jpg","","","","","","","","","","","","","","fixation","","","","","",""
"d3-animate-choice","231","779502","0.0-76.0-0.32","1352","1662","15","Female","true","false","false","false","""event"",""trial"",""time""
""fullscreenenter"",""5"",""25999""
","
","
","""event"",""trial"",""time""
""fullscreenenter"",""5"",""25999""
","
","653","","49","","","3000","1","","","images/earth.jpg","images/rocket2","images/rocket1","null","images/rocket1","","1","real","null","1","","",""
"d3-animate-choice","232","782185","0.0-76.0-1.32","1352","1662","15","Female","true","false","false","false","""event"",""trial"",""time""
""fullscreenenter"",""5"",""25999""
","
","
","""event"",""trial"",""time""
""fullscreenenter"",""5"",""25999""
","
","681","","48","","","3000","1","","","images/purpleplanet.jpg","images/alien4","images/alien3","images/rocket1","images/alien4","images/t.png","2","real","true","2","1","2022-05-06 01:07:07.543","common"
"two-step-fixation","233","783189","0.0-76.0-2.32","1352","1662","15","Female","true","false","false","false","""event"",""trial"",""time""
""fullscreenenter"",""5"",""25999""
","
","
","""event"",""trial"",""time""
""fullscreenenter"",""5"",""25999""
","
","","images/earth.jpg","","","","","","","","","","","","","","fixation","","","","","",""
"d3-animate-choice","234","785590","0.0-76.0-0.33","1352","1662","15","Female","true","false","false","false","""event"",""trial"",""time""
""fullscreenenter"",""5"",""25999""
","
","
","""event"",""trial"",""time""
""fullscreenenter"",""5"",""25999""
","
","397","","49","","","3000","1","","","images/earth.jpg","images/rocket2","images/rocket1","null","images/rocket1","","1","real","null","1","","",""
"d3-animate-choice","235","788511","0.0-76.0-1.33","1352","1662","15","Female","true","false","false","false","""event"",""trial"",""time""
""fullscreenenter"",""5"",""25999""
","
","
","""event"",""trial"",""time""
""fullscreenenter"",""5"",""25999""
","
","918","","48","","","3000","1","","","images/purpleplanet.jpg","images/alien4","images/alien3","images/rocket1","images/alien4","images/nothing.png","2","real","true","2","0","2022-05-06 01:07:13.869","common"
"two-step-fixation","236","789515","0.0-76.0-2.33","1352","1662","15","Female","true","false","false","false","""event"",""trial"",""time""
""fullscreenenter"",""5"",""25999""
","
","
","""event"",""trial"",""time""
""fullscreenenter"",""5"",""25999""
","
","","images/earth.jpg","","","","","","","","","","","","","","fixation","","","","","",""
"d3-animate-choice","237","792030","0.0-76.0-0.34","1352","1662","15","Female","true","false","false","false","""event"",""trial"",""time""
""fullscreenenter"",""5"",""25999""
","
","
","""event"",""trial"",""time""
""fullscreenenter"",""5"",""25999""
","
","511","","48","","","3000","1","","","images/earth.jpg","images/rocket2","images/rocket1","null","images/rocket2","","1","real","null","2","","",""
"d3-animate-choice","238","795445","0.0-76.0-1.34","1352","1662","15","Female","true","false","false","false","""event"",""trial"",""time""
""fullscreenenter"",""5"",""25999""
","
","
","""event"",""trial"",""time""
""fullscreenenter"",""5"",""25999""
","
","1412","","48","","","3000","1","","","images/purpleplanet.jpg","images/alien4","images/alien3","images/rocket2","images/alien4","images/t.png","2","real","false","2","1","2022-05-06 01:07:20.803","rare"
"two-step-fixation","239","796449","0.0-76.0-2.34","1352","1662","15","Female","true","false","false","false","""event"",""trial"",""time""
""fullscreenenter"",""5"",""25999""
","
","
","""event"",""trial"",""time""
""fullscreenenter"",""5"",""25999""
","
","","images/earth.jpg","","","","","","","","","","","","","","fixation","","","","","",""
"d3-animate-choice","240","798837","0.0-76.0-0.35","1352","1662","15","Female","true","false","false","false","""event"",""trial"",""time""
""fullscreenenter"",""5"",""25999""
","
","
","""event"",""trial"",""time""
""fullscreenenter"",""5"",""25999""
","
","385","","48","","","3000","1","","","images/earth.jpg","images/rocket2","images/rocket1","null","images/rocket2","","1","real","null","2","","",""
"d3-animate-choice","241","801811","0.0-76.0-1.35","1352","1662","15","Female","true","false","false","false","""event"",""trial"",""time""
""fullscreenenter"",""5"",""25999""
","
","
","""event"",""trial"",""time""
""fullscreenenter"",""5"",""25999""
","
","972","","48","","","3000","1","","","images/purpleplanet.jpg","images/alien4","images/alien3","images/rocket2","images/alien4","images/t.png","2","real","false","2","1","2022-05-06 01:07:27.169","rare"
"two-step-fixation","242","802815","0.0-76.0-2.35","1352","1662","15","Female","true","false","false","false","""event"",""trial"",""time""
""fullscreenenter"",""5"",""25999""
","
","
","""event"",""trial"",""time""
""fullscreenenter"",""5"",""25999""
","
","","images/earth.jpg","","","","","","","","","","","","","","fixation","","","","","",""
"d3-animate-choice","243","805266","0.0-76.0-0.36","1352","1662","15","Female","true","false","false","false","""event"",""trial"",""time""
""fullscreenenter"",""5"",""25999""
","
","
","""event"",""trial"",""time""
""fullscreenenter"",""5"",""25999""
","
","448","","48","","","3000","1","","","images/earth.jpg","images/rocket2","images/rocket1","null","images/rocket2","","1","real","null","2","","",""
"d3-animate-choice","244","808006","0.0-76.0-1.36","1352","1662","15","Female","true","false","false","false","""event"",""trial"",""time""
""fullscreenenter"",""5"",""25999""
","
","
","""event"",""trial"",""time""
""fullscreenenter"",""5"",""25999""
","
","736","","48","","","3000","1","","","images/purpleplanet.jpg","images/alien4","images/alien3","images/rocket2","images/alien4","images/t.png","2","real","false","2","1","2022-05-06 01:07:33.364","rare"
"two-step-fixation","245","809010","0.0-76.0-2.36","1352","1662","15","Female","true","false","false","false","""event"",""trial"",""time""
""fullscreenenter"",""5"",""25999""
","
","
","""event"",""trial"",""time""
""fullscreenenter"",""5"",""25999""
","
","","images/earth.jpg","","","","","","","","","","","","","","fixation","","","","","",""
"d3-animate-choice","246","811422","0.0-76.0-0.37","1352","1662","15","Female","true","false","false","false","""event"",""trial"",""time""
""fullscreenenter"",""5"",""25999""
","
","
","""event"",""trial"",""time""
""fullscreenenter"",""5"",""25999""
","
","408","","48","","","3000","1","","","images/earth.jpg","images/rocket2","images/rocket1","null","images/rocket2","","1","real","null","2","","",""
"d3-animate-choice","247","814564","0.0-76.0-1.37","1352","1662","15","Female","true","false","false","false","""event"",""trial"",""time""
""fullscreenenter"",""5"",""25999""
","
","
","""event"",""trial"",""time""
""fullscreenenter"",""5"",""25999""
","
","1139","","48","","","3000","1","","","images/redplanet1.jpg","images/alien2","images/alien1","images/rocket2","images/alien2","images/t.png","2","real","true","2","1","2022-05-06 01:07:39.922","common"
"two-step-fixation","248","815568","0.0-76.0-2.37","1352","1662","15","Female","true","false","false","false","""event"",""trial"",""time""
""fullscreenenter"",""5"",""25999""
","
","
","""event"",""trial"",""time""
""fullscreenenter"",""5"",""25999""
","
","","images/earth.jpg","","","","","","","","","","","","","","fixation","","","","","",""
