"trial_type","trial_index","time_elapsed","internal_node_id","participant_id","subject_id","age","gender","rocket_sides","red_planet_first_rocket","red_display_order","purple_display_order","interactions","blur_events","focus_events","fullscreenenter_events","fullscreenexit_events","rt","stimulus","key_press","button_pressed","success","duration","valid_pressed","rts","keys","planet_text","right_text","left_text","center_text","chosen_text","reward_text","trial_stage","practice_trial","transition_type","choice","transition","reward","timestamp"
"pavlovia","0","10","0.0-0.0","936","666","11","Female","false","false","false","true","
","
","
","
","
","","","","","","","","","","","","","","","","","","","","","",""
"html-keyboard-response","1","4926","0.0-1.0","936","666","11","Female","false","false","false","true","
","
","
","
","
","4913.900000000009","Welcome! Press the space bar to begin.","13","","","","","","","","","","","","","","","","","","",""
"audio-keyboard-response","2","7856","0.0-2.0","936","666","11","Female","false","false","false","true","
","
","
","
","
","2581","audio/beep_loop.wav","13","","","","","","","","","","","","","","","","","","",""
"audio-button-response","3","10300","0.0-3.0","936","666","11","Female","false","false","false","true","
","
","
","
","
","NaN","audio/fish.mp3","","1","","","","","","","","","","","","","","","","","",""
"audio-button-response","4","13548","0.0-4.0","936","666","11","Female","false","false","false","true","""event"",""trial"",""time""
""fullscreenenter"",""5"",""16384""
","
","
","""event"",""trial"",""time""
""fullscreenenter"",""5"",""16384""
","
","NaN","audio/tiger.mp3","","4","","","","","","","","","","","","","","","","","",""
"fullscreen","5","17346","0.0-5.0","936","666","11","Female","false","false","false","true","""event"",""trial"",""time""
""fullscreenenter"",""5"",""16384""
","
","
","""event"",""trial"",""time""
""fullscreenenter"",""5"",""16384""
","
","","","","","true","","","","","","","","","","","","","","","","",""
"d3-instructions","6","29662","0.0-6.0","936","666","11","Female","false","false","false","true","""event"",""trial"",""time""
""fullscreenenter"",""5"",""16384""
","
","
","""event"",""trial"",""time""
""fullscreenenter"",""5"",""16384""
","
","","","","","","","","","","","","","","","","","","","","","",""
"d3-instructions","7","36939","0.0-7.0","936","666","11","Female","false","false","false","true","""event"",""trial"",""time""
""fullscreenenter"",""5"",""16384""
","
","
","""event"",""trial"",""time""
""fullscreenenter"",""5"",""16384""
","
","","","","","","","","","","","","","","","","","","","","","",""
"d3-instructions","8","42266","0.0-8.0","936","666","11","Female","false","false","false","true","""event"",""trial"",""time""
""fullscreenenter"",""5"",""16384""
","
","
","""event"",""trial"",""time""
""fullscreenenter"",""5"",""16384""
","
","","","","","","","","","","","","","","","","","","","","","",""
"d3-instructions","9","44797","0.0-9.0","936","666","11","Female","false","false","false","true","""event"",""trial"",""time""
""fullscreenenter"",""5"",""16384""
","
","
","""event"",""trial"",""time""
""fullscreenenter"",""5"",""16384""
","
","","","","","","","","","","","","","","","","","","","","","",""
"d3-instructions","10","47862","0.0-10.0","936","666","11","Female","false","false","false","true","""event"",""trial"",""time""
""fullscreenenter"",""5"",""16384""
","
","
","""event"",""trial"",""time""
""fullscreenenter"",""5"",""16384""
","
","","","","","","","","","","","","","","","","","","","","","",""
"d3-animate-choice","11","52048","0.0-11.0","936","666","11","Female","false","false","false","true","""event"",""trial"",""time""
""fullscreenenter"",""5"",""16384""
","
","
","""event"",""trial"",""time""
""fullscreenenter"",""5"",""16384""
","
","1056.5","","111","","","3000","1","1627.5,2172.5,2637.5999999999913,2926.0999999999913","111,49,111,111","images/tutgreenplanet.jpg","images/tutalien1","images/tutalien2","null","images/tutalien2","","NA","practice","null","","","",""
"d3-animate-choice","12","60897","0.0-12.0","936","666","11","Female","false","false","false","true","""event"",""trial"",""time""
""fullscreenenter"",""5"",""16384""
","
","
","""event"",""trial"",""time""
""fullscreenenter"",""5"",""16384""
","
","2098","","111","","","3000","1","2552.199999999997,2908.100000000006,3095.4000000000087,3309,3903.699999999997,4061.4000000000087,4264.599999999991,4418.199999999997,4592.000000000015,5031.599999999991,5204.199999999997,5460.599999999991,5593.000000000015,5781.699999999997,5929.800000000003,6093.199999999997,6246.400000000009,6377.599999999991,6620.000000000015,6842.300000000003","111,111,111,111,111,111,111,111,111,111,111,111,111,111,111,111,111,111,111,49","images/tutgreenplanet.jpg","images/tutalien1","images/tutalien2","null","images/tutalien2","","NA","practice","null","","","",""
"d3-animate-choice","13","63810","0.0-13.0","936","666","11","Female","false","false","false","true","""event"",""trial"",""time""
""fullscreenenter"",""5"",""16384""
","
","
","""event"",""trial"",""time""
""fullscreenenter"",""5"",""16384""
","
","904.5","","49","","","3000","1","","","images/tutgreenplanet.jpg","images/tutalien1","images/tutalien2","null","images/tutalien2","","NA","practice","null","","","",""
"d3-animate-choice","14","68467","0.0-14.0","936","666","11","Female","false","false","false","true","""event"",""trial"",""time""
""fullscreenenter"",""5"",""16384""
","
","
","""event"",""trial"",""time""
""fullscreenenter"",""5"",""16384""
","
","2643.100000000006","","49","","","3000","1","4635.299999999988","102","images/tutgreenplanet.jpg","images/tutalien1","images/tutalien2","null","images/tutalien2","","NA","practice","null","","","",""
"d3-instructions","15","74576","0.0-15.0","936","666","11","Female","false","false","false","true","""event"",""trial"",""time""
""fullscreenenter"",""5"",""16384""
","
","
","""event"",""trial"",""time""
""fullscreenenter"",""5"",""16384""
","
","","","","","","","","","","","","","","","","","","","","","",""
"d3-instructions","16","79364","0.0-16.0","936","666","11","Female","false","false","false","true","""event"",""trial"",""time""
""fullscreenenter"",""5"",""16384""
","
","
","""event"",""trial"",""time""
""fullscreenenter"",""5"",""16384""
","
","","","","","","","","","","","","","","","","","","","","","",""
"d3-instructions","17","81225","0.0-17.0","936","666","11","Female","false","false","false","true","""event"",""trial"",""time""
""fullscreenenter"",""5"",""16384""
","
","
","""event"",""trial"",""time""
""fullscreenenter"",""5"",""16384""
","
","","","","","","","","","","","","","","","","","","","","","",""
"d3-instructions","18","82850","0.0-18.0","936","666","11","Female","false","false","false","true","""event"",""trial"",""time""
""fullscreenenter"",""5"",""16384""
","
","
","""event"",""trial"",""time""
""fullscreenenter"",""5"",""16384""
","
","","","","","","","","","","","","","","","","","","","","","",""
"d3-instructions","19","83728","0.0-19.0","936","666","11","Female","false","false","false","true","""event"",""trial"",""time""
""fullscreenenter"",""5"",""16384""
","
","
","""event"",""trial"",""time""
""fullscreenenter"",""5"",""16384""
","
","","","","","","","","","","","","","","","","","","","","","",""
"d3-animate-choice","20","86862","0.0-20.0","936","666","11","Female","false","false","false","true","""event"",""trial"",""time""
""fullscreenenter"",""5"",""16384""
","
","
","""event"",""trial"",""time""
""fullscreenenter"",""5"",""16384""
","
","1128.9000000000233","","49","","","3000","1","","","images/tutyellowplanet.jpg","null","images/tutalien3","null","images/tutalien3","images/t.png","NA","practice","null","","","",""
"d3-animate-choice","21","89181","0.0-21.0","936","666","11","Female","false","false","false","true","""event"",""trial"",""time""
""fullscreenenter"",""5"",""16384""
","
","
","""event"",""trial"",""time""
""fullscreenenter"",""5"",""16384""
","
","305.6000000000058","","49","","","3000","1","1837.2000000000116","49","images/tutyellowplanet.jpg","null","images/tutalien3","null","images/tutalien3","images/t.png","NA","practice","null","","","",""
"d3-animate-choice","22","91311","0.0-22.0","936","666","11","Female","false","false","false","true","""event"",""trial"",""time""
""fullscreenenter"",""5"",""16384""
","
","
","""event"",""trial"",""time""
""fullscreenenter"",""5"",""16384""
","
","117.39999999999418","","49","","","3000","1","","","images/tutyellowplanet.jpg","null","images/tutalien3","null","images/tutalien3","images/nothing.png","NA","practice","null","","","",""
"d3-animate-choice","23","93537","0.0-23.0","936","666","11","Female","false","false","false","true","""event"",""trial"",""time""
""fullscreenenter"",""5"",""16384""
","
","
","""event"",""trial"",""time""
""fullscreenenter"",""5"",""16384""
","
","222","","49","","","3000","1","","","images/tutyellowplanet.jpg","null","images/tutalien3","null","images/tutalien3","images/t.png","NA","practice","null","","","",""
"d3-animate-choice","24","95848","0.0-24.0","936","666","11","Female","false","false","false","true","""event"",""trial"",""time""
""fullscreenenter"",""5"",""16384""
","
","
","""event"",""trial"",""time""
""fullscreenenter"",""5"",""16384""
","
","301","","49","","","3000","1","1995.2999999999884","49","images/tutyellowplanet.jpg","null","images/tutalien3","null","images/tutalien3","images/t.png","NA","practice","null","","","",""
"d3-animate-choice","25","98222","0.0-25.0","936","666","11","Female","false","false","false","true","""event"",""trial"",""time""
""fullscreenenter"",""5"",""16384""
","
","
","""event"",""trial"",""time""
""fullscreenenter"",""5"",""16384""
","
","356","","49","","","3000","1","","","images/tutyellowplanet.jpg","null","images/tutalien3","null","images/tutalien3","images/t.png","NA","practice","null","","","",""
"d3-animate-choice","26","100512","0.0-26.0","936","666","11","Female","false","false","false","true","""event"",""trial"",""time""
""fullscreenenter"",""5"",""16384""
","
","
","""event"",""trial"",""time""
""fullscreenenter"",""5"",""16384""
","
","281.3999999999942","","49","","","3000","1","","","images/tutyellowplanet.jpg","null","images/tutalien3","null","images/tutalien3","images/nothing.png","NA","practice","null","","","",""
"d3-animate-choice","27","102781","0.0-27.0","936","666","11","Female","false","false","false","true","""event"",""trial"",""time""
""fullscreenenter"",""5"",""16384""
","
","
","""event"",""trial"",""time""
""fullscreenenter"",""5"",""16384""
","
","262.79999999998836","","49","","","3000","1","666.5,935.7000000000116,1943.2999999999884,2146.600000000006","49,49,49,49","images/tutyellowplanet.jpg","null","images/tutalien3","null","images/tutalien3","images/t.png","NA","practice","null","","","",""
"d3-animate-choice","28","104861","0.0-28.0","936","666","11","Female","false","false","false","true","""event"",""trial"",""time""
""fullscreenenter"",""5"",""16384""
","
","
","""event"",""trial"",""time""
""fullscreenenter"",""5"",""16384""
","
","70","","49","","","3000","1","278.70000000001164,1181.7999999999884,1626,1985.6000000000058","49,49,49,49","images/tutyellowplanet.jpg","null","images/tutalien3","null","images/tutalien3","images/t.png","NA","practice","null","","","",""
"d3-animate-choice","29","107146","0.0-29.0","936","666","11","Female","false","false","false","true","""event"",""trial"",""time""
""fullscreenenter"",""5"",""16384""
","
","
","""event"",""trial"",""time""
""fullscreenenter"",""5"",""16384""
","
","267.5","","49","","","3000","1","574.5,817.7999999999884,1041.1999999999825,1324.1000000000058,1570.6999999999825","49,49,49,49,49","images/tutyellowplanet.jpg","null","images/tutalien3","null","images/tutalien3","images/t.png","NA","practice","null","","","",""
"d3-instructions","30","111085","0.0-30.0","936","666","11","Female","false","false","false","true","""event"",""trial"",""time""
""fullscreenenter"",""5"",""16384""
","
","
","""event"",""trial"",""time""
""fullscreenenter"",""5"",""16384""
","
","","","","","","","","","","","","","","","","","","","","","",""
"d3-instructions","31","111755","0.0-31.0","936","666","11","Female","false","false","false","true","""event"",""trial"",""time""
""fullscreenenter"",""5"",""16384""
","
","
","""event"",""trial"",""time""
""fullscreenenter"",""5"",""16384""
","
","","","","","","","","","","","","","","","","","","","","","",""
"d3-instructions","32","112656","0.0-32.0","936","666","11","Female","false","false","false","true","""event"",""trial"",""time""
""fullscreenenter"",""5"",""16384""
","
","
","""event"",""trial"",""time""
""fullscreenenter"",""5"",""16384""
","
","","","","","","","","","","","","","","","","","","","","","",""
"d3-instructions","33","113352","0.0-33.0","936","666","11","Female","false","false","false","true","""event"",""trial"",""time""
""fullscreenenter"",""5"",""16384""
","
","
","""event"",""trial"",""time""
""fullscreenenter"",""5"",""16384""
","
","","","","","","","","","","","","","","","","","","","","","",""
"d3-animate-choice","34","117067","0.0-34.0","936","666","11","Female","false","false","false","true","""event"",""trial"",""time""
""fullscreenenter"",""5"",""16384""
","
","
","""event"",""trial"",""time""
""fullscreenenter"",""5"",""16384""
","
","1142.8000000000175","","105","","","3000","1","1155.1000000000058,1484.7000000000116,1709.8000000000175,1778.1000000000058,3095.3000000000175","111,111,49,111,111","images/tutgreenplanet.jpg","images/tutalien1","images/tutalien2","null","images/tutalien2","images/t.png","NA","practice","null","","","",""
"d3-animate-choice","35","119470","0.0-35.0","936","666","11","Female","false","false","false","true","""event"",""trial"",""time""
""fullscreenenter"",""5"",""16384""
","
","
","""event"",""trial"",""time""
""fullscreenenter"",""5"",""16384""
","
","206","","16","","","3000","1","390.29999999998836,2046.5999999999767,2237.5","49,111,111","images/tutgreenplanet.jpg","images/tutalien1","images/tutalien2","null","images/tutalien2","images/t.png","NA","practice","null","","","",""
"d3-animate-choice","36","122082","0.0-36.0","936","666","11","Female","false","false","false","true","""event"",""trial"",""time""
""fullscreenenter"",""5"",""16384""
","
","
","""event"",""trial"",""time""
""fullscreenenter"",""5"",""16384""
","
","0.20000000001164153","","111","","","3000","1","483.80000000001746,604.5,952.8000000000175,2456.5","111,49,49,49","images/tutgreenplanet.jpg","images/tutalien1","images/tutalien2","null","images/tutalien2","images/t.png","NA","practice","null","","","",""
"d3-animate-choice","37","126370","0.0-37.0","936","666","11","Female","false","false","false","true","""event"",""trial"",""time""
""fullscreenenter"",""5"",""16384""
","
","
","""event"",""trial"",""time""
""fullscreenenter"",""5"",""16384""
","
","2265.600000000006","","49","","","3000","1","4007.100000000006","49","images/tutgreenplanet.jpg","images/tutalien1","images/tutalien2","null","images/tutalien2","images/t.png","NA","practice","null","","","",""
"d3-animate-choice","38","128983","0.0-38.0","936","666","11","Female","false","false","false","true","""event"",""trial"",""time""
""fullscreenenter"",""5"",""16384""
","
","
","""event"",""trial"",""time""
""fullscreenenter"",""5"",""16384""
","
","603.7999999999884","","49","","","3000","1","","","images/tutgreenplanet.jpg","images/tutalien1","images/tutalien2","null","images/tutalien2","images/nothing.png","NA","practice","null","","","",""
"d3-animate-choice","39","131399","0.0-39.0","936","666","11","Female","false","false","false","true","""event"",""trial"",""time""
""fullscreenenter"",""5"",""16384""
","
","
","""event"",""trial"",""time""
""fullscreenenter"",""5"",""16384""
","
","400.79999999998836","","49","","","3000","1","","","images/tutgreenplanet.jpg","images/tutalien1","images/tutalien2","null","images/tutalien2","images/t.png","NA","practice","null","","","",""
"d3-animate-choice","40","134477","0.0-40.0","936","666","11","Female","false","false","false","true","""event"",""trial"",""time""
""fullscreenenter"",""5"",""16384""
","
","
","""event"",""trial"",""time""
""fullscreenenter"",""5"",""16384""
","
","1080.8000000000175","","49","","","3000","1","3071.899999999994","49","images/tutgreenplanet.jpg","images/tutalien1","images/tutalien2","null","images/tutalien2","images/t.png","NA","practice","null","","","",""
"d3-animate-choice","41","137198","0.0-41.0","936","666","11","Female","false","false","false","true","""event"",""trial"",""time""
""fullscreenenter"",""5"",""16384""
","
","
","""event"",""trial"",""time""
""fullscreenenter"",""5"",""16384""
","
","707.5","","49","","","3000","1","","","images/tutgreenplanet.jpg","images/tutalien1","images/tutalien2","null","images/tutalien2","images/t.png","NA","practice","null","","","",""
"d3-animate-choice","42","139261","0.0-42.0","936","666","11","Female","false","false","false","true","""event"",""trial"",""time""
""fullscreenenter"",""5"",""16384""
","
","
","""event"",""trial"",""time""
""fullscreenenter"",""5"",""16384""
","
","53.70000000001164","","49","","","3000","1","","","images/tutgreenplanet.jpg","images/tutalien1","images/tutalien2","null","images/tutalien2","images/t.png","NA","practice","null","","","",""
"d3-animate-choice","43","146947","0.0-43.0","936","666","11","Female","false","false","false","true","""event"",""trial"",""time""
""fullscreenenter"",""5"",""16384""
","
","
","""event"",""trial"",""time""
""fullscreenenter"",""5"",""16384""
","
","5678.599999999977","","49","","","3000","1","6827.799999999988,7543.799999999988","49,49","images/tutgreenplanet.jpg","images/tutalien1","images/tutalien2","null","images/tutalien2","images/t.png","NA","practice","null","","","",""
"d3-instructions","44","148827","0.0-44.0","936","666","11","Female","false","false","false","true","""event"",""trial"",""time""
""fullscreenenter"",""5"",""16384""
","
","
","""event"",""trial"",""time""
""fullscreenenter"",""5"",""16384""
","
","","","","","","","","","","","","","","","","","","","","","",""
"d3-instructions","45","149623","0.0-45.0","936","666","11","Female","false","false","false","true","""event"",""trial"",""time""
""fullscreenenter"",""5"",""16384""
","
","
","""event"",""trial"",""time""
""fullscreenenter"",""5"",""16384""
","
","","","","","","","","","","","","","","","","","","","","","",""
"d3-instructions","46","150392","0.0-46.0","936","666","11","Female","false","false","false","true","""event"",""trial"",""time""
""fullscreenenter"",""5"",""16384""
","
","
","""event"",""trial"",""time""
""fullscreenenter"",""5"",""16384""
","
","","","","","","","","","","","","","","","","","","","","","",""
"d3-instructions","47","151084","0.0-47.0","936","666","11","Female","false","false","false","true","""event"",""trial"",""time""
""fullscreenenter"",""5"",""16384""
","
","
","""event"",""trial"",""time""
""fullscreenenter"",""5"",""16384""
","
","","","","","","","","","","","","","","","","","","","","","",""
"d3-instructions","48","151789","0.0-48.0","936","666","11","Female","false","false","false","true","""event"",""trial"",""time""
""fullscreenenter"",""5"",""16384""
","
","
","""event"",""trial"",""time""
""fullscreenenter"",""5"",""16384""
","
","","","","","","","","","","","","","","","","","","","","","",""
"d3-instructions","49","153330","0.0-49.0","936","666","11","Female","false","false","false","true","""event"",""trial"",""time""
""fullscreenenter"",""5"",""16384""
","
","
","""event"",""trial"",""time""
""fullscreenenter"",""5"",""16384""
","
","","","","","","","","","","","","","","","","","","","","","",""
"d3-instructions","50","154147","0.0-50.0","936","666","11","Female","false","false","false","true","""event"",""trial"",""time""
""fullscreenenter"",""5"",""16384""
","
","
","""event"",""trial"",""time""
""fullscreenenter"",""5"",""16384""
","
","","","","","","","","","","","","","","","","","","","","","",""
"d3-instructions","51","154882","0.0-51.0","936","666","11","Female","false","false","false","true","""event"",""trial"",""time""
""fullscreenenter"",""5"",""16384""
","
","
","""event"",""trial"",""time""
""fullscreenenter"",""5"",""16384""
","
","","","","","","","","","","","","","","","","","","","","","",""
"d3-instructions","52","155598","0.0-52.0","936","666","11","Female","false","false","false","true","""event"",""trial"",""time""
""fullscreenenter"",""5"",""16384""
","
","
","""event"",""trial"",""time""
""fullscreenenter"",""5"",""16384""
","
","","","","","","","","","","","","","","","","","","","","","",""
"d3-instructions","53","156441","0.0-53.0","936","666","11","Female","false","false","false","true","""event"",""trial"",""time""
""fullscreenenter"",""5"",""16384""
","
","
","""event"",""trial"",""time""
""fullscreenenter"",""5"",""16384""
","
","","","","","","","","","","","","","","","","","","","","","",""
"d3-instructions","54","157689","0.0-54.0","936","666","11","Female","false","false","false","true","""event"",""trial"",""time""
""fullscreenenter"",""5"",""16384""
","
","
","""event"",""trial"",""time""
""fullscreenenter"",""5"",""16384""
","
","","","","","","","","","","","","","","","","","","","","","",""
"d3-instructions","55","158634","0.0-55.0","936","666","11","Female","false","false","false","true","""event"",""trial"",""time""
""fullscreenenter"",""5"",""16384""
","
","
","""event"",""trial"",""time""
""fullscreenenter"",""5"",""16384""
","
","","","","","","","","","","","","","","","","","","","","","",""
"d3-instructions","56","159668","0.0-56.0","936","666","11","Female","false","false","false","true","""event"",""trial"",""time""
""fullscreenenter"",""5"",""16384""
","
","
","""event"",""trial"",""time""
""fullscreenenter"",""5"",""16384""
","
","","","","","","","","","","","","","","","","","","","","","",""
"d3-instructions","57","160524","0.0-57.0","936","666","11","Female","false","false","false","true","""event"",""trial"",""time""
""fullscreenenter"",""5"",""16384""
","
","
","""event"",""trial"",""time""
""fullscreenenter"",""5"",""16384""
","
","","","","","","","","","","","","","","","","","","","","","",""
"d3-instructions","58","161620","0.0-58.0","936","666","11","Female","false","false","false","true","""event"",""trial"",""time""
""fullscreenenter"",""5"",""16384""
","
","
","""event"",""trial"",""time""
""fullscreenenter"",""5"",""16384""
","
","","","","","","","","","","","","","","","","","","","","","",""
"d3-instructions","59","162986","0.0-59.0","936","666","11","Female","false","false","false","true","""event"",""trial"",""time""
""fullscreenenter"",""5"",""16384""
","
","
","""event"",""trial"",""time""
""fullscreenenter"",""5"",""16384""
","
","","","","","","","","","","","","","","","","","","","","","",""
"d3-instructions","60","163853","0.0-60.0","936","666","11","Female","false","false","false","true","""event"",""trial"",""time""
""fullscreenenter"",""5"",""16384""
","
","
","""event"",""trial"",""time""
""fullscreenenter"",""5"",""16384""
","
","","","","","","","","","","","","","","","","","","","","","",""
"d3-animate-choice","61","166688","0.0-61.0-0.0","936","666","11","Female","false","false","false","true","""event"",""trial"",""time""
""fullscreenenter"",""5"",""16384""
","
","
","""event"",""trial"",""time""
""fullscreenenter"",""5"",""16384""
","
","826","","49","","","3000","1","","","images/earth.jpg","images/tutrocket2","images/tutrocket1","null","images/tutrocket1","","1","practice","null","1","","",""
"d3-animate-choice","62","169397","0.0-61.0-1.0","936","666","11","Female","false","false","false","true","""event"",""trial"",""time""
""fullscreenenter"",""5"",""16384""
","
","
","""event"",""trial"",""time""
""fullscreenenter"",""5"",""16384""
","
","697.1999999999825","","49","","","3000","1","","","images/tutyellowplanet.jpg","images/tutalien4","images/tutalien3","images/tutrocket1","images/tutalien3","images/nothing.png","2","practice","true","1","common","0","2022-02-08 02:52:08.200"
"two-step-fixation","63","170408","0.0-61.0-2.0","936","666","11","Female","false","false","false","true","""event"",""trial"",""time""
""fullscreenenter"",""5"",""16384""
","
","
","""event"",""trial"",""time""
""fullscreenenter"",""5"",""16384""
","
","","images/earth.jpg","","","","","","","","","","","","","","fixation","","","","","",""
"d3-animate-choice","64","172665","0.0-61.0-0.1","936","666","11","Female","false","false","false","true","""event"",""trial"",""time""
""fullscreenenter"",""5"",""16384""
","
","
","""event"",""trial"",""time""
""fullscreenenter"",""5"",""16384""
","
","246.39999999999418","","49","","","3000","1","","","images/earth.jpg","images/tutrocket2","images/tutrocket1","null","images/tutrocket1","","1","practice","null","1","","",""
"d3-animate-choice","65","176678","0.0-61.0-1.1","936","666","11","Female","false","false","false","true","""event"",""trial"",""time""
""fullscreenenter"",""5"",""16384""
","
","
","""event"",""trial"",""time""
""fullscreenenter"",""5"",""16384""
","
","641.8999999999942","","111","","","3000","0","828.6000000000058,1111.3999999999942,1609,2296.899999999994,3089.600000000006,3639.899999999994","111,111,20,20,20,20","images/tutyellowplanet.jpg","images/tutalien4","images/tutalien3","images/tutrocket1","","","2","practice","true","","common","0","2022-02-08 02:52:15.481"
"two-step-fixation","66","177699","0.0-61.0-2.1","936","666","11","Female","false","false","false","true","""event"",""trial"",""time""
""fullscreenenter"",""5"",""16384""
","
","
","""event"",""trial"",""time""
""fullscreenenter"",""5"",""16384""
","
","","images/earth.jpg","","","","","","","","","","","","","","fixation","","","","","",""
"d3-animate-choice","67","180736","0.0-61.0-0.2","936","666","11","Female","false","false","false","true","""event"",""trial"",""time""
""fullscreenenter"",""5"",""16384""
","
","
","""event"",""trial"",""time""
""fullscreenenter"",""5"",""16384""
","
","634.3000000000175","","111","","","3000","1","1027.7000000000116","49","images/earth.jpg","images/tutrocket2","images/tutrocket1","null","images/tutrocket1","","1","practice","null","","","",""
"d3-animate-choice","68","183221","0.0-61.0-1.2","936","666","11","Female","false","false","false","true","""event"",""trial"",""time""
""fullscreenenter"",""5"",""16384""
","
","
","""event"",""trial"",""time""
""fullscreenenter"",""5"",""16384""
","
","480.20000000001164","","49","","","3000","1","","","images/tutyellowplanet.jpg","images/tutalien4","images/tutalien3","images/tutrocket1","images/tutalien3","images/nothing.png","2","practice","true","1","common","0","2022-02-08 02:52:22.025"
"two-step-fixation","69","184225","0.0-61.0-2.2","936","666","11","Female","false","false","false","true","""event"",""trial"",""time""
""fullscreenenter"",""5"",""16384""
","
","
","""event"",""trial"",""time""
""fullscreenenter"",""5"",""16384""
","
","","images/earth.jpg","","","","","","","","","","","","","","fixation","","","","","",""
"d3-animate-choice","70","186574","0.0-61.0-0.3","936","666","11","Female","false","false","false","true","""event"",""trial"",""time""
""fullscreenenter"",""5"",""16384""
","
","
","""event"",""trial"",""time""
""fullscreenenter"",""5"",""16384""
","
","341.80000000001746","","49","","","3000","1","","","images/earth.jpg","images/tutrocket2","images/tutrocket1","null","images/tutrocket1","","1","practice","null","1","","",""
"d3-animate-choice","71","189335","0.0-61.0-1.3","936","666","11","Female","false","false","false","true","""event"",""trial"",""time""
""fullscreenenter"",""5"",""16384""
","
","
","""event"",""trial"",""time""
""fullscreenenter"",""5"",""16384""
","
","742.6999999999825","","49","","","3000","1","","","images/tutyellowplanet.jpg","images/tutalien4","images/tutalien3","images/tutrocket1","images/tutalien3","images/nothing.png","2","practice","true","1","common","0","2022-02-08 02:52:28.139"
"two-step-fixation","72","190339","0.0-61.0-2.3","936","666","11","Female","false","false","false","true","""event"",""trial"",""time""
""fullscreenenter"",""5"",""16384""
","
","
","""event"",""trial"",""time""
""fullscreenenter"",""5"",""16384""
","
","","images/earth.jpg","","","","","","","","","","","","","","fixation","","","","","",""
"d3-animate-choice","73","192620","0.0-61.0-0.4","936","666","11","Female","false","false","false","true","""event"",""trial"",""time""
""fullscreenenter"",""5"",""16384""
","
","
","""event"",""trial"",""time""
""fullscreenenter"",""5"",""16384""
","
","270.4000000000233","","49","","","3000","1","","","images/earth.jpg","images/tutrocket2","images/tutrocket1","null","images/tutrocket1","","1","practice","null","1","","",""
"d3-animate-choice","74","194969","0.0-61.0-1.4","936","666","11","Female","false","false","false","true","""event"",""trial"",""time""
""fullscreenenter"",""5"",""16384""
","
","
","""event"",""trial"",""time""
""fullscreenenter"",""5"",""16384""
","
","345.19999999995343","","49","","","3000","1","1166","49","images/tutyellowplanet.jpg","images/tutalien4","images/tutalien3","images/tutrocket1","images/tutalien3","images/nothing.png","2","practice","true","1","common","0","2022-02-08 02:52:33.772"
"two-step-fixation","75","195977","0.0-61.0-2.4","936","666","11","Female","false","false","false","true","""event"",""trial"",""time""
""fullscreenenter"",""5"",""16384""
","
","
","""event"",""trial"",""time""
""fullscreenenter"",""5"",""16384""
","
","","images/earth.jpg","","","","","","","","","","","","","","fixation","","","","","",""
"d3-animate-choice","76","198057","0.0-61.0-0.5","936","666","11","Female","false","false","false","true","""event"",""trial"",""time""
""fullscreenenter"",""5"",""16384""
","
","
","""event"",""trial"",""time""
""fullscreenenter"",""5"",""16384""
","
","75.70000000001164","","49","","","3000","1","","","images/earth.jpg","images/tutrocket2","images/tutrocket1","null","images/tutrocket1","","1","practice","null","1","","",""
"d3-animate-choice","77","200145","0.0-61.0-1.5","936","666","11","Female","false","false","false","true","""event"",""trial"",""time""
""fullscreenenter"",""5"",""16384""
","
","
","""event"",""trial"",""time""
""fullscreenenter"",""5"",""16384""
","
","81.79999999998836","","49","","","3000","1","899.4000000000233","49","images/tutyellowplanet.jpg","images/tutalien4","images/tutalien3","images/tutrocket1","images/tutalien3","images/nothing.png","2","practice","true","1","common","0","2022-02-08 02:52:38.948"
"two-step-fixation","78","201161","0.0-61.0-2.5","936","666","11","Female","false","false","false","true","""event"",""trial"",""time""
""fullscreenenter"",""5"",""16384""
","
","
","""event"",""trial"",""time""
""fullscreenenter"",""5"",""16384""
","
","","images/earth.jpg","","","","","","","","","","","","","","fixation","","","","","",""
"d3-animate-choice","79","205177","0.0-61.0-0.6","936","666","11","Female","false","false","false","true","""event"",""trial"",""time""
""fullscreenenter"",""5"",""16384""
","
","
","""event"",""trial"",""time""
""fullscreenenter"",""5"",""16384""
","
","2178.100000000035","","49","","","3000","1","","","images/earth.jpg","images/tutrocket2","images/tutrocket1","null","images/tutrocket1","","1","practice","null","1","","",""
"d3-animate-choice","80","207881","0.0-61.0-1.6","936","666","11","Female","false","false","false","true","""event"",""trial"",""time""
""fullscreenenter"",""5"",""16384""
","
","
","""event"",""trial"",""time""
""fullscreenenter"",""5"",""16384""
","
","692.4000000000233","","49","","","3000","1","","","images/tutgreenplanet.jpg","images/tutalien2","images/tutalien1","images/tutrocket1","images/tutalien1","images/nothing.png","2","practice","false","1","rare","0","2022-02-08 02:52:46.684"
"two-step-fixation","81","208889","0.0-61.0-2.6","936","666","11","Female","false","false","false","true","""event"",""trial"",""time""
""fullscreenenter"",""5"",""16384""
","
","
","""event"",""trial"",""time""
""fullscreenenter"",""5"",""16384""
","
","","images/earth.jpg","","","","","","","","","","","","","","fixation","","","","","",""
"d3-animate-choice","82","211313","0.0-61.0-0.7","936","666","11","Female","false","false","false","true","""event"",""trial"",""time""
""fullscreenenter"",""5"",""16384""
","
","
","""event"",""trial"",""time""
""fullscreenenter"",""5"",""16384""
","
","414.79999999998836","","49","","","3000","1","","","images/earth.jpg","images/tutrocket2","images/tutrocket1","null","images/tutrocket1","","1","practice","null","1","","",""
"d3-animate-choice","83","213737","0.0-61.0-1.7","936","666","11","Female","false","false","false","true","""event"",""trial"",""time""
""fullscreenenter"",""5"",""16384""
","
","
","""event"",""trial"",""time""
""fullscreenenter"",""5"",""16384""
","
","404","","49","","","3000","1","","","images/tutgreenplanet.jpg","images/tutalien2","images/tutalien1","images/tutrocket1","images/tutalien1","images/nothing.png","2","practice","false","1","rare","0","2022-02-08 02:52:52.540"
"two-step-fixation","84","214745","0.0-61.0-2.7","936","666","11","Female","false","false","false","true","""event"",""trial"",""time""
""fullscreenenter"",""5"",""16384""
","
","
","""event"",""trial"",""time""
""fullscreenenter"",""5"",""16384""
","
","","images/earth.jpg","","","","","","","","","","","","","","fixation","","","","","",""
"d3-animate-choice","85","217210","0.0-61.0-0.8","936","666","11","Female","false","false","false","true","""event"",""trial"",""time""
""fullscreenenter"",""5"",""16384""
","
","
","""event"",""trial"",""time""
""fullscreenenter"",""5"",""16384""
","
","457.70000000001164","","49","","","3000","1","","","images/earth.jpg","images/tutrocket2","images/tutrocket1","null","images/tutrocket1","","1","practice","null","1","","",""
"d3-animate-choice","86","219866","0.0-61.0-1.8","936","666","11","Female","false","false","false","true","""event"",""trial"",""time""
""fullscreenenter"",""5"",""16384""
","
","
","""event"",""trial"",""time""
""fullscreenenter"",""5"",""16384""
","
","644.8000000000466","","49","","","3000","1","2615.2000000000116","49","images/tutyellowplanet.jpg","images/tutalien4","images/tutalien3","images/tutrocket1","images/tutalien3","images/nothing.png","2","practice","true","1","common","0","2022-02-08 02:52:58.670"
"two-step-fixation","87","220874","0.0-61.0-2.8","936","666","11","Female","false","false","false","true","""event"",""trial"",""time""
""fullscreenenter"",""5"",""16384""
","
","
","""event"",""trial"",""time""
""fullscreenenter"",""5"",""16384""
","
","","images/earth.jpg","","","","","","","","","","","","","","fixation","","","","","",""
"d3-animate-choice","88","223989","0.0-61.0-0.9","936","666","11","Female","false","false","false","true","""event"",""trial"",""time""
""fullscreenenter"",""5"",""16384""
","
","
","""event"",""trial"",""time""
""fullscreenenter"",""5"",""16384""
","
","1110.2999999999884","","49","","","3000","1","2532","49","images/earth.jpg","images/tutrocket2","images/tutrocket1","null","images/tutrocket1","","1","practice","null","1","","",""
"d3-animate-choice","89","226461","0.0-61.0-1.9","936","666","11","Female","false","false","false","true","""event"",""trial"",""time""
""fullscreenenter"",""5"",""16384""
","
","
","""event"",""trial"",""time""
""fullscreenenter"",""5"",""16384""
","
","464.9000000000233","","49","","","3000","1","","","images/tutyellowplanet.jpg","images/tutalien4","images/tutalien3","images/tutrocket1","images/tutalien3","images/nothing.png","2","practice","true","1","common","0","2022-02-08 02:53:05.265"
"two-step-fixation","90","227469","0.0-61.0-2.9","936","666","11","Female","false","false","false","true","""event"",""trial"",""time""
""fullscreenenter"",""5"",""16384""
","
","
","""event"",""trial"",""time""
""fullscreenenter"",""5"",""16384""
","
","","images/earth.jpg","","","","","","","","","","","","","","fixation","","","","","",""
"d3-animate-choice","91","230381","0.0-61.0-0.10","936","666","11","Female","false","false","false","true","""event"",""trial"",""time""
""fullscreenenter"",""5"",""16384""
","
","
","""event"",""trial"",""time""
""fullscreenenter"",""5"",""16384""
","
","906.8999999999651","","49","","","3000","1","","","images/earth.jpg","images/tutrocket2","images/tutrocket1","null","images/tutrocket1","","1","practice","null","1","","",""
"d3-animate-choice","92","233085","0.0-61.0-1.10","936","666","11","Female","false","false","false","true","""event"",""trial"",""time""
""fullscreenenter"",""5"",""16384""
","
","
","""event"",""trial"",""time""
""fullscreenenter"",""5"",""16384""
","
","699","","49","","","3000","1","","","images/tutyellowplanet.jpg","images/tutalien4","images/tutalien3","images/tutrocket1","images/tutalien3","images/nothing.png","2","practice","true","1","common","0","2022-02-08 02:53:11.888"
"two-step-fixation","93","234093","0.0-61.0-2.10","936","666","11","Female","false","false","false","true","""event"",""trial"",""time""
""fullscreenenter"",""5"",""16384""
","
","
","""event"",""trial"",""time""
""fullscreenenter"",""5"",""16384""
","
","","images/earth.jpg","","","","","","","","","","","","","","fixation","","","","","",""
"d3-animate-choice","94","236477","0.0-61.0-0.11","936","666","11","Female","false","false","false","true","""event"",""trial"",""time""
""fullscreenenter"",""5"",""16384""
","
","
","""event"",""trial"",""time""
""fullscreenenter"",""5"",""16384""
","
","379.5999999999767","","49","","","3000","1","","","images/earth.jpg","images/tutrocket2","images/tutrocket1","null","images/tutrocket1","","1","practice","null","1","","",""
"d3-animate-choice","95","239397","0.0-61.0-1.11","936","666","11","Female","false","false","false","true","""event"",""trial"",""time""
""fullscreenenter"",""5"",""16384""
","
","
","""event"",""trial"",""time""
""fullscreenenter"",""5"",""16384""
","
","907.0999999999767","","49","","","3000","1","","","images/tutyellowplanet.jpg","images/tutalien4","images/tutalien3","images/tutrocket1","images/tutalien3","images/t.png","2","practice","true","1","common","1","2022-02-08 02:53:18.200"
"two-step-fixation","96","240405","0.0-61.0-2.11","936","666","11","Female","false","false","false","true","""event"",""trial"",""time""
""fullscreenenter"",""5"",""16384""
","
","
","""event"",""trial"",""time""
""fullscreenenter"",""5"",""16384""
","
","","images/earth.jpg","","","","","","","","","","","","","","fixation","","","","","",""
"d3-animate-choice","97","244421","0.0-61.0-0.12","936","666","11","Female","false","false","false","true","""event"",""trial"",""time""
""fullscreenenter"",""5"",""16384""
","
","
","""event"",""trial"",""time""
""fullscreenenter"",""5"",""16384""
","
","2765","","49","","","3000","1","","","images/earth.jpg","images/tutrocket2","images/tutrocket1","null","images/tutrocket1","","1","practice","null","1","","",""
"d3-animate-choice","98","247421","0.0-61.0-1.12","936","666","11","Female","false","false","false","true","""event"",""trial"",""time""
""fullscreenenter"",""5"",""16384""
","
","
","""event"",""trial"",""time""
""fullscreenenter"",""5"",""16384""
","
","985.5","","49","","","3000","1","","","images/tutyellowplanet.jpg","images/tutalien4","images/tutalien3","images/tutrocket1","images/tutalien3","images/t.png","2","practice","true","1","common","1","2022-02-08 02:53:26.224"
"two-step-fixation","99","248429","0.0-61.0-2.12","936","666","11","Female","false","false","false","true","""event"",""trial"",""time""
""fullscreenenter"",""5"",""16384""
","
","
","""event"",""trial"",""time""
""fullscreenenter"",""5"",""16384""
","
","","images/earth.jpg","","","","","","","","","","","","","","fixation","","","","","",""
"d3-animate-choice","100","251589","0.0-61.0-0.13","936","666","11","Female","false","false","false","true","""event"",""trial"",""time""
""fullscreenenter"",""5"",""16384""
","
","
","""event"",""trial"",""time""
""fullscreenenter"",""5"",""16384""
","
","568.9000000000233","","111","","","3000","1","1152.100000000035","49","images/earth.jpg","images/tutrocket2","images/tutrocket1","null","images/tutrocket1","","1","practice","null","","","",""
"d3-animate-choice","101","255139","0.0-61.0-1.13","936","666","11","Female","false","false","false","true","""event"",""trial"",""time""
""fullscreenenter"",""5"",""16384""
","
","
","""event"",""trial"",""time""
""fullscreenenter"",""5"",""16384""
","
","754.7000000000116","","111","","","3000","1","1537.2000000000116,2082,2873.2999999999884,3464,3518.7000000000116","49,105,105,111,111","images/tutyellowplanet.jpg","images/tutalien4","images/tutalien3","images/tutrocket1","images/tutalien3","images/nothing.png","2","practice","true","","common","0","2022-02-08 02:53:33.942"
"two-step-fixation","102","256147","0.0-61.0-2.13","936","666","11","Female","false","false","false","true","""event"",""trial"",""time""
""fullscreenenter"",""5"",""16384""
","
","
","""event"",""trial"",""time""
""fullscreenenter"",""5"",""16384""
","
","","images/earth.jpg","","","","","","","","","","","","","","fixation","","","","","",""
"d3-animate-choice","103","258235","0.0-61.0-0.14","936","666","11","Female","false","false","false","true","""event"",""trial"",""time""
""fullscreenenter"",""5"",""16384""
","
","
","""event"",""trial"",""time""
""fullscreenenter"",""5"",""16384""
","
","74.69999999995343","","49","","","3000","1","306.9000000000233,504,669.2999999999302,884.2999999999302,994.5,1266.7999999999302,1570,1918.0999999999767","111,49,111,49,105,49,49,49","images/earth.jpg","images/tutrocket2","images/tutrocket1","null","images/tutrocket1","","1","practice","null","1","","",""
"d3-animate-choice","104","261075","0.0-61.0-1.14","936","666","11","Female","false","false","false","true","""event"",""trial"",""time""
""fullscreenenter"",""5"",""16384""
","
","
","""event"",""trial"",""time""
""fullscreenenter"",""5"",""16384""
","
","830.7999999999302","","49","","","3000","1","2777","49","images/tutyellowplanet.jpg","images/tutalien4","images/tutalien3","images/tutrocket1","images/tutalien3","images/t.png","2","practice","true","1","common","1","2022-02-08 02:53:39.878"
"two-step-fixation","105","262082","0.0-61.0-2.14","936","666","11","Female","false","false","false","true","""event"",""trial"",""time""
""fullscreenenter"",""5"",""16384""
","
","
","""event"",""trial"",""time""
""fullscreenenter"",""5"",""16384""
","
","","images/earth.jpg","","","","","","","","","","","","","","fixation","","","","","",""
"d3-animate-choice","106","264675","0.0-61.0-0.15","936","666","11","Female","false","false","false","true","""event"",""trial"",""time""
""fullscreenenter"",""5"",""16384""
","
","
","""event"",""trial"",""time""
""fullscreenenter"",""5"",""16384""
","
","585.1999999999534","","49","","","3000","1","","","images/earth.jpg","images/tutrocket2","images/tutrocket1","null","images/tutrocket1","","1","practice","null","1","","",""
"d3-animate-choice","107","267443","0.0-61.0-1.15","936","666","11","Female","false","false","false","true","""event"",""trial"",""time""
""fullscreenenter"",""5"",""16384""
","
","
","""event"",""trial"",""time""
""fullscreenenter"",""5"",""16384""
","
","757.4000000000233","","49","","","3000","1","1455.8000000000466,1894.5999999999767","49,49","images/tutyellowplanet.jpg","images/tutalien4","images/tutalien3","images/tutrocket1","images/tutalien3","images/t.png","2","practice","true","1","common","1","2022-02-08 02:53:46.246"
"two-step-fixation","108","268451","0.0-61.0-2.15","936","666","11","Female","false","false","false","true","""event"",""trial"",""time""
""fullscreenenter"",""5"",""16384""
","
","
","""event"",""trial"",""time""
""fullscreenenter"",""5"",""16384""
","
","","images/earth.jpg","","","","","","","","","","","","","","fixation","","","","","",""
"d3-animate-choice","109","270917","0.0-61.0-0.16","936","666","11","Female","false","false","false","true","""event"",""trial"",""time""
""fullscreenenter"",""5"",""16384""
","
","
","""event"",""trial"",""time""
""fullscreenenter"",""5"",""16384""
","
","460.69999999995343","","49","","","3000","1","","","images/earth.jpg","images/tutrocket2","images/tutrocket1","null","images/tutrocket1","","1","practice","null","1","","",""
"d3-animate-choice","110","273660","0.0-61.0-1.16","936","666","11","Female","false","false","false","true","""event"",""trial"",""time""
""fullscreenenter"",""5"",""16384""
","
","
","""event"",""trial"",""time""
""fullscreenenter"",""5"",""16384""
","
","732.9000000000233","","49","","","3000","1","","","images/tutgreenplanet.jpg","images/tutalien2","images/tutalien1","images/tutrocket1","images/tutalien1","images/nothing.png","2","practice","false","1","rare","0","2022-02-08 02:53:52.464"
"two-step-fixation","111","274668","0.0-61.0-2.16","936","666","11","Female","false","false","false","true","""event"",""trial"",""time""
""fullscreenenter"",""5"",""16384""
","
","
","""event"",""trial"",""time""
""fullscreenenter"",""5"",""16384""
","
","","images/earth.jpg","","","","","","","","","","","","","","fixation","","","","","",""
"d3-animate-choice","112","277132","0.0-61.0-0.17","936","666","11","Female","false","false","false","true","""event"",""trial"",""time""
""fullscreenenter"",""5"",""16384""
","
","
","""event"",""trial"",""time""
""fullscreenenter"",""5"",""16384""
","
","459.29999999993015","","49","","","3000","1","","","images/earth.jpg","images/tutrocket2","images/tutrocket1","null","images/tutrocket1","","1","practice","null","1","","",""
"d3-animate-choice","113","280508","0.0-61.0-1.17","936","666","11","Female","false","false","false","true","""event"",""trial"",""time""
""fullscreenenter"",""5"",""16384""
","
","
","""event"",""trial"",""time""
""fullscreenenter"",""5"",""16384""
","
","1370.7999999999302","","49","","","3000","1","","","images/tutyellowplanet.jpg","images/tutalien4","images/tutalien3","images/tutrocket1","images/tutalien3","images/nothing.png","2","practice","true","1","common","0","2022-02-08 02:53:59.311"
"two-step-fixation","114","281516","0.0-61.0-2.17","936","666","11","Female","false","false","false","true","""event"",""trial"",""time""
""fullscreenenter"",""5"",""16384""
","
","
","""event"",""trial"",""time""
""fullscreenenter"",""5"",""16384""
","
","","images/earth.jpg","","","","","","","","","","","","","","fixation","","","","","",""
"d3-animate-choice","115","283996","0.0-61.0-0.18","936","666","11","Female","false","false","false","true","""event"",""trial"",""time""
""fullscreenenter"",""5"",""16384""
","
","
","""event"",""trial"",""time""
""fullscreenenter"",""5"",""16384""
","
","476","","49","","","3000","1","","","images/earth.jpg","images/tutrocket2","images/tutrocket1","null","images/tutrocket1","","1","practice","null","1","","",""
"d3-animate-choice","116","287101","0.0-61.0-1.18","936","666","11","Female","false","false","false","true","""event"",""trial"",""time""
""fullscreenenter"",""5"",""16384""
","
","
","""event"",""trial"",""time""
""fullscreenenter"",""5"",""16384""
","
","1098.7000000000698","","49","","","3000","1","","","images/tutyellowplanet.jpg","images/tutalien4","images/tutalien3","images/tutrocket1","images/tutalien3","images/t.png","2","practice","true","1","common","1","2022-02-08 02:54:05.904"
"two-step-fixation","117","288108","0.0-61.0-2.18","936","666","11","Female","false","false","false","true","""event"",""trial"",""time""
""fullscreenenter"",""5"",""16384""
","
","
","""event"",""trial"",""time""
""fullscreenenter"",""5"",""16384""
","
","","images/earth.jpg","","","","","","","","","","","","","","fixation","","","","","",""
"d3-animate-choice","118","290606","0.0-61.0-0.19","936","666","11","Female","false","false","false","true","""event"",""trial"",""time""
""fullscreenenter"",""5"",""16384""
","
","
","""event"",""trial"",""time""
""fullscreenenter"",""5"",""16384""
","
","493.79999999993015","","49","","","3000","1","","","images/earth.jpg","images/tutrocket2","images/tutrocket1","null","images/tutrocket1","","1","practice","null","1","","",""
"d3-animate-choice","119","293351","0.0-61.0-1.19","936","666","11","Female","false","false","false","true","""event"",""trial"",""time""
""fullscreenenter"",""5"",""16384""
","
","
","""event"",""trial"",""time""
""fullscreenenter"",""5"",""16384""
","
","732","","49","","","3000","1","","","images/tutyellowplanet.jpg","images/tutalien4","images/tutalien3","images/tutrocket1","images/tutalien3","images/nothing.png","2","practice","true","1","common","0","2022-02-08 02:54:12.154"
"two-step-fixation","120","294358","0.0-61.0-2.19","936","666","11","Female","false","false","false","true","""event"",""trial"",""time""
""fullscreenenter"",""5"",""16384""
","
","
","""event"",""trial"",""time""
""fullscreenenter"",""5"",""16384""
","
","","images/earth.jpg","","","","","","","","","","","","","","fixation","","","","","",""
"d3-instructions","121","298993","0.0-62.0","936","666","11","Female","false","false","false","true","""event"",""trial"",""time""
""fullscreenenter"",""5"",""16384""
","
","
","""event"",""trial"",""time""
""fullscreenenter"",""5"",""16384""
","
","","","","","","","","","","","","","","","","","","","","","",""
"audio-keyboard-response","122","300840","0.0-63.0","936","666","11","Female","false","false","false","true","""event"",""trial"",""time""
""fullscreenenter"",""5"",""16384""
","
","
","""event"",""trial"",""time""
""fullscreenenter"",""5"",""16384""
","
","1851","audio/instructions/treasure_feedback.wav","32","","","","","","","","","","","","","","","","","","",""
"d3-instructions","123","302560","0.0-64.0","936","666","11","Female","false","false","false","true","""event"",""trial"",""time""
""fullscreenenter"",""5"",""16384""
","
","
","""event"",""trial"",""time""
""fullscreenenter"",""5"",""16384""
","
","","","","","","","","","","","","","","","","","","","","","",""
"d3-instructions","124","303501","0.0-65.0","936","666","11","Female","false","false","false","true","""event"",""trial"",""time""
""fullscreenenter"",""5"",""16384""
","
","
","""event"",""trial"",""time""
""fullscreenenter"",""5"",""16384""
","
","","","","","","","","","","","","","","","","","","","","","",""
"d3-instructions","125","304462","0.0-66.0","936","666","11","Female","false","false","false","true","""event"",""trial"",""time""
""fullscreenenter"",""5"",""16384""
","
","
","""event"",""trial"",""time""
""fullscreenenter"",""5"",""16384""
","
","","","","","","","","","","","","","","","","","","","","","",""
"d3-instructions","126","305461","0.0-67.0","936","666","11","Female","false","false","false","true","""event"",""trial"",""time""
""fullscreenenter"",""5"",""16384""
","
","
","""event"",""trial"",""time""
""fullscreenenter"",""5"",""16384""
","
","","","","","","","","","","","","","","","","","","","","","",""
"d3-instructions","127","307164","0.0-68.0","936","666","11","Female","false","false","false","true","""event"",""trial"",""time""
""fullscreenenter"",""5"",""16384""
","
","
","""event"",""trial"",""time""
""fullscreenenter"",""5"",""16384""
","
","","","","","","","","","","","","","","","","","","","","","",""
"instructions-quiz","128","311151","0.0-69.0","936","666","11","Female","false","false","false","true","""event"",""trial"",""time""
""fullscreenenter"",""5"",""16384""
","
","
","""event"",""trial"",""time""
""fullscreenenter"",""5"",""16384""
","
","3982.1999999999534","audio/quiz/Q1_Prompt.wav","","1","","","","","","","","","","","","","","","","","",""
"audio-keyboard-response","129","312004","0.0-70.0","936","666","11","Female","false","false","false","true","""event"",""trial"",""time""
""fullscreenenter"",""5"",""16384""
","
","
","""event"",""trial"",""time""
""fullscreenenter"",""5"",""16384""
","
","861","audio/quiz/Q1_Correct.wav","32","","","","","","","","","","","","","","","","","","",""
"instructions-quiz","130","314888","0.0-71.0","936","666","11","Female","false","false","false","true","""event"",""trial"",""time""
""fullscreenenter"",""5"",""16384""
","
","
","""event"",""trial"",""time""
""fullscreenenter"",""5"",""16384""
","
","2881.5999999999767","audio/quiz/Q2_Prompt.wav","","0","","","","","","","","","","","","","","","","","",""
"audio-keyboard-response","131","316188","0.0-72.0","936","666","11","Female","false","false","false","true","""event"",""trial"",""time""
""fullscreenenter"",""5"",""16384""
","
","
","""event"",""trial"",""time""
""fullscreenenter"",""5"",""16384""
","
","1299","audio/quiz/Q2_Correct.wav","32","","","","","","","","","","","","","","","","","","",""
"instructions-quiz","132","319329","0.0-73.0","936","666","11","Female","false","false","false","true","""event"",""trial"",""time""
""fullscreenenter"",""5"",""16384""
","
","
","""event"",""trial"",""time""
""fullscreenenter"",""5"",""16384""
","
","3138.9000000000233","audio/quiz/Q3_Prompt.wav","","1","","","","","","","","","","","","","","","","","",""
"audio-keyboard-response","133","319864","0.0-74.0","936","666","11","Female","false","false","false","true","""event"",""trial"",""time""
""fullscreenenter"",""5"",""16384""
","
","
","""event"",""trial"",""time""
""fullscreenenter"",""5"",""16384""
","
","531","audio/quiz/Q3_Correct.wav","32","","","","","","","","","","","","","","","","","","",""
"d3-instructions","134","322046","0.0-75.0","936","666","11","Female","false","false","false","true","""event"",""trial"",""time""
""fullscreenenter"",""5"",""16384""
","
","
","""event"",""trial"",""time""
""fullscreenenter"",""5"",""16384""
","
","","","","","","","","","","","","","","","","","","","","","",""
"d3-animate-choice","135","325078","0.0-76.0-0.0","936","666","11","Female","false","false","false","true","""event"",""trial"",""time""
""fullscreenenter"",""5"",""16384""
","
","
","""event"",""trial"",""time""
""fullscreenenter"",""5"",""16384""
","
","1022.9000000000233","","49","","","3000","1","","","images/earth.jpg","images/rocket1","images/rocket2","null","images/rocket2","","1","real","null","1","","",""
"d3-animate-choice","136","328181","0.0-76.0-1.0","936","666","11","Female","false","false","false","true","""event"",""trial"",""time""
""fullscreenenter"",""5"",""16384""
","
","
","""event"",""trial"",""time""
""fullscreenenter"",""5"",""16384""
","
","1092.5","","49","","","3000","1","1497.0999999999767,1735.1999999999534,3092.29999999993","105,105,105","images/redplanet1.jpg","images/alien2","images/alien1","images/rocket2","images/alien1","images/nothing.png","2","real","true","1","common","0","2022-02-08 02:54:46.985"
"two-step-fixation","137","329192","0.0-76.0-2.0","936","666","11","Female","false","false","false","true","""event"",""trial"",""time""
""fullscreenenter"",""5"",""16384""
","
","
","""event"",""trial"",""time""
""fullscreenenter"",""5"",""16384""
","
","","images/earth.jpg","","","","","","","","","","","","","","fixation","","","","","",""
"d3-animate-choice","138","333203","0.0-76.0-0.1","936","666","11","Female","false","false","false","true","""event"",""trial"",""time""
""fullscreenenter"",""5"",""16384""
","
","
","""event"",""trial"",""time""
""fullscreenenter"",""5"",""16384""
","
","17.900000000023283","","105","","","3000","1","572.5,863,1054.7000000000698,1217.4000000000233,1381.6000000000931,1736.9000000000233,1902.6000000000931,2060.5,2255","105,105,105,105,105,111,111,111,49","images/earth.jpg","images/rocket1","images/rocket2","null","images/rocket2","","1","real","null","","","",""
"d3-animate-choice","139","335898","0.0-76.0-1.1","936","666","11","Female","false","false","false","true","""event"",""trial"",""time""
""fullscreenenter"",""5"",""16384""
","
","
","""event"",""trial"",""time""
""fullscreenenter"",""5"",""16384""
","
","685.8000000000466","","49","","","3000","1","","","images/redplanet1.jpg","images/alien2","images/alien1","images/rocket2","images/alien1","images/nothing.png","2","real","true","1","common","0","2022-02-08 02:54:54.701"
"two-step-fixation","140","336911","0.0-76.0-2.1","936","666","11","Female","false","false","false","true","""event"",""trial"",""time""
""fullscreenenter"",""5"",""16384""
","
","
","""event"",""trial"",""time""
""fullscreenenter"",""5"",""16384""
","
","","images/earth.jpg","","","","","","","","","","","","","","fixation","","","","","",""
"d3-animate-choice","141","340936","0.0-76.0-0.2","936","666","11","Female","false","false","false","true","""event"",""trial"",""time""
""fullscreenenter"",""5"",""16384""
","
","
","""event"",""trial"",""time""
""fullscreenenter"",""5"",""16384""
","
","2350.29999999993","","49","","","3000","1","","","images/earth.jpg","images/rocket1","images/rocket2","null","images/rocket2","","1","real","null","1","","",""
"d3-animate-choice","142","343129","0.0-76.0-1.2","936","666","11","Female","false","false","false","true","""event"",""trial"",""time""
""fullscreenenter"",""5"",""16384""
","
","
","""event"",""trial"",""time""
""fullscreenenter"",""5"",""16384""
","
","179.59999999997672","","49","","","3000","1","","","images/redplanet1.jpg","images/alien2","images/alien1","images/rocket2","images/alien1","images/nothing.png","2","real","true","1","common","0","2022-02-08 02:55:01.933"
"two-step-fixation","143","344137","0.0-76.0-2.2","936","666","11","Female","false","false","false","true","""event"",""trial"",""time""
""fullscreenenter"",""5"",""16384""
","
","
","""event"",""trial"",""time""
""fullscreenenter"",""5"",""16384""
","
","","images/earth.jpg","","","","","","","","","","","","","","fixation","","","","","",""
"d3-animate-choice","144","346682","0.0-76.0-0.3","936","666","11","Female","false","false","false","true","""event"",""trial"",""time""
""fullscreenenter"",""5"",""16384""
","
","
","""event"",""trial"",""time""
""fullscreenenter"",""5"",""16384""
","
","533.8000000000466","","49","","","3000","1","","","images/earth.jpg","images/rocket1","images/rocket2","null","images/rocket2","","1","real","null","1","","",""
"d3-animate-choice","145","349793","0.0-76.0-1.3","936","666","11","Female","false","false","false","true","""event"",""trial"",""time""
""fullscreenenter"",""5"",""16384""
","
","
","""event"",""trial"",""time""
""fullscreenenter"",""5"",""16384""
","
","1106.6999999999534","","49","","","3000","1","2061.5999999999767,2517.1999999999534,2972.5999999999767","49,49,49","images/purpleplanet.jpg","images/alien4","images/alien3","images/rocket2","images/alien3","images/t.png","2","real","false","1","rare","1","2022-02-08 02:55:08.596"
"two-step-fixation","146","350802","0.0-76.0-2.3","936","666","11","Female","false","false","false","true","""event"",""trial"",""time""
""fullscreenenter"",""5"",""16384""
","
","
","""event"",""trial"",""time""
""fullscreenenter"",""5"",""16384""
","
","","images/earth.jpg","","","","","","","","","","","","","","fixation","","","","","",""
"d3-animate-choice","147","353055","0.0-76.0-0.4","936","666","11","Female","false","false","false","true","""event"",""trial"",""time""
""fullscreenenter"",""5"",""16384""
","
","
","""event"",""trial"",""time""
""fullscreenenter"",""5"",""16384""
","
","245.19999999995343","","49","","","3000","1","825.6999999999534,1298.5,1762.3000000000466,1899.4000000000233,1950.5","49,49,81,49,49","images/earth.jpg","images/rocket1","images/rocket2","null","images/rocket2","","1","real","null","1","","",""
"d3-animate-choice","148","356623","0.0-76.0-1.4","936","666","11","Female","false","false","false","true","""event"",""trial"",""time""
""fullscreenenter"",""5"",""16384""
","
","
","""event"",""trial"",""time""
""fullscreenenter"",""5"",""16384""
","
","251","","192","","","3000","1","1552.3999999999069,2684.79999999993,3023.5,3396.5","49,49,49,49","images/purpleplanet.jpg","images/alien4","images/alien3","images/rocket2","images/alien3","images/nothing.png","2","real","false","","rare","0","2022-02-08 02:55:15.426"
"two-step-fixation","149","357631","0.0-76.0-2.4","936","666","11","Female","false","false","false","true","""event"",""trial"",""time""
""fullscreenenter"",""5"",""16384""
","
","
","""event"",""trial"",""time""
""fullscreenenter"",""5"",""16384""
","
","","images/earth.jpg","","","","","","","","","","","","","","fixation","","","","","",""
"d3-animate-choice","150","359792","0.0-76.0-0.5","936","666","11","Female","false","false","false","true","""event"",""trial"",""time""
""fullscreenenter"",""5"",""16384""
","
","
","""event"",""trial"",""time""
""fullscreenenter"",""5"",""16384""
","
","151.70000000006985","","49","","","3000","1","","","images/earth.jpg","images/rocket1","images/rocket2","null","images/rocket2","","1","real","null","1","","",""
"d3-animate-choice","151","363007","0.0-76.0-1.5","936","666","11","Female","false","false","false","true","""event"",""trial"",""time""
""fullscreenenter"",""5"",""16384""
","
","
","""event"",""trial"",""time""
""fullscreenenter"",""5"",""16384""
","
","1198.5999999999767","","49","","","3000","1","","","images/redplanet1.jpg","images/alien2","images/alien1","images/rocket2","images/alien1","images/nothing.png","2","real","true","1","common","0","2022-02-08 02:55:21.810"
"two-step-fixation","152","364016","0.0-76.0-2.5","936","666","11","Female","false","false","false","true","""event"",""trial"",""time""
""fullscreenenter"",""5"",""16384""
","
","
","""event"",""trial"",""time""
""fullscreenenter"",""5"",""16384""
","
","","images/earth.jpg","","","","","","","","","","","","","","fixation","","","","","",""
"d3-animate-choice","153","366712","0.0-76.0-0.6","936","666","11","Female","false","false","false","true","""event"",""trial"",""time""
""fullscreenenter"",""5"",""16384""
","
","
","""event"",""trial"",""time""
""fullscreenenter"",""5"",""16384""
","
","689.5","","49","","","3000","1","","","images/earth.jpg","images/rocket1","images/rocket2","null","images/rocket2","","1","real","null","1","","",""
"d3-animate-choice","154","369476","0.0-76.0-1.6","936","666","11","Female","false","false","false","true","""event"",""trial"",""time""
""fullscreenenter"",""5"",""16384""
","
","
","""event"",""trial"",""time""
""fullscreenenter"",""5"",""16384""
","
","753.0999999999767","","49","","","3000","1","","","images/redplanet1.jpg","images/alien2","images/alien1","images/rocket2","images/alien1","images/nothing.png","2","real","true","1","common","0","2022-02-08 02:55:28.279"
"two-step-fixation","155","370488","0.0-76.0-2.6","936","666","11","Female","false","false","false","true","""event"",""trial"",""time""
""fullscreenenter"",""5"",""16384""
","
","
","""event"",""trial"",""time""
""fullscreenenter"",""5"",""16384""
","
","","images/earth.jpg","","","","","","","","","","","","","","fixation","","","","","",""
"d3-animate-choice","156","372998","0.0-76.0-0.7","936","666","11","Female","false","false","false","true","""event"",""trial"",""time""
""fullscreenenter"",""5"",""16384""
","
","
","""event"",""trial"",""time""
""fullscreenenter"",""5"",""16384""
","
","497.5","","49","","","3000","1","","","images/earth.jpg","images/rocket1","images/rocket2","null","images/rocket2","","1","real","null","1","","",""
"d3-animate-choice","157","375422","0.0-76.0-1.7","936","666","11","Female","false","false","false","true","""event"",""trial"",""time""
""fullscreenenter"",""5"",""16384""
","
","
","""event"",""trial"",""time""
""fullscreenenter"",""5"",""16384""
","
","419.4000000000233","","49","","","3000","1","","","images/redplanet1.jpg","images/alien2","images/alien1","images/rocket2","images/alien1","images/nothing.png","2","real","true","1","common","0","2022-02-08 02:55:34.225"
"two-step-fixation","158","376430","0.0-76.0-2.7","936","666","11","Female","false","false","false","true","""event"",""trial"",""time""
""fullscreenenter"",""5"",""16384""
","
","
","""event"",""trial"",""time""
""fullscreenenter"",""5"",""16384""
","
","","images/earth.jpg","","","","","","","","","","","","","","fixation","","","","","",""
"d3-animate-choice","159","378509","0.0-76.0-0.8","936","666","11","Female","false","false","false","true","""event"",""trial"",""time""
""fullscreenenter"",""5"",""16384""
","
","
","""event"",""trial"",""time""
""fullscreenenter"",""5"",""16384""
","
","69.30000000004657","","49","","","3000","1","1867.0999999999767","49","images/earth.jpg","images/rocket1","images/rocket2","null","images/rocket2","","1","real","null","1","","",""
"d3-animate-choice","160","381886","0.0-76.0-1.8","936","666","11","Female","false","false","false","true","""event"",""trial"",""time""
""fullscreenenter"",""5"",""16384""
","
","
","""event"",""trial"",""time""
""fullscreenenter"",""5"",""16384""
","
","1369.4000000000233","","49","","","3000","1","","","images/purpleplanet.jpg","images/alien4","images/alien3","images/rocket2","images/alien3","images/t.png","2","real","false","1","rare","1","2022-02-08 02:55:40.689"
"two-step-fixation","161","382893","0.0-76.0-2.8","936","666","11","Female","false","false","false","true","""event"",""trial"",""time""
""fullscreenenter"",""5"",""16384""
","
","
","""event"",""trial"",""time""
""fullscreenenter"",""5"",""16384""
","
","","images/earth.jpg","","","","","","","","","","","","","","fixation","","","","","",""
"d3-animate-choice","162","385118","0.0-76.0-0.9","936","666","11","Female","false","false","false","true","""event"",""trial"",""time""
""fullscreenenter"",""5"",""16384""
","
","
","""event"",""trial"",""time""
""fullscreenenter"",""5"",""16384""
","
","219.20000000006985","","49","","","3000","1","","","images/earth.jpg","images/rocket1","images/rocket2","null","images/rocket2","","1","real","null","1","","",""
"d3-animate-choice","163","387501","0.0-76.0-1.9","936","666","11","Female","false","false","false","true","""event"",""trial"",""time""
""fullscreenenter"",""5"",""16384""
","
","
","""event"",""trial"",""time""
""fullscreenenter"",""5"",""16384""
","
","373.5","","49","","","3000","1","1669.3000000000466,2312.5999999999767","49,49","images/redplanet1.jpg","images/alien2","images/alien1","images/rocket2","images/alien1","images/nothing.png","2","real","true","1","common","0","2022-02-08 02:55:46.304"
"two-step-fixation","164","388509","0.0-76.0-2.9","936","666","11","Female","false","false","false","true","""event"",""trial"",""time""
""fullscreenenter"",""5"",""16384""
","
","
","""event"",""trial"",""time""
""fullscreenenter"",""5"",""16384""
","
","","images/earth.jpg","","","","","","","","","","","","","","fixation","","","","","",""
"d3-animate-choice","165","391102","0.0-76.0-0.10","936","666","11","Female","false","false","false","true","""event"",""trial"",""time""
""fullscreenenter"",""5"",""16384""
","
","
","""event"",""trial"",""time""
""fullscreenenter"",""5"",""16384""
","
","587.1999999999534","","49","","","3000","1","","","images/earth.jpg","images/rocket1","images/rocket2","null","images/rocket2","","1","real","null","1","","",""
"d3-animate-choice","166","393829","0.0-76.0-1.10","936","666","11","Female","false","false","false","true","""event"",""trial"",""time""
""fullscreenenter"",""5"",""16384""
","
","
","""event"",""trial"",""time""
""fullscreenenter"",""5"",""16384""
","
","721.5999999999767","","49","","","3000","1","","","images/redplanet1.jpg","images/alien2","images/alien1","images/rocket2","images/alien1","images/t.png","2","real","true","1","common","1","2022-02-08 02:55:52.633"
"two-step-fixation","167","394838","0.0-76.0-2.10","936","666","11","Female","false","false","false","true","""event"",""trial"",""time""
""fullscreenenter"",""5"",""16384""
","
","
","""event"",""trial"",""time""
""fullscreenenter"",""5"",""16384""
","
","","images/earth.jpg","","","","","","","","","","","","","","fixation","","","","","",""
"d3-animate-choice","168","397150","0.0-76.0-0.11","936","666","11","Female","false","false","false","true","""event"",""trial"",""time""
""fullscreenenter"",""5"",""16384""
","
","
","""event"",""trial"",""time""
""fullscreenenter"",""5"",""16384""
","
","302.70000000006985","","49","","","3000","1","","","images/earth.jpg","images/rocket1","images/rocket2","null","images/rocket2","","1","real","null","1","","",""
"d3-animate-choice","169","399513","0.0-76.0-1.11","936","666","11","Female","false","false","false","true","""event"",""trial"",""time""
""fullscreenenter"",""5"",""16384""
","
","
","""event"",""trial"",""time""
""fullscreenenter"",""5"",""16384""
","
","353.30000000004657","","49","","","3000","1","","","images/redplanet1.jpg","images/alien2","images/alien1","images/rocket2","images/alien1","images/nothing.png","2","real","true","1","common","0","2022-02-08 02:55:58.317"
"two-step-fixation","170","400526","0.0-76.0-2.11","936","666","11","Female","false","false","false","true","""event"",""trial"",""time""
""fullscreenenter"",""5"",""16384""
","
","
","""event"",""trial"",""time""
""fullscreenenter"",""5"",""16384""
","
","","images/earth.jpg","","","","","","","","","","","","","","fixation","","","","","",""
"d3-animate-choice","171","403086","0.0-76.0-0.12","936","666","11","Female","false","false","false","true","""event"",""trial"",""time""
""fullscreenenter"",""5"",""16384""
","
","
","""event"",""trial"",""time""
""fullscreenenter"",""5"",""16384""
","
","549.6000000000931","","49","","","3000","1","","","images/earth.jpg","images/rocket1","images/rocket2","null","images/rocket2","","1","real","null","1","","",""
"d3-animate-choice","172","406245","0.0-76.0-1.12","936","666","11","Female","false","false","false","true","""event"",""trial"",""time""
""fullscreenenter"",""5"",""16384""
","
","
","""event"",""trial"",""time""
""fullscreenenter"",""5"",""16384""
","
","1150.5999999999767","","49","","","3000","1","","","images/redplanet1.jpg","images/alien2","images/alien1","images/rocket2","images/alien1","images/t.png","2","real","true","1","common","1","2022-02-08 02:56:05.049"
"two-step-fixation","173","407253","0.0-76.0-2.12","936","666","11","Female","false","false","false","true","""event"",""trial"",""time""
""fullscreenenter"",""5"",""16384""
","
","
","""event"",""trial"",""time""
""fullscreenenter"",""5"",""16384""
","
","","images/earth.jpg","","","","","","","","","","","","","","fixation","","","","","",""
"d3-animate-choice","174","411278","0.0-76.0-0.13","936","666","11","Female","false","false","false","true","""event"",""trial"",""time""
""fullscreenenter"",""5"",""16384""
","
","
","""event"",""trial"",""time""
""fullscreenenter"",""5"",""16384""
","
","2768.899999999907","","49","","","3000","1","","","images/earth.jpg","images/rocket1","images/rocket2","null","images/rocket2","","1","real","null","1","","",""
"d3-animate-choice","175","415295","0.0-76.0-1.13","936","666","11","Female","false","false","false","true","""event"",""trial"",""time""
""fullscreenenter"",""5"",""16384""
","
","
","""event"",""trial"",""time""
""fullscreenenter"",""5"",""16384""
","
","2957.5999999999767","","49","","","3000","1","","","images/redplanet1.jpg","images/alien2","images/alien1","images/rocket2","images/alien1","","2","real","true","1","common","0","2022-02-08 02:56:14.098"
"two-step-fixation","176","416305","0.0-76.0-2.13","936","666","11","Female","false","false","false","true","""event"",""trial"",""time""
""fullscreenenter"",""5"",""16384""
","
","
","""event"",""trial"",""time""
""fullscreenenter"",""5"",""16384""
","
","","images/earth.jpg","","","","","","","","","","","","","","fixation","","","","","",""
"d3-animate-choice","177","419329","0.0-76.0-0.14","936","666","11","Female","false","false","false","true","""event"",""trial"",""time""
""fullscreenenter"",""5"",""16384""
","
","
","""event"",""trial"",""time""
""fullscreenenter"",""5"",""16384""
","
","1014.8000000000466","","49","","","3000","1","","","images/earth.jpg","images/rocket1","images/rocket2","null","images/rocket2","","1","real","null","1","","",""
"d3-animate-choice","178","422042","0.0-76.0-1.14","936","666","11","Female","false","false","false","true","""event"",""trial"",""time""
""fullscreenenter"",""5"",""16384""
","
","
","""event"",""trial"",""time""
""fullscreenenter"",""5"",""16384""
","
","207.70000000006985","","32","","","3000","1","706.9000000000233","49","images/redplanet1.jpg","images/alien2","images/alien1","images/rocket2","images/alien1","images/t.png","2","real","true","","common","1","2022-02-08 02:56:20.845"
"two-step-fixation","179","423050","0.0-76.0-2.14","936","666","11","Female","false","false","false","true","""event"",""trial"",""time""
""fullscreenenter"",""5"",""16384""
","
","
","""event"",""trial"",""time""
""fullscreenenter"",""5"",""16384""
","
","","images/earth.jpg","","","","","","","","","","","","","","fixation","","","","","",""
"d3-animate-choice","180","425834","0.0-76.0-0.15","936","666","11","Female","false","false","false","true","""event"",""trial"",""time""
""fullscreenenter"",""5"",""16384""
","
","
","""event"",""trial"",""time""
""fullscreenenter"",""5"",""16384""
","
","777","","49","","","3000","1","","","images/earth.jpg","images/rocket1","images/rocket2","null","images/rocket2","","1","real","null","1","","",""
"d3-animate-choice","181","429852","0.0-76.0-1.15","936","666","11","Female","false","false","false","true","""event"",""trial"",""time""
""fullscreenenter"",""5"",""16384""
","
","
","""event"",""trial"",""time""
""fullscreenenter"",""5"",""16384""
","
","2391.0999999999767","","49","","","3000","1","","","images/redplanet1.jpg","images/alien2","images/alien1","images/rocket2","images/alien1","images/t.png","2","real","true","1","common","1","2022-02-08 02:56:28.655"
"two-step-fixation","182","430860","0.0-76.0-2.15","936","666","11","Female","false","false","false","true","""event"",""trial"",""time""
""fullscreenenter"",""5"",""16384""
","
","
","""event"",""trial"",""time""
""fullscreenenter"",""5"",""16384""
","
","","images/earth.jpg","","","","","","","","","","","","","","fixation","","","","","",""
"d3-animate-choice","183","434510","0.0-76.0-0.16","936","666","11","Female","false","false","false","true","""event"",""trial"",""time""
""fullscreenenter"",""5"",""16384""
","
","
","""event"",""trial"",""time""
""fullscreenenter"",""5"",""16384""
","
","843.5999999999767","","111","","","3000","1","1014.6999999999534,1642.1999999999534,1657.0999999999767","111,49,50","images/earth.jpg","images/rocket1","images/rocket2","null","images/rocket2","","1","real","null","","","",""
"d3-animate-choice","184","437677","0.0-76.0-1.16","936","666","11","Female","false","false","false","true","""event"",""trial"",""time""
""fullscreenenter"",""5"",""16384""
","
","
","""event"",""trial"",""time""
""fullscreenenter"",""5"",""16384""
","
","1151.6999999999534","","49","","","3000","1","","","images/redplanet1.jpg","images/alien2","images/alien1","images/rocket2","images/alien1","images/nothing.png","2","real","true","1","common","0","2022-02-08 02:56:36.481"
"two-step-fixation","185","438686","0.0-76.0-2.16","936","666","11","Female","false","false","false","true","""event"",""trial"",""time""
""fullscreenenter"",""5"",""16384""
","
","
","""event"",""trial"",""time""
""fullscreenenter"",""5"",""16384""
","
","","images/earth.jpg","","","","","","","","","","","","","","fixation","","","","","",""
"d3-animate-choice","186","442558","0.0-76.0-0.17","936","666","11","Female","false","false","false","true","""event"",""trial"",""time""
""fullscreenenter"",""5"",""16384""
","
","
","""event"",""trial"",""time""
""fullscreenenter"",""5"",""16384""
","
","1865.7000000000698","","49","","","3000","1","","","images/earth.jpg","images/rocket1","images/rocket2","null","images/rocket2","","1","real","null","1","","",""
"d3-animate-choice","187","446162","0.0-76.0-1.17","936","666","11","Female","false","false","false","true","""event"",""trial"",""time""
""fullscreenenter"",""5"",""16384""
","
","
","""event"",""trial"",""time""
""fullscreenenter"",""5"",""16384""
","
","1597.3999999999069","","49","","","3000","1","","","images/redplanet1.jpg","images/alien2","images/alien1","images/rocket2","images/alien1","images/t.png","2","real","true","1","common","1","2022-02-08 02:56:44.965"
"two-step-fixation","188","447174","0.0-76.0-2.17","936","666","11","Female","false","false","false","true","""event"",""trial"",""time""
""fullscreenenter"",""5"",""16384""
","
","
","""event"",""trial"",""time""
""fullscreenenter"",""5"",""16384""
","
","","images/earth.jpg","","","","","","","","","","","","","","fixation","","","","","",""
"d3-animate-choice","189","450102","0.0-76.0-0.18","936","666","11","Female","false","false","false","true","""event"",""trial"",""time""
""fullscreenenter"",""5"",""16384""
","
","
","""event"",""trial"",""time""
""fullscreenenter"",""5"",""16384""
","
","913.3000000000466","","49","","","3000","1","","","images/earth.jpg","images/rocket1","images/rocket2","null","images/rocket2","","1","real","null","1","","",""
"d3-animate-choice","190","453110","0.0-76.0-1.18","936","666","11","Female","false","false","false","true","""event"",""trial"",""time""
""fullscreenenter"",""5"",""16384""
","
","
","""event"",""trial"",""time""
""fullscreenenter"",""5"",""16384""
","
","1002","","49","","","3000","1","","","images/redplanet1.jpg","images/alien2","images/alien1","images/rocket2","images/alien1","images/t.png","2","real","true","1","common","1","2022-02-08 02:56:51.913"
"two-step-fixation","191","454117","0.0-76.0-2.18","936","666","11","Female","false","false","false","true","""event"",""trial"",""time""
""fullscreenenter"",""5"",""16384""
","
","
","""event"",""trial"",""time""
""fullscreenenter"",""5"",""16384""
","
","","images/earth.jpg","","","","","","","","","","","","","","fixation","","","","","",""
"d3-animate-choice","192","456605","0.0-76.0-0.19","936","666","11","Female","false","false","false","true","""event"",""trial"",""time""
""fullscreenenter"",""5"",""16384""
","
","
","""event"",""trial"",""time""
""fullscreenenter"",""5"",""16384""
","
","480.29999999993015","","49","","","3000","1","","","images/earth.jpg","images/rocket1","images/rocket2","null","images/rocket2","","1","real","null","1","","",""
"d3-animate-choice","193","459022","0.0-76.0-1.19","936","666","11","Female","false","false","false","true","""event"",""trial"",""time""
""fullscreenenter"",""5"",""16384""
","
","
","""event"",""trial"",""time""
""fullscreenenter"",""5"",""16384""
","
","411.29999999993015","","49","","","3000","1","","","images/redplanet1.jpg","images/alien2","images/alien1","images/rocket2","images/alien1","images/nothing.png","2","real","true","1","common","0","2022-02-08 02:56:57.825"
"two-step-fixation","194","460027","0.0-76.0-2.19","936","666","11","Female","false","false","false","true","""event"",""trial"",""time""
""fullscreenenter"",""5"",""16384""
","
","
","""event"",""trial"",""time""
""fullscreenenter"",""5"",""16384""
","
","","images/earth.jpg","","","","","","","","","","","","","","fixation","","","","","",""
"d3-animate-choice","195","462469","0.0-76.0-0.20","936","666","11","Female","false","false","false","true","""event"",""trial"",""time""
""fullscreenenter"",""5"",""16384""
","
","
","""event"",""trial"",""time""
""fullscreenenter"",""5"",""16384""
","
","431","","49","","","3000","1","","","images/earth.jpg","images/rocket1","images/rocket2","null","images/rocket2","","1","real","null","1","","",""
"d3-animate-choice","196","464821","0.0-76.0-1.20","936","666","11","Female","false","false","false","true","""event"",""trial"",""time""
""fullscreenenter"",""5"",""16384""
","
","
","""event"",""trial"",""time""
""fullscreenenter"",""5"",""16384""
","
","345.29999999993015","","49","","","3000","1","","","images/redplanet1.jpg","images/alien2","images/alien1","images/rocket2","images/alien1","images/t.png","2","real","true","1","common","1","2022-02-08 02:57:03.625"
"two-step-fixation","197","465826","0.0-76.0-2.20","936","666","11","Female","false","false","false","true","""event"",""trial"",""time""
""fullscreenenter"",""5"",""16384""
","
","
","""event"",""trial"",""time""
""fullscreenenter"",""5"",""16384""
","
","","images/earth.jpg","","","","","","","","","","","","","","fixation","","","","","",""
"d3-animate-choice","198","468365","0.0-76.0-0.21","936","666","11","Female","false","false","false","true","""event"",""trial"",""time""
""fullscreenenter"",""5"",""16384""
","
","
","""event"",""trial"",""time""
""fullscreenenter"",""5"",""16384""
","
","533.1000000000931","","49","","","3000","1","","","images/earth.jpg","images/rocket1","images/rocket2","null","images/rocket2","","1","real","null","1","","",""
"d3-animate-choice","199","470871","0.0-76.0-1.21","936","666","11","Female","false","false","false","true","""event"",""trial"",""time""
""fullscreenenter"",""5"",""16384""
","
","
","""event"",""trial"",""time""
""fullscreenenter"",""5"",""16384""
","
","498.79999999993015","","49","","","3000","1","","","images/redplanet1.jpg","images/alien2","images/alien1","images/rocket2","images/alien1","images/t.png","2","real","true","1","common","1","2022-02-08 02:57:09.674"
"two-step-fixation","200","471876","0.0-76.0-2.21","936","666","11","Female","false","false","false","true","""event"",""trial"",""time""
""fullscreenenter"",""5"",""16384""
","
","
","""event"",""trial"",""time""
""fullscreenenter"",""5"",""16384""
","
","","images/earth.jpg","","","","","","","","","","","","","","fixation","","","","","",""
"d3-animate-choice","201","474222","0.0-76.0-0.22","936","666","11","Female","false","false","false","true","""event"",""trial"",""time""
""fullscreenenter"",""5"",""16384""
","
","
","""event"",""trial"",""time""
""fullscreenenter"",""5"",""16384""
","
","336","","49","","","3000","1","","","images/earth.jpg","images/rocket1","images/rocket2","null","images/rocket2","","1","real","null","1","","",""
"d3-animate-choice","202","476535","0.0-76.0-1.22","936","666","11","Female","false","false","false","true","""event"",""trial"",""time""
""fullscreenenter"",""5"",""16384""
","
","
","""event"",""trial"",""time""
""fullscreenenter"",""5"",""16384""
","
","300.79999999993015","","49","","","3000","1","","","images/purpleplanet.jpg","images/alien4","images/alien3","images/rocket2","images/alien3","images/nothing.png","2","real","false","1","rare","0","2022-02-08 02:57:15.338"
"two-step-fixation","203","477543","0.0-76.0-2.22","936","666","11","Female","false","false","false","true","""event"",""trial"",""time""
""fullscreenenter"",""5"",""16384""
","
","
","""event"",""trial"",""time""
""fullscreenenter"",""5"",""16384""
","
","","images/earth.jpg","","","","","","","","","","","","","","fixation","","","","","",""
"d3-animate-choice","204","479887","0.0-76.0-0.23","936","666","11","Female","false","false","false","true","""event"",""trial"",""time""
""fullscreenenter"",""5"",""16384""
","
","
","""event"",""trial"",""time""
""fullscreenenter"",""5"",""16384""
","
","338.0999999999767","","49","","","3000","1","","","images/earth.jpg","images/rocket1","images/rocket2","null","images/rocket2","","1","real","null","1","","",""
"d3-animate-choice","205","482226","0.0-76.0-1.23","936","666","11","Female","false","false","false","true","""event"",""trial"",""time""
""fullscreenenter"",""5"",""16384""
","
","
","""event"",""trial"",""time""
""fullscreenenter"",""5"",""16384""
","
","332.0999999999767","","49","","","3000","1","","","images/redplanet1.jpg","images/alien2","images/alien1","images/rocket2","images/alien1","images/t.png","2","real","true","1","common","1","2022-02-08 02:57:21.029"
"two-step-fixation","206","483231","0.0-76.0-2.23","936","666","11","Female","false","false","false","true","""event"",""trial"",""time""
""fullscreenenter"",""5"",""16384""
","
","
","""event"",""trial"",""time""
""fullscreenenter"",""5"",""16384""
","
","","images/earth.jpg","","","","","","","","","","","","","","fixation","","","","","",""
"d3-animate-choice","207","485984","0.0-76.0-0.24","936","666","11","Female","false","false","false","true","""event"",""trial"",""time""
""fullscreenenter"",""5"",""16384""
","
","
","""event"",""trial"",""time""
""fullscreenenter"",""5"",""16384""
","
","108","","32","","","3000","1","749.1000000000931,1525.2000000000698","49,32","images/earth.jpg","images/rocket1","images/rocket2","null","images/rocket2","","1","real","null","","","",""
"d3-animate-choice","208","488625","0.0-76.0-1.24","936","666","11","Female","false","false","false","true","""event"",""trial"",""time""
""fullscreenenter"",""5"",""16384""
","
","
","""event"",""trial"",""time""
""fullscreenenter"",""5"",""16384""
","
","628.5","","49","","","3000","1","811.8000000000466,1694.5999999999767","32,32","images/purpleplanet.jpg","images/alien4","images/alien3","images/rocket2","images/alien3","images/nothing.png","2","real","false","1","rare","0","2022-02-08 02:57:27.428"
"two-step-fixation","209","489632","0.0-76.0-2.24","936","666","11","Female","false","false","false","true","""event"",""trial"",""time""
""fullscreenenter"",""5"",""16384""
","
","
","""event"",""trial"",""time""
""fullscreenenter"",""5"",""16384""
","
","","images/earth.jpg","","","","","","","","","","","","","","fixation","","","","","",""
"d3-animate-choice","210","491802","0.0-76.0-0.25","936","666","11","Female","false","false","false","true","""event"",""trial"",""time""
""fullscreenenter"",""5"",""16384""
","
","
","""event"",""trial"",""time""
""fullscreenenter"",""5"",""16384""
","
","162.09999999997672","","49","","","3000","1","","","images/earth.jpg","images/rocket1","images/rocket2","null","images/rocket2","","1","real","null","1","","",""
"d3-animate-choice","211","495266","0.0-76.0-1.25","936","666","11","Female","false","false","false","true","""event"",""trial"",""time""
""fullscreenenter"",""5"",""16384""
","
","
","""event"",""trial"",""time""
""fullscreenenter"",""5"",""16384""
","
","1457.2000000000698","","49","","","3000","1","","","images/redplanet1.jpg","images/alien2","images/alien1","images/rocket2","images/alien1","images/t.png","2","real","true","1","common","1","2022-02-08 02:57:34.069"
"two-step-fixation","212","496273","0.0-76.0-2.25","936","666","11","Female","false","false","false","true","""event"",""trial"",""time""
""fullscreenenter"",""5"",""16384""
","
","
","""event"",""trial"",""time""
""fullscreenenter"",""5"",""16384""
","
","","images/earth.jpg","","","","","","","","","","","","","","fixation","","","","","",""
"d3-animate-choice","213","499785","0.0-76.0-0.26","936","666","11","Female","false","false","false","true","""event"",""trial"",""time""
""fullscreenenter"",""5"",""16384""
","
","
","""event"",""trial"",""time""
""fullscreenenter"",""5"",""16384""
","
","1504.5","","49","","","3000","1","","","images/earth.jpg","images/rocket1","images/rocket2","null","images/rocket2","","1","real","null","1","","",""
"d3-animate-choice","214","502162","0.0-76.0-1.26","936","666","11","Female","false","false","false","true","""event"",""trial"",""time""
""fullscreenenter"",""5"",""16384""
","
","
","""event"",""trial"",""time""
""fullscreenenter"",""5"",""16384""
","
","366.60000000009313","","49","","","3000","1","","","images/redplanet1.jpg","images/alien2","images/alien1","images/rocket2","images/alien1","images/t.png","2","real","true","1","common","1","2022-02-08 02:57:40.965"
"two-step-fixation","215","503170","0.0-76.0-2.26","936","666","11","Female","false","false","false","true","""event"",""trial"",""time""
""fullscreenenter"",""5"",""16384""
","
","
","""event"",""trial"",""time""
""fullscreenenter"",""5"",""16384""
","
","","images/earth.jpg","","","","","","","","","","","","","","fixation","","","","","",""
"d3-animate-choice","216","505617","0.0-76.0-0.27","936","666","11","Female","false","false","false","true","""event"",""trial"",""time""
""fullscreenenter"",""5"",""16384""
","
","
","""event"",""trial"",""time""
""fullscreenenter"",""5"",""16384""
","
","440.0999999999767","","49","","","3000","1","","","images/earth.jpg","images/rocket1","images/rocket2","null","images/rocket2","","1","real","null","1","","",""
"d3-animate-choice","217","508354","0.0-76.0-1.27","936","666","11","Female","false","false","false","true","""event"",""trial"",""time""
""fullscreenenter"",""5"",""16384""
","
","
","""event"",""trial"",""time""
""fullscreenenter"",""5"",""16384""
","
","725.5999999999767","","49","","","3000","1","","","images/redplanet1.jpg","images/alien2","images/alien1","images/rocket2","images/alien1","images/t.png","2","real","true","1","common","1","2022-02-08 02:57:47.158"
"two-step-fixation","218","509363","0.0-76.0-2.27","936","666","11","Female","false","false","false","true","""event"",""trial"",""time""
""fullscreenenter"",""5"",""16384""
","
","
","""event"",""trial"",""time""
""fullscreenenter"",""5"",""16384""
","
","","images/earth.jpg","","","","","","","","","","","","","","fixation","","","","","",""
"d3-animate-choice","219","512013","0.0-76.0-0.28","936","666","11","Female","false","false","false","true","""event"",""trial"",""time""
""fullscreenenter"",""5"",""16384""
","
","
","""event"",""trial"",""time""
""fullscreenenter"",""5"",""16384""
","
","644.4000000000233","","49","","","3000","1","","","images/earth.jpg","images/rocket1","images/rocket2","null","images/rocket2","","1","real","null","1","","",""
"d3-animate-choice","220","514269","0.0-76.0-1.28","936","666","11","Female","false","false","false","true","""event"",""trial"",""time""
""fullscreenenter"",""5"",""16384""
","
","
","""event"",""trial"",""time""
""fullscreenenter"",""5"",""16384""
","
","245.80000000004657","","49","","","3000","1","","","images/redplanet1.jpg","images/alien2","images/alien1","images/rocket2","images/alien1","images/t.png","2","real","true","1","common","1","2022-02-08 02:57:53.072"
"two-step-fixation","221","515275","0.0-76.0-2.28","936","666","11","Female","false","false","false","true","""event"",""trial"",""time""
""fullscreenenter"",""5"",""16384""
","
","
","""event"",""trial"",""time""
""fullscreenenter"",""5"",""16384""
","
","","images/earth.jpg","","","","","","","","","","","","","","fixation","","","","","",""
"d3-animate-choice","222","517645","0.0-76.0-0.29","936","666","11","Female","false","false","false","true","""event"",""trial"",""time""
""fullscreenenter"",""5"",""16384""
","
","
","""event"",""trial"",""time""
""fullscreenenter"",""5"",""16384""
","
","365.29999999993015","","49","","","3000","1","","","images/earth.jpg","images/rocket1","images/rocket2","null","images/rocket2","","1","real","null","1","","",""
"d3-animate-choice","223","520573","0.0-76.0-1.29","936","666","11","Female","false","false","false","true","""event"",""trial"",""time""
""fullscreenenter"",""5"",""16384""
","
","
","""event"",""trial"",""time""
""fullscreenenter"",""5"",""16384""
","
","924.3000000000466","","49","","","3000","1","","","images/redplanet1.jpg","images/alien2","images/alien1","images/rocket2","images/alien1","images/nothing.png","2","real","true","1","common","0","2022-02-08 02:57:59.377"
"two-step-fixation","224","521580","0.0-76.0-2.29","936","666","11","Female","false","false","false","true","""event"",""trial"",""time""
""fullscreenenter"",""5"",""16384""
","
","
","""event"",""trial"",""time""
""fullscreenenter"",""5"",""16384""
","
","","images/earth.jpg","","","","","","","","","","","","","","fixation","","","","","",""
"d3-animate-choice","225","524069","0.0-76.0-0.30","936","666","11","Female","false","false","false","true","""event"",""trial"",""time""
""fullscreenenter"",""5"",""16384""
","
","
","""event"",""trial"",""time""
""fullscreenenter"",""5"",""16384""
","
","483.20000000006985","","49","","","3000","1","","","images/earth.jpg","images/rocket1","images/rocket2","null","images/rocket2","","1","real","null","1","","",""
"d3-animate-choice","226","526852","0.0-76.0-1.30","936","666","11","Female","false","false","false","true","""event"",""trial"",""time""
""fullscreenenter"",""5"",""16384""
","
","
","""event"",""trial"",""time""
""fullscreenenter"",""5"",""16384""
","
","773.4000000000233","","49","","","3000","1","","","images/redplanet1.jpg","images/alien2","images/alien1","images/rocket2","images/alien1","images/nothing.png","2","real","true","1","common","0","2022-02-08 02:58:05.656"
"two-step-fixation","227","527857","0.0-76.0-2.30","936","666","11","Female","false","false","false","true","""event"",""trial"",""time""
""fullscreenenter"",""5"",""16384""
","
","
","""event"",""trial"",""time""
""fullscreenenter"",""5"",""16384""
","
","","images/earth.jpg","","","","","","","","","","","","","","fixation","","","","","",""
"d3-animate-choice","228","530532","0.0-76.0-0.31","936","666","11","Female","false","false","false","true","""event"",""trial"",""time""
""fullscreenenter"",""5"",""16384""
","
","
","""event"",""trial"",""time""
""fullscreenenter"",""5"",""16384""
","
","666","","49","","","3000","1","","","images/earth.jpg","images/rocket1","images/rocket2","null","images/rocket2","","1","real","null","1","","",""
"d3-animate-choice","229","533274","0.0-76.0-1.31","936","666","11","Female","false","false","false","true","""event"",""trial"",""time""
""fullscreenenter"",""5"",""16384""
","
","
","""event"",""trial"",""time""
""fullscreenenter"",""5"",""16384""
","
","731.1999999999534","","49","","","3000","1","","","images/purpleplanet.jpg","images/alien4","images/alien3","images/rocket2","images/alien3","images/nothing.png","2","real","false","1","rare","0","2022-02-08 02:58:12.077"
"two-step-fixation","230","534284","0.0-76.0-2.31","936","666","11","Female","false","false","false","true","""event"",""trial"",""time""
""fullscreenenter"",""5"",""16384""
","
","
","""event"",""trial"",""time""
""fullscreenenter"",""5"",""16384""
","
","","images/earth.jpg","","","","","","","","","","","","","","fixation","","","","","",""
"d3-animate-choice","231","537533","0.0-76.0-0.32","936","666","11","Female","false","false","false","true","""event"",""trial"",""time""
""fullscreenenter"",""5"",""16384""
","
","
","""event"",""trial"",""time""
""fullscreenenter"",""5"",""16384""
","
","1237.0999999999767","","49","","","3000","1","","","images/earth.jpg","images/rocket1","images/rocket2","null","images/rocket2","","1","real","null","1","","",""
"d3-animate-choice","232","540740","0.0-76.0-1.32","936","666","11","Female","false","false","false","true","""event"",""trial"",""time""
""fullscreenenter"",""5"",""16384""
","
","
","""event"",""trial"",""time""
""fullscreenenter"",""5"",""16384""
","
","1198.5999999999767","","49","","","3000","1","","","images/redplanet1.jpg","images/alien2","images/alien1","images/rocket2","images/alien1","images/t.png","2","real","true","1","common","1","2022-02-08 02:58:19.543"
"two-step-fixation","233","541749","0.0-76.0-2.32","936","666","11","Female","false","false","false","true","""event"",""trial"",""time""
""fullscreenenter"",""5"",""16384""
","
","
","""event"",""trial"",""time""
""fullscreenenter"",""5"",""16384""
","
","","images/earth.jpg","","","","","","","","","","","","","","fixation","","","","","",""
"d3-animate-choice","234","544372","0.0-76.0-0.33","936","666","11","Female","false","false","false","true","""event"",""trial"",""time""
""fullscreenenter"",""5"",""16384""
","
","
","""event"",""trial"",""time""
""fullscreenenter"",""5"",""16384""
","
","618.5","","49","","","3000","1","","","images/earth.jpg","images/rocket1","images/rocket2","null","images/rocket2","","1","real","null","1","","",""
"d3-animate-choice","235","547310","0.0-76.0-1.33","936","666","11","Female","false","false","false","true","""event"",""trial"",""time""
""fullscreenenter"",""5"",""16384""
","
","
","""event"",""trial"",""time""
""fullscreenenter"",""5"",""16384""
","
","928.2000000000698","","49","","","3000","1","","","images/redplanet1.jpg","images/alien2","images/alien1","images/rocket2","images/alien1","images/t.png","2","real","true","1","common","1","2022-02-08 02:58:26.113"
"two-step-fixation","236","548318","0.0-76.0-2.33","936","666","11","Female","false","false","false","true","""event"",""trial"",""time""
""fullscreenenter"",""5"",""16384""
","
","
","""event"",""trial"",""time""
""fullscreenenter"",""5"",""16384""
","
","","images/earth.jpg","","","","","","","","","","","","","","fixation","","","","","",""
"d3-animate-choice","237","550447","0.0-76.0-0.34","936","666","11","Female","false","false","false","true","""event"",""trial"",""time""
""fullscreenenter"",""5"",""16384""
","
","
","""event"",""trial"",""time""
""fullscreenenter"",""5"",""16384""
","
","123.20000000006985","","49","","","3000","1","","","images/earth.jpg","images/rocket1","images/rocket2","null","images/rocket2","","1","real","null","1","","",""
"d3-animate-choice","238","553079","0.0-76.0-1.34","936","666","11","Female","false","false","false","true","""event"",""trial"",""time""
""fullscreenenter"",""5"",""16384""
","
","
","""event"",""trial"",""time""
""fullscreenenter"",""5"",""16384""
","
","625.8000000000466","","49","","","3000","1","","","images/redplanet1.jpg","images/alien2","images/alien1","images/rocket2","images/alien1","images/t.png","2","real","true","1","common","1","2022-02-08 02:58:31.882"
"two-step-fixation","239","554087","0.0-76.0-2.34","936","666","11","Female","false","false","false","true","""event"",""trial"",""time""
""fullscreenenter"",""5"",""16384""
","
","
","""event"",""trial"",""time""
""fullscreenenter"",""5"",""16384""
","
","","images/earth.jpg","","","","","","","","","","","","","","fixation","","","","","",""
"d3-animate-choice","240","558103","0.0-76.0-0.35","936","666","11","Female","false","false","false","true","""event"",""trial"",""time""
""fullscreenenter"",""5"",""16384""
","
","
","""event"",""trial"",""time""
""fullscreenenter"",""5"",""16384""
","
","2230.3000000000466","","49","","","3000","1","","","images/earth.jpg","images/rocket1","images/rocket2","null","images/rocket2","","1","real","null","1","","",""
"d3-animate-choice","241","560783","0.0-76.0-1.35","936","666","11","Female","false","false","false","true","""event"",""trial"",""time""
