"trial_type","trial_index","time_elapsed","internal_node_id","participant_id","subject_id","age","gender","rocket_sides","red_planet_first_rocket","red_display_order","purple_display_order","interactions","blur_events","focus_events","fullscreenenter_events","fullscreenexit_events","rt","stimulus","key_press","button_pressed","success","duration","valid_pressed","rts","keys","planet_text","right_text","left_text","center_text","chosen_text","reward_text","trial_stage","practice_trial","transition_type","choice","transition","reward","timestamp"
"pavlovia","0","3","0.0-0.0","225","2009","19","Female","false","true","true","true","
","
","
","
","
","","","","","","","","","","","","","","","","","","","","","",""
"html-keyboard-response","1","1194","0.0-1.0","225","2009","19","Female","false","true","true","true","
","
","
","
","
","1189.4000000059605","Welcome! Press the space bar to begin.","32","","","","","","","","","","","","","","","","","","",""
"audio-keyboard-response","2","3371","0.0-2.0","225","2009","19","Female","false","true","true","true","
","
","
","
","
","2136","audio/beep_loop.wav","32","","","","","","","","","","","","","","","","","","",""
"audio-button-response","3","6427","0.0-3.0","225","2009","19","Female","false","true","true","true","
","
","
","
","
","NaN","audio/fish.mp3","","1","","","","","","","","","","","","","","","","","",""
"audio-button-response","4","10126","0.0-4.0","225","2009","19","Female","false","true","true","true","""event"",""trial"",""time""
""fullscreenenter"",""5"",""14418""
","
","
","""event"",""trial"",""time""
""fullscreenenter"",""5"",""14418""
","
","NaN","audio/tiger.mp3","","4","","","","","","","","","","","","","","","","","",""
"fullscreen","5","15414","0.0-5.0","225","2009","19","Female","false","true","true","true","""event"",""trial"",""time""
""fullscreenenter"",""5"",""14418""
","
","
","""event"",""trial"",""time""
""fullscreenenter"",""5"",""14418""
","
","","","","","true","","","","","","","","","","","","","","","","",""
"d3-instructions","6","24920","0.0-6.0","225","2009","19","Female","false","true","true","true","""event"",""trial"",""time""
""fullscreenenter"",""5"",""14418""
","
","
","""event"",""trial"",""time""
""fullscreenenter"",""5"",""14418""
","
","","","","","","","","","","","","","","","","","","","","","",""
"d3-instructions","7","29879","0.0-7.0","225","2009","19","Female","false","true","true","true","""event"",""trial"",""time""
""fullscreenenter"",""5"",""14418""
","
","
","""event"",""trial"",""time""
""fullscreenenter"",""5"",""14418""
","
","","","","","","","","","","","","","","","","","","","","","",""
"d3-instructions","8","33913","0.0-8.0","225","2009","19","Female","false","true","true","true","""event"",""trial"",""time""
""fullscreenenter"",""5"",""14418""
","
","
","""event"",""trial"",""time""
""fullscreenenter"",""5"",""14418""
","
","","","","","","","","","","","","","","","","","","","","","",""
"d3-instructions","9","37960","0.0-9.0","225","2009","19","Female","false","true","true","true","""event"",""trial"",""time""
""fullscreenenter"",""5"",""14418""
","
","
","""event"",""trial"",""time""
""fullscreenenter"",""5"",""14418""
","
","","","","","","","","","","","","","","","","","","","","","",""
"d3-instructions","10","45685","0.0-10.0","225","2009","19","Female","false","true","true","true","""event"",""trial"",""time""
""fullscreenenter"",""5"",""14418""
","
","
","""event"",""trial"",""time""
""fullscreenenter"",""5"",""14418""
","
","","","","","","","","","","","","","","","","","","","","","",""
"d3-animate-choice","11","49087","0.0-11.0","225","2009","19","Female","false","true","true","true","""event"",""trial"",""time""
""fullscreenenter"",""5"",""14418""
","
","
","""event"",""trial"",""time""
""fullscreenenter"",""5"",""14418""
","
","1388.699999988079","","49","","","3000","1","2472.899999976158","48","images/tutgreenplanet.jpg","images/tutalien1","images/tutalien2","null","images/tutalien2","","NA","practice","null","","","",""
"d3-animate-choice","12","51976","0.0-12.0","225","2009","19","Female","false","true","true","true","""event"",""trial"",""time""
""fullscreenenter"",""5"",""14418""
","
","
","""event"",""trial"",""time""
""fullscreenenter"",""5"",""14418""
","
","881.8999999761581","","48","","","3000","1","","","images/tutgreenplanet.jpg","images/tutalien1","images/tutalien2","null","images/tutalien1","","NA","practice","null","","","",""
"d3-animate-choice","13","54870","0.0-13.0","225","2009","19","Female","false","true","true","true","""event"",""trial"",""time""
""fullscreenenter"",""5"",""14418""
","
","
","""event"",""trial"",""time""
""fullscreenenter"",""5"",""14418""
","
","889.8000000119209","","49","","","3000","1","","","images/tutgreenplanet.jpg","images/tutalien1","images/tutalien2","null","images/tutalien2","","NA","practice","null","","","",""
"d3-animate-choice","14","58088","0.0-14.0","225","2009","19","Female","false","true","true","true","""event"",""trial"",""time""
""fullscreenenter"",""5"",""14418""
","
","
","""event"",""trial"",""time""
""fullscreenenter"",""5"",""14418""
","
","1207.5999999940395","","48","","","3000","1","","","images/tutgreenplanet.jpg","images/tutalien1","images/tutalien2","null","images/tutalien1","","NA","practice","null","","","",""
"d3-instructions","15","62040","0.0-15.0","225","2009","19","Female","false","true","true","true","""event"",""trial"",""time""
""fullscreenenter"",""5"",""14418""
","
","
","""event"",""trial"",""time""
""fullscreenenter"",""5"",""14418""
","
","","","","","","","","","","","","","","","","","","","","","",""
"d3-instructions","16","64309","0.0-16.0","225","2009","19","Female","false","true","true","true","""event"",""trial"",""time""
""fullscreenenter"",""5"",""14418""
","
","
","""event"",""trial"",""time""
""fullscreenenter"",""5"",""14418""
","
","","","","","","","","","","","","","","","","","","","","","",""
"d3-instructions","17","68118","0.0-17.0","225","2009","19","Female","false","true","true","true","""event"",""trial"",""time""
""fullscreenenter"",""5"",""14418""
","
","
","""event"",""trial"",""time""
""fullscreenenter"",""5"",""14418""
","
","","","","","","","","","","","","","","","","","","","","","",""
"d3-instructions","18","73509","0.0-18.0","225","2009","19","Female","false","true","true","true","""event"",""trial"",""time""
""fullscreenenter"",""5"",""14418""
","
","
","""event"",""trial"",""time""
""fullscreenenter"",""5"",""14418""
","
","","","","","","","","","","","","","","","","","","","","","",""
"d3-instructions","19","80251","0.0-19.0","225","2009","19","Female","false","true","true","true","""event"",""trial"",""time""
""fullscreenenter"",""5"",""14418""
","
","
","""event"",""trial"",""time""
""fullscreenenter"",""5"",""14418""
","
","","","","","","","","","","","","","","","","","","","","","",""
"d3-animate-choice","20","83120","0.0-20.0","225","2009","19","Female","false","true","true","true","""event"",""trial"",""time""
""fullscreenenter"",""5"",""14418""
","
","
","""event"",""trial"",""time""
""fullscreenenter"",""5"",""14418""
","
","863.8999999761581","","49","","","3000","1","","","images/tutyellowplanet.jpg","null","images/tutalien3","null","images/tutalien3","images/t.png","NA","practice","null","","","",""
"d3-animate-choice","21","85504","0.0-21.0","225","2009","19","Female","false","true","true","true","""event"",""trial"",""time""
""fullscreenenter"",""5"",""14418""
","
","
","""event"",""trial"",""time""
""fullscreenenter"",""5"",""14418""
","
","375","","49","","","3000","1","","","images/tutyellowplanet.jpg","null","images/tutalien3","null","images/tutalien3","images/t.png","NA","practice","null","","","",""
"d3-animate-choice","22","87835","0.0-22.0","225","2009","19","Female","false","true","true","true","""event"",""trial"",""time""
""fullscreenenter"",""5"",""14418""
","
","
","""event"",""trial"",""time""
""fullscreenenter"",""5"",""14418""
","
","322.19999998807907","","49","","","3000","1","","","images/tutyellowplanet.jpg","null","images/tutalien3","null","images/tutalien3","images/t.png","NA","practice","null","","","",""
"d3-animate-choice","23","90287","0.0-23.0","225","2009","19","Female","false","true","true","true","""event"",""trial"",""time""
""fullscreenenter"",""5"",""14418""
","
","
","""event"",""trial"",""time""
""fullscreenenter"",""5"",""14418""
","
","446.7000000178814","","49","","","3000","1","","","images/tutyellowplanet.jpg","null","images/tutalien3","null","images/tutalien3","images/nothing.png","NA","practice","null","","","",""
"d3-animate-choice","24","92754","0.0-24.0","225","2009","19","Female","false","true","true","true","""event"",""trial"",""time""
""fullscreenenter"",""5"",""14418""
","
","
","""event"",""trial"",""time""
""fullscreenenter"",""5"",""14418""
","
","457.59999999403954","","49","","","3000","1","","","images/tutyellowplanet.jpg","null","images/tutalien3","null","images/tutalien3","images/t.png","NA","practice","null","","","",""
"d3-animate-choice","25","95097","0.0-25.0","225","2009","19","Female","false","true","true","true","""event"",""trial"",""time""
""fullscreenenter"",""5"",""14418""
","
","
","""event"",""trial"",""time""
""fullscreenenter"",""5"",""14418""
","
","336.80000001192093","","49","","","3000","1","","","images/tutyellowplanet.jpg","null","images/tutalien3","null","images/tutalien3","images/t.png","NA","practice","null","","","",""
"d3-animate-choice","26","97479","0.0-26.0","225","2009","19","Female","false","true","true","true","""event"",""trial"",""time""
""fullscreenenter"",""5"",""14418""
","
","
","""event"",""trial"",""time""
""fullscreenenter"",""5"",""14418""
","
","374","","49","","","3000","1","","","images/tutyellowplanet.jpg","null","images/tutalien3","null","images/tutalien3","images/t.png","NA","practice","null","","","",""
"d3-animate-choice","27","99822","0.0-27.0","225","2009","19","Female","false","true","true","true","""event"",""trial"",""time""
""fullscreenenter"",""5"",""14418""
","
","
","""event"",""trial"",""time""
""fullscreenenter"",""5"",""14418""
","
","334.2999999821186","","49","","","3000","1","","","images/tutyellowplanet.jpg","null","images/tutalien3","null","images/tutalien3","images/t.png","NA","practice","null","","","",""
"d3-animate-choice","28","102321","0.0-28.0","225","2009","19","Female","false","true","true","true","""event"",""trial"",""time""
""fullscreenenter"",""5"",""14418""
","
","
","""event"",""trial"",""time""
""fullscreenenter"",""5"",""14418""
","
","492.69999998807907","","49","","","3000","1","","","images/tutyellowplanet.jpg","null","images/tutalien3","null","images/tutalien3","images/nothing.png","NA","practice","null","","","",""
"d3-animate-choice","29","105026","0.0-29.0","225","2009","19","Female","false","true","true","true","""event"",""trial"",""time""
""fullscreenenter"",""5"",""14418""
","
","
","""event"",""trial"",""time""
""fullscreenenter"",""5"",""14418""
","
","696.2999999821186","","49","","","3000","1","","","images/tutyellowplanet.jpg","null","images/tutalien3","null","images/tutalien3","images/t.png","NA","practice","null","","","",""
"d3-instructions","30","107493","0.0-30.0","225","2009","19","Female","false","true","true","true","""event"",""trial"",""time""
""fullscreenenter"",""5"",""14418""
","
","
","""event"",""trial"",""time""
""fullscreenenter"",""5"",""14418""
","
","","","","","","","","","","","","","","","","","","","","","",""
"d3-instructions","31","109880","0.0-31.0","225","2009","19","Female","false","true","true","true","""event"",""trial"",""time""
""fullscreenenter"",""5"",""14418""
","
","
","""event"",""trial"",""time""
""fullscreenenter"",""5"",""14418""
","
","","","","","","","","","","","","","","","","","","","","","",""
"d3-instructions","32","112525","0.0-32.0","225","2009","19","Female","false","true","true","true","""event"",""trial"",""time""
""fullscreenenter"",""5"",""14418""
","
","
","""event"",""trial"",""time""
""fullscreenenter"",""5"",""14418""
","
","","","","","","","","","","","","","","","","","","","","","",""
"d3-instructions","33","114508","0.0-33.0","225","2009","19","Female","false","true","true","true","""event"",""trial"",""time""
""fullscreenenter"",""5"",""14418""
","
","
","""event"",""trial"",""time""
""fullscreenenter"",""5"",""14418""
","
","","","","","","","","","","","","","","","","","","","","","",""
"d3-animate-choice","34","117540","0.0-34.0","225","2009","19","Female","false","true","true","true","""event"",""trial"",""time""
""fullscreenenter"",""5"",""14418""
","
","
","""event"",""trial"",""time""
""fullscreenenter"",""5"",""14418""
","
","1026.2000000178814","","49","","","3000","1","","","images/tutgreenplanet.jpg","images/tutalien1","images/tutalien2","null","images/tutalien2","images/t.png","NA","practice","null","","","",""
"d3-animate-choice","35","120283","0.0-35.0","225","2009","19","Female","false","true","true","true","""event"",""trial"",""time""
""fullscreenenter"",""5"",""14418""
","
","
","""event"",""trial"",""time""
""fullscreenenter"",""5"",""14418""
","
","734.4000000059605","","49","","","3000","1","","","images/tutgreenplanet.jpg","images/tutalien1","images/tutalien2","null","images/tutalien2","images/t.png","NA","practice","null","","","",""
"d3-animate-choice","36","122650","0.0-36.0","225","2009","19","Female","false","true","true","true","""event"",""trial"",""time""
""fullscreenenter"",""5"",""14418""
","
","
","""event"",""trial"",""time""
""fullscreenenter"",""5"",""14418""
","
","361.60000002384186","","48","","","3000","1","","","images/tutgreenplanet.jpg","images/tutalien1","images/tutalien2","null","images/tutalien1","images/nothing.png","NA","practice","null","","","",""
"d3-animate-choice","37","125072","0.0-37.0","225","2009","19","Female","false","true","true","true","""event"",""trial"",""time""
""fullscreenenter"",""5"",""14418""
","
","
","""event"",""trial"",""time""
""fullscreenenter"",""5"",""14418""
","
","413.30000001192093","","48","","","3000","1","","","images/tutgreenplanet.jpg","images/tutalien1","images/tutalien2","null","images/tutalien1","images/nothing.png","NA","practice","null","","","",""
"d3-animate-choice","38","127656","0.0-38.0","225","2009","19","Female","false","true","true","true","""event"",""trial"",""time""
""fullscreenenter"",""5"",""14418""
","
","
","""event"",""trial"",""time""
""fullscreenenter"",""5"",""14418""
","
","579.5","","49","","","3000","1","","","images/tutgreenplanet.jpg","images/tutalien1","images/tutalien2","null","images/tutalien2","images/t.png","NA","practice","null","","","",""
"d3-animate-choice","39","130303","0.0-39.0","225","2009","19","Female","false","true","true","true","""event"",""trial"",""time""
""fullscreenenter"",""5"",""14418""
","
","
","""event"",""trial"",""time""
""fullscreenenter"",""5"",""14418""
","
","641","","48","","","3000","1","","","images/tutgreenplanet.jpg","images/tutalien1","images/tutalien2","null","images/tutalien1","images/nothing.png","NA","practice","null","","","",""
"d3-animate-choice","40","132676","0.0-40.0","225","2009","19","Female","false","true","true","true","""event"",""trial"",""time""
""fullscreenenter"",""5"",""14418""
","
","
","""event"",""trial"",""time""
""fullscreenenter"",""5"",""14418""
","
","364.5","","49","","","3000","1","","","images/tutgreenplanet.jpg","images/tutalien1","images/tutalien2","null","images/tutalien2","images/t.png","NA","practice","null","","","",""
"d3-animate-choice","41","135170","0.0-41.0","225","2009","19","Female","false","true","true","true","""event"",""trial"",""time""
""fullscreenenter"",""5"",""14418""
","
","
","""event"",""trial"",""time""
""fullscreenenter"",""5"",""14418""
","
","485","","49","","","3000","1","","","images/tutgreenplanet.jpg","images/tutalien1","images/tutalien2","null","images/tutalien2","images/t.png","NA","practice","null","","","",""
"d3-animate-choice","42","137498","0.0-42.0","225","2009","19","Female","false","true","true","true","""event"",""trial"",""time""
""fullscreenenter"",""5"",""14418""
","
","
","""event"",""trial"",""time""
""fullscreenenter"",""5"",""14418""
","
","319.30000001192093","","49","","","3000","1","","","images/tutgreenplanet.jpg","images/tutalien1","images/tutalien2","null","images/tutalien2","images/t.png","NA","practice","null","","","",""
"d3-animate-choice","43","139882","0.0-43.0","225","2009","19","Female","false","true","true","true","""event"",""trial"",""time""
""fullscreenenter"",""5"",""14418""
","
","
","""event"",""trial"",""time""
""fullscreenenter"",""5"",""14418""
","
","374.5","","48","","","3000","1","","","images/tutgreenplanet.jpg","images/tutalien1","images/tutalien2","null","images/tutalien1","images/nothing.png","NA","practice","null","","","",""
"d3-instructions","44","142801","0.0-44.0","225","2009","19","Female","false","true","true","true","""event"",""trial"",""time""
""fullscreenenter"",""5"",""14418""
","
","
","""event"",""trial"",""time""
""fullscreenenter"",""5"",""14418""
","
","","","","","","","","","","","","","","","","","","","","","",""
"d3-instructions","45","144336","0.0-45.0","225","2009","19","Female","false","true","true","true","""event"",""trial"",""time""
""fullscreenenter"",""5"",""14418""
","
","
","""event"",""trial"",""time""
""fullscreenenter"",""5"",""14418""
","
","","","","","","","","","","","","","","","","","","","","","",""
"d3-instructions","46","145701","0.0-46.0","225","2009","19","Female","false","true","true","true","""event"",""trial"",""time""
""fullscreenenter"",""5"",""14418""
","
","
","""event"",""trial"",""time""
""fullscreenenter"",""5"",""14418""
","
","","","","","","","","","","","","","","","","","","","","","",""
"d3-instructions","47","149644","0.0-47.0","225","2009","19","Female","false","true","true","true","""event"",""trial"",""time""
""fullscreenenter"",""5"",""14418""
","
","
","""event"",""trial"",""time""
""fullscreenenter"",""5"",""14418""
","
","","","","","","","","","","","","","","","","","","","","","",""
"d3-instructions","48","152714","0.0-48.0","225","2009","19","Female","false","true","true","true","""event"",""trial"",""time""
""fullscreenenter"",""5"",""14418""
","
","
","""event"",""trial"",""time""
""fullscreenenter"",""5"",""14418""
","
","","","","","","","","","","","","","","","","","","","","","",""
"d3-instructions","49","157613","0.0-49.0","225","2009","19","Female","false","true","true","true","""event"",""trial"",""time""
""fullscreenenter"",""5"",""14418""
","
","
","""event"",""trial"",""time""
""fullscreenenter"",""5"",""14418""
","
","","","","","","","","","","","","","","","","","","","","","",""
"d3-instructions","50","159693","0.0-50.0","225","2009","19","Female","false","true","true","true","""event"",""trial"",""time""
""fullscreenenter"",""5"",""14418""
","
","
","""event"",""trial"",""time""
""fullscreenenter"",""5"",""14418""
","
","","","","","","","","","","","","","","","","","","","","","",""
"d3-instructions","51","161538","0.0-51.0","225","2009","19","Female","false","true","true","true","""event"",""trial"",""time""
""fullscreenenter"",""5"",""14418""
","
","
","""event"",""trial"",""time""
""fullscreenenter"",""5"",""14418""
","
","","","","","","","","","","","","","","","","","","","","","",""
"d3-instructions","52","162634","0.0-52.0","225","2009","19","Female","false","true","true","true","""event"",""trial"",""time""
""fullscreenenter"",""5"",""14418""
","
","
","""event"",""trial"",""time""
""fullscreenenter"",""5"",""14418""
","
","","","","","","","","","","","","","","","","","","","","","",""
"d3-instructions","53","167046","0.0-53.0","225","2009","19","Female","false","true","true","true","""event"",""trial"",""time""
""fullscreenenter"",""5"",""14418""
","
","
","""event"",""trial"",""time""
""fullscreenenter"",""5"",""14418""
","
","","","","","","","","","","","","","","","","","","","","","",""
"d3-instructions","54","172792","0.0-54.0","225","2009","19","Female","false","true","true","true","""event"",""trial"",""time""
""fullscreenenter"",""5"",""14418""
","
","
","""event"",""trial"",""time""
""fullscreenenter"",""5"",""14418""
","
","","","","","","","","","","","","","","","","","","","","","",""
"d3-instructions","55","175271","0.0-55.0","225","2009","19","Female","false","true","true","true","""event"",""trial"",""time""
""fullscreenenter"",""5"",""14418""
","
","
","""event"",""trial"",""time""
""fullscreenenter"",""5"",""14418""
","
","","","","","","","","","","","","","","","","","","","","","",""
"d3-instructions","56","178197","0.0-56.0","225","2009","19","Female","false","true","true","true","""event"",""trial"",""time""
""fullscreenenter"",""5"",""14418""
","
","
","""event"",""trial"",""time""
""fullscreenenter"",""5"",""14418""
","
","","","","","","","","","","","","","","","","","","","","","",""
"d3-instructions","57","182533","0.0-57.0","225","2009","19","Female","false","true","true","true","""event"",""trial"",""time""
""fullscreenenter"",""5"",""14418""
","
","
","""event"",""trial"",""time""
""fullscreenenter"",""5"",""14418""
","
","","","","","","","","","","","","","","","","","","","","","",""
"d3-instructions","58","186020","0.0-58.0","225","2009","19","Female","false","true","true","true","""event"",""trial"",""time""
""fullscreenenter"",""5"",""14418""
","
","
","""event"",""trial"",""time""
""fullscreenenter"",""5"",""14418""
","
","","","","","","","","","","","","","","","","","","","","","",""
"d3-instructions","59","188135","0.0-59.0","225","2009","19","Female","false","true","true","true","""event"",""trial"",""time""
""fullscreenenter"",""5"",""14418""
","
","
","""event"",""trial"",""time""
""fullscreenenter"",""5"",""14418""
","
","","","","","","","","","","","","","","","","","","","","","",""
"d3-instructions","60","190035","0.0-60.0","225","2009","19","Female","false","true","true","true","""event"",""trial"",""time""
""fullscreenenter"",""5"",""14418""
","
","
","""event"",""trial"",""time""
""fullscreenenter"",""5"",""14418""
","
","","","","","","","","","","","","","","","","","","","","","",""
"d3-animate-choice","61","193343","0.0-61.0-0.0","225","2009","19","Female","false","true","true","true","""event"",""trial"",""time""
""fullscreenenter"",""5"",""14418""
","
","
","""event"",""trial"",""time""
""fullscreenenter"",""5"",""14418""
","
","1301.1000000238419","","49","","","3000","1","","","images/earth.jpg","images/tutrocket2","images/tutrocket1","null","images/tutrocket1","","1","practice","null","1","","",""
"d3-animate-choice","62","196736","0.0-61.0-1.0","225","2009","19","Female","false","true","true","true","""event"",""trial"",""time""
""fullscreenenter"",""5"",""14418""
","
","
","""event"",""trial"",""time""
""fullscreenenter"",""5"",""14418""
","
","1380.4000000059605","","49","","","3000","1","","","images/tutgreenplanet.jpg","images/tutalien2","images/tutalien1","images/tutrocket1","images/tutalien1","images/nothing.png","2","practice","true","1","common","0","2022-06-08 03:04:24.792"
"two-step-fixation","63","197746","0.0-61.0-2.0","225","2009","19","Female","false","true","true","true","""event"",""trial"",""time""
""fullscreenenter"",""5"",""14418""
","
","
","""event"",""trial"",""time""
""fullscreenenter"",""5"",""14418""
","
","","images/earth.jpg","","","","","","","","","","","","","","fixation","","","","","",""
"d3-animate-choice","64","200166","0.0-61.0-0.1","225","2009","19","Female","false","true","true","true","""event"",""trial"",""time""
""fullscreenenter"",""5"",""14418""
","
","
","""event"",""trial"",""time""
""fullscreenenter"",""5"",""14418""
","
","410.40000000596046","","49","","","3000","1","","","images/earth.jpg","images/tutrocket2","images/tutrocket1","null","images/tutrocket1","","1","practice","null","1","","",""
"d3-animate-choice","65","202845","0.0-61.0-1.1","225","2009","19","Female","false","true","true","true","""event"",""trial"",""time""
""fullscreenenter"",""5"",""14418""
","
","
","""event"",""trial"",""time""
""fullscreenenter"",""5"",""14418""
","
","673.4000000059605","","48","","","3000","1","","","images/tutgreenplanet.jpg","images/tutalien2","images/tutalien1","images/tutrocket1","images/tutalien2","images/nothing.png","2","practice","true","2","common","0","2022-06-08 03:04:30.901"
"two-step-fixation","66","203854","0.0-61.0-2.1","225","2009","19","Female","false","true","true","true","""event"",""trial"",""time""
""fullscreenenter"",""5"",""14418""
","
","
","""event"",""trial"",""time""
""fullscreenenter"",""5"",""14418""
","
","","images/earth.jpg","","","","","","","","","","","","","","fixation","","","","","",""
"d3-animate-choice","67","206717","0.0-61.0-0.2","225","2009","19","Female","false","true","true","true","""event"",""trial"",""time""
""fullscreenenter"",""5"",""14418""
","
","
","""event"",""trial"",""time""
""fullscreenenter"",""5"",""14418""
","
","856.5","","49","","","3000","1","","","images/earth.jpg","images/tutrocket2","images/tutrocket1","null","images/tutrocket1","","1","practice","null","1","","",""
"d3-animate-choice","68","209998","0.0-61.0-1.2","225","2009","19","Female","false","true","true","true","""event"",""trial"",""time""
""fullscreenenter"",""5"",""14418""
","
","
","""event"",""trial"",""time""
""fullscreenenter"",""5"",""14418""
","
","1276","","49","","","3000","1","","","images/tutyellowplanet.jpg","images/tutalien4","images/tutalien3","images/tutrocket1","images/tutalien3","images/nothing.png","2","practice","false","1","rare","0","2022-06-08 03:04:38.054"
"two-step-fixation","69","211007","0.0-61.0-2.2","225","2009","19","Female","false","true","true","true","""event"",""trial"",""time""
""fullscreenenter"",""5"",""14418""
","
","
","""event"",""trial"",""time""
""fullscreenenter"",""5"",""14418""
","
","","images/earth.jpg","","","","","","","","","","","","","","fixation","","","","","",""
"d3-animate-choice","70","213301","0.0-61.0-0.3","225","2009","19","Female","false","true","true","true","""event"",""trial"",""time""
""fullscreenenter"",""5"",""14418""
","
","
","""event"",""trial"",""time""
""fullscreenenter"",""5"",""14418""
","
","285","","49","","","3000","1","","","images/earth.jpg","images/tutrocket2","images/tutrocket1","null","images/tutrocket1","","1","practice","null","1","","",""
"d3-animate-choice","71","216243","0.0-61.0-1.3","225","2009","19","Female","false","true","true","true","""event"",""trial"",""time""
""fullscreenenter"",""5"",""14418""
","
","
","""event"",""trial"",""time""
""fullscreenenter"",""5"",""14418""
","
","936.8000000119209","","49","","","3000","1","","","images/tutgreenplanet.jpg","images/tutalien2","images/tutalien1","images/tutrocket1","images/tutalien1","images/nothing.png","2","practice","true","1","common","0","2022-06-08 03:04:44.300"
"two-step-fixation","72","217250","0.0-61.0-2.3","225","2009","19","Female","false","true","true","true","""event"",""trial"",""time""
""fullscreenenter"",""5"",""14418""
","
","
","""event"",""trial"",""time""
""fullscreenenter"",""5"",""14418""
","
","","images/earth.jpg","","","","","","","","","","","","","","fixation","","","","","",""
"d3-animate-choice","73","220721","0.0-61.0-0.4","225","2009","19","Female","false","true","true","true","""event"",""trial"",""time""
""fullscreenenter"",""5"",""14418""
","
","
","""event"",""trial"",""time""
""fullscreenenter"",""5"",""14418""
","
","835.5","","50","","","3000","1","1464.4000000059605","48","images/earth.jpg","images/tutrocket2","images/tutrocket1","null","images/tutrocket2","","1","practice","null","","","",""
"d3-animate-choice","74","223191","0.0-61.0-1.4","225","2009","19","Female","false","true","true","true","""event"",""trial"",""time""
""fullscreenenter"",""5"",""14418""
","
","
","""event"",""trial"",""time""
""fullscreenenter"",""5"",""14418""
","
","464.60000002384186","","48","","","3000","1","","","images/tutyellowplanet.jpg","images/tutalien4","images/tutalien3","images/tutrocket2","images/tutalien4","images/t.png","2","practice","true","2","common","1","2022-06-08 03:04:51.247"
"two-step-fixation","75","224197","0.0-61.0-2.4","225","2009","19","Female","false","true","true","true","""event"",""trial"",""time""
""fullscreenenter"",""5"",""14418""
","
","
","""event"",""trial"",""time""
""fullscreenenter"",""5"",""14418""
","
","","images/earth.jpg","","","","","","","","","","","","","","fixation","","","","","",""
"d3-animate-choice","76","227043","0.0-61.0-0.5","225","2009","19","Female","false","true","true","true","""event"",""trial"",""time""
""fullscreenenter"",""5"",""14418""
","
","
","""event"",""trial"",""time""
""fullscreenenter"",""5"",""14418""
","
","841.0999999940395","","48","","","3000","1","","","images/earth.jpg","images/tutrocket2","images/tutrocket1","null","images/tutrocket2","","1","practice","null","2","","",""
"d3-animate-choice","77","230485","0.0-61.0-1.5","225","2009","19","Female","false","true","true","true","""event"",""trial"",""time""
""fullscreenenter"",""5"",""14418""
","
","
","""event"",""trial"",""time""
""fullscreenenter"",""5"",""14418""
","
","1435.4000000059605","","49","","","3000","1","1464.5999999940395","48","images/tutgreenplanet.jpg","images/tutalien2","images/tutalien1","images/tutrocket2","images/tutalien1","images/nothing.png","2","practice","false","1","rare","0","2022-06-08 03:04:58.541"
"two-step-fixation","78","231489","0.0-61.0-2.5","225","2009","19","Female","false","true","true","true","""event"",""trial"",""time""
""fullscreenenter"",""5"",""14418""
","
","
","""event"",""trial"",""time""
""fullscreenenter"",""5"",""14418""
","
","","images/earth.jpg","","","","","","","","","","","","","","fixation","","","","","",""
"d3-animate-choice","79","233788","0.0-61.0-0.6","225","2009","19","Female","false","true","true","true","""event"",""trial"",""time""
""fullscreenenter"",""5"",""14418""
","
","
","""event"",""trial"",""time""
""fullscreenenter"",""5"",""14418""
","
","291.80000001192093","","48","","","3000","1","","","images/earth.jpg","images/tutrocket2","images/tutrocket1","null","images/tutrocket2","","1","practice","null","2","","",""
"d3-animate-choice","80","236273","0.0-61.0-1.6","225","2009","19","Female","false","true","true","true","""event"",""trial"",""time""
""fullscreenenter"",""5"",""14418""
","
","
","""event"",""trial"",""time""
""fullscreenenter"",""5"",""14418""
","
","479.2000000178814","","48","","","3000","1","","","images/tutyellowplanet.jpg","images/tutalien4","images/tutalien3","images/tutrocket2","images/tutalien4","images/nothing.png","2","practice","true","2","common","0","2022-06-08 03:05:04.329"
"two-step-fixation","81","237277","0.0-61.0-2.6","225","2009","19","Female","false","true","true","true","""event"",""trial"",""time""
""fullscreenenter"",""5"",""14418""
","
","
","""event"",""trial"",""time""
""fullscreenenter"",""5"",""14418""
","
","","images/earth.jpg","","","","","","","","","","","","","","fixation","","","","","",""
"d3-animate-choice","82","239589","0.0-61.0-0.7","225","2009","19","Female","false","true","true","true","""event"",""trial"",""time""
""fullscreenenter"",""5"",""14418""
","
","
","""event"",""trial"",""time""
""fullscreenenter"",""5"",""14418""
","
","307.2000000178814","","48","","","3000","1","","","images/earth.jpg","images/tutrocket2","images/tutrocket1","null","images/tutrocket2","","1","practice","null","2","","",""
"d3-animate-choice","83","242002","0.0-61.0-1.7","225","2009","19","Female","false","true","true","true","""event"",""trial"",""time""
""fullscreenenter"",""5"",""14418""
","
","
","""event"",""trial"",""time""
""fullscreenenter"",""5"",""14418""
","
","405.40000000596046","","48","","","3000","1","","","images/tutyellowplanet.jpg","images/tutalien4","images/tutalien3","images/tutrocket2","images/tutalien4","images/t.png","2","practice","true","2","common","1","2022-06-08 03:05:10.058"
"two-step-fixation","84","243006","0.0-61.0-2.7","225","2009","19","Female","false","true","true","true","""event"",""trial"",""time""
""fullscreenenter"",""5"",""14418""
","
","
","""event"",""trial"",""time""
""fullscreenenter"",""5"",""14418""
","
","","images/earth.jpg","","","","","","","","","","","","","","fixation","","","","","",""
"d3-animate-choice","85","245365","0.0-61.0-0.8","225","2009","19","Female","false","true","true","true","""event"",""trial"",""time""
""fullscreenenter"",""5"",""14418""
","
","
","""event"",""trial"",""time""
""fullscreenenter"",""5"",""14418""
","
","353.2000000178814","","48","","","3000","1","","","images/earth.jpg","images/tutrocket2","images/tutrocket1","null","images/tutrocket2","","1","practice","null","2","","",""
"d3-animate-choice","86","247758","0.0-61.0-1.8","225","2009","19","Female","false","true","true","true","""event"",""trial"",""time""
""fullscreenenter"",""5"",""14418""
","
","
","""event"",""trial"",""time""
""fullscreenenter"",""5"",""14418""
","
","387.7000000178814","","48","","","3000","1","2094.800000011921","48","images/tutgreenplanet.jpg","images/tutalien2","images/tutalien1","images/tutrocket2","images/tutalien2","images/nothing.png","2","practice","false","2","rare","0","2022-06-08 03:05:15.814"
"two-step-fixation","87","248762","0.0-61.0-2.8","225","2009","19","Female","false","true","true","true","""event"",""trial"",""time""
""fullscreenenter"",""5"",""14418""
","
","
","""event"",""trial"",""time""
""fullscreenenter"",""5"",""14418""
","
","","images/earth.jpg","","","","","","","","","","","","","","fixation","","","","","",""
"d3-animate-choice","88","251093","0.0-61.0-0.9","225","2009","19","Female","false","true","true","true","""event"",""trial"",""time""
""fullscreenenter"",""5"",""14418""
","
","
","""event"",""trial"",""time""
""fullscreenenter"",""5"",""14418""
","
","321.5","","48","","","3000","1","","","images/earth.jpg","images/tutrocket2","images/tutrocket1","null","images/tutrocket2","","1","practice","null","2","","",""
"d3-animate-choice","89","253387","0.0-61.0-1.9","225","2009","19","Female","false","true","true","true","""event"",""trial"",""time""
""fullscreenenter"",""5"",""14418""
","
","
","""event"",""trial"",""time""
""fullscreenenter"",""5"",""14418""
","
","289.59999999403954","","48","","","3000","1","","","images/tutyellowplanet.jpg","images/tutalien4","images/tutalien3","images/tutrocket2","images/tutalien4","images/t.png","2","practice","true","2","common","1","2022-06-08 03:05:21.444"
"two-step-fixation","90","254393","0.0-61.0-2.9","225","2009","19","Female","false","true","true","true","""event"",""trial"",""time""
""fullscreenenter"",""5"",""14418""
","
","
","""event"",""trial"",""time""
""fullscreenenter"",""5"",""14418""
","
","","images/earth.jpg","","","","","","","","","","","","","","fixation","","","","","",""
"d3-animate-choice","91","256816","0.0-61.0-0.10","225","2009","19","Female","false","true","true","true","""event"",""trial"",""time""
""fullscreenenter"",""5"",""14418""
","
","
","""event"",""trial"",""time""
""fullscreenenter"",""5"",""14418""
","
","418.10000002384186","","48","","","3000","1","","","images/earth.jpg","images/tutrocket2","images/tutrocket1","null","images/tutrocket2","","1","practice","null","2","","",""
"d3-animate-choice","92","259194","0.0-61.0-1.10","225","2009","19","Female","false","true","true","true","""event"",""trial"",""time""
""fullscreenenter"",""5"",""14418""
","
","
","""event"",""trial"",""time""
""fullscreenenter"",""5"",""14418""
","
","372.10000002384186","","48","","","3000","1","","","images/tutyellowplanet.jpg","images/tutalien4","images/tutalien3","images/tutrocket2","images/tutalien4","images/t.png","2","practice","true","2","common","1","2022-06-08 03:05:27.250"
"two-step-fixation","93","260200","0.0-61.0-2.10","225","2009","19","Female","false","true","true","true","""event"",""trial"",""time""
""fullscreenenter"",""5"",""14418""
","
","
","""event"",""trial"",""time""
""fullscreenenter"",""5"",""14418""
","
","","images/earth.jpg","","","","","","","","","","","","","","fixation","","","","","",""
"d3-animate-choice","94","262534","0.0-61.0-0.11","225","2009","19","Female","false","true","true","true","""event"",""trial"",""time""
""fullscreenenter"",""5"",""14418""
","
","
","""event"",""trial"",""time""
""fullscreenenter"",""5"",""14418""
","
","325.39999997615814","","48","","","3000","1","","","images/earth.jpg","images/tutrocket2","images/tutrocket1","null","images/tutrocket2","","1","practice","null","2","","",""
"d3-animate-choice","95","265071","0.0-61.0-1.11","225","2009","19","Female","false","true","true","true","""event"",""trial"",""time""
""fullscreenenter"",""5"",""14418""
","
","
","""event"",""trial"",""time""
""fullscreenenter"",""5"",""14418""
","
","529.8999999761581","","48","","","3000","1","","","images/tutyellowplanet.jpg","images/tutalien4","images/tutalien3","images/tutrocket2","images/tutalien4","images/nothing.png","2","practice","true","2","common","0","2022-06-08 03:05:33.127"
"two-step-fixation","96","266075","0.0-61.0-2.11","225","2009","19","Female","false","true","true","true","""event"",""trial"",""time""
""fullscreenenter"",""5"",""14418""
","
","
","""event"",""trial"",""time""
""fullscreenenter"",""5"",""14418""
","
","","images/earth.jpg","","","","","","","","","","","","","","fixation","","","","","",""
"d3-animate-choice","97","268362","0.0-61.0-0.12","225","2009","19","Female","false","true","true","true","""event"",""trial"",""time""
""fullscreenenter"",""5"",""14418""
","
","
","""event"",""trial"",""time""
""fullscreenenter"",""5"",""14418""
","
","281.59999999403954","","48","","","3000","1","","","images/earth.jpg","images/tutrocket2","images/tutrocket1","null","images/tutrocket2","","1","practice","null","2","","",""
"d3-animate-choice","98","270786","0.0-61.0-1.12","225","2009","19","Female","false","true","true","true","""event"",""trial"",""time""
""fullscreenenter"",""5"",""14418""
","
","
","""event"",""trial"",""time""
""fullscreenenter"",""5"",""14418""
","
","417.19999998807907","","48","","","3000","1","","","images/tutyellowplanet.jpg","images/tutalien4","images/tutalien3","images/tutrocket2","images/tutalien4","images/t.png","2","practice","true","2","common","1","2022-06-08 03:05:38.843"
"two-step-fixation","99","271791","0.0-61.0-2.12","225","2009","19","Female","false","true","true","true","""event"",""trial"",""time""
""fullscreenenter"",""5"",""14418""
","
","
","""event"",""trial"",""time""
""fullscreenenter"",""5"",""14418""
","
","","images/earth.jpg","","","","","","","","","","","","","","fixation","","","","","",""
"d3-animate-choice","100","274295","0.0-61.0-0.13","225","2009","19","Female","false","true","true","true","""event"",""trial"",""time""
""fullscreenenter"",""5"",""14418""
","
","
","""event"",""trial"",""time""
""fullscreenenter"",""5"",""14418""
","
","499.69999998807907","","48","","","3000","1","","","images/earth.jpg","images/tutrocket2","images/tutrocket1","null","images/tutrocket2","","1","practice","null","2","","",""
"d3-animate-choice","101","276756","0.0-61.0-1.13","225","2009","19","Female","false","true","true","true","""event"",""trial"",""time""
""fullscreenenter"",""5"",""14418""
","
","
","""event"",""trial"",""time""
""fullscreenenter"",""5"",""14418""
","
","456.90000000596046","","48","","","3000","1","","","images/tutyellowplanet.jpg","images/tutalien4","images/tutalien3","images/tutrocket2","images/tutalien4","images/t.png","2","practice","true","2","common","1","2022-06-08 03:05:44.812"
"two-step-fixation","102","277759","0.0-61.0-2.13","225","2009","19","Female","false","true","true","true","""event"",""trial"",""time""
""fullscreenenter"",""5"",""14418""
","
","
","""event"",""trial"",""time""
""fullscreenenter"",""5"",""14418""
","
","","images/earth.jpg","","","","","","","","","","","","","","fixation","","","","","",""
"d3-animate-choice","103","280096","0.0-61.0-0.14","225","2009","19","Female","false","true","true","true","""event"",""trial"",""time""
""fullscreenenter"",""5"",""14418""
","
","
","""event"",""trial"",""time""
""fullscreenenter"",""5"",""14418""
","
","331.7999999821186","","48","","","3000","1","","","images/earth.jpg","images/tutrocket2","images/tutrocket1","null","images/tutrocket2","","1","practice","null","2","","",""
"d3-animate-choice","104","282544","0.0-61.0-1.14","225","2009","19","Female","false","true","true","true","""event"",""trial"",""time""
""fullscreenenter"",""5"",""14418""
","
","
","""event"",""trial"",""time""
""fullscreenenter"",""5"",""14418""
","
","439.59999999403954","","48","","","3000","1","","","images/tutyellowplanet.jpg","images/tutalien4","images/tutalien3","images/tutrocket2","images/tutalien4","images/t.png","2","practice","true","2","common","1","2022-06-08 03:05:50.600"
"two-step-fixation","105","283548","0.0-61.0-2.14","225","2009","19","Female","false","true","true","true","""event"",""trial"",""time""
""fullscreenenter"",""5"",""14418""
","
","
","""event"",""trial"",""time""
""fullscreenenter"",""5"",""14418""
","
","","images/earth.jpg","","","","","","","","","","","","","","fixation","","","","","",""
"d3-animate-choice","106","285865","0.0-61.0-0.15","225","2009","19","Female","false","true","true","true","""event"",""trial"",""time""
""fullscreenenter"",""5"",""14418""
","
","
","""event"",""trial"",""time""
""fullscreenenter"",""5"",""14418""
","
","311.40000000596046","","48","","","3000","1","","","images/earth.jpg","images/tutrocket2","images/tutrocket1","null","images/tutrocket2","","1","practice","null","2","","",""
"d3-animate-choice","107","288428","0.0-61.0-1.15","225","2009","19","Female","false","true","true","true","""event"",""trial"",""time""
""fullscreenenter"",""5"",""14418""
","
","
","""event"",""trial"",""time""
""fullscreenenter"",""5"",""14418""
","
","557.5","","48","","","3000","1","","","images/tutyellowplanet.jpg","images/tutalien4","images/tutalien3","images/tutrocket2","images/tutalien4","images/t.png","2","practice","true","2","common","1","2022-06-08 03:05:56.484"
"two-step-fixation","108","289435","0.0-61.0-2.15","225","2009","19","Female","false","true","true","true","""event"",""trial"",""time""
""fullscreenenter"",""5"",""14418""
","
","
","""event"",""trial"",""time""
""fullscreenenter"",""5"",""14418""
","
","","images/earth.jpg","","","","","","","","","","","","","","fixation","","","","","",""
"d3-animate-choice","109","291922","0.0-61.0-0.16","225","2009","19","Female","false","true","true","true","""event"",""trial"",""time""
""fullscreenenter"",""5"",""14418""
","
","
","""event"",""trial"",""time""
""fullscreenenter"",""5"",""14418""
","
","482","","48","","","3000","1","","","images/earth.jpg","images/tutrocket2","images/tutrocket1","null","images/tutrocket2","","1","practice","null","2","","",""
"d3-animate-choice","110","294435","0.0-61.0-1.16","225","2009","19","Female","false","true","true","true","""event"",""trial"",""time""
""fullscreenenter"",""5"",""14418""
","
","
","""event"",""trial"",""time""
""fullscreenenter"",""5"",""14418""
","
","506.40000000596046","","48","","","3000","1","","","images/tutyellowplanet.jpg","images/tutalien4","images/tutalien3","images/tutrocket2","images/tutalien4","images/nothing.png","2","practice","true","2","common","0","2022-06-08 03:06:02.492"
"two-step-fixation","111","295443","0.0-61.0-2.16","225","2009","19","Female","false","true","true","true","""event"",""trial"",""time""
""fullscreenenter"",""5"",""14418""
","
","
","""event"",""trial"",""time""
""fullscreenenter"",""5"",""14418""
","
","","images/earth.jpg","","","","","","","","","","","","","","fixation","","","","","",""
"d3-animate-choice","112","297799","0.0-61.0-0.17","225","2009","19","Female","false","true","true","true","""event"",""trial"",""time""
""fullscreenenter"",""5"",""14418""
","
","
","""event"",""trial"",""time""
""fullscreenenter"",""5"",""14418""
","
","350.7999999821186","","48","","","3000","1","","","images/earth.jpg","images/tutrocket2","images/tutrocket1","null","images/tutrocket2","","1","practice","null","2","","",""
"d3-animate-choice","113","300296","0.0-61.0-1.17","225","2009","19","Female","false","true","true","true","""event"",""trial"",""time""
""fullscreenenter"",""5"",""14418""
","
","
","""event"",""trial"",""time""
""fullscreenenter"",""5"",""14418""
","
","491.5","","48","","","3000","1","","","images/tutyellowplanet.jpg","images/tutalien4","images/tutalien3","images/tutrocket2","images/tutalien4","images/nothing.png","2","practice","true","2","common","0","2022-06-08 03:06:08.352"
"two-step-fixation","114","301300","0.0-61.0-2.17","225","2009","19","Female","false","true","true","true","""event"",""trial"",""time""
""fullscreenenter"",""5"",""14418""
","
","
","""event"",""trial"",""time""
""fullscreenenter"",""5"",""14418""
","
","","images/earth.jpg","","","","","","","","","","","","","","fixation","","","","","",""
"d3-animate-choice","115","303592","0.0-61.0-0.18","225","2009","19","Female","false","true","true","true","""event"",""trial"",""time""
""fullscreenenter"",""5"",""14418""
","
","
","""event"",""trial"",""time""
""fullscreenenter"",""5"",""14418""
","
","287.2999999821186","","48","","","3000","1","","","images/earth.jpg","images/tutrocket2","images/tutrocket1","null","images/tutrocket2","","1","practice","null","2","","",""
"d3-animate-choice","116","306669","0.0-61.0-1.18","225","2009","19","Female","false","true","true","true","""event"",""trial"",""time""
""fullscreenenter"",""5"",""14418""
","
","
","""event"",""trial"",""time""
""fullscreenenter"",""5"",""14418""
","
","1072","","49","","","3000","1","","","images/tutgreenplanet.jpg","images/tutalien2","images/tutalien1","images/tutrocket2","images/tutalien1","images/nothing.png","2","practice","false","1","rare","0","2022-06-08 03:06:14.726"
"two-step-fixation","117","307674","0.0-61.0-2.18","225","2009","19","Female","false","true","true","true","""event"",""trial"",""time""
""fullscreenenter"",""5"",""14418""
","
","
","""event"",""trial"",""time""
""fullscreenenter"",""5"",""14418""
","
","","images/earth.jpg","","","","","","","","","","","","","","fixation","","","","","",""
"d3-animate-choice","118","309996","0.0-61.0-0.19","225","2009","19","Female","false","true","true","true","""event"",""trial"",""time""
""fullscreenenter"",""5"",""14418""
","
","
","""event"",""trial"",""time""
""fullscreenenter"",""5"",""14418""
","
","315.39999997615814","","48","","","3000","1","","","images/earth.jpg","images/tutrocket2","images/tutrocket1","null","images/tutrocket2","","1","practice","null","2","","",""
"d3-animate-choice","119","312329","0.0-61.0-1.19","225","2009","19","Female","false","true","true","true","""event"",""trial"",""time""
""fullscreenenter"",""5"",""14418""
","
","
","""event"",""trial"",""time""
""fullscreenenter"",""5"",""14418""
","
","328.69999998807907","","48","","","3000","1","","","images/tutyellowplanet.jpg","images/tutalien4","images/tutalien3","images/tutrocket2","images/tutalien4","images/nothing.png","2","practice","true","2","common","0","2022-06-08 03:06:20.385"
"two-step-fixation","120","313333","0.0-61.0-2.19","225","2009","19","Female","false","true","true","true","""event"",""trial"",""time""
""fullscreenenter"",""5"",""14418""
","
","
","""event"",""trial"",""time""
""fullscreenenter"",""5"",""14418""
","
","","images/earth.jpg","","","","","","","","","","","","","","fixation","","","","","",""
"d3-instructions","121","315209","0.0-62.0","225","2009","19","Female","false","true","true","true","""event"",""trial"",""time""
""fullscreenenter"",""5"",""14418""
","
","
","""event"",""trial"",""time""
""fullscreenenter"",""5"",""14418""
","
","","","","","","","","","","","","","","","","","","","","","",""
"audio-keyboard-response","122","316825","0.0-63.0","225","2009","19","Female","false","true","true","true","""event"",""trial"",""time""
""fullscreenenter"",""5"",""14418""
","
","
","""event"",""trial"",""time""
""fullscreenenter"",""5"",""14418""
","
","1614","audio/instructions/treasure_feedback.wav","32","","","","","","","","","","","","","","","","","","",""
"d3-instructions","123","319553","0.0-64.0","225","2009","19","Female","false","true","true","true","""event"",""trial"",""time""
""fullscreenenter"",""5"",""14418""
","
","
","""event"",""trial"",""time""
""fullscreenenter"",""5"",""14418""
","
","","","","","","","","","","","","","","","","","","","","","",""
"d3-instructions","124","323801","0.0-65.0","225","2009","19","Female","false","true","true","true","""event"",""trial"",""time""
""fullscreenenter"",""5"",""14418""
","
","
","""event"",""trial"",""time""
""fullscreenenter"",""5"",""14418""
","
","","","","","","","","","","","","","","","","","","","","","",""
"d3-instructions","125","327373","0.0-66.0","225","2009","19","Female","false","true","true","true","""event"",""trial"",""time""
""fullscreenenter"",""5"",""14418""
","
","
","""event"",""trial"",""time""
""fullscreenenter"",""5"",""14418""
","
","","","","","","","","","","","","","","","","","","","","","",""
"d3-instructions","126","331609","0.0-67.0","225","2009","19","Female","false","true","true","true","""event"",""trial"",""time""
""fullscreenenter"",""5"",""14418""
","
","
","""event"",""trial"",""time""
""fullscreenenter"",""5"",""14418""
","
","","","","","","","","","","","","","","","","","","","","","",""
"d3-instructions","127","333367","0.0-68.0","225","2009","19","Female","false","true","true","true","""event"",""trial"",""time""
""fullscreenenter"",""5"",""14418""
","
","
","""event"",""trial"",""time""
""fullscreenenter"",""5"",""14418""
","
","","","","","","","","","","","","","","","","","","","","","",""
"instructions-quiz","128","335695","0.0-69.0","225","2009","19","Female","false","true","true","true","""event"",""trial"",""time""
""fullscreenenter"",""5"",""14418""
","
","
","""event"",""trial"",""time""
""fullscreenenter"",""5"",""14418""
","
","2324.2999999821186","audio/quiz/Q1_Prompt.wav","","1","","","","","","","","","","","","","","","","","",""
"audio-keyboard-response","129","337098","0.0-70.0","225","2009","19","Female","false","true","true","true","""event"",""trial"",""time""
""fullscreenenter"",""5"",""14418""
","
","
","""event"",""trial"",""time""
""fullscreenenter"",""5"",""14418""
","
","1399","audio/quiz/Q1_Correct.wav","32","","","","","","","","","","","","","","","","","","",""
"instructions-quiz","130","340295","0.0-71.0","225","2009","19","Female","false","true","true","true","""event"",""trial"",""time""
""fullscreenenter"",""5"",""14418""
","
","
","""event"",""trial"",""time""
""fullscreenenter"",""5"",""14418""
","
","3193.800000011921","audio/quiz/Q2_Prompt.wav","","0","","","","","","","","","","","","","","","","","",""
"audio-keyboard-response","131","340937","0.0-72.0","225","2009","19","Female","false","true","true","true","""event"",""trial"",""time""
""fullscreenenter"",""5"",""14418""
","
","
","""event"",""trial"",""time""
""fullscreenenter"",""5"",""14418""
","
","639","audio/quiz/Q2_Correct.wav","32","","","","","","","","","","","","","","","","","","",""
"instructions-quiz","132","342478","0.0-73.0","225","2009","19","Female","false","true","true","true","""event"",""trial"",""time""
""fullscreenenter"",""5"",""14418""
","
","
","""event"",""trial"",""time""
""fullscreenenter"",""5"",""14418""
","
","1538.199999988079","audio/quiz/Q3_Prompt.wav","","1","","","","","","","","","","","","","","","","","",""
"audio-keyboard-response","133","342893","0.0-74.0","225","2009","19","Female","false","true","true","true","""event"",""trial"",""time""
""fullscreenenter"",""5"",""14418""
","
","
","""event"",""trial"",""time""
""fullscreenenter"",""5"",""14418""
","
","412","audio/quiz/Q3_Correct.wav","32","","","","","","","","","","","","","","","","","","",""
"d3-instructions","134","345121","0.0-75.0","225","2009","19","Female","false","true","true","true","""event"",""trial"",""time""
""fullscreenenter"",""5"",""14418""
","
","
","""event"",""trial"",""time""
""fullscreenenter"",""5"",""14418""
","
","","","","","","","","","","","","","","","","","","","","","",""
"d3-animate-choice","135","348688","0.0-76.0-0.0","225","2009","19","Female","false","true","true","true","""event"",""trial"",""time""
""fullscreenenter"",""5"",""14418""
","
","
","""event"",""trial"",""time""
""fullscreenenter"",""5"",""14418""
","
","1560.0999999940395","","48","","","3000","1","","","images/earth.jpg","images/rocket1","images/rocket2","null","images/rocket1","","1","real","null","2","","",""
"d3-animate-choice","136","351114","0.0-76.0-1.0","225","2009","19","Female","false","true","true","true","""event"",""trial"",""time""
""fullscreenenter"",""5"",""14418""
","
","
","""event"",""trial"",""time""
""fullscreenenter"",""5"",""14418""
","
","421.09999999403954","","48","","","3000","1","","","images/redplanet1.jpg","images/alien2","images/alien1","images/rocket1","images/alien2","images/t.png","2","real","true","2","common","1","2022-06-08 03:06:59.170"
"two-step-fixation","137","352119","0.0-76.0-2.0","225","2009","19","Female","false","true","true","true","""event"",""trial"",""time""
""fullscreenenter"",""5"",""14418""
","
","
","""event"",""trial"",""time""
""fullscreenenter"",""5"",""14418""
","
","","images/earth.jpg","","","","","","","","","","","","","","fixation","","","","","",""
"d3-animate-choice","138","355256","0.0-76.0-0.1","225","2009","19","Female","false","true","true","true","""event"",""trial"",""time""
""fullscreenenter"",""5"",""14418""
","
","
","""event"",""trial"",""time""
""fullscreenenter"",""5"",""14418""
","
","1129","","48","","","3000","1","","","images/earth.jpg","images/rocket1","images/rocket2","null","images/rocket1","","1","real","null","2","","",""
"d3-animate-choice","139","357638","0.0-76.0-1.1","225","2009","19","Female","false","true","true","true","""event"",""trial"",""time""
""fullscreenenter"",""5"",""14418""
","
","
","""event"",""trial"",""time""
""fullscreenenter"",""5"",""14418""
","
","377.30000001192093","","48","","","3000","1","","","images/redplanet1.jpg","images/alien2","images/alien1","images/rocket1","images/alien2","images/t.png","2","real","true","2","common","1","2022-06-08 03:07:05.694"
"two-step-fixation","140","358642","0.0-76.0-2.1","225","2009","19","Female","false","true","true","true","""event"",""trial"",""time""
""fullscreenenter"",""5"",""14418""
","
","
","""event"",""trial"",""time""
""fullscreenenter"",""5"",""14418""
","
","","images/earth.jpg","","","","","","","","","","","","","","fixation","","","","","",""
"d3-animate-choice","141","360972","0.0-76.0-0.2","225","2009","19","Female","false","true","true","true","""event"",""trial"",""time""
""fullscreenenter"",""5"",""14418""
","
","
","""event"",""trial"",""time""
""fullscreenenter"",""5"",""14418""
","
","319.90000000596046","","48","","","3000","1","","","images/earth.jpg","images/rocket1","images/rocket2","null","images/rocket1","","1","real","null","2","","",""
"d3-animate-choice","142","363623","0.0-76.0-1.2","225","2009","19","Female","false","true","true","true","""event"",""trial"",""time""
""fullscreenenter"",""5"",""14418""
","
","
","""event"",""trial"",""time""
""fullscreenenter"",""5"",""14418""
","
","647.3000000119209","","48","","","3000","1","","","images/redplanet1.jpg","images/alien2","images/alien1","images/rocket1","images/alien2","images/t.png","2","real","true","2","common","1","2022-06-08 03:07:11.680"
"two-step-fixation","143","364628","0.0-76.0-2.2","225","2009","19","Female","false","true","true","true","""event"",""trial"",""time""
""fullscreenenter"",""5"",""14418""
","
","
","""event"",""trial"",""time""
""fullscreenenter"",""5"",""14418""
","
","","images/earth.jpg","","","","","","","","","","","","","","fixation","","","","","",""
"d3-animate-choice","144","366929","0.0-76.0-0.3","225","2009","19","Female","false","true","true","true","""event"",""trial"",""time""
""fullscreenenter"",""5"",""14418""
","
","
","""event"",""trial"",""time""
""fullscreenenter"",""5"",""14418""
","
","300.5","","48","","","3000","1","","","images/earth.jpg","images/rocket1","images/rocket2","null","images/rocket1","","1","real","null","2","","",""
"d3-animate-choice","145","369454","0.0-76.0-1.3","225","2009","19","Female","false","true","true","true","""event"",""trial"",""time""
""fullscreenenter"",""5"",""14418""
","
","
","""event"",""trial"",""time""
""fullscreenenter"",""5"",""14418""
","
","524.3000000119209","","48","","","3000","1","","","images/redplanet1.jpg","images/alien2","images/alien1","images/rocket1","images/alien2","images/t.png","2","real","true","2","common","1","2022-06-08 03:07:17.510"
"two-step-fixation","146","370461","0.0-76.0-2.3","225","2009","19","Female","false","true","true","true","""event"",""trial"",""time""
""fullscreenenter"",""5"",""14418""
","
","
","""event"",""trial"",""time""
""fullscreenenter"",""5"",""14418""
","
","","images/earth.jpg","","","","","","","","","","","","","","fixation","","","","","",""
"d3-animate-choice","147","372773","0.0-76.0-0.4","225","2009","19","Female","false","true","true","true","""event"",""trial"",""time""
""fullscreenenter"",""5"",""14418""
","
","
","""event"",""trial"",""time""
""fullscreenenter"",""5"",""14418""
","
","310.30000001192093","","48","","","3000","1","","","images/earth.jpg","images/rocket1","images/rocket2","null","images/rocket1","","1","real","null","2","","",""
"d3-animate-choice","148","375258","0.0-76.0-1.4","225","2009","19","Female","false","true","true","true","""event"",""trial"",""time""
""fullscreenenter"",""5"",""14418""
","
","
","""event"",""trial"",""time""
""fullscreenenter"",""5"",""14418""
","
","484.30000001192093","","48","","","3000","1","","","images/redplanet1.jpg","images/alien2","images/alien1","images/rocket1","images/alien2","images/t.png","2","real","true","2","common","1","2022-06-08 03:07:23.314"
"two-step-fixation","149","376262","0.0-76.0-2.4","225","2009","19","Female","false","true","true","true","""event"",""trial"",""time""
""fullscreenenter"",""5"",""14418""
","
","
","""event"",""trial"",""time""
""fullscreenenter"",""5"",""14418""
","
","","images/earth.jpg","","","","","","","","","","","","","","fixation","","","","","",""
"d3-animate-choice","150","378606","0.0-76.0-0.5","225","2009","19","Female","false","true","true","true","""event"",""trial"",""time""
""fullscreenenter"",""5"",""14418""
","
","
","""event"",""trial"",""time""
""fullscreenenter"",""5"",""14418""
","
","338.7999999821186","","48","","","3000","1","","","images/earth.jpg","images/rocket1","images/rocket2","null","images/rocket1","","1","real","null","2","","",""
"d3-animate-choice","151","381015","0.0-76.0-1.5","225","2009","19","Female","false","true","true","true","""event"",""trial"",""time""
""fullscreenenter"",""5"",""14418""
","
","
","""event"",""trial"",""time""
""fullscreenenter"",""5"",""14418""
","
","405.7000000178814","","48","","","3000","1","","","images/redplanet1.jpg","images/alien2","images/alien1","images/rocket1","images/alien2","images/t.png","2","real","true","2","common","1","2022-06-08 03:07:29.071"
"two-step-fixation","152","382018","0.0-76.0-2.5","225","2009","19","Female","false","true","true","true","""event"",""trial"",""time""
""fullscreenenter"",""5"",""14418""
","
","
","""event"",""trial"",""time""
""fullscreenenter"",""5"",""14418""
","
","","images/earth.jpg","","","","","","","","","","","","","","fixation","","","","","",""
"d3-animate-choice","153","384349","0.0-76.0-0.6","225","2009","19","Female","false","true","true","true","""event"",""trial"",""time""
""fullscreenenter"",""5"",""14418""
","
","
","""event"",""trial"",""time""
""fullscreenenter"",""5"",""14418""
","
","328.09999999403954","","48","","","3000","1","","","images/earth.jpg","images/rocket1","images/rocket2","null","images/rocket1","","1","real","null","2","","",""
"d3-animate-choice","154","386775","0.0-76.0-1.6","225","2009","19","Female","false","true","true","true","""event"",""trial"",""time""
""fullscreenenter"",""5"",""14418""
","
","
","""event"",""trial"",""time""
""fullscreenenter"",""5"",""14418""
","
","425.90000000596046","","48","","","3000","1","","","images/purpleplanet.jpg","images/alien4","images/alien3","images/rocket1","images/alien4","images/nothing.png","2","real","false","2","rare","0","2022-06-08 03:07:34.831"
"two-step-fixation","155","387780","0.0-76.0-2.6","225","2009","19","Female","false","true","true","true","""event"",""trial"",""time""
""fullscreenenter"",""5"",""14418""
","
","
","""event"",""trial"",""time""
""fullscreenenter"",""5"",""14418""
","
","","images/earth.jpg","","","","","","","","","","","","","","fixation","","","","","",""
"d3-animate-choice","156","390081","0.0-76.0-0.7","225","2009","19","Female","false","true","true","true","""event"",""trial"",""time""
""fullscreenenter"",""5"",""14418""
","
","
","""event"",""trial"",""time""
""fullscreenenter"",""5"",""14418""
","
","293.90000000596046","","48","","","3000","1","","","images/earth.jpg","images/rocket1","images/rocket2","null","images/rocket1","","1","real","null","2","","",""
"d3-animate-choice","157","392488","0.0-76.0-1.7","225","2009","19","Female","false","true","true","true","""event"",""trial"",""time""
""fullscreenenter"",""5"",""14418""
","
","
","""event"",""trial"",""time""
""fullscreenenter"",""5"",""14418""
","
","401.5","","48","","","3000","1","","","images/redplanet1.jpg","images/alien2","images/alien1","images/rocket1","images/alien2","images/nothing.png","2","real","true","2","common","0","2022-06-08 03:07:40.544"
"two-step-fixation","158","393496","0.0-76.0-2.7","225","2009","19","Female","false","true","true","true","""event"",""trial"",""time""
""fullscreenenter"",""5"",""14418""
","
","
","""event"",""trial"",""time""
""fullscreenenter"",""5"",""14418""
","
","","images/earth.jpg","","","","","","","","","","","","","","fixation","","","","","",""
"d3-animate-choice","159","395861","0.0-76.0-0.8","225","2009","19","Female","false","true","true","true","""event"",""trial"",""time""
""fullscreenenter"",""5"",""14418""
","
","
","""event"",""trial"",""time""
""fullscreenenter"",""5"",""14418""
","
","356.5","","48","","","3000","1","","","images/earth.jpg","images/rocket1","images/rocket2","null","images/rocket1","","1","real","null","2","","",""
"d3-animate-choice","160","398155","0.0-76.0-1.8","225","2009","19","Female","false","true","true","true","""event"",""trial"",""time""
""fullscreenenter"",""5"",""14418""
","
","
","""event"",""trial"",""time""
""fullscreenenter"",""5"",""14418""
","
","289","","48","","","3000","1","","","images/redplanet1.jpg","images/alien2","images/alien1","images/rocket1","images/alien2","images/nothing.png","2","real","true","2","common","0","2022-06-08 03:07:46.211"
"two-step-fixation","161","399161","0.0-76.0-2.8","225","2009","19","Female","false","true","true","true","""event"",""trial"",""time""
""fullscreenenter"",""5"",""14418""
","
","
","""event"",""trial"",""time""
""fullscreenenter"",""5"",""14418""
","
","","images/earth.jpg","","","","","","","","","","","","","","fixation","","","","","",""
"d3-animate-choice","162","401424","0.0-76.0-0.9","225","2009","19","Female","false","true","true","true","""event"",""trial"",""time""
""fullscreenenter"",""5"",""14418""
","
","
","""event"",""trial"",""time""
""fullscreenenter"",""5"",""14418""
","
","258.19999998807907","","48","","","3000","1","","","images/earth.jpg","images/rocket1","images/rocket2","null","images/rocket1","","1","real","null","2","","",""
"d3-animate-choice","163","403864","0.0-76.0-1.9","225","2009","19","Female","false","true","true","true","""event"",""trial"",""time""
""fullscreenenter"",""5"",""14418""
","
","
","""event"",""trial"",""time""
""fullscreenenter"",""5"",""14418""
","
","435.7999999821186","","48","","","3000","1","","","images/redplanet1.jpg","images/alien2","images/alien1","images/rocket1","images/alien2","images/t.png","2","real","true","2","common","1","2022-06-08 03:07:51.920"
"two-step-fixation","164","404870","0.0-76.0-2.9","225","2009","19","Female","false","true","true","true","""event"",""trial"",""time""
""fullscreenenter"",""5"",""14418""
","
","
","""event"",""trial"",""time""
""fullscreenenter"",""5"",""14418""
","
","","images/earth.jpg","","","","","","","","","","","","","","fixation","","","","","",""
"d3-animate-choice","165","407228","0.0-76.0-0.10","225","2009","19","Female","false","true","true","true","""event"",""trial"",""time""
""fullscreenenter"",""5"",""14418""
","
","
","""event"",""trial"",""time""
""fullscreenenter"",""5"",""14418""
","
","350.5","","48","","","3000","1","","","images/earth.jpg","images/rocket1","images/rocket2","null","images/rocket1","","1","real","null","2","","",""
"d3-animate-choice","166","409646","0.0-76.0-1.10","225","2009","19","Female","false","true","true","true","""event"",""trial"",""time""
""fullscreenenter"",""5"",""14418""
","
","
","""event"",""trial"",""time""
""fullscreenenter"",""5"",""14418""
","
","413.7000000178814","","48","","","3000","1","","","images/redplanet1.jpg","images/alien2","images/alien1","images/rocket1","images/alien2","images/t.png","2","real","true","2","common","1","2022-06-08 03:07:57.702"
"two-step-fixation","167","410651","0.0-76.0-2.10","225","2009","19","Female","false","true","true","true","""event"",""trial"",""time""
""fullscreenenter"",""5"",""14418""
","
","
","""event"",""trial"",""time""
""fullscreenenter"",""5"",""14418""
","
","","images/earth.jpg","","","","","","","","","","","","","","fixation","","","","","",""
"d3-animate-choice","168","413043","0.0-76.0-0.11","225","2009","19","Female","false","true","true","true","""event"",""trial"",""time""
""fullscreenenter"",""5"",""14418""
","
","
","""event"",""trial"",""time""
""fullscreenenter"",""5"",""14418""
","
","387.80000001192093","","48","","","3000","1","","","images/earth.jpg","images/rocket1","images/rocket2","null","images/rocket1","","1","real","null","2","","",""
"d3-animate-choice","169","416241","0.0-76.0-1.11","225","2009","19","Female","false","true","true","true","""event"",""trial"",""time""
""fullscreenenter"",""5"",""14418""
","
","
","""event"",""trial"",""time""
""fullscreenenter"",""5"",""14418""
","
","1193.5","","49","","","3000","1","","","images/purpleplanet.jpg","images/alien4","images/alien3","images/rocket1","images/alien3","images/nothing.png","2","real","false","1","rare","0","2022-06-08 03:08:04.298"
"two-step-fixation","170","417251","0.0-76.0-2.11","225","2009","19","Female","false","true","true","true","""event"",""trial"",""time""
""fullscreenenter"",""5"",""14418""
","
","
","""event"",""trial"",""time""
""fullscreenenter"",""5"",""14418""
","
","","images/earth.jpg","","","","","","","","","","","","","","fixation","","","","","",""
"d3-animate-choice","171","419631","0.0-76.0-0.12","225","2009","19","Female","false","true","true","true","""event"",""trial"",""time""
""fullscreenenter"",""5"",""14418""
","
","
","""event"",""trial"",""time""
""fullscreenenter"",""5"",""14418""
","
","374.39999997615814","","48","","","3000","1","","","images/earth.jpg","images/rocket1","images/rocket2","null","images/rocket1","","1","real","null","2","","",""
"d3-animate-choice","172","421999","0.0-76.0-1.12","225","2009","19","Female","false","true","true","true","""event"",""trial"",""time""
""fullscreenenter"",""5"",""14418""
","
","
","""event"",""trial"",""time""
""fullscreenenter"",""5"",""14418""
","
","360.2000000178814","","48","","","3000","1","","","images/redplanet1.jpg","images/alien2","images/alien1","images/rocket1","images/alien2","images/nothing.png","2","real","true","2","common","0","2022-06-08 03:08:10.055"
"two-step-fixation","173","423004","0.0-76.0-2.12","225","2009","19","Female","false","true","true","true","""event"",""trial"",""time""
""fullscreenenter"",""5"",""14418""
","
","
","""event"",""trial"",""time""
""fullscreenenter"",""5"",""14418""
","
","","images/earth.jpg","","","","","","","","","","","","","","fixation","","","","","",""
"d3-animate-choice","174","425566","0.0-76.0-0.13","225","2009","19","Female","false","true","true","true","""event"",""trial"",""time""
""fullscreenenter"",""5"",""14418""
","
","
","""event"",""trial"",""time""
""fullscreenenter"",""5"",""14418""
","
","555.8999999761581","","48","","","3000","1","","","images/earth.jpg","images/rocket1","images/rocket2","null","images/rocket1","","1","real","null","2","","",""
"d3-animate-choice","175","428050","0.0-76.0-1.13","225","2009","19","Female","false","true","true","true","""event"",""trial"",""time""
""fullscreenenter"",""5"",""14418""
","
","
","""event"",""trial"",""time""
""fullscreenenter"",""5"",""14418""
","
","477.59999999403954","","48","","","3000","1","","","images/redplanet1.jpg","images/alien2","images/alien1","images/rocket1","images/alien2","images/nothing.png","2","real","true","2","common","0","2022-06-08 03:08:16.106"
"two-step-fixation","176","429057","0.0-76.0-2.13","225","2009","19","Female","false","true","true","true","""event"",""trial"",""time""
""fullscreenenter"",""5"",""14418""
","
","
","""event"",""trial"",""time""
""fullscreenenter"",""5"",""14418""
","
","","images/earth.jpg","","","","","","","","","","","","","","fixation","","","","","",""
"d3-animate-choice","177","431413","0.0-76.0-0.14","225","2009","19","Female","false","true","true","true","""event"",""trial"",""time""
""fullscreenenter"",""5"",""14418""
","
","
","""event"",""trial"",""time""
""fullscreenenter"",""5"",""14418""
","
","350.80000001192093","","48","","","3000","1","","","images/earth.jpg","images/rocket1","images/rocket2","null","images/rocket1","","1","real","null","2","","",""
"d3-animate-choice","178","433910","0.0-76.0-1.14","225","2009","19","Female","false","true","true","true","""event"",""trial"",""time""
""fullscreenenter"",""5"",""14418""
","
","
","""event"",""trial"",""time""
""fullscreenenter"",""5"",""14418""
","
","490.5","","48","","","3000","1","","","images/purpleplanet.jpg","images/alien4","images/alien3","images/rocket1","images/alien4","images/t.png","2","real","false","2","rare","1","2022-06-08 03:08:21.967"
"two-step-fixation","179","434920","0.0-76.0-2.14","225","2009","19","Female","false","true","true","true","""event"",""trial"",""time""
""fullscreenenter"",""5"",""14418""
","
","
","""event"",""trial"",""time""
""fullscreenenter"",""5"",""14418""
","
","","images/earth.jpg","","","","","","","","","","","","","","fixation","","","","","",""
"d3-animate-choice","180","437519","0.0-76.0-0.15","225","2009","19","Female","false","true","true","true","""event"",""trial"",""time""
""fullscreenenter"",""5"",""14418""
","
","
","""event"",""trial"",""time""
""fullscreenenter"",""5"",""14418""
","
","592.1000000238419","","48","","","3000","1","","","images/earth.jpg","images/rocket1","images/rocket2","null","images/rocket1","","1","real","null","2","","",""
"d3-animate-choice","181","439911","0.0-76.0-1.15","225","2009","19","Female","false","true","true","true","""event"",""trial"",""time""
""fullscreenenter"",""5"",""14418""
","
","
","""event"",""trial"",""time""
""fullscreenenter"",""5"",""14418""
","
","383.59999999403954","","48","","","3000","1","","","images/redplanet1.jpg","images/alien2","images/alien1","images/rocket1","images/alien2","images/nothing.png","2","real","true","2","common","0","2022-06-08 03:08:27.968"
"two-step-fixation","182","440917","0.0-76.0-2.15","225","2009","19","Female","false","true","true","true","""event"",""trial"",""time""
""fullscreenenter"",""5"",""14418""
","
","
","""event"",""trial"",""time""
""fullscreenenter"",""5"",""14418""
","
","","images/earth.jpg","","","","","","","","","","","","","","fixation","","","","","",""
"d3-animate-choice","183","443297","0.0-76.0-0.16","225","2009","19","Female","false","true","true","true","""event"",""trial"",""time""
""fullscreenenter"",""5"",""14418""
","
","
","""event"",""trial"",""time""
""fullscreenenter"",""5"",""14418""
","
","374.10000002384186","","49","","","3000","1","","","images/earth.jpg","images/rocket1","images/rocket2","null","images/rocket2","","1","real","null","1","","",""
"d3-animate-choice","184","445752","0.0-76.0-1.16","225","2009","19","Female","false","true","true","true","""event"",""trial"",""time""
""fullscreenenter"",""5"",""14418""
","
","
","""event"",""trial"",""time""
""fullscreenenter"",""5"",""14418""
","
","449.40000000596046","","48","","","3000","1","","","images/purpleplanet.jpg","images/alien4","images/alien3","images/rocket2","images/alien4","images/t.png","2","real","true","2","common","1","2022-06-08 03:08:33.808"
"two-step-fixation","185","446757","0.0-76.0-2.16","225","2009","19","Female","false","true","true","true","""event"",""trial"",""time""
""fullscreenenter"",""5"",""14418""
","
","
","""event"",""trial"",""time""
""fullscreenenter"",""5"",""14418""
","
","","images/earth.jpg","","","","","","","","","","","","","","fixation","","","","","",""
"d3-animate-choice","186","449147","0.0-76.0-0.17","225","2009","19","Female","false","true","true","true","""event"",""trial"",""time""
""fullscreenenter"",""5"",""14418""
","
","
","""event"",""trial"",""time""
""fullscreenenter"",""5"",""14418""
","
","383.30000001192093","","49","","","3000","1","","","images/earth.jpg","images/rocket1","images/rocket2","null","images/rocket2","","1","real","null","1","","",""
"d3-animate-choice","187","451778","0.0-76.0-1.17","225","2009","19","Female","false","true","true","true","""event"",""trial"",""time""
""fullscreenenter"",""5"",""14418""
","
","
","""event"",""trial"",""time""
""fullscreenenter"",""5"",""14418""
","
","622.8000000119209","","48","","","3000","1","2432","49","images/purpleplanet.jpg","images/alien4","images/alien3","images/rocket2","images/alien4","images/t.png","2","real","true","2","common","1","2022-06-08 03:08:39.834"
"two-step-fixation","188","452787","0.0-76.0-2.17","225","2009","19","Female","false","true","true","true","""event"",""trial"",""time""
""fullscreenenter"",""5"",""14418""
","
","
","""event"",""trial"",""time""
""fullscreenenter"",""5"",""14418""
","
","","images/earth.jpg","","","","","","","","","","","","","","fixation","","","","","",""
"d3-animate-choice","189","455118","0.0-76.0-0.18","225","2009","19","Female","false","true","true","true","""event"",""trial"",""time""
""fullscreenenter"",""5"",""14418""
","
","
","""event"",""trial"",""time""
""fullscreenenter"",""5"",""14418""
","
","324.80000001192093","","49","","","3000","1","","","images/earth.jpg","images/rocket1","images/rocket2","null","images/rocket2","","1","real","null","1","","",""
"d3-animate-choice","190","457472","0.0-76.0-1.18","225","2009","19","Female","false","true","true","true","""event"",""trial"",""time""
""fullscreenenter"",""5"",""14418""
","
","
","""event"",""trial"",""time""
""fullscreenenter"",""5"",""14418""
","
","347.39999997615814","","48","","","3000","1","","","images/purpleplanet.jpg","images/alien4","images/alien3","images/rocket2","images/alien4","images/t.png","2","real","true","2","common","1","2022-06-08 03:08:45.528"
"two-step-fixation","191","458476","0.0-76.0-2.18","225","2009","19","Female","false","true","true","true","""event"",""trial"",""time""
""fullscreenenter"",""5"",""14418""
","
","
","""event"",""trial"",""time""
""fullscreenenter"",""5"",""14418""
","
","","images/earth.jpg","","","","","","","","","","","","","","fixation","","","","","",""
"d3-animate-choice","192","461053","0.0-76.0-0.19","225","2009","19","Female","false","true","true","true","""event"",""trial"",""time""
""fullscreenenter"",""5"",""14418""
","
","
","""event"",""trial"",""time""
""fullscreenenter"",""5"",""14418""
","
","570.4000000059605","","49","","","3000","1","","","images/earth.jpg","images/rocket1","images/rocket2","null","images/rocket2","","1","real","null","1","","",""
"d3-animate-choice","193","463559","0.0-76.0-1.19","225","2009","19","Female","false","true","true","true","""event"",""trial"",""time""
""fullscreenenter"",""5"",""14418""
","
","
","""event"",""trial"",""time""
""fullscreenenter"",""5"",""14418""
","
","501.10000002384186","","48","","","3000","1","","","images/redplanet1.jpg","images/alien2","images/alien1","images/rocket2","images/alien2","images/nothing.png","2","real","false","2","rare","0","2022-06-08 03:08:51.616"
"two-step-fixation","194","464565","0.0-76.0-2.19","225","2009","19","Female","false","true","true","true","""event"",""trial"",""time""
""fullscreenenter"",""5"",""14418""
","
","
","""event"",""trial"",""time""
""fullscreenenter"",""5"",""14418""
","
","","images/earth.jpg","","","","","","","","","","","","","","fixation","","","","","",""
"d3-animate-choice","195","466997","0.0-76.0-0.20","225","2009","19","Female","false","true","true","true","""event"",""trial"",""time""
""fullscreenenter"",""5"",""14418""
","
","
","""event"",""trial"",""time""
""fullscreenenter"",""5"",""14418""
","
","429.19999998807907","","49","","","3000","1","","","images/earth.jpg","images/rocket1","images/rocket2","null","images/rocket2","","1","real","null","1","","",""
"d3-animate-choice","196","469319","0.0-76.0-1.20","225","2009","19","Female","false","true","true","true","""event"",""trial"",""time""
""fullscreenenter"",""5"",""14418""
","
","
","""event"",""trial"",""time""
""fullscreenenter"",""5"",""14418""
","
","317.5","","48","","","3000","1","","","images/purpleplanet.jpg","images/alien4","images/alien3","images/rocket2","images/alien4","images/nothing.png","2","real","true","2","common","0","2022-06-08 03:08:57.375"
"two-step-fixation","197","470323","0.0-76.0-2.20","225","2009","19","Female","false","true","true","true","""event"",""trial"",""time""
""fullscreenenter"",""5"",""14418""
","
","
","""event"",""trial"",""time""
""fullscreenenter"",""5"",""14418""
","
","","images/earth.jpg","","","","","","","","","","","","","","fixation","","","","","",""
"d3-animate-choice","198","472825","0.0-76.0-0.21","225","2009","19","Female","false","true","true","true","""event"",""trial"",""time""
""fullscreenenter"",""5"",""14418""
","
","
","""event"",""trial"",""time""
""fullscreenenter"",""5"",""14418""
","
","497.2000000178814","","49","","","3000","1","","","images/earth.jpg","images/rocket1","images/rocket2","null","images/rocket2","","1","real","null","1","","",""
"d3-animate-choice","199","475258","0.0-76.0-1.21","225","2009","19","Female","false","true","true","true","""event"",""trial"",""time""
""fullscreenenter"",""5"",""14418""
","
","
","""event"",""trial"",""time""
""fullscreenenter"",""5"",""14418""
","
","425.5","","48","","","3000","1","","","images/purpleplanet.jpg","images/alien4","images/alien3","images/rocket2","images/alien4","images/t.png","2","real","true","2","common","1","2022-06-08 03:09:03.314"
"two-step-fixation","200","476265","0.0-76.0-2.21","225","2009","19","Female","false","true","true","true","""event"",""trial"",""time""
""fullscreenenter"",""5"",""14418""
","
","
","""event"",""trial"",""time""
""fullscreenenter"",""5"",""14418""
","
","","images/earth.jpg","","","","","","","","","","","","","","fixation","","","","","",""
"d3-animate-choice","201","479194","0.0-76.0-0.22","225","2009","19","Female","false","true","true","true","""event"",""trial"",""time""
""fullscreenenter"",""5"",""14418""
","
","
","""event"",""trial"",""time""
""fullscreenenter"",""5"",""14418""
","
","923.5","","49","","","3000","1","","","images/earth.jpg","images/rocket1","images/rocket2","null","images/rocket2","","1","real","null","1","","",""
"d3-animate-choice","202","481590","0.0-76.0-1.22","225","2009","19","Female","false","true","true","true","""event"",""trial"",""time""
""fullscreenenter"",""5"",""14418""
","
","
","""event"",""trial"",""time""
""fullscreenenter"",""5"",""14418""
","
","392.40000000596046","","48","","","3000","1","","","images/purpleplanet.jpg","images/alien4","images/alien3","images/rocket2","images/alien4","images/t.png","2","real","true","2","common","1","2022-06-08 03:09:09.646"
"two-step-fixation","203","482595","0.0-76.0-2.22","225","2009","19","Female","false","true","true","true","""event"",""trial"",""time""
""fullscreenenter"",""5"",""14418""
","
","
","""event"",""trial"",""time""
""fullscreenenter"",""5"",""14418""
","
","","images/earth.jpg","","","","","","","","","","","","","","fixation","","","","","",""
"d3-animate-choice","204","484947","0.0-76.0-0.23","225","2009","19","Female","false","true","true","true","""event"",""trial"",""time""
""fullscreenenter"",""5"",""14418""
","
","
","""event"",""trial"",""time""
""fullscreenenter"",""5"",""14418""
","
","347.59999999403954","","49","","","3000","1","","","images/earth.jpg","images/rocket1","images/rocket2","null","images/rocket2","","1","real","null","1","","",""
"d3-animate-choice","205","487384","0.0-76.0-1.23","225","2009","19","Female","false","true","true","true","""event"",""trial"",""time""
""fullscreenenter"",""5"",""14418""
","
","
","""event"",""trial"",""time""
""fullscreenenter"",""5"",""14418""
","
","430.60000002384186","","48","","","3000","1","","","images/purpleplanet.jpg","images/alien4","images/alien3","images/rocket2","images/alien4","images/t.png","2","real","true","2","common","1","2022-06-08 03:09:15.440"
"two-step-fixation","206","488391","0.0-76.0-2.23","225","2009","19","Female","false","true","true","true","""event"",""trial"",""time""
""fullscreenenter"",""5"",""14418""
","
","
","""event"",""trial"",""time""
""fullscreenenter"",""5"",""14418""
","
","","images/earth.jpg","","","","","","","","","","","","","","fixation","","","","","",""
"d3-animate-choice","207","490651","0.0-76.0-0.24","225","2009","19","Female","false","true","true","true","""event"",""trial"",""time""
""fullscreenenter"",""5"",""14418""
","
","
","""event"",""trial"",""time""
""fullscreenenter"",""5"",""14418""
","
","253.19999998807907","","49","","","3000","1","","","images/earth.jpg","images/rocket1","images/rocket2","null","images/rocket2","","1","real","null","1","","",""
"d3-animate-choice","208","493061","0.0-76.0-1.24","225","2009","19","Female","false","true","true","true","""event"",""trial"",""time""
""fullscreenenter"",""5"",""14418""
","
","
","""event"",""trial"",""time""
""fullscreenenter"",""5"",""14418""
","
","405.30000001192093","","48","","","3000","1","","","images/purpleplanet.jpg","images/alien4","images/alien3","images/rocket2","images/alien4","images/t.png","2","real","true","2","common","1","2022-06-08 03:09:21.118"
"two-step-fixation","209","494066","0.0-76.0-2.24","225","2009","19","Female","false","true","true","true","""event"",""trial"",""time""
""fullscreenenter"",""5"",""14418""
","
","
","""event"",""trial"",""time""
""fullscreenenter"",""5"",""14418""
","
","","images/earth.jpg","","","","","","","","","","","","","","fixation","","","","","",""
"d3-animate-choice","210","496434","0.0-76.0-0.25","225","2009","19","Female","false","true","true","true","""event"",""trial"",""time""
""fullscreenenter"",""5"",""14418""
","
","
","""event"",""trial"",""time""
""fullscreenenter"",""5"",""14418""
","
","362.80000001192093","","49","","","3000","1","","","images/earth.jpg","images/rocket1","images/rocket2","null","images/rocket2","","1","real","null","1","","",""
"d3-animate-choice","211","498773","0.0-76.0-1.25","225","2009","19","Female","false","true","true","true","""event"",""trial"",""time""
""fullscreenenter"",""5"",""14418""
","
","
","""event"",""trial"",""time""
""fullscreenenter"",""5"",""14418""
","
","334","","48","","","3000","1","","","images/purpleplanet.jpg","images/alien4","images/alien3","images/rocket2","images/alien4","images/t.png","2","real","true","2","common","1","2022-06-08 03:09:26.830"
"two-step-fixation","212","499783","0.0-76.0-2.25","225","2009","19","Female","false","true","true","true","""event"",""trial"",""time""
""fullscreenenter"",""5"",""14418""
","
","
","""event"",""trial"",""time""
""fullscreenenter"",""5"",""14418""
","
","","images/earth.jpg","","","","","","","","","","","","","","fixation","","","","","",""
"d3-animate-choice","213","502235","0.0-76.0-0.26","225","2009","19","Female","false","true","true","true","""event"",""trial"",""time""
""fullscreenenter"",""5"",""14418""
","
","
","""event"",""trial"",""time""
""fullscreenenter"",""5"",""14418""
","
","446.39999997615814","","49","","","3000","1","1024.5","48","images/earth.jpg","images/rocket1","images/rocket2","null","images/rocket2","","1","real","null","1","","",""
"d3-animate-choice","214","506242","0.0-76.0-1.26","225","2009","19","Female","false","true","true","true","""event"",""trial"",""time""
""fullscreenenter"",""5"",""14418""
","
","
","""event"",""trial"",""time""
""fullscreenenter"",""5"",""14418""
","
","2759.5999999940395","","49","","","3000","1","","","images/redplanet1.jpg","images/alien2","images/alien1","images/rocket2","images/alien1","","2","real","false","1","rare","0","2022-06-08 03:09:34.299"
"two-step-fixation","215","507248","0.0-76.0-2.26","225","2009","19","Female","false","true","true","true","""event"",""trial"",""time""
""fullscreenenter"",""5"",""14418""
","
","
","""event"",""trial"",""time""
""fullscreenenter"",""5"",""14418""
","
","","images/earth.jpg","","","","","","","","","","","","","","fixation","","","","","",""
"d3-animate-choice","216","509972","0.0-76.0-0.27","225","2009","19","Female","false","true","true","true","""event"",""trial"",""time""
""fullscreenenter"",""5"",""14418""
","
","
","""event"",""trial"",""time""
""fullscreenenter"",""5"",""14418""
","
","718.1999999880791","","49","","","3000","1","","","images/earth.jpg","images/rocket1","images/rocket2","null","images/rocket2","","1","real","null","1","","",""
"d3-animate-choice","217","512389","0.0-76.0-1.27","225","2009","19","Female","false","true","true","true","""event"",""trial"",""time""
""fullscreenenter"",""5"",""14418""
","
","
","""event"",""trial"",""time""
""fullscreenenter"",""5"",""14418""
","
","410.59999999403954","","48","","","3000","1","","","images/purpleplanet.jpg","images/alien4","images/alien3","images/rocket2","images/alien4","images/t.png","2","real","true","2","common","1","2022-06-08 03:09:40.445"
"two-step-fixation","218","513396","0.0-76.0-2.27","225","2009","19","Female","false","true","true","true","""event"",""trial"",""time""
""fullscreenenter"",""5"",""14418""
","
","
","""event"",""trial"",""time""
""fullscreenenter"",""5"",""14418""
","
","","images/earth.jpg","","","","","","","","","","","","","","fixation","","","","","",""
"d3-animate-choice","219","515700","0.0-76.0-0.28","225","2009","19","Female","false","true","true","true","""event"",""trial"",""time""
""fullscreenenter"",""5"",""14418""
","
","
","""event"",""trial"",""time""
""fullscreenenter"",""5"",""14418""
","
","298.5","","49","","","3000","1","","","images/earth.jpg","images/rocket1","images/rocket2","null","images/rocket2","","1","real","null","1","","",""
"d3-animate-choice","220","518112","0.0-76.0-1.28","225","2009","19","Female","false","true","true","true","""event"",""trial"",""time""
""fullscreenenter"",""5"",""14418""
","
","
","""event"",""trial"",""time""
""fullscreenenter"",""5"",""14418""
","
","408.2999999821186","","48","","","3000","1","","","images/purpleplanet.jpg","images/alien4","images/alien3","images/rocket2","images/alien4","images/t.png","2","real","true","2","common","1","2022-06-08 03:09:46.169"
"two-step-fixation","221","519118","0.0-76.0-2.28","225","2009","19","Female","false","true","true","true","""event"",""trial"",""time""
""fullscreenenter"",""5"",""14418""
","
","
","""event"",""trial"",""time""
""fullscreenenter"",""5"",""14418""
","
","","images/earth.jpg","","","","","","","","","","","","","","fixation","","","","","",""
"d3-animate-choice","222","521451","0.0-76.0-0.29","225","2009","19","Female","false","true","true","true","""event"",""trial"",""time""
""fullscreenenter"",""5"",""14418""
","
","
","""event"",""trial"",""time""
""fullscreenenter"",""5"",""14418""
","
","325.09999999403954","","49","","","3000","1","","","images/earth.jpg","images/rocket1","images/rocket2","null","images/rocket2","","1","real","null","1","","",""
"d3-animate-choice","223","524263","0.0-76.0-1.29","225","2009","19","Female","false","true","true","true","""event"",""trial"",""time""
""fullscreenenter"",""5"",""14418""
","
","
","""event"",""trial"",""time""
""fullscreenenter"",""5"",""14418""
","
","808.7999999821186","","48","","","3000","1","","","images/purpleplanet.jpg","images/alien4","images/alien3","images/rocket2","images/alien4","images/t.png","2","real","true","2","common","1","2022-06-08 03:09:52.319"
"two-step-fixation","224","525267","0.0-76.0-2.29","225","2009","19","Female","false","true","true","true","""event"",""trial"",""time""
""fullscreenenter"",""5"",""14418""
","
","
","""event"",""trial"",""time""
""fullscreenenter"",""5"",""14418""
","
","","images/earth.jpg","","","","","","","","","","","","","","fixation","","","","","",""
"d3-animate-choice","225","527689","0.0-76.0-0.30","225","2009","19","Female","false","true","true","true","""event"",""trial"",""time""
""fullscreenenter"",""5"",""14418""
","
","
","""event"",""trial"",""time""
""fullscreenenter"",""5"",""14418""
","
","417.7000000178814","","49","","","3000","1","","","images/earth.jpg","images/rocket1","images/rocket2","null","images/rocket2","","1","real","null","1","","",""
"d3-animate-choice","226","530092","0.0-76.0-1.30","225","2009","19","Female","false","true","true","true","""event"",""trial"",""time""
""fullscreenenter"",""5"",""14418""
","
","
","""event"",""trial"",""time""
""fullscreenenter"",""5"",""14418""
","
","397.59999999403954","","48","","","3000","1","","","images/redplanet1.jpg","images/alien2","images/alien1","images/rocket2","images/alien2","images/nothing.png","2","real","false","2","rare","0","2022-06-08 03:09:58.148"
"two-step-fixation","227","531098","0.0-76.0-2.30","225","2009","19","Female","false","true","true","true","""event"",""trial"",""time""
""fullscreenenter"",""5"",""14418""
","
","
","""event"",""trial"",""time""
""fullscreenenter"",""5"",""14418""
","
","","images/earth.jpg","","","","","","","","","","","","","","fixation","","","","","",""
"d3-animate-choice","228","533477","0.0-76.0-0.31","225","2009","19","Female","false","true","true","true","""event"",""trial"",""time""
""fullscreenenter"",""5"",""14418""
","
","
","""event"",""trial"",""time""
""fullscreenenter"",""5"",""14418""
","
","373.09999999403954","","49","","","3000","1","","","images/earth.jpg","images/rocket1","images/rocket2","null","images/rocket2","","1","real","null","1","","",""
"d3-animate-choice","229","535907","0.0-76.0-1.31","225","2009","19","Female","false","true","true","true","""event"",""trial"",""time""
""fullscreenenter"",""5"",""14418""
","
","
","""event"",""trial"",""time""
""fullscreenenter"",""5"",""14418""
","
","423.90000000596046","","48","","","3000","1","","","images/purpleplanet.jpg","images/alien4","images/alien3","images/rocket2","images/alien4","images/nothing.png","2","real","true","2","common","0","2022-06-08 03:10:03.964"
"two-step-fixation","230","536912","0.0-76.0-2.31","225","2009","19","Female","false","true","true","true","""event"",""trial"",""time""
""fullscreenenter"",""5"",""14418""
","
","
","""event"",""trial"",""time""
""fullscreenenter"",""5"",""14418""
","
","","images/earth.jpg","","","","","","","","","","","","","","fixation","","","","","",""
"d3-animate-choice","231","539151","0.0-76.0-0.32","225","2009","19","Female","false","true","true","true","""event"",""trial"",""time""
""fullscreenenter"",""5"",""14418""
","
","
","""event"",""trial"",""time""
""fullscreenenter"",""5"",""14418""
","
","232","","49","","","3000","1","","","images/earth.jpg","images/rocket1","images/rocket2","null","images/rocket2","","1","real","null","1","","",""
"d3-animate-choice","232","541571","0.0-76.0-1.32","225","2009","19","Female","false","true","true","true","""event"",""trial"",""time""
""fullscreenenter"",""5"",""14418""
","
","
","""event"",""trial"",""time""
""fullscreenenter"",""5"",""14418""
","
","412.60000002384186","","48","","","3000","1","","","images/purpleplanet.jpg","images/alien4","images/alien3","images/rocket2","images/alien4","images/nothing.png","2","real","true","2","common","0","2022-06-08 03:10:09.627"
"two-step-fixation","233","542577","0.0-76.0-2.32","225","2009","19","Female","false","true","true","true","""event"",""trial"",""time""
""fullscreenenter"",""5"",""14418""
","
","
","""event"",""trial"",""time""
""fullscreenenter"",""5"",""14418""
","
","","images/earth.jpg","","","","","","","","","","","","","","fixation","","","","","",""
"d3-animate-choice","234","544870","0.0-76.0-0.33","225","2009","19","Female","false","true","true","true","""event"",""trial"",""time""
""fullscreenenter"",""5"",""14418""
","
","
","""event"",""trial"",""time""
""fullscreenenter"",""5"",""14418""
","
","284.69999998807907","","49","","","3000","1","","","images/earth.jpg","images/rocket1","images/rocket2","null","images/rocket2","","1","real","null","1","","",""
"d3-animate-choice","235","547256","0.0-76.0-1.33","225","2009","19","Female","false","true","true","true","""event"",""trial"",""time""
""fullscreenenter"",""5"",""14418""
","
","
","""event"",""trial"",""time""
""fullscreenenter"",""5"",""14418""
","
","382.09999999403954","","48","","","3000","1","","","images/redplanet1.jpg","images/alien2","images/alien1","images/rocket2","images/alien2","images/t.png","2","real","false","2","rare","1","2022-06-08 03:10:15.312"
"two-step-fixation","236","548261","0.0-76.0-2.33","225","2009","19","Female","false","true","true","true","""event"",""trial"",""time""
""fullscreenenter"",""5"",""14418""
","
","
","""event"",""trial"",""time""
""fullscreenenter"",""5"",""14418""
","
","","images/earth.jpg","","","","","","","","","","","","","","fixation","","","","","",""
"d3-animate-choice","237","550964","0.0-76.0-0.34","225","2009","19","Female","false","true","true","true","""event"",""trial"",""time""
""fullscreenenter"",""5"",""14418""
","
","
","""event"",""trial"",""time""
""fullscreenenter"",""5"",""14418""
","
","696.5","","49","","","3000","1","","","images/earth.jpg","images/rocket1","images/rocket2","null","images/rocket2","","1","real","null","1","","",""
"d3-animate-choice","238","553368","0.0-76.0-1.34","225","2009","19","Female","false","true","true","true","""event"",""trial"",""time""
""fullscreenenter"",""5"",""14418""
","
","
","""event"",""trial"",""time""
""fullscreenenter"",""5"",""14418""
","
","397.59999999403954","","48","","","3000","1","","","images/purpleplanet.jpg","images/alien4","images/alien3","images/rocket2","images/alien4","images/t.png","2","real","true","2","common","1","2022-06-08 03:10:21.425"
"two-step-fixation","239","554373","0.0-76.0-2.34","225","2009","19","Female","false","true","true","true","""event"",""trial"",""time""
""fullscreenenter"",""5"",""14418""
","
","
","""event"",""trial"",""time""
""fullscreenenter"",""5"",""14418""
","
","","images/earth.jpg","","","","","","","","","","","","","","fixation","","","","","",""
"d3-animate-choice","240","556760","0.0-76.0-0.35","225","2009","19","Female","false","true","true","true","""event"",""trial"",""time""
""fullscreenenter"",""5"",""14418""
","
","
","""event"",""trial"",""time""
""fullscreenenter"",""5"",""14418""
","
","381.40000000596046","","49","","","3000","1","","","images/earth.jpg","images/rocket1","images/rocket2","null","images/rocket2","","1","real","null","1","","",""
"d3-animate-choice","241","559139","0.0-76.0-1.35","225","2009","19","Female","false","true","true","true","""event"",""trial"",""time""
""fullscreenenter"",""5"",""14418""
","
","
","""event"",""trial"",""time""
""fullscreenenter"",""5"",""14418""
","
","372.40000000596046","","48","","","3000","1","","","images/redplanet1.jpg","images/alien2","images/alien1","images/rocket2","images/alien2","images/t.png","2","real","false","2","rare","1","2022-06-08 03:10:27.195"
"two-step-fixation","242","560144","0.0-76.0-2.35","225","2009","19","Female","false","true","true","true","""event"",""trial"",""time""
""fullscreenenter"",""5"",""14418""
","
","
","""event"",""trial"",""time""
""fullscreenenter"",""5"",""14418""
","
","","images/earth.jpg","","","","","","","","","","","","","","fixation","","","","","",""
"d3-animate-choice","243","562493","0.0-76.0-0.36","225","2009","19","Female","false","true","true","true","""event"",""trial"",""time""
""fullscreenenter"",""5"",""14418""
","
","
","""event"",""trial"",""time""
""fullscreenenter"",""5"",""14418""
","
","342.7000000178814","","49","","","3000","1","","","images/earth.jpg","images/rocket1","images/rocket2","null","images/rocket2","","1","real","null","1","","",""
"d3-animate-choice","244","564905","0.0-76.0-1.36","225","2009","19","Female","false","true","true","true","""event"",""trial"",""time""
""fullscreenenter"",""5"",""14418""
","
","
","""event"",""trial"",""time""
""fullscreenenter"",""5"",""14418""
","
","405.09999999403954","","48","","","3000","1","","","images/purpleplanet.jpg","images/alien4","images/alien3","images/rocket2","images/alien4","images/nothing.png","2","real","true","2","common","0","2022-06-08 03:10:32.961"
"two-step-fixation","245","565913","0.0-76.0-2.36","225","2009","19","Female","false","true","true","true","""event"",""trial"",""time""
""fullscreenenter"",""5"",""14418""
","
","
","""event"",""trial"",""time""
""fullscreenenter"",""5"",""14418""
","
","","images/earth.jpg","","","","","","","","","","","","","","fixation","","","","","",""
"d3-animate-choice","246","569372","0.0-76.0-0.37","225","2009","19","Female","false","true","true","true","""event"",""trial"",""time""
""fullscreenenter"",""5"",""14418""
","
","
","""event"",""trial"",""time""
""fullscreenenter"",""5"",""14418""
","
