"trial_type","trial_index","time_elapsed","internal_node_id","participant_id","subject_id","age","gender","rocket_sides","red_planet_first_rocket","red_display_order","purple_display_order","interactions","blur_events","focus_events","fullscreenenter_events","fullscreenexit_events","rt","stimulus","key_press","button_pressed","success","duration","valid_pressed","rts","keys","planet_text","right_text","left_text","center_text","chosen_text","reward_text","trial_stage","practice_trial","transition_type","choice","transition","reward","timestamp"
"pavlovia","0","3","0.0-0.0","592","811","23","Male","false","true","false","false","
","
","
","
","
","","","","","","","","","","","","","","","","","","","","","",""
"html-keyboard-response","1","1352","0.0-1.0","592","811","23","Male","false","true","false","false","
","
","
","
","
","1348.4000000022352","Welcome! Press the space bar to begin.","32","","","","","","","","","","","","","","","","","","",""
"audio-keyboard-response","2","5726","0.0-2.0","592","811","23","Male","false","true","false","false","
","
","
","
","
","4315","audio/beep_loop.wav","32","","","","","","","","","","","","","","","","","","",""
"audio-button-response","3","9135","0.0-3.0","592","811","23","Male","false","true","false","false","
","
","
","
","
","NaN","audio/fish.mp3","","1","","","","","","","","","","","","","","","","","",""
"audio-button-response","4","13911","0.0-4.0","592","811","23","Male","false","true","false","false","""event"",""trial"",""time""
""fullscreenenter"",""5"",""18603""
","
","
","""event"",""trial"",""time""
""fullscreenenter"",""5"",""18603""
","
","NaN","audio/tiger.mp3","","4","","","","","","","","","","","","","","","","","",""
"fullscreen","5","19592","0.0-5.0","592","811","23","Male","false","true","false","false","""event"",""trial"",""time""
""fullscreenenter"",""5"",""18603""
","
","
","""event"",""trial"",""time""
""fullscreenenter"",""5"",""18603""
","
","","","","","true","","","","","","","","","","","","","","","","",""
"d3-instructions","6","28799","0.0-6.0","592","811","23","Male","false","true","false","false","""event"",""trial"",""time""
""fullscreenenter"",""5"",""18603""
","
","
","""event"",""trial"",""time""
""fullscreenenter"",""5"",""18603""
","
","","","","","","","","","","","","","","","","","","","","","",""
"d3-instructions","7","40028","0.0-7.0","592","811","23","Male","false","true","false","false","""event"",""trial"",""time""
""fullscreenenter"",""5"",""18603""
","
","
","""event"",""trial"",""time""
""fullscreenenter"",""5"",""18603""
","
","","","","","","","","","","","","","","","","","","","","","",""
"d3-instructions","8","42289","0.0-8.0","592","811","23","Male","false","true","false","false","""event"",""trial"",""time""
""fullscreenenter"",""5"",""18603""
","
","
","""event"",""trial"",""time""
""fullscreenenter"",""5"",""18603""
","
","","","","","","","","","","","","","","","","","","","","","",""
"d3-instructions","9","45670","0.0-9.0","592","811","23","Male","false","true","false","false","""event"",""trial"",""time""
""fullscreenenter"",""5"",""18603""
","
","
","""event"",""trial"",""time""
""fullscreenenter"",""5"",""18603""
","
","","","","","","","","","","","","","","","","","","","","","",""
"d3-instructions","10","57041","0.0-10.0","592","811","23","Male","false","true","false","false","""event"",""trial"",""time""
""fullscreenenter"",""5"",""18603""
","
","
","""event"",""trial"",""time""
""fullscreenenter"",""5"",""18603""
","
","","","","","","","","","","","","","","","","","","","","","",""
"d3-animate-choice","11","60532","0.0-11.0","592","811","23","Male","false","true","false","false","""event"",""trial"",""time""
""fullscreenenter"",""5"",""18603""
","
","
","""event"",""trial"",""time""
""fullscreenenter"",""5"",""18603""
","
","1482.3999999985099","","49","","","3000","1","2954.10000000149","49","images/tutgreenplanet.jpg","images/tutalien1","images/tutalien2","null","images/tutalien2","","NA","practice","null","","","",""
"d3-animate-choice","12","63226","0.0-12.0","592","811","23","Male","false","true","false","false","""event"",""trial"",""time""
""fullscreenenter"",""5"",""18603""
","
","
","""event"",""trial"",""time""
""fullscreenenter"",""5"",""18603""
","
","686.1000000014901","","48","","","3000","1","","","images/tutgreenplanet.jpg","images/tutalien1","images/tutalien2","null","images/tutalien1","","NA","practice","null","","","",""
"d3-animate-choice","13","67692","0.0-13.0","592","811","23","Male","false","true","false","false","""event"",""trial"",""time""
""fullscreenenter"",""5"",""18603""
","
","
","""event"",""trial"",""time""
""fullscreenenter"",""5"",""18603""
","
","2459.400000002235","","49","","","3000","1","","","images/tutgreenplanet.jpg","images/tutalien1","images/tutalien2","null","images/tutalien2","","NA","practice","null","","","",""
"d3-animate-choice","14","70422","0.0-14.0","592","811","23","Male","false","true","false","false","""event"",""trial"",""time""
""fullscreenenter"",""5"",""18603""
","
","
","""event"",""trial"",""time""
""fullscreenenter"",""5"",""18603""
","
","726.1000000014901","","48","","","3000","1","","","images/tutgreenplanet.jpg","images/tutalien1","images/tutalien2","null","images/tutalien1","","NA","practice","null","","","",""
"d3-instructions","15","73986","0.0-15.0","592","811","23","Male","false","true","false","false","""event"",""trial"",""time""
""fullscreenenter"",""5"",""18603""
","
","
","""event"",""trial"",""time""
""fullscreenenter"",""5"",""18603""
","
","","","","","","","","","","","","","","","","","","","","","",""
"d3-instructions","16","77190","0.0-16.0","592","811","23","Male","false","true","false","false","""event"",""trial"",""time""
""fullscreenenter"",""5"",""18603""
","
","
","""event"",""trial"",""time""
""fullscreenenter"",""5"",""18603""
","
","","","","","","","","","","","","","","","","","","","","","",""
"d3-instructions","17","80741","0.0-17.0","592","811","23","Male","false","true","false","false","""event"",""trial"",""time""
""fullscreenenter"",""5"",""18603""
","
","
","""event"",""trial"",""time""
""fullscreenenter"",""5"",""18603""
","
","","","","","","","","","","","","","","","","","","","","","",""
"d3-instructions","18","83481","0.0-18.0","592","811","23","Male","false","true","false","false","""event"",""trial"",""time""
""fullscreenenter"",""5"",""18603""
","
","
","""event"",""trial"",""time""
""fullscreenenter"",""5"",""18603""
","
","","","","","","","","","","","","","","","","","","","","","",""
"d3-instructions","19","90248","0.0-19.0","592","811","23","Male","false","true","false","false","""event"",""trial"",""time""
""fullscreenenter"",""5"",""18603""
","
","
","""event"",""trial"",""time""
""fullscreenenter"",""5"",""18603""
","
","","","","","","","","","","","","","","","","","","","","","",""
"d3-animate-choice","20","93451","0.0-20.0","592","811","23","Male","false","true","false","false","""event"",""trial"",""time""
""fullscreenenter"",""5"",""18603""
","
","
","""event"",""trial"",""time""
""fullscreenenter"",""5"",""18603""
","
","1197.300000000745","","49","","","3000","1","","","images/tutyellowplanet.jpg","null","images/tutalien3","null","images/tutalien3","images/t.png","NA","practice","null","","","",""
"d3-animate-choice","21","96462","0.0-21.0","592","811","23","Male","false","true","false","false","""event"",""trial"",""time""
""fullscreenenter"",""5"",""18603""
","
","
","""event"",""trial"",""time""
""fullscreenenter"",""5"",""18603""
","
","1003.5","","49","","","3000","1","","","images/tutyellowplanet.jpg","null","images/tutalien3","null","images/tutalien3","images/nothing.png","NA","practice","null","","","",""
"d3-animate-choice","22","99132","0.0-22.0","592","811","23","Male","false","true","false","false","""event"",""trial"",""time""
""fullscreenenter"",""5"",""18603""
","
","
","""event"",""trial"",""time""
""fullscreenenter"",""5"",""18603""
","
","662.8000000007451","","49","","","3000","1","","","images/tutyellowplanet.jpg","null","images/tutalien3","null","images/tutalien3","images/t.png","NA","practice","null","","","",""
"d3-animate-choice","23","101709","0.0-23.0","592","811","23","Male","false","true","false","false","""event"",""trial"",""time""
""fullscreenenter"",""5"",""18603""
","
","
","""event"",""trial"",""time""
""fullscreenenter"",""5"",""18603""
","
","573.3999999985099","","49","","","3000","1","","","images/tutyellowplanet.jpg","null","images/tutalien3","null","images/tutalien3","images/nothing.png","NA","practice","null","","","",""
"d3-animate-choice","24","104188","0.0-24.0","592","811","23","Male","false","true","false","false","""event"",""trial"",""time""
""fullscreenenter"",""5"",""18603""
","
","
","""event"",""trial"",""time""
""fullscreenenter"",""5"",""18603""
","
","476.70000000298023","","49","","","3000","1","","","images/tutyellowplanet.jpg","null","images/tutalien3","null","images/tutalien3","images/t.png","NA","practice","null","","","",""
"d3-animate-choice","25","106722","0.0-25.0","592","811","23","Male","false","true","false","false","""event"",""trial"",""time""
""fullscreenenter"",""5"",""18603""
","
","
","""event"",""trial"",""time""
""fullscreenenter"",""5"",""18603""
","
","531.6000000014901","","49","","","3000","1","","","images/tutyellowplanet.jpg","null","images/tutalien3","null","images/tutalien3","images/t.png","NA","practice","null","","","",""
"d3-animate-choice","26","109435","0.0-26.0","592","811","23","Male","false","true","false","false","""event"",""trial"",""time""
""fullscreenenter"",""5"",""18603""
","
","
","""event"",""trial"",""time""
""fullscreenenter"",""5"",""18603""
","
","708.4000000022352","","49","","","3000","1","","","images/tutyellowplanet.jpg","null","images/tutalien3","null","images/tutalien3","images/t.png","NA","practice","null","","","",""
"d3-animate-choice","27","112198","0.0-27.0","592","811","23","Male","false","true","false","false","""event"",""trial"",""time""
""fullscreenenter"",""5"",""18603""
","
","
","""event"",""trial"",""time""
""fullscreenenter"",""5"",""18603""
","
","759.8999999985099","","49","","","3000","1","","","images/tutyellowplanet.jpg","null","images/tutalien3","null","images/tutalien3","images/nothing.png","NA","practice","null","","","",""
"d3-animate-choice","28","115315","0.0-28.0","592","811","23","Male","false","true","false","false","""event"",""trial"",""time""
""fullscreenenter"",""5"",""18603""
","
","
","""event"",""trial"",""time""
""fullscreenenter"",""5"",""18603""
","
","1112.300000000745","","49","","","3000","1","","","images/tutyellowplanet.jpg","null","images/tutalien3","null","images/tutalien3","images/t.png","NA","practice","null","","","",""
"d3-animate-choice","29","117961","0.0-29.0","592","811","23","Male","false","true","false","false","""event"",""trial"",""time""
""fullscreenenter"",""5"",""18603""
","
","
","""event"",""trial"",""time""
""fullscreenenter"",""5"",""18603""
","
","639.3999999985099","","49","","","3000","1","","","images/tutyellowplanet.jpg","null","images/tutalien3","null","images/tutalien3","images/nothing.png","NA","practice","null","","","",""
"d3-instructions","30","121486","0.0-30.0","592","811","23","Male","false","true","false","false","""event"",""trial"",""time""
""fullscreenenter"",""5"",""18603""
","
","
","""event"",""trial"",""time""
""fullscreenenter"",""5"",""18603""
","
","","","","","","","","","","","","","","","","","","","","","",""
"d3-instructions","31","123256","0.0-31.0","592","811","23","Male","false","true","false","false","""event"",""trial"",""time""
""fullscreenenter"",""5"",""18603""
","
","
","""event"",""trial"",""time""
""fullscreenenter"",""5"",""18603""
","
","","","","","","","","","","","","","","","","","","","","","",""
"d3-instructions","32","127009","0.0-32.0","592","811","23","Male","false","true","false","false","""event"",""trial"",""time""
""fullscreenenter"",""5"",""18603""
","
","
","""event"",""trial"",""time""
""fullscreenenter"",""5"",""18603""
","
","","","","","","","","","","","","","","","","","","","","","",""
"d3-instructions","33","129555","0.0-33.0","592","811","23","Male","false","true","false","false","""event"",""trial"",""time""
""fullscreenenter"",""5"",""18603""
","
","
","""event"",""trial"",""time""
""fullscreenenter"",""5"",""18603""
","
","","","","","","","","","","","","","","","","","","","","","",""
"d3-animate-choice","34","132163","0.0-34.0","592","811","23","Male","false","true","false","false","""event"",""trial"",""time""
""fullscreenenter"",""5"",""18603""
","
","
","""event"",""trial"",""time""
""fullscreenenter"",""5"",""18603""
","
","600.6999999992549","","49","","","3000","1","","","images/tutgreenplanet.jpg","images/tutalien1","images/tutalien2","null","images/tutalien2","images/nothing.png","NA","practice","null","","","",""
"d3-animate-choice","35","134957","0.0-35.0","592","811","23","Male","false","true","false","false","""event"",""trial"",""time""
""fullscreenenter"",""5"",""18603""
","
","
","""event"",""trial"",""time""
""fullscreenenter"",""5"",""18603""
","
","788.3999999985099","","48","","","3000","1","","","images/tutgreenplanet.jpg","images/tutalien1","images/tutalien2","null","images/tutalien1","images/nothing.png","NA","practice","null","","","",""
"d3-animate-choice","36","137381","0.0-36.0","592","811","23","Male","false","true","false","false","""event"",""trial"",""time""
""fullscreenenter"",""5"",""18603""
","
","
","""event"",""trial"",""time""
""fullscreenenter"",""5"",""18603""
","
","417.19999999925494","","49","","","3000","1","","","images/tutgreenplanet.jpg","images/tutalien1","images/tutalien2","null","images/tutalien2","images/t.png","NA","practice","null","","","",""
"d3-animate-choice","37","139729","0.0-37.0","592","811","23","Male","false","true","false","false","""event"",""trial"",""time""
""fullscreenenter"",""5"",""18603""
","
","
","""event"",""trial"",""time""
""fullscreenenter"",""5"",""18603""
","
","340.30000000074506","","49","","","3000","1","","","images/tutgreenplanet.jpg","images/tutalien1","images/tutalien2","null","images/tutalien2","images/nothing.png","NA","practice","null","","","",""
"d3-animate-choice","38","142049","0.0-38.0","592","811","23","Male","false","true","false","false","""event"",""trial"",""time""
""fullscreenenter"",""5"",""18603""
","
","
","""event"",""trial"",""time""
""fullscreenenter"",""5"",""18603""
","
","312.5999999977648","","49","","","3000","1","","","images/tutgreenplanet.jpg","images/tutalien1","images/tutalien2","null","images/tutalien2","images/t.png","NA","practice","null","","","",""
"d3-animate-choice","39","144355","0.0-39.0","592","811","23","Male","false","true","false","false","""event"",""trial"",""time""
""fullscreenenter"",""5"",""18603""
","
","
","""event"",""trial"",""time""
""fullscreenenter"",""5"",""18603""
","
","299.80000000074506","","49","","","3000","1","","","images/tutgreenplanet.jpg","images/tutalien1","images/tutalien2","null","images/tutalien2","images/t.png","NA","practice","null","","","",""
"d3-animate-choice","40","146684","0.0-40.0","592","811","23","Male","false","true","false","false","""event"",""trial"",""time""
""fullscreenenter"",""5"",""18603""
","
","
","""event"",""trial"",""time""
""fullscreenenter"",""5"",""18603""
","
","321.5999999977648","","49","","","3000","1","","","images/tutgreenplanet.jpg","images/tutalien1","images/tutalien2","null","images/tutalien2","images/t.png","NA","practice","null","","","",""
"d3-animate-choice","41","149046","0.0-41.0","592","811","23","Male","false","true","false","false","""event"",""trial"",""time""
""fullscreenenter"",""5"",""18603""
","
","
","""event"",""trial"",""time""
""fullscreenenter"",""5"",""18603""
","
","357.5","","49","","","3000","1","","","images/tutgreenplanet.jpg","images/tutalien1","images/tutalien2","null","images/tutalien2","images/t.png","NA","practice","null","","","",""
"d3-animate-choice","42","151356","0.0-42.0","592","811","23","Male","false","true","false","false","""event"",""trial"",""time""
""fullscreenenter"",""5"",""18603""
","
","
","""event"",""trial"",""time""
""fullscreenenter"",""5"",""18603""
","
","303","","49","","","3000","1","","","images/tutgreenplanet.jpg","images/tutalien1","images/tutalien2","null","images/tutalien2","images/t.png","NA","practice","null","","","",""
"d3-animate-choice","43","153702","0.0-43.0","592","811","23","Male","false","true","false","false","""event"",""trial"",""time""
""fullscreenenter"",""5"",""18603""
","
","
","""event"",""trial"",""time""
""fullscreenenter"",""5"",""18603""
","
","342.80000000074506","","49","","","3000","1","","","images/tutgreenplanet.jpg","images/tutalien1","images/tutalien2","null","images/tutalien2","images/nothing.png","NA","practice","null","","","",""
"d3-instructions","44","162587","0.0-44.0","592","811","23","Male","false","true","false","false","""event"",""trial"",""time""
""fullscreenenter"",""5"",""18603""
","
","
","""event"",""trial"",""time""
""fullscreenenter"",""5"",""18603""
","
","","","","","","","","","","","","","","","","","","","","","",""
"d3-instructions","45","164224","0.0-45.0","592","811","23","Male","false","true","false","false","""event"",""trial"",""time""
""fullscreenenter"",""5"",""18603""
","
","
","""event"",""trial"",""time""
""fullscreenenter"",""5"",""18603""
","
","","","","","","","","","","","","","","","","","","","","","",""
"d3-instructions","46","165389","0.0-46.0","592","811","23","Male","false","true","false","false","""event"",""trial"",""time""
""fullscreenenter"",""5"",""18603""
","
","
","""event"",""trial"",""time""
""fullscreenenter"",""5"",""18603""
","
","","","","","","","","","","","","","","","","","","","","","",""
"d3-instructions","47","167594","0.0-47.0","592","811","23","Male","false","true","false","false","""event"",""trial"",""time""
""fullscreenenter"",""5"",""18603""
","
","
","""event"",""trial"",""time""
""fullscreenenter"",""5"",""18603""
","
","","","","","","","","","","","","","","","","","","","","","",""
"d3-instructions","48","169486","0.0-48.0","592","811","23","Male","false","true","false","false","""event"",""trial"",""time""
""fullscreenenter"",""5"",""18603""
","
","
","""event"",""trial"",""time""
""fullscreenenter"",""5"",""18603""
","
","","","","","","","","","","","","","","","","","","","","","",""
"d3-instructions","49","173182","0.0-49.0","592","811","23","Male","false","true","false","false","""event"",""trial"",""time""
""fullscreenenter"",""5"",""18603""
","
","
","""event"",""trial"",""time""
""fullscreenenter"",""5"",""18603""
","
","","","","","","","","","","","","","","","","","","","","","",""
"d3-instructions","50","175196","0.0-50.0","592","811","23","Male","false","true","false","false","""event"",""trial"",""time""
""fullscreenenter"",""5"",""18603""
","
","
","""event"",""trial"",""time""
""fullscreenenter"",""5"",""18603""
","
","","","","","","","","","","","","","","","","","","","","","",""
"d3-instructions","51","177905","0.0-51.0","592","811","23","Male","false","true","false","false","""event"",""trial"",""time""
""fullscreenenter"",""5"",""18603""
","
","
","""event"",""trial"",""time""
""fullscreenenter"",""5"",""18603""
","
","","","","","","","","","","","","","","","","","","","","","",""
"d3-instructions","52","179342","0.0-52.0","592","811","23","Male","false","true","false","false","""event"",""trial"",""time""
""fullscreenenter"",""5"",""18603""
","
","
","""event"",""trial"",""time""
""fullscreenenter"",""5"",""18603""
","
","","","","","","","","","","","","","","","","","","","","","",""
"d3-instructions","53","186313","0.0-53.0","592","811","23","Male","false","true","false","false","""event"",""trial"",""time""
""fullscreenenter"",""5"",""18603""
","
","
","""event"",""trial"",""time""
""fullscreenenter"",""5"",""18603""
","
","","","","","","","","","","","","","","","","","","","","","",""
"d3-instructions","54","190998","0.0-54.0","592","811","23","Male","false","true","false","false","""event"",""trial"",""time""
""fullscreenenter"",""5"",""18603""
","
","
","""event"",""trial"",""time""
""fullscreenenter"",""5"",""18603""
","
","","","","","","","","","","","","","","","","","","","","","",""
"d3-instructions","55","194206","0.0-55.0","592","811","23","Male","false","true","false","false","""event"",""trial"",""time""
""fullscreenenter"",""5"",""18603""
","
","
","""event"",""trial"",""time""
""fullscreenenter"",""5"",""18603""
","
","","","","","","","","","","","","","","","","","","","","","",""
"d3-instructions","56","196657","0.0-56.0","592","811","23","Male","false","true","false","false","""event"",""trial"",""time""
""fullscreenenter"",""5"",""18603""
","
","
","""event"",""trial"",""time""
""fullscreenenter"",""5"",""18603""
","
","","","","","","","","","","","","","","","","","","","","","",""
"d3-instructions","57","199703","0.0-57.0","592","811","23","Male","false","true","false","false","""event"",""trial"",""time""
""fullscreenenter"",""5"",""18603""
","
","
","""event"",""trial"",""time""
""fullscreenenter"",""5"",""18603""
","
","","","","","","","","","","","","","","","","","","","","","",""
"d3-instructions","58","201964","0.0-58.0","592","811","23","Male","false","true","false","false","""event"",""trial"",""time""
""fullscreenenter"",""5"",""18603""
","
","
","""event"",""trial"",""time""
""fullscreenenter"",""5"",""18603""
","
","","","","","","","","","","","","","","","","","","","","","",""
"d3-instructions","59","203682","0.0-59.0","592","811","23","Male","false","true","false","false","""event"",""trial"",""time""
""fullscreenenter"",""5"",""18603""
","
","
","""event"",""trial"",""time""
""fullscreenenter"",""5"",""18603""
","
","","","","","","","","","","","","","","","","","","","","","",""
"d3-instructions","60","205913","0.0-60.0","592","811","23","Male","false","true","false","false","""event"",""trial"",""time""
""fullscreenenter"",""5"",""18603""
","
","
","""event"",""trial"",""time""
""fullscreenenter"",""5"",""18603""
","
","","","","","","","","","","","","","","","","","","","","","",""
"d3-animate-choice","61","208609","0.0-61.0-0.0","592","811","23","Male","false","true","false","false","""event"",""trial"",""time""
""fullscreenenter"",""5"",""18603""
","
","
","""event"",""trial"",""time""
""fullscreenenter"",""5"",""18603""
","
","691.0999999977648","","49","","","3000","1","","","images/earth.jpg","images/tutrocket2","images/tutrocket1","null","images/tutrocket1","","1","practice","null","1","","",""
"d3-animate-choice","62","212623","0.0-61.0-1.0","592","811","23","Male","false","true","false","false","""event"",""trial"",""time""
""fullscreenenter"",""5"",""18603""
","
","
","""event"",""trial"",""time""
""fullscreenenter"",""5"",""18603""
","
","2367.60000000149","","49","","","3000","1","","","images/tutyellowplanet.jpg","images/tutalien4","images/tutalien3","images/tutrocket1","images/tutalien3","images/t.png","2","practice","false","1","rare","1","2022-02-12 18:29:13.067"
"two-step-fixation","63","213631","0.0-61.0-2.0","592","811","23","Male","false","true","false","false","""event"",""trial"",""time""
""fullscreenenter"",""5"",""18603""
","
","
","""event"",""trial"",""time""
""fullscreenenter"",""5"",""18603""
","
","","images/earth.jpg","","","","","","","","","","","","","","fixation","","","","","",""
"d3-animate-choice","64","216490","0.0-61.0-0.1","592","811","23","Male","false","true","false","false","""event"",""trial"",""time""
""fullscreenenter"",""5"",""18603""
","
","
","""event"",""trial"",""time""
""fullscreenenter"",""5"",""18603""
","
","855.5","","48","","","3000","1","","","images/earth.jpg","images/tutrocket2","images/tutrocket1","null","images/tutrocket2","","1","practice","null","2","","",""
"d3-animate-choice","65","219889","0.0-61.0-1.1","592","811","23","Male","false","true","false","false","""event"",""trial"",""time""
""fullscreenenter"",""5"",""18603""
","
","
","""event"",""trial"",""time""
""fullscreenenter"",""5"",""18603""
","
","1040.7999999970198","","50","","","3000","1","1392.199999999255","48","images/tutyellowplanet.jpg","images/tutalien4","images/tutalien3","images/tutrocket2","images/tutalien4","images/nothing.png","2","practice","true","","common","0","2022-02-12 18:29:20.333"
"two-step-fixation","66","220896","0.0-61.0-2.1","592","811","23","Male","false","true","false","false","""event"",""trial"",""time""
""fullscreenenter"",""5"",""18603""
","
","
","""event"",""trial"",""time""
""fullscreenenter"",""5"",""18603""
","
","","images/earth.jpg","","","","","","","","","","","","","","fixation","","","","","",""
"d3-animate-choice","67","223486","0.0-61.0-0.2","592","811","23","Male","false","true","false","false","""event"",""trial"",""time""
""fullscreenenter"",""5"",""18603""
","
","
","""event"",""trial"",""time""
""fullscreenenter"",""5"",""18603""
","
","585","","49","","","3000","1","","","images/earth.jpg","images/tutrocket2","images/tutrocket1","null","images/tutrocket1","","1","practice","null","1","","",""
"d3-animate-choice","68","226268","0.0-61.0-1.2","592","811","23","Male","false","true","false","false","""event"",""trial"",""time""
""fullscreenenter"",""5"",""18603""
","
","
","""event"",""trial"",""time""
""fullscreenenter"",""5"",""18603""
","
","779","","49","","","3000","1","","","images/tutgreenplanet.jpg","images/tutalien2","images/tutalien1","images/tutrocket1","images/tutalien1","images/t.png","2","practice","true","1","common","1","2022-02-12 18:29:26.712"
"two-step-fixation","69","227273","0.0-61.0-2.2","592","811","23","Male","false","true","false","false","""event"",""trial"",""time""
""fullscreenenter"",""5"",""18603""
","
","
","""event"",""trial"",""time""
""fullscreenenter"",""5"",""18603""
","
","","images/earth.jpg","","","","","","","","","","","","","","fixation","","","","","",""
"d3-animate-choice","70","229652","0.0-61.0-0.3","592","811","23","Male","false","true","false","false","""event"",""trial"",""time""
""fullscreenenter"",""5"",""18603""
","
","
","""event"",""trial"",""time""
""fullscreenenter"",""5"",""18603""
","
","374.79999999701977","","49","","","3000","1","","","images/earth.jpg","images/tutrocket2","images/tutrocket1","null","images/tutrocket1","","1","practice","null","1","","",""
"d3-animate-choice","71","232055","0.0-61.0-1.3","592","811","23","Male","false","true","false","false","""event"",""trial"",""time""
""fullscreenenter"",""5"",""18603""
","
","
","""event"",""trial"",""time""
""fullscreenenter"",""5"",""18603""
","
","397.5","","49","","","3000","1","","","images/tutyellowplanet.jpg","images/tutalien4","images/tutalien3","images/tutrocket1","images/tutalien3","images/t.png","2","practice","false","1","rare","1","2022-02-12 18:29:32.499"
"two-step-fixation","72","233058","0.0-61.0-2.3","592","811","23","Male","false","true","false","false","""event"",""trial"",""time""
""fullscreenenter"",""5"",""18603""
","
","
","""event"",""trial"",""time""
""fullscreenenter"",""5"",""18603""
","
","","images/earth.jpg","","","","","","","","","","","","","","fixation","","","","","",""
"d3-animate-choice","73","235508","0.0-61.0-0.4","592","811","23","Male","false","true","false","false","""event"",""trial"",""time""
""fullscreenenter"",""5"",""18603""
","
","
","""event"",""trial"",""time""
""fullscreenenter"",""5"",""18603""
","
","445.6000000014901","","49","","","3000","1","","","images/earth.jpg","images/tutrocket2","images/tutrocket1","null","images/tutrocket1","","1","practice","null","1","","",""
"d3-animate-choice","74","238162","0.0-61.0-1.4","592","811","23","Male","false","true","false","false","""event"",""trial"",""time""
""fullscreenenter"",""5"",""18603""
","
","
","""event"",""trial"",""time""
""fullscreenenter"",""5"",""18603""
","
","650","","49","","","3000","1","","","images/tutyellowplanet.jpg","images/tutalien4","images/tutalien3","images/tutrocket1","images/tutalien3","images/nothing.png","2","practice","false","1","rare","0","2022-02-12 18:29:38.606"
"two-step-fixation","75","239165","0.0-61.0-2.4","592","811","23","Male","false","true","false","false","""event"",""trial"",""time""
""fullscreenenter"",""5"",""18603""
","
","
","""event"",""trial"",""time""
""fullscreenenter"",""5"",""18603""
","
","","images/earth.jpg","","","","","","","","","","","","","","fixation","","","","","",""
"d3-animate-choice","76","241517","0.0-61.0-0.5","592","811","23","Male","false","true","false","false","""event"",""trial"",""time""
""fullscreenenter"",""5"",""18603""
","
","
","""event"",""trial"",""time""
""fullscreenenter"",""5"",""18603""
","
","345.70000000298023","","49","","","3000","1","","","images/earth.jpg","images/tutrocket2","images/tutrocket1","null","images/tutrocket1","","1","practice","null","1","","",""
"d3-animate-choice","77","244013","0.0-61.0-1.5","592","811","23","Male","false","true","false","false","""event"",""trial"",""time""
""fullscreenenter"",""5"",""18603""
","
","
","""event"",""trial"",""time""
""fullscreenenter"",""5"",""18603""
","
","493.30000000074506","","49","","","3000","1","","","images/tutgreenplanet.jpg","images/tutalien2","images/tutalien1","images/tutrocket1","images/tutalien1","images/nothing.png","2","practice","true","1","common","0","2022-02-12 18:29:44.457"
"two-step-fixation","78","245017","0.0-61.0-2.5","592","811","23","Male","false","true","false","false","""event"",""trial"",""time""
""fullscreenenter"",""5"",""18603""
","
","
","""event"",""trial"",""time""
""fullscreenenter"",""5"",""18603""
","
","","images/earth.jpg","","","","","","","","","","","","","","fixation","","","","","",""
"d3-animate-choice","79","247720","0.0-61.0-0.6","592","811","23","Male","false","true","false","false","""event"",""trial"",""time""
""fullscreenenter"",""5"",""18603""
","
","
","""event"",""trial"",""time""
""fullscreenenter"",""5"",""18603""
","
","695.8000000007451","","49","","","3000","1","","","images/earth.jpg","images/tutrocket2","images/tutrocket1","null","images/tutrocket1","","1","practice","null","1","","",""
"d3-animate-choice","80","250109","0.0-61.0-1.6","592","811","23","Male","false","true","false","false","""event"",""trial"",""time""
""fullscreenenter"",""5"",""18603""
","
","
","""event"",""trial"",""time""
""fullscreenenter"",""5"",""18603""
","
","383.30000000074506","","49","","","3000","1","","","images/tutgreenplanet.jpg","images/tutalien2","images/tutalien1","images/tutrocket1","images/tutalien1","images/nothing.png","2","practice","true","1","common","0","2022-02-12 18:29:50.553"
"two-step-fixation","81","251112","0.0-61.0-2.6","592","811","23","Male","false","true","false","false","""event"",""trial"",""time""
""fullscreenenter"",""5"",""18603""
","
","
","""event"",""trial"",""time""
""fullscreenenter"",""5"",""18603""
","
","","images/earth.jpg","","","","","","","","","","","","","","fixation","","","","","",""
"d3-animate-choice","82","253549","0.0-61.0-0.7","592","811","23","Male","false","true","false","false","""event"",""trial"",""time""
""fullscreenenter"",""5"",""18603""
","
","
","""event"",""trial"",""time""
""fullscreenenter"",""5"",""18603""
","
","434","","49","","","3000","1","","","images/earth.jpg","images/tutrocket2","images/tutrocket1","null","images/tutrocket1","","1","practice","null","1","","",""
"d3-animate-choice","83","255922","0.0-61.0-1.7","592","811","23","Male","false","true","false","false","""event"",""trial"",""time""
""fullscreenenter"",""5"",""18603""
","
","
","""event"",""trial"",""time""
""fullscreenenter"",""5"",""18603""
","
","367.80000000074506","","48","","","3000","1","","","images/tutyellowplanet.jpg","images/tutalien4","images/tutalien3","images/tutrocket1","images/tutalien4","images/t.png","2","practice","false","2","rare","1","2022-02-12 18:29:56.367"
"two-step-fixation","84","256925","0.0-61.0-2.7","592","811","23","Male","false","true","false","false","""event"",""trial"",""time""
""fullscreenenter"",""5"",""18603""
","
","
","""event"",""trial"",""time""
""fullscreenenter"",""5"",""18603""
","
","","images/earth.jpg","","","","","","","","","","","","","","fixation","","","","","",""
"d3-animate-choice","85","259255","0.0-61.0-0.8","592","811","23","Male","false","true","false","false","""event"",""trial"",""time""
""fullscreenenter"",""5"",""18603""
","
","
","""event"",""trial"",""time""
""fullscreenenter"",""5"",""18603""
","
","327.19999999925494","","49","","","3000","1","","","images/earth.jpg","images/tutrocket2","images/tutrocket1","null","images/tutrocket1","","1","practice","null","1","","",""
"d3-animate-choice","86","262421","0.0-61.0-1.8","592","811","23","Male","false","true","false","false","""event"",""trial"",""time""
""fullscreenenter"",""5"",""18603""
","
","
","""event"",""trial"",""time""
""fullscreenenter"",""5"",""18603""
","
","1163.7000000029802","","49","","","3000","1","","","images/tutgreenplanet.jpg","images/tutalien2","images/tutalien1","images/tutrocket1","images/tutalien1","images/nothing.png","2","practice","true","1","common","0","2022-02-12 18:30:02.866"
"two-step-fixation","87","263425","0.0-61.0-2.8","592","811","23","Male","false","true","false","false","""event"",""trial"",""time""
""fullscreenenter"",""5"",""18603""
","
","
","""event"",""trial"",""time""
""fullscreenenter"",""5"",""18603""
","
","","images/earth.jpg","","","","","","","","","","","","","","fixation","","","","","",""
"d3-animate-choice","88","265759","0.0-61.0-0.9","592","811","23","Male","false","true","false","false","""event"",""trial"",""time""
""fullscreenenter"",""5"",""18603""
","
","
","""event"",""trial"",""time""
""fullscreenenter"",""5"",""18603""
","
","327.1000000014901","","49","","","3000","1","","","images/earth.jpg","images/tutrocket2","images/tutrocket1","null","images/tutrocket1","","1","practice","null","1","","",""
"d3-animate-choice","89","268556","0.0-61.0-1.9","592","811","23","Male","false","true","false","false","""event"",""trial"",""time""
""fullscreenenter"",""5"",""18603""
","
","
","""event"",""trial"",""time""
""fullscreenenter"",""5"",""18603""
","
","793.0999999977648","","48","","","3000","1","","","images/tutgreenplanet.jpg","images/tutalien2","images/tutalien1","images/tutrocket1","images/tutalien2","images/nothing.png","2","practice","true","2","common","0","2022-02-12 18:30:09.001"
"two-step-fixation","90","269560","0.0-61.0-2.9","592","811","23","Male","false","true","false","false","""event"",""trial"",""time""
""fullscreenenter"",""5"",""18603""
","
","
","""event"",""trial"",""time""
""fullscreenenter"",""5"",""18603""
","
","","images/earth.jpg","","","","","","","","","","","","","","fixation","","","","","",""
"d3-animate-choice","91","272675","0.0-61.0-0.10","592","811","23","Male","false","true","false","false","""event"",""trial"",""time""
""fullscreenenter"",""5"",""18603""
","
","
","""event"",""trial"",""time""
""fullscreenenter"",""5"",""18603""
","
","889","","50","","","3000","1","1110.800000000745","48","images/earth.jpg","images/tutrocket2","images/tutrocket1","null","images/tutrocket2","","1","practice","null","","","",""
"d3-animate-choice","92","275261","0.0-61.0-1.10","592","811","23","Male","false","true","false","false","""event"",""trial"",""time""
""fullscreenenter"",""5"",""18603""
","
","
","""event"",""trial"",""time""
""fullscreenenter"",""5"",""18603""
","
","581.4000000022352","","49","","","3000","1","","","images/tutyellowplanet.jpg","images/tutalien4","images/tutalien3","images/tutrocket2","images/tutalien3","images/t.png","2","practice","true","1","common","1","2022-02-12 18:30:15.705"
"two-step-fixation","93","276264","0.0-61.0-2.10","592","811","23","Male","false","true","false","false","""event"",""trial"",""time""
""fullscreenenter"",""5"",""18603""
","
","
","""event"",""trial"",""time""
""fullscreenenter"",""5"",""18603""
","
","","images/earth.jpg","","","","","","","","","","","","","","fixation","","","","","",""
"d3-animate-choice","94","278605","0.0-61.0-0.11","592","811","23","Male","false","true","false","false","""event"",""trial"",""time""
""fullscreenenter"",""5"",""18603""
","
","
","""event"",""trial"",""time""
""fullscreenenter"",""5"",""18603""
","
","338","","49","","","3000","1","","","images/earth.jpg","images/tutrocket2","images/tutrocket1","null","images/tutrocket1","","1","practice","null","1","","",""
"d3-animate-choice","95","281032","0.0-61.0-1.11","592","811","23","Male","false","true","false","false","""event"",""trial"",""time""
""fullscreenenter"",""5"",""18603""
","
","
","""event"",""trial"",""time""
""fullscreenenter"",""5"",""18603""
","
","420.19999999925494","","48","","","3000","1","","","images/tutgreenplanet.jpg","images/tutalien2","images/tutalien1","images/tutrocket1","images/tutalien2","images/nothing.png","2","practice","true","2","common","0","2022-02-12 18:30:21.476"
"two-step-fixation","96","282035","0.0-61.0-2.11","592","811","23","Male","false","true","false","false","""event"",""trial"",""time""
""fullscreenenter"",""5"",""18603""
","
","
","""event"",""trial"",""time""
""fullscreenenter"",""5"",""18603""
","
","","images/earth.jpg","","","","","","","","","","","","","","fixation","","","","","",""
"d3-animate-choice","97","284353","0.0-61.0-0.12","592","811","23","Male","false","true","false","false","""event"",""trial"",""time""
""fullscreenenter"",""5"",""18603""
","
","
","""event"",""trial"",""time""
""fullscreenenter"",""5"",""18603""
","
","314.4000000022352","","49","","","3000","1","","","images/earth.jpg","images/tutrocket2","images/tutrocket1","null","images/tutrocket1","","1","practice","null","1","","",""
"d3-animate-choice","98","286899","0.0-61.0-1.12","592","811","23","Male","false","true","false","false","""event"",""trial"",""time""
""fullscreenenter"",""5"",""18603""
","
","
","""event"",""trial"",""time""
""fullscreenenter"",""5"",""18603""
","
","543.2999999970198","","49","","","3000","1","","","images/tutyellowplanet.jpg","images/tutalien4","images/tutalien3","images/tutrocket1","images/tutalien3","images/nothing.png","2","practice","false","1","rare","0","2022-02-12 18:30:27.343"
"two-step-fixation","99","287906","0.0-61.0-2.12","592","811","23","Male","false","true","false","false","""event"",""trial"",""time""
""fullscreenenter"",""5"",""18603""
","
","
","""event"",""trial"",""time""
""fullscreenenter"",""5"",""18603""
","
","","images/earth.jpg","","","","","","","","","","","","","","fixation","","","","","",""
"d3-animate-choice","100","290497","0.0-61.0-0.13","592","811","23","Male","false","true","false","false","""event"",""trial"",""time""
""fullscreenenter"",""5"",""18603""
","
","
","""event"",""trial"",""time""
""fullscreenenter"",""5"",""18603""
","
","587.8000000007451","","49","","","3000","1","","","images/earth.jpg","images/tutrocket2","images/tutrocket1","null","images/tutrocket1","","1","practice","null","1","","",""
"d3-animate-choice","101","292995","0.0-61.0-1.13","592","811","23","Male","false","true","false","false","""event"",""trial"",""time""
""fullscreenenter"",""5"",""18603""
","
","
","""event"",""trial"",""time""
""fullscreenenter"",""5"",""18603""
","
","490.5","","48","","","3000","1","","","images/tutyellowplanet.jpg","images/tutalien4","images/tutalien3","images/tutrocket1","images/tutalien4","images/nothing.png","2","practice","false","2","rare","0","2022-02-12 18:30:33.439"
"two-step-fixation","102","293998","0.0-61.0-2.13","592","811","23","Male","false","true","false","false","""event"",""trial"",""time""
""fullscreenenter"",""5"",""18603""
","
","
","""event"",""trial"",""time""
""fullscreenenter"",""5"",""18603""
","
","","images/earth.jpg","","","","","","","","","","","","","","fixation","","","","","",""
"d3-animate-choice","103","296262","0.0-61.0-0.14","592","811","23","Male","false","true","false","false","""event"",""trial"",""time""
""fullscreenenter"",""5"",""18603""
","
","
","""event"",""trial"",""time""
""fullscreenenter"",""5"",""18603""
","
","258.80000000074506","","49","","","3000","1","","","images/earth.jpg","images/tutrocket2","images/tutrocket1","null","images/tutrocket1","","1","practice","null","1","","",""
"d3-animate-choice","104","298675","0.0-61.0-1.14","592","811","23","Male","false","true","false","false","""event"",""trial"",""time""
""fullscreenenter"",""5"",""18603""
","
","
","""event"",""trial"",""time""
""fullscreenenter"",""5"",""18603""
","
","407.30000000074506","","49","","","3000","1","","","images/tutgreenplanet.jpg","images/tutalien2","images/tutalien1","images/tutrocket1","images/tutalien1","images/nothing.png","2","practice","true","1","common","0","2022-02-12 18:30:39.119"
"two-step-fixation","105","299682","0.0-61.0-2.14","592","811","23","Male","false","true","false","false","""event"",""trial"",""time""
""fullscreenenter"",""5"",""18603""
","
","
","""event"",""trial"",""time""
""fullscreenenter"",""5"",""18603""
","
","","images/earth.jpg","","","","","","","","","","","","","","fixation","","","","","",""
"d3-animate-choice","106","301982","0.0-61.0-0.15","592","811","23","Male","false","true","false","false","""event"",""trial"",""time""
""fullscreenenter"",""5"",""18603""
","
","
","""event"",""trial"",""time""
""fullscreenenter"",""5"",""18603""
","
","292.20000000298023","","49","","","3000","1","","","images/earth.jpg","images/tutrocket2","images/tutrocket1","null","images/tutrocket1","","1","practice","null","1","","",""
"d3-animate-choice","107","304274","0.0-61.0-1.15","592","811","23","Male","false","true","false","false","""event"",""trial"",""time""
""fullscreenenter"",""5"",""18603""
","
","
","""event"",""trial"",""time""
""fullscreenenter"",""5"",""18603""
","
","287.30000000074506","","49","","","3000","1","","","images/tutgreenplanet.jpg","images/tutalien2","images/tutalien1","images/tutrocket1","images/tutalien1","images/nothing.png","2","practice","true","1","common","0","2022-02-12 18:30:44.718"
"two-step-fixation","108","305278","0.0-61.0-2.15","592","811","23","Male","false","true","false","false","""event"",""trial"",""time""
""fullscreenenter"",""5"",""18603""
","
","
","""event"",""trial"",""time""
""fullscreenenter"",""5"",""18603""
","
","","images/earth.jpg","","","","","","","","","","","","","","fixation","","","","","",""
"d3-animate-choice","109","307592","0.0-61.0-0.16","592","811","23","Male","false","true","false","false","""event"",""trial"",""time""
""fullscreenenter"",""5"",""18603""
","
","
","""event"",""trial"",""time""
""fullscreenenter"",""5"",""18603""
","
","307.3999999985099","","49","","","3000","1","","","images/earth.jpg","images/tutrocket2","images/tutrocket1","null","images/tutrocket1","","1","practice","null","1","","",""
"d3-animate-choice","110","310083","0.0-61.0-1.16","592","811","23","Male","false","true","false","false","""event"",""trial"",""time""
""fullscreenenter"",""5"",""18603""
","
","
","""event"",""trial"",""time""
""fullscreenenter"",""5"",""18603""
","
","485.69999999925494","","48","","","3000","1","","","images/tutyellowplanet.jpg","images/tutalien4","images/tutalien3","images/tutrocket1","images/tutalien4","images/nothing.png","2","practice","false","2","rare","0","2022-02-12 18:30:50.527"
"two-step-fixation","111","311086","0.0-61.0-2.16","592","811","23","Male","false","true","false","false","""event"",""trial"",""time""
""fullscreenenter"",""5"",""18603""
","
","
","""event"",""trial"",""time""
""fullscreenenter"",""5"",""18603""
","
","","images/earth.jpg","","","","","","","","","","","","","","fixation","","","","","",""
"d3-animate-choice","112","313432","0.0-61.0-0.17","592","811","23","Male","false","true","false","false","""event"",""trial"",""time""
""fullscreenenter"",""5"",""18603""
","
","
","""event"",""trial"",""time""
""fullscreenenter"",""5"",""18603""
","
","342.5","","48","","","3000","1","","","images/earth.jpg","images/tutrocket2","images/tutrocket1","null","images/tutrocket2","","1","practice","null","2","","",""
"d3-animate-choice","113","315811","0.0-61.0-1.17","592","811","23","Male","false","true","false","false","""event"",""trial"",""time""
""fullscreenenter"",""5"",""18603""
","
","
","""event"",""trial"",""time""
""fullscreenenter"",""5"",""18603""
","
","375.79999999701977","","49","","","3000","1","","","images/tutyellowplanet.jpg","images/tutalien4","images/tutalien3","images/tutrocket2","images/tutalien3","images/nothing.png","2","practice","true","1","common","0","2022-02-12 18:30:56.255"
"two-step-fixation","114","316814","0.0-61.0-2.17","592","811","23","Male","false","true","false","false","""event"",""trial"",""time""
""fullscreenenter"",""5"",""18603""
","
","
","""event"",""trial"",""time""
""fullscreenenter"",""5"",""18603""
","
","","images/earth.jpg","","","","","","","","","","","","","","fixation","","","","","",""
"d3-animate-choice","115","319171","0.0-61.0-0.18","592","811","23","Male","false","true","false","false","""event"",""trial"",""time""
""fullscreenenter"",""5"",""18603""
","
","
","""event"",""trial"",""time""
""fullscreenenter"",""5"",""18603""
","
","353.5","","48","","","3000","1","","","images/earth.jpg","images/tutrocket2","images/tutrocket1","null","images/tutrocket2","","1","practice","null","2","","",""
"d3-animate-choice","116","321726","0.0-61.0-1.18","592","811","23","Male","false","true","false","false","""event"",""trial"",""time""
""fullscreenenter"",""5"",""18603""
","
","
","""event"",""trial"",""time""
""fullscreenenter"",""5"",""18603""
","
","547.4000000022352","","48","","","3000","1","","","images/tutyellowplanet.jpg","images/tutalien4","images/tutalien3","images/tutrocket2","images/tutalien4","images/nothing.png","2","practice","true","2","common","0","2022-02-12 18:31:02.170"
"two-step-fixation","117","322732","0.0-61.0-2.18","592","811","23","Male","false","true","false","false","""event"",""trial"",""time""
""fullscreenenter"",""5"",""18603""
","
","
","""event"",""trial"",""time""
""fullscreenenter"",""5"",""18603""
","
","","images/earth.jpg","","","","","","","","","","","","","","fixation","","","","","",""
"d3-animate-choice","118","325107","0.0-61.0-0.19","592","811","23","Male","false","true","false","false","""event"",""trial"",""time""
""fullscreenenter"",""5"",""18603""
","
","
","""event"",""trial"",""time""
""fullscreenenter"",""5"",""18603""
","
","370.9000000022352","","48","","","3000","1","","","images/earth.jpg","images/tutrocket2","images/tutrocket1","null","images/tutrocket2","","1","practice","null","2","","",""
"d3-animate-choice","119","327753","0.0-61.0-1.19","592","811","23","Male","false","true","false","false","""event"",""trial"",""time""
""fullscreenenter"",""5"",""18603""
","
","
","""event"",""trial"",""time""
""fullscreenenter"",""5"",""18603""
","
","639.2999999970198","","49","","","3000","1","","","images/tutyellowplanet.jpg","images/tutalien4","images/tutalien3","images/tutrocket2","images/tutalien3","images/t.png","2","practice","true","1","common","1","2022-02-12 18:31:08.197"
"two-step-fixation","120","328757","0.0-61.0-2.19","592","811","23","Male","false","true","false","false","""event"",""trial"",""time""
""fullscreenenter"",""5"",""18603""
","
","
","""event"",""trial"",""time""
""fullscreenenter"",""5"",""18603""
","
","","images/earth.jpg","","","","","","","","","","","","","","fixation","","","","","",""
"d3-instructions","121","334062","0.0-62.0","592","811","23","Male","false","true","false","false","""event"",""trial"",""time""
""fullscreenenter"",""5"",""18603""
","
","
","""event"",""trial"",""time""
""fullscreenenter"",""5"",""18603""
","
","","","","","","","","","","","","","","","","","","","","","",""
"audio-keyboard-response","122","337673","0.0-63.0","592","811","23","Male","false","true","false","false","""event"",""trial"",""time""
""fullscreenenter"",""5"",""18603""
","
","
","""event"",""trial"",""time""
""fullscreenenter"",""5"",""18603""
","
","3611","audio/instructions/treasure_feedback.wav","32","","","","","","","","","","","","","","","","","","",""
"d3-instructions","123","358824","0.0-64.0","592","811","23","Male","false","true","false","false","""event"",""trial"",""time""
""fullscreenenter"",""5"",""18603""
","
","
","""event"",""trial"",""time""
""fullscreenenter"",""5"",""18603""
","
","","","","","","","","","","","","","","","","","","","","","",""
"d3-instructions","124","364951","0.0-65.0","592","811","23","Male","false","true","false","false","""event"",""trial"",""time""
""fullscreenenter"",""5"",""18603""
","
","
","""event"",""trial"",""time""
""fullscreenenter"",""5"",""18603""
","
","","","","","","","","","","","","","","","","","","","","","",""
"d3-instructions","125","371767","0.0-66.0","592","811","23","Male","false","true","false","false","""event"",""trial"",""time""
""fullscreenenter"",""5"",""18603""
","
","
","""event"",""trial"",""time""
""fullscreenenter"",""5"",""18603""
","
","","","","","","","","","","","","","","","","","","","","","",""
"d3-instructions","126","378759","0.0-67.0","592","811","23","Male","false","true","false","false","""event"",""trial"",""time""
""fullscreenenter"",""5"",""18603""
","
","
","""event"",""trial"",""time""
""fullscreenenter"",""5"",""18603""
","
","","","","","","","","","","","","","","","","","","","","","",""
"d3-instructions","127","381194","0.0-68.0","592","811","23","Male","false","true","false","false","""event"",""trial"",""time""
""fullscreenenter"",""5"",""18603""
","
","
","""event"",""trial"",""time""
""fullscreenenter"",""5"",""18603""
","
","","","","","","","","","","","","","","","","","","","","","",""
"instructions-quiz","128","386061","0.0-69.0","592","811","23","Male","false","true","false","false","""event"",""trial"",""time""
""fullscreenenter"",""5"",""18603""
","
","
","""event"",""trial"",""time""
""fullscreenenter"",""5"",""18603""
","
","4863.60000000149","audio/quiz/Q1_Prompt.wav","","1","","","","","","","","","","","","","","","","","",""
"audio-keyboard-response","129","395228","0.0-70.0","592","811","23","Male","false","true","false","false","""event"",""trial"",""time""
""fullscreenenter"",""5"",""18603""
","
","
","""event"",""trial"",""time""
""fullscreenenter"",""5"",""18603""
","
","null","audio/quiz/Q1_Correct.wav","null","","","","","","","","","","","","","","","","","","",""
"instructions-quiz","130","399482","0.0-71.0","592","811","23","Male","false","true","false","false","""event"",""trial"",""time""
""fullscreenenter"",""5"",""18603""
","
","
","""event"",""trial"",""time""
""fullscreenenter"",""5"",""18603""
","
","4252.10000000149","audio/quiz/Q2_Prompt.wav","","1","","","","","","","","","","","","","","","","","",""
"audio-keyboard-response","131","413558","0.0-72.0","592","811","23","Male","false","true","false","false","""event"",""trial"",""time""
""fullscreenenter"",""5"",""18603""
","
","
","""event"",""trial"",""time""
""fullscreenenter"",""5"",""18603""
","
","null","audio/quiz/Q2_Incorrect.wav","null","","","","","","","","","","","","","","","","","","",""
"instructions-quiz","132","417201","0.0-73.0","592","811","23","Male","false","true","false","false","""event"",""trial"",""time""
""fullscreenenter"",""5"",""18603""
","
","
","""event"",""trial"",""time""
""fullscreenenter"",""5"",""18603""
","
","3640.900000002235","audio/quiz/Q3_Prompt.wav","","0","","","","","","","","","","","","","","","","","",""
"audio-keyboard-response","133","424620","0.0-74.0","592","811","23","Male","false","true","false","false","""event"",""trial"",""time""
""fullscreenenter"",""5"",""18603""
","
","
","""event"",""trial"",""time""
""fullscreenenter"",""5"",""18603""
","
","null","audio/quiz/Q3_Incorrect.wav","null","","","","","","","","","","","","","","","","","","",""
"d3-instructions","134","433558","0.0-75.0","592","811","23","Male","false","true","false","false","""event"",""trial"",""time""
""fullscreenenter"",""5"",""18603""
","
","
","""event"",""trial"",""time""
""fullscreenenter"",""5"",""18603""
","
","","","","","","","","","","","","","","","","","","","","","",""
"d3-animate-choice","135","437213","0.0-76.0-0.0","592","811","23","Male","false","true","false","false","""event"",""trial"",""time""
""fullscreenenter"",""5"",""18603""
","
","
","""event"",""trial"",""time""
""fullscreenenter"",""5"",""18603""
","
","1651.800000000745","","48","","","3000","1","","","images/earth.jpg","images/rocket1","images/rocket2","null","images/rocket1","","1","real","null","2","","",""
"d3-animate-choice","136","440518","0.0-76.0-1.0","592","811","23","Male","false","true","false","false","""event"",""trial"",""time""
""fullscreenenter"",""5"",""18603""
","
","
","""event"",""trial"",""time""
""fullscreenenter"",""5"",""18603""
","
","1296.8999999985099","","48","","","3000","1","","","images/redplanet1.jpg","images/alien2","images/alien1","images/rocket1","images/alien2","images/nothing.png","2","real","true","2","common","0","2022-02-12 18:33:00.962"
"two-step-fixation","137","441521","0.0-76.0-2.0","592","811","23","Male","false","true","false","false","""event"",""trial"",""time""
""fullscreenenter"",""5"",""18603""
","
","
","""event"",""trial"",""time""
""fullscreenenter"",""5"",""18603""
","
","","images/earth.jpg","","","","","","","","","","","","","","fixation","","","","","",""
"d3-animate-choice","138","444441","0.0-76.0-0.1","592","811","23","Male","false","true","false","false","""event"",""trial"",""time""
""fullscreenenter"",""5"",""18603""
","
","
","""event"",""trial"",""time""
""fullscreenenter"",""5"",""18603""
","
","915.1000000014901","","49","","","3000","1","","","images/earth.jpg","images/rocket1","images/rocket2","null","images/rocket2","","1","real","null","1","","",""
"d3-animate-choice","139","447380","0.0-76.0-1.1","592","811","23","Male","false","true","false","false","""event"",""trial"",""time""
""fullscreenenter"",""5"",""18603""
","
","
","""event"",""trial"",""time""
""fullscreenenter"",""5"",""18603""
","
","934.6000000014901","","49","","","3000","1","","","images/purpleplanet.jpg","images/alien4","images/alien3","images/rocket2","images/alien3","images/t.png","2","real","true","1","common","1","2022-02-12 18:33:07.824"
"two-step-fixation","140","448385","0.0-76.0-2.1","592","811","23","Male","false","true","false","false","""event"",""trial"",""time""
""fullscreenenter"",""5"",""18603""
","
","
","""event"",""trial"",""time""
""fullscreenenter"",""5"",""18603""
","
","","images/earth.jpg","","","","","","","","","","","","","","fixation","","","","","",""
"d3-animate-choice","141","451045","0.0-76.0-0.2","592","811","23","Male","false","true","false","false","""event"",""trial"",""time""
""fullscreenenter"",""5"",""18603""
","
","
","""event"",""trial"",""time""
""fullscreenenter"",""5"",""18603""
","
","656.3999999985099","","48","","","3000","1","","","images/earth.jpg","images/rocket1","images/rocket2","null","images/rocket1","","1","real","null","2","","",""
"d3-animate-choice","142","454107","0.0-76.0-1.2","592","811","23","Male","false","true","false","false","""event"",""trial"",""time""
""fullscreenenter"",""5"",""18603""
","
","
","""event"",""trial"",""time""
""fullscreenenter"",""5"",""18603""
","
","1059.300000000745","","49","","","3000","1","","","images/redplanet1.jpg","images/alien2","images/alien1","images/rocket1","images/alien1","images/nothing.png","2","real","true","1","common","0","2022-02-12 18:33:14.551"
"two-step-fixation","143","455110","0.0-76.0-2.2","592","811","23","Male","false","true","false","false","""event"",""trial"",""time""
""fullscreenenter"",""5"",""18603""
","
","
","""event"",""trial"",""time""
""fullscreenenter"",""5"",""18603""
","
","","images/earth.jpg","","","","","","","","","","","","","","fixation","","","","","",""
"d3-animate-choice","144","457457","0.0-76.0-0.3","592","811","23","Male","false","true","false","false","""event"",""trial"",""time""
""fullscreenenter"",""5"",""18603""
","
","
","""event"",""trial"",""time""
""fullscreenenter"",""5"",""18603""
","
","344.0999999977648","","49","","","3000","1","","","images/earth.jpg","images/rocket1","images/rocket2","null","images/rocket2","","1","real","null","1","","",""
"d3-animate-choice","145","460062","0.0-76.0-1.3","592","811","23","Male","false","true","false","false","""event"",""trial"",""time""
""fullscreenenter"",""5"",""18603""
","
","
","""event"",""trial"",""time""
""fullscreenenter"",""5"",""18603""
","
","601.2999999970198","","49","","","3000","1","","","images/purpleplanet.jpg","images/alien4","images/alien3","images/rocket2","images/alien3","images/t.png","2","real","true","1","common","1","2022-02-12 18:33:20.506"
"two-step-fixation","146","461066","0.0-76.0-2.3","592","811","23","Male","false","true","false","false","""event"",""trial"",""time""
""fullscreenenter"",""5"",""18603""
","
","
","""event"",""trial"",""time""
""fullscreenenter"",""5"",""18603""
","
","","images/earth.jpg","","","","","","","","","","","","","","fixation","","","","","",""
"d3-animate-choice","147","463440","0.0-76.0-0.4","592","811","23","Male","false","true","false","false","""event"",""trial"",""time""
""fullscreenenter"",""5"",""18603""
","
","
","""event"",""trial"",""time""
""fullscreenenter"",""5"",""18603""
","
","368.5999999977648","","49","","","3000","1","","","images/earth.jpg","images/rocket1","images/rocket2","null","images/rocket2","","1","real","null","1","","",""
"d3-animate-choice","148","466147","0.0-76.0-1.4","592","811","23","Male","false","true","false","false","""event"",""trial"",""time""
""fullscreenenter"",""5"",""18603""
","
","
","""event"",""trial"",""time""
""fullscreenenter"",""5"",""18603""
","
","703.0999999977648","","48","","","3000","1","","","images/redplanet1.jpg","images/alien2","images/alien1","images/rocket2","images/alien2","images/t.png","2","real","false","2","rare","1","2022-02-12 18:33:26.592"
"two-step-fixation","149","467154","0.0-76.0-2.4","592","811","23","Male","false","true","false","false","""event"",""trial"",""time""
""fullscreenenter"",""5"",""18603""
","
","
","""event"",""trial"",""time""
""fullscreenenter"",""5"",""18603""
","
","","images/earth.jpg","","","","","","","","","","","","","","fixation","","","","","",""
"d3-animate-choice","150","469735","0.0-76.0-0.5","592","811","23","Male","false","true","false","false","""event"",""trial"",""time""
""fullscreenenter"",""5"",""18603""
","
","
","""event"",""trial"",""time""
""fullscreenenter"",""5"",""18603""
","
","575.6999999992549","","49","","","3000","1","","","images/earth.jpg","images/rocket1","images/rocket2","null","images/rocket2","","1","real","null","1","","",""
"d3-animate-choice","151","472212","0.0-76.0-1.5","592","811","23","Male","false","true","false","false","""event"",""trial"",""time""
""fullscreenenter"",""5"",""18603""
","
","
","""event"",""trial"",""time""
""fullscreenenter"",""5"",""18603""
","
","471","","49","","","3000","1","","","images/redplanet1.jpg","images/alien2","images/alien1","images/rocket2","images/alien1","images/nothing.png","2","real","false","1","rare","0","2022-02-12 18:33:32.656"
"two-step-fixation","152","473218","0.0-76.0-2.5","592","811","23","Male","false","true","false","false","""event"",""trial"",""time""
""fullscreenenter"",""5"",""18603""
","
","
","""event"",""trial"",""time""
""fullscreenenter"",""5"",""18603""
","
","","images/earth.jpg","","","","","","","","","","","","","","fixation","","","","","",""
"d3-animate-choice","153","475586","0.0-76.0-0.6","592","811","23","Male","false","true","false","false","""event"",""trial"",""time""
""fullscreenenter"",""5"",""18603""
","
","
","""event"",""trial"",""time""
""fullscreenenter"",""5"",""18603""
","
","363.19999999925494","","48","","","3000","1","","","images/earth.jpg","images/rocket1","images/rocket2","null","images/rocket1","","1","real","null","2","","",""
"d3-animate-choice","154","478472","0.0-76.0-1.6","592","811","23","Male","false","true","false","false","""event"",""trial"",""time""
""fullscreenenter"",""5"",""18603""
","
","
","""event"",""trial"",""time""
""fullscreenenter"",""5"",""18603""
","
","881","","48","","","3000","1","","","images/redplanet1.jpg","images/alien2","images/alien1","images/rocket1","images/alien2","images/t.png","2","real","true","2","common","1","2022-02-12 18:33:38.916"
"two-step-fixation","155","479474","0.0-76.0-2.6","592","811","23","Male","false","true","false","false","""event"",""trial"",""time""
""fullscreenenter"",""5"",""18603""
","
","
","""event"",""trial"",""time""
""fullscreenenter"",""5"",""18603""
","
","","images/earth.jpg","","","","","","","","","","","","","","fixation","","","","","",""
"d3-animate-choice","156","482096","0.0-76.0-0.7","592","811","23","Male","false","true","false","false","""event"",""trial"",""time""
""fullscreenenter"",""5"",""18603""
","
","
","""event"",""trial"",""time""
""fullscreenenter"",""5"",""18603""
","
","617.3000000007451","","49","","","3000","1","","","images/earth.jpg","images/rocket1","images/rocket2","null","images/rocket2","","1","real","null","1","","",""
"d3-animate-choice","157","484429","0.0-76.0-1.7","592","811","23","Male","false","true","false","false","""event"",""trial"",""time""
""fullscreenenter"",""5"",""18603""
","
","
","""event"",""trial"",""time""
""fullscreenenter"",""5"",""18603""
","
","330.5","","49","","","3000","1","","","images/purpleplanet.jpg","images/alien4","images/alien3","images/rocket2","images/alien3","images/nothing.png","2","real","true","1","common","0","2022-02-12 18:33:44.874"
"two-step-fixation","158","485435","0.0-76.0-2.7","592","811","23","Male","false","true","false","false","""event"",""trial"",""time""
""fullscreenenter"",""5"",""18603""
","
","
","""event"",""trial"",""time""
""fullscreenenter"",""5"",""18603""
","
","","images/earth.jpg","","","","","","","","","","","","","","fixation","","","","","",""
"d3-animate-choice","159","488056","0.0-76.0-0.8","592","811","23","Male","false","true","false","false","""event"",""trial"",""time""
""fullscreenenter"",""5"",""18603""
","
","
","""event"",""trial"",""time""
""fullscreenenter"",""5"",""18603""
","
","615.3000000007451","","48","","","3000","1","","","images/earth.jpg","images/rocket1","images/rocket2","null","images/rocket1","","1","real","null","2","","",""
"d3-animate-choice","160","490984","0.0-76.0-1.8","592","811","23","Male","false","true","false","false","""event"",""trial"",""time""
""fullscreenenter"",""5"",""18603""
","
","
","""event"",""trial"",""time""
""fullscreenenter"",""5"",""18603""
","
","921.1999999992549","","49","","","3000","1","","","images/purpleplanet.jpg","images/alien4","images/alien3","images/rocket1","images/alien3","images/nothing.png","2","real","false","1","rare","0","2022-02-12 18:33:51.428"
"two-step-fixation","161","491991","0.0-76.0-2.8","592","811","23","Male","false","true","false","false","""event"",""trial"",""time""
""fullscreenenter"",""5"",""18603""
","
","
","""event"",""trial"",""time""
""fullscreenenter"",""5"",""18603""
","
","","images/earth.jpg","","","","","","","","","","","","","","fixation","","","","","",""
"d3-animate-choice","162","494439","0.0-76.0-0.9","592","811","23","Male","false","true","false","false","""event"",""trial"",""time""
""fullscreenenter"",""5"",""18603""
","
","
","""event"",""trial"",""time""
""fullscreenenter"",""5"",""18603""
","
","444.30000000074506","","49","","","3000","1","","","images/earth.jpg","images/rocket1","images/rocket2","null","images/rocket2","","1","real","null","1","","",""
"d3-animate-choice","163","497063","0.0-76.0-1.9","592","811","23","Male","false","true","false","false","""event"",""trial"",""time""
""fullscreenenter"",""5"",""18603""
","
","
","""event"",""trial"",""time""
""fullscreenenter"",""5"",""18603""
","
","619.8000000007451","","48","","","3000","1","","","images/redplanet1.jpg","images/alien2","images/alien1","images/rocket2","images/alien2","images/nothing.png","2","real","false","2","rare","0","2022-02-12 18:33:57.507"
"two-step-fixation","164","498066","0.0-76.0-2.9","592","811","23","Male","false","true","false","false","""event"",""trial"",""time""
""fullscreenenter"",""5"",""18603""
","
","
","""event"",""trial"",""time""
""fullscreenenter"",""5"",""18603""
","
","","images/earth.jpg","","","","","","","","","","","","","","fixation","","","","","",""
"d3-animate-choice","165","500403","0.0-76.0-0.10","592","811","23","Male","false","true","false","false","""event"",""trial"",""time""
""fullscreenenter"",""5"",""18603""
","
","
","""event"",""trial"",""time""
""fullscreenenter"",""5"",""18603""
","
","330.30000000074506","","49","","","3000","1","","","images/earth.jpg","images/rocket1","images/rocket2","null","images/rocket2","","1","real","null","1","","",""
"d3-animate-choice","166","503055","0.0-76.0-1.10","592","811","23","Male","false","true","false","false","""event"",""trial"",""time""
""fullscreenenter"",""5"",""18603""
","
","
","""event"",""trial"",""time""
""fullscreenenter"",""5"",""18603""
","
","650.3000000007451","","48","","","3000","1","","","images/purpleplanet.jpg","images/alien4","images/alien3","images/rocket2","images/alien4","images/nothing.png","2","real","true","2","common","0","2022-02-12 18:34:03.500"
"two-step-fixation","167","504059","0.0-76.0-2.10","592","811","23","Male","false","true","false","false","""event"",""trial"",""time""
""fullscreenenter"",""5"",""18603""
","
","
","""event"",""trial"",""time""
""fullscreenenter"",""5"",""18603""
","
","","images/earth.jpg","","","","","","","","","","","","","","fixation","","","","","",""
"d3-animate-choice","168","506445","0.0-76.0-0.11","592","811","23","Male","false","true","false","false","""event"",""trial"",""time""
""fullscreenenter"",""5"",""18603""
","
","
","""event"",""trial"",""time""
""fullscreenenter"",""5"",""18603""
","
","383.4000000022352","","49","","","3000","1","","","images/earth.jpg","images/rocket1","images/rocket2","null","images/rocket2","","1","real","null","1","","",""
"d3-animate-choice","169","509128","0.0-76.0-1.11","592","811","23","Male","false","true","false","false","""event"",""trial"",""time""
""fullscreenenter"",""5"",""18603""
","
","
","""event"",""trial"",""time""
""fullscreenenter"",""5"",""18603""
","
","679.3000000007451","","48","","","3000","1","","","images/redplanet1.jpg","images/alien2","images/alien1","images/rocket2","images/alien2","images/t.png","2","real","false","2","rare","1","2022-02-12 18:34:09.572"
"two-step-fixation","170","510131","0.0-76.0-2.11","592","811","23","Male","false","true","false","false","""event"",""trial"",""time""
""fullscreenenter"",""5"",""18603""
","
","
","""event"",""trial"",""time""
""fullscreenenter"",""5"",""18603""
","
","","images/earth.jpg","","","","","","","","","","","","","","fixation","","","","","",""
"d3-animate-choice","171","512456","0.0-76.0-0.12","592","811","23","Male","false","true","false","false","""event"",""trial"",""time""
""fullscreenenter"",""5"",""18603""
","
","
","""event"",""trial"",""time""
""fullscreenenter"",""5"",""18603""
","
","319.1000000014901","","49","","","3000","1","","","images/earth.jpg","images/rocket1","images/rocket2","null","images/rocket2","","1","real","null","1","","",""
"d3-animate-choice","172","515091","0.0-76.0-1.12","592","811","23","Male","false","true","false","false","""event"",""trial"",""time""
""fullscreenenter"",""5"",""18603""
","
","
","""event"",""trial"",""time""
""fullscreenenter"",""5"",""18603""
","
","630.1999999992549","","49","","","3000","1","","","images/purpleplanet.jpg","images/alien4","images/alien3","images/rocket2","images/alien3","images/t.png","2","real","true","1","common","1","2022-02-12 18:34:15.535"
"two-step-fixation","173","516094","0.0-76.0-2.12","592","811","23","Male","false","true","false","false","""event"",""trial"",""time""
""fullscreenenter"",""5"",""18603""
","
","
","""event"",""trial"",""time""
""fullscreenenter"",""5"",""18603""
","
","","images/earth.jpg","","","","","","","","","","","","","","fixation","","","","","",""
"d3-animate-choice","174","518416","0.0-76.0-0.13","592","811","23","Male","false","true","false","false","""event"",""trial"",""time""
""fullscreenenter"",""5"",""18603""
","
","
","""event"",""trial"",""time""
""fullscreenenter"",""5"",""18603""
","
","317.5","","48","","","3000","1","","","images/earth.jpg","images/rocket1","images/rocket2","null","images/rocket1","","1","real","null","2","","",""
"d3-animate-choice","175","521395","0.0-76.0-1.13","592","811","23","Male","false","true","false","false","""event"",""trial"",""time""
""fullscreenenter"",""5"",""18603""
","
","
","""event"",""trial"",""time""
""fullscreenenter"",""5"",""18603""
","
","974.6999999992549","","49","","","3000","1","","","images/purpleplanet.jpg","images/alien4","images/alien3","images/rocket1","images/alien3","images/nothing.png","2","real","false","1","rare","0","2022-02-12 18:34:21.839"
"two-step-fixation","176","522397","0.0-76.0-2.13","592","811","23","Male","false","true","false","false","""event"",""trial"",""time""
""fullscreenenter"",""5"",""18603""
","
","
","""event"",""trial"",""time""
""fullscreenenter"",""5"",""18603""
","
","","images/earth.jpg","","","","","","","","","","","","","","fixation","","","","","",""
"d3-animate-choice","177","524707","0.0-76.0-0.14","592","811","23","Male","false","true","false","false","""event"",""trial"",""time""
""fullscreenenter"",""5"",""18603""
","
","
","""event"",""trial"",""time""
""fullscreenenter"",""5"",""18603""
","
","304.79999999701977","","49","","","3000","1","","","images/earth.jpg","images/rocket1","images/rocket2","null","images/rocket2","","1","real","null","1","","",""
"d3-animate-choice","178","527406","0.0-76.0-1.14","592","811","23","Male","false","true","false","false","""event"",""trial"",""time""
""fullscreenenter"",""5"",""18603""
","
","
","""event"",""trial"",""time""
""fullscreenenter"",""5"",""18603""
","
","696.1999999992549","","49","","","3000","1","","","images/purpleplanet.jpg","images/alien4","images/alien3","images/rocket2","images/alien3","images/t.png","2","real","true","1","common","1","2022-02-12 18:34:27.850"
"two-step-fixation","179","528410","0.0-76.0-2.14","592","811","23","Male","false","true","false","false","""event"",""trial"",""time""
""fullscreenenter"",""5"",""18603""
","
","
","""event"",""trial"",""time""
""fullscreenenter"",""5"",""18603""
","
","","images/earth.jpg","","","","","","","","","","","","","","fixation","","","","","",""
"d3-animate-choice","180","530739","0.0-76.0-0.15","592","811","23","Male","false","true","false","false","""event"",""trial"",""time""
""fullscreenenter"",""5"",""18603""
","
","
","""event"",""trial"",""time""
""fullscreenenter"",""5"",""18603""
","
","323.5","","49","","","3000","1","","","images/earth.jpg","images/rocket1","images/rocket2","null","images/rocket2","","1","real","null","1","","",""
"d3-animate-choice","181","533283","0.0-76.0-1.15","592","811","23","Male","false","true","false","false","""event"",""trial"",""time""
""fullscreenenter"",""5"",""18603""
","
","
","""event"",""trial"",""time""
""fullscreenenter"",""5"",""18603""
","
","539.5999999977648","","49","","","3000","1","","","images/purpleplanet.jpg","images/alien4","images/alien3","images/rocket2","images/alien3","images/t.png","2","real","true","1","common","1","2022-02-12 18:34:33.727"
"two-step-fixation","182","534288","0.0-76.0-2.15","592","811","23","Male","false","true","false","false","""event"",""trial"",""time""
""fullscreenenter"",""5"",""18603""
","
","
","""event"",""trial"",""time""
""fullscreenenter"",""5"",""18603""
","
","","images/earth.jpg","","","","","","","","","","","","","","fixation","","","","","",""
"d3-animate-choice","183","536606","0.0-76.0-0.16","592","811","23","Male","false","true","false","false","""event"",""trial"",""time""
""fullscreenenter"",""5"",""18603""
","
","
","""event"",""trial"",""time""
""fullscreenenter"",""5"",""18603""
","
","314.3999999985099","","48","","","3000","1","","","images/earth.jpg","images/rocket1","images/rocket2","null","images/rocket1","","1","real","null","2","","",""
"d3-animate-choice","184","539133","0.0-76.0-1.16","592","811","23","Male","false","true","false","false","""event"",""trial"",""time""
""fullscreenenter"",""5"",""18603""
","
","
","""event"",""trial"",""time""
""fullscreenenter"",""5"",""18603""
","
","522","","49","","","3000","1","","","images/purpleplanet.jpg","images/alien4","images/alien3","images/rocket1","images/alien3","images/nothing.png","2","real","false","1","rare","0","2022-02-12 18:34:39.577"
"two-step-fixation","185","540136","0.0-76.0-2.16","592","811","23","Male","false","true","false","false","""event"",""trial"",""time""
""fullscreenenter"",""5"",""18603""
","
","
","""event"",""trial"",""time""
""fullscreenenter"",""5"",""18603""
","
","","images/earth.jpg","","","","","","","","","","","","","","fixation","","","","","",""
"d3-animate-choice","186","542413","0.0-76.0-0.17","592","811","23","Male","false","true","false","false","""event"",""trial"",""time""
""fullscreenenter"",""5"",""18603""
","
","
","""event"",""trial"",""time""
""fullscreenenter"",""5"",""18603""
","
","272","","49","","","3000","1","","","images/earth.jpg","images/rocket1","images/rocket2","null","images/rocket2","","1","real","null","1","","",""
"d3-animate-choice","187","545137","0.0-76.0-1.17","592","811","23","Male","false","true","false","false","""event"",""trial"",""time""
""fullscreenenter"",""5"",""18603""
","
","
","""event"",""trial"",""time""
""fullscreenenter"",""5"",""18603""
","
","718.8999999985099","","49","","","3000","1","","","images/redplanet1.jpg","images/alien2","images/alien1","images/rocket2","images/alien1","images/t.png","2","real","false","1","rare","1","2022-02-12 18:34:45.581"
"two-step-fixation","188","546142","0.0-76.0-2.17","592","811","23","Male","false","true","false","false","""event"",""trial"",""time""
""fullscreenenter"",""5"",""18603""
","
","
","""event"",""trial"",""time""
""fullscreenenter"",""5"",""18603""
","
","","images/earth.jpg","","","","","","","","","","","","","","fixation","","","","","",""
"d3-animate-choice","189","548529","0.0-76.0-0.18","592","811","23","Male","false","true","false","false","""event"",""trial"",""time""
""fullscreenenter"",""5"",""18603""
","
","
","""event"",""trial"",""time""
""fullscreenenter"",""5"",""18603""
","
","382.8999999985099","","49","","","3000","1","","","images/earth.jpg","images/rocket1","images/rocket2","null","images/rocket2","","1","real","null","1","","",""
"d3-animate-choice","190","551182","0.0-76.0-1.18","592","811","23","Male","false","true","false","false","""event"",""trial"",""time""
""fullscreenenter"",""5"",""18603""
","
","
","""event"",""trial"",""time""
""fullscreenenter"",""5"",""18603""
","
","649.0999999977648","","48","","","3000","1","","","images/purpleplanet.jpg","images/alien4","images/alien3","images/rocket2","images/alien4","images/t.png","2","real","true","2","common","1","2022-02-12 18:34:51.626"
"two-step-fixation","191","552188","0.0-76.0-2.18","592","811","23","Male","false","true","false","false","""event"",""trial"",""time""
""fullscreenenter"",""5"",""18603""
","
","
","""event"",""trial"",""time""
""fullscreenenter"",""5"",""18603""
","
","","images/earth.jpg","","","","","","","","","","","","","","fixation","","","","","",""
"d3-animate-choice","192","554764","0.0-76.0-0.19","592","811","23","Male","false","true","false","false","""event"",""trial"",""time""
""fullscreenenter"",""5"",""18603""
","
","
","""event"",""trial"",""time""
""fullscreenenter"",""5"",""18603""
","
","571.8000000007451","","48","","","3000","1","","","images/earth.jpg","images/rocket1","images/rocket2","null","images/rocket1","","1","real","null","2","","",""
"d3-animate-choice","193","557486","0.0-76.0-1.19","592","811","23","Male","false","true","false","false","""event"",""trial"",""time""
""fullscreenenter"",""5"",""18603""
","
","
","""event"",""trial"",""time""
""fullscreenenter"",""5"",""18603""
","
","718.9000000022352","","48","","","3000","1","","","images/purpleplanet.jpg","images/alien4","images/alien3","images/rocket1","images/alien4","images/t.png","2","real","false","2","rare","1","2022-02-12 18:34:57.930"
"two-step-fixation","194","558489","0.0-76.0-2.19","592","811","23","Male","false","true","false","false","""event"",""trial"",""time""
""fullscreenenter"",""5"",""18603""
","
","
","""event"",""trial"",""time""
""fullscreenenter"",""5"",""18603""
","
","","images/earth.jpg","","","","","","","","","","","","","","fixation","","","","","",""
"d3-animate-choice","195","561150","0.0-76.0-0.20","592","811","23","Male","false","true","false","false","""event"",""trial"",""time""
""fullscreenenter"",""5"",""18603""
","
","
","""event"",""trial"",""time""
""fullscreenenter"",""5"",""18603""
","
","652.5999999977648","","49","","","3000","1","","","images/earth.jpg","images/rocket1","images/rocket2","null","images/rocket2","","1","real","null","1","","",""
"d3-animate-choice","196","563628","0.0-76.0-1.20","592","811","23","Male","false","true","false","false","""event"",""trial"",""time""
""fullscreenenter"",""5"",""18603""
","
","
","""event"",""trial"",""time""
""fullscreenenter"",""5"",""18603""
","
","474.6000000014901","","48","","","3000","1","","","images/purpleplanet.jpg","images/alien4","images/alien3","images/rocket2","images/alien4","images/t.png","2","real","true","2","common","1","2022-02-12 18:35:04.072"
"two-step-fixation","197","564633","0.0-76.0-2.20","592","811","23","Male","false","true","false","false","""event"",""trial"",""time""
""fullscreenenter"",""5"",""18603""
","
","
","""event"",""trial"",""time""
""fullscreenenter"",""5"",""18603""
","
","","images/earth.jpg","","","","","","","","","","","","","","fixation","","","","","",""
"d3-animate-choice","198","567022","0.0-76.0-0.21","592","811","23","Male","false","true","false","false","""event"",""trial"",""time""
""fullscreenenter"",""5"",""18603""
","
","
","""event"",""trial"",""time""
""fullscreenenter"",""5"",""18603""
","
","384.4000000022352","","49","","","3000","1","","","images/earth.jpg","images/rocket1","images/rocket2","null","images/rocket2","","1","real","null","1","","",""
"d3-animate-choice","199","569587","0.0-76.0-1.21","592","811","23","Male","false","true","false","false","""event"",""trial"",""time""
""fullscreenenter"",""5"",""18603""
","
","
","""event"",""trial"",""time""
""fullscreenenter"",""5"",""18603""
","
","561","","48","","","3000","1","","","images/purpleplanet.jpg","images/alien4","images/alien3","images/rocket2","images/alien4","images/nothing.png","2","real","true","2","common","0","2022-02-12 18:35:10.031"
"two-step-fixation","200","570590","0.0-76.0-2.21","592","811","23","Male","false","true","false","false","""event"",""trial"",""time""
""fullscreenenter"",""5"",""18603""
","
","
","""event"",""trial"",""time""
""fullscreenenter"",""5"",""18603""
","
","","images/earth.jpg","","","","","","","","","","","","","","fixation","","","","","",""
"d3-animate-choice","201","572929","0.0-76.0-0.22","592","811","23","Male","false","true","false","false","""event"",""trial"",""time""
""fullscreenenter"",""5"",""18603""
","
","
","""event"",""trial"",""time""
""fullscreenenter"",""5"",""18603""
","
","336.0999999977648","","48","","","3000","1","","","images/earth.jpg","images/rocket1","images/rocket2","null","images/rocket1","","1","real","null","2","","",""
"d3-animate-choice","202","575629","0.0-76.0-1.22","592","811","23","Male","false","true","false","false","""event"",""trial"",""time""
""fullscreenenter"",""5"",""18603""
","
","
","""event"",""trial"",""time""
""fullscreenenter"",""5"",""18603""
","
","697.3000000007451","","49","","","3000","1","","","images/redplanet1.jpg","images/alien2","images/alien1","images/rocket1","images/alien1","images/t.png","2","real","true","1","common","1","2022-02-12 18:35:16.073"
"two-step-fixation","203","576633","0.0-76.0-2.22","592","811","23","Male","false","true","false","false","""event"",""trial"",""time""
""fullscreenenter"",""5"",""18603""
","
","
","""event"",""trial"",""time""
""fullscreenenter"",""5"",""18603""
","
","","images/earth.jpg","","","","","","","","","","","","","","fixation","","","","","",""
"d3-animate-choice","204","578985","0.0-76.0-0.23","592","811","23","Male","false","true","false","false","""event"",""trial"",""time""
""fullscreenenter"",""5"",""18603""
","
","
","""event"",""trial"",""time""
""fullscreenenter"",""5"",""18603""
","
","346.3999999985099","","49","","","3000","1","","","images/earth.jpg","images/rocket1","images/rocket2","null","images/rocket2","","1","real","null","1","","",""
"d3-animate-choice","205","581581","0.0-76.0-1.23","592","811","23","Male","false","true","false","false","""event"",""trial"",""time""
""fullscreenenter"",""5"",""18603""
","
","
","""event"",""trial"",""time""
""fullscreenenter"",""5"",""18603""
","
","590.2999999970198","","48","","","3000","1","","","images/purpleplanet.jpg","images/alien4","images/alien3","images/rocket2","images/alien4","images/t.png","2","real","true","2","common","1","2022-02-12 18:35:22.025"
"two-step-fixation","206","582585","0.0-76.0-2.23","592","811","23","Male","false","true","false","false","""event"",""trial"",""time""
""fullscreenenter"",""5"",""18603""
","
","
","""event"",""trial"",""time""
""fullscreenenter"",""5"",""18603""
","
","","images/earth.jpg","","","","","","","","","","","","","","fixation","","","","","",""
"d3-animate-choice","207","584979","0.0-76.0-0.24","592","811","23","Male","false","true","false","false","""event"",""trial"",""time""
""fullscreenenter"",""5"",""18603""
","
","
","""event"",""trial"",""time""
""fullscreenenter"",""5"",""18603""
","
","391.30000000074506","","49","","","3000","1","","","images/earth.jpg","images/rocket1","images/rocket2","null","images/rocket2","","1","real","null","1","","",""
"d3-animate-choice","208","587622","0.0-76.0-1.24","592","811","23","Male","false","true","false","false","""event"",""trial"",""time""
""fullscreenenter"",""5"",""18603""
","
","
","""event"",""trial"",""time""
""fullscreenenter"",""5"",""18603""
","
","638.9000000022352","","48","","","3000","1","","","images/purpleplanet.jpg","images/alien4","images/alien3","images/rocket2","images/alien4","images/t.png","2","real","true","2","common","1","2022-02-12 18:35:28.066"
"two-step-fixation","209","588625","0.0-76.0-2.24","592","811","23","Male","false","true","false","false","""event"",""trial"",""time""
""fullscreenenter"",""5"",""18603""
","
","
","""event"",""trial"",""time""
""fullscreenenter"",""5"",""18603""
","
","","images/earth.jpg","","","","","","","","","","","","","","fixation","","","","","",""
"d3-animate-choice","210","590936","0.0-76.0-0.25","592","811","23","Male","false","true","false","false","""event"",""trial"",""time""
""fullscreenenter"",""5"",""18603""
","
","
","""event"",""trial"",""time""
""fullscreenenter"",""5"",""18603""
","
","304.8999999985099","","49","","","3000","1","","","images/earth.jpg","images/rocket1","images/rocket2","null","images/rocket2","","1","real","null","1","","",""
"d3-animate-choice","211","593371","0.0-76.0-1.25","592","811","23","Male","false","true","false","false","""event"",""trial"",""time""
""fullscreenenter"",""5"",""18603""
","
","
","""event"",""trial"",""time""
""fullscreenenter"",""5"",""18603""
","
","431.80000000074506","","48","","","3000","1","","","images/purpleplanet.jpg","images/alien4","images/alien3","images/rocket2","images/alien4","images/t.png","2","real","true","2","common","1","2022-02-12 18:35:33.815"
"two-step-fixation","212","594374","0.0-76.0-2.25","592","811","23","Male","false","true","false","false","""event"",""trial"",""time""
""fullscreenenter"",""5"",""18603""
","
","
","""event"",""trial"",""time""
""fullscreenenter"",""5"",""18603""
","
","","images/earth.jpg","","","","","","","","","","","","","","fixation","","","","","",""
"d3-animate-choice","213","596691","0.0-76.0-0.26","592","811","23","Male","false","true","false","false","""event"",""trial"",""time""
""fullscreenenter"",""5"",""18603""
","
","
","""event"",""trial"",""time""
""fullscreenenter"",""5"",""18603""
","
","308.69999999925494","","49","","","3000","1","","","images/earth.jpg","images/rocket1","images/rocket2","null","images/rocket2","","1","real","null","1","","",""
"d3-animate-choice","214","599053","0.0-76.0-1.26","592","811","23","Male","false","true","false","false","""event"",""trial"",""time""
""fullscreenenter"",""5"",""18603""
","
","
","""event"",""trial"",""time""
""fullscreenenter"",""5"",""18603""
","
","356.80000000074506","","48","","","3000","1","","","images/purpleplanet.jpg","images/alien4","images/alien3","images/rocket2","images/alien4","images/t.png","2","real","true","2","common","1","2022-02-12 18:35:39.497"
"two-step-fixation","215","600056","0.0-76.0-2.26","592","811","23","Male","false","true","false","false","""event"",""trial"",""time""
""fullscreenenter"",""5"",""18603""
","
","
","""event"",""trial"",""time""
""fullscreenenter"",""5"",""18603""
","
","","images/earth.jpg","","","","","","","","","","","","","","fixation","","","","","",""
"d3-animate-choice","216","602393","0.0-76.0-0.27","592","811","23","Male","false","true","false","false","""event"",""trial"",""time""
""fullscreenenter"",""5"",""18603""
","
","
","""event"",""trial"",""time""
""fullscreenenter"",""5"",""18603""
","
","333.80000000074506","","49","","","3000","1","","","images/earth.jpg","images/rocket1","images/rocket2","null","images/rocket2","","1","real","null","1","","",""
"d3-animate-choice","217","605008","0.0-76.0-1.27","592","811","23","Male","false","true","false","false","""event"",""trial"",""time""
""fullscreenenter"",""5"",""18603""
","
","
","""event"",""trial"",""time""
""fullscreenenter"",""5"",""18603""
","
","612","","48","","","3000","1","","","images/purpleplanet.jpg","images/alien4","images/alien3","images/rocket2","images/alien4","images/t.png","2","real","true","2","common","1","2022-02-12 18:35:45.453"
"two-step-fixation","218","606012","0.0-76.0-2.27","592","811","23","Male","false","true","false","false","""event"",""trial"",""time""
""fullscreenenter"",""5"",""18603""
","
","
","""event"",""trial"",""time""
""fullscreenenter"",""5"",""18603""
","
","","images/earth.jpg","","","","","","","","","","","","","","fixation","","","","","",""
"d3-animate-choice","219","608467","0.0-76.0-0.28","592","811","23","Male","false","true","false","false","""event"",""trial"",""time""
""fullscreenenter"",""5"",""18603""
","
","
","""event"",""trial"",""time""
""fullscreenenter"",""5"",""18603""
","
","452.80000000074506","","49","","","3000","1","","","images/earth.jpg","images/rocket1","images/rocket2","null","images/rocket2","","1","real","null","1","","",""
"d3-animate-choice","220","610922","0.0-76.0-1.28","592","811","23","Male","false","true","false","false","""event"",""trial"",""time""
""fullscreenenter"",""5"",""18603""
","
","
","""event"",""trial"",""time""
""fullscreenenter"",""5"",""18603""
","
","451","","48","","","3000","1","","","images/purpleplanet.jpg","images/alien4","images/alien3","images/rocket2","images/alien4","images/t.png","2","real","true","2","common","1","2022-02-12 18:35:51.366"
"two-step-fixation","221","611925","0.0-76.0-2.28","592","811","23","Male","false","true","false","false","""event"",""trial"",""time""
""fullscreenenter"",""5"",""18603""
","
","
","""event"",""trial"",""time""
""fullscreenenter"",""5"",""18603""
","
","","images/earth.jpg","","","","","","","","","","","","","","fixation","","","","","",""
"d3-animate-choice","222","614326","0.0-76.0-0.29","592","811","23","Male","false","true","false","false","""event"",""trial"",""time""
""fullscreenenter"",""5"",""18603""
","
","
","""event"",""trial"",""time""
""fullscreenenter"",""5"",""18603""
","
","396.69999999925494","","49","","","3000","1","","","images/earth.jpg","images/rocket1","images/rocket2","null","images/rocket2","","1","real","null","1","","",""
"d3-animate-choice","223","616755","0.0-76.0-1.29","592","811","23","Male","false","true","false","false","""event"",""trial"",""time""
""fullscreenenter"",""5"",""18603""
","
","
","""event"",""trial"",""time""
""fullscreenenter"",""5"",""18603""
","
","426.4000000022352","","48","","","3000","1","","","images/purpleplanet.jpg","images/alien4","images/alien3","images/rocket2","images/alien4","images/t.png","2","real","true","2","common","1","2022-02-12 18:35:57.200"
"two-step-fixation","224","617758","0.0-76.0-2.29","592","811","23","Male","false","true","false","false","""event"",""trial"",""time""
""fullscreenenter"",""5"",""18603""
","
","
","""event"",""trial"",""time""
""fullscreenenter"",""5"",""18603""
","
","","images/earth.jpg","","","","","","","","","","","","","","fixation","","","","","",""
"d3-animate-choice","225","620076","0.0-76.0-0.30","592","811","23","Male","false","true","false","false","""event"",""trial"",""time""
""fullscreenenter"",""5"",""18603""
","
","
","""event"",""trial"",""time""
""fullscreenenter"",""5"",""18603""
","
","315.0999999977648","","49","","","3000","1","","","images/earth.jpg","images/rocket1","images/rocket2","null","images/rocket2","","1","real","null","1","","",""
"d3-animate-choice","226","622368","0.0-76.0-1.30","592","811","23","Male","false","true","false","false","""event"",""trial"",""time""
""fullscreenenter"",""5"",""18603""
","
","
","""event"",""trial"",""time""
""fullscreenenter"",""5"",""18603""
","
","289","","48","","","3000","1","","","images/purpleplanet.jpg","images/alien4","images/alien3","images/rocket2","images/alien4","images/t.png","2","real","true","2","common","1","2022-02-12 18:36:02.813"
"two-step-fixation","227","623371","0.0-76.0-2.30","592","811","23","Male","false","true","false","false","""event"",""trial"",""time""
""fullscreenenter"",""5"",""18603""
","
","
","""event"",""trial"",""time""
""fullscreenenter"",""5"",""18603""
","
","","images/earth.jpg","","","","","","","","","","","","","","fixation","","","","","",""
"d3-animate-choice","228","625726","0.0-76.0-0.31","592","811","23","Male","false","true","false","false","""event"",""trial"",""time""
""fullscreenenter"",""5"",""18603""
","
","
","""event"",""trial"",""time""
""fullscreenenter"",""5"",""18603""
","
","347.8999999985099","","49","","","3000","1","","","images/earth.jpg","images/rocket1","images/rocket2","null","images/rocket2","","1","real","null","1","","",""
"d3-animate-choice","229","628089","0.0-76.0-1.31","592","811","23","Male","false","true","false","false","""event"",""trial"",""time""
""fullscreenenter"",""5"",""18603""
","
","
","""event"",""trial"",""time""
""fullscreenenter"",""5"",""18603""
","
","358.9000000022352","","48","","","3000","1","","","images/redplanet1.jpg","images/alien2","images/alien1","images/rocket2","images/alien2","images/t.png","2","real","false","2","rare","1","2022-02-12 18:36:08.533"
"two-step-fixation","230","629096","0.0-76.0-2.31","592","811","23","Male","false","true","false","false","""event"",""trial"",""time""
""fullscreenenter"",""5"",""18603""
","
","
","""event"",""trial"",""time""
""fullscreenenter"",""5"",""18603""
","
","","images/earth.jpg","","","","","","","","","","","","","","fixation","","","","","",""
"d3-animate-choice","231","631404","0.0-76.0-0.32","592","811","23","Male","false","true","false","false","""event"",""trial"",""time""
""fullscreenenter"",""5"",""18603""
","
","
","""event"",""trial"",""time""
""fullscreenenter"",""5"",""18603""
","
","305.30000000074506","","49","","","3000","1","","","images/earth.jpg","images/rocket1","images/rocket2","null","images/rocket2","","1","real","null","1","","",""
"d3-animate-choice","232","634004","0.0-76.0-1.32","592","811","23","Male","false","true","false","false","""event"",""trial"",""time""
""fullscreenenter"",""5"",""18603""
","
","
","""event"",""trial"",""time""
""fullscreenenter"",""5"",""18603""
","
","596.1999999992549","","48","","","3000","1","","","images/purpleplanet.jpg","images/alien4","images/alien3","images/rocket2","images/alien4","images/t.png","2","real","true","2","common","1","2022-02-12 18:36:14.448"
"two-step-fixation","233","635006","0.0-76.0-2.32","592","811","23","Male","false","true","false","false","""event"",""trial"",""time""
""fullscreenenter"",""5"",""18603""
","
","
","""event"",""trial"",""time""
""fullscreenenter"",""5"",""18603""
","
","","images/earth.jpg","","","","","","","","","","","","","","fixation","","","","","",""
"d3-animate-choice","234","637286","0.0-76.0-0.33","592","811","23","Male","false","true","false","false","""event"",""trial"",""time""
""fullscreenenter"",""5"",""18603""
","
","
","""event"",""trial"",""time""
""fullscreenenter"",""5"",""18603""
","
","276.5999999977648","","49","","","3000","1","","","images/earth.jpg","images/rocket1","images/rocket2","null","images/rocket2","","1","real","null","1","","",""
"d3-animate-choice","235","639667","0.0-76.0-1.33","592","811","23","Male","false","true","false","false","""event"",""trial"",""time""
""fullscreenenter"",""5"",""18603""
","
","
","""event"",""trial"",""time""
""fullscreenenter"",""5"",""18603""
","
","376.30000000074506","","48","","","3000","1","","","images/purpleplanet.jpg","images/alien4","images/alien3","images/rocket2","images/alien4","images/t.png","2","real","true","2","common","1","2022-02-12 18:36:20.111"
"two-step-fixation","236","640675","0.0-76.0-2.33","592","811","23","Male","false","true","false","false","""event"",""trial"",""time""
""fullscreenenter"",""5"",""18603""
","
","
","""event"",""trial"",""time""
""fullscreenenter"",""5"",""18603""
","
","","images/earth.jpg","","","","","","","","","","","","","","fixation","","","","","",""
"d3-animate-choice","237","643052","0.0-76.0-0.34","592","811","23","Male","false","true","false","false","""event"",""trial"",""time""
""fullscreenenter"",""5"",""18603""
","
","
","""event"",""trial"",""time""
""fullscreenenter"",""5"",""18603""
","
","374.20000000298023","","49","","","3000","1","","","images/earth.jpg","images/rocket1","images/rocket2","null","images/rocket2","","1","real","null","1","","",""
"d3-animate-choice","238","645396","0.0-76.0-1.34","592","811","23","Male","false","true","false","false","""event"",""trial"",""time""
""fullscreenenter"",""5"",""18603""
","
","
","""event"",""trial"",""time""
""fullscreenenter"",""5"",""18603""
","
","339.8999999985099","","48","","","3000","1","","","images/purpleplanet.jpg","images/alien4","images/alien3","images/rocket2","images/alien4","images/t.png","2","real","true","2","common","1","2022-02-12 18:36:25.840"
"two-step-fixation","239","646401","0.0-76.0-2.34","592","811","23","Male","false","true","false","false","""event"",""trial"",""time""
""fullscreenenter"",""5"",""18603""
","
","
","""event"",""trial"",""time""
""fullscreenenter"",""5"",""18603""
","
","","images/earth.jpg","","","","","","","","","","","","","","fixation","","","","","",""
"d3-animate-choice","240","648708","0.0-76.0-0.35","592","811","23","Male","false","true","false","false","""event"",""trial"",""time""
""fullscreenenter"",""5"",""18603""
","
","
","""event"",""trial"",""time""
""fullscreenenter"",""5"",""18603""
","
","299.79999999701977","","49","","","3000","1","","","images/earth.jpg","images/rocket1","images/rocket2","null","images/rocket2","","1","real","null","1","","",""
"d3-animate-choice","241","651107","0.0-76.0-1.35","592","811","23","Male","false","true","false","false","""event"",""trial"",""time""
""fullscreenenter"",""5"",""18603""
","
","
","""event"",""trial"",""time""
""fullscreenenter"",""5"",""18603""
","
","395.69999999925494","","48","","","3000","1","","","images/redplanet1.jpg","images/alien2","images/alien1","images/rocket2","images/alien2","images/t.png","2","real","false","2","rare","1","2022-02-12 18:36:31.552"
"two-step-fixation","242","652110","0.0-76.0-2.35","592","811","23","Male","false","true","false","false","""event"",""trial"",""time""
""fullscreenenter"",""5"",""18603""
","
","
","""event"",""trial"",""time""
""fullscreenenter"",""5"",""18603""
","
","","images/earth.jpg","","","","","","","","","","","","","","fixation","","","","","",""
"d3-animate-choice","243","654262","0.0-76.0-0.36","592","811","23","Male","false","true","false","false","""event"",""trial"",""time""
""fullscreenenter"",""5"",""18603""
","
","
","""event"",""trial"",""time""
""fullscreenenter"",""5"",""18603""
","
","148.5","","49","","","3000","1","","","images/earth.jpg","images/rocket1","images/rocket2","null","images/rocket2","","1","real","null","1","","",""
"d3-animate-choice","244","656665","0.0-76.0-1.36","592","811","23","Male","false","true","false","false","""event"",""trial"",""time""
""fullscreenenter"",""5"",""18603""
","
","
","""event"",""trial"",""time""
""fullscreenenter"",""5"",""18603""
","
","398.69999999925494","","48","","","3000","1","","","images/purpleplanet.jpg","images/alien4","images/alien3","images/rocket2","images/alien4","images/t.png","2","real","true","2","common","1","2022-02-12 18:36:37.109"
"two-step-fixation","245","657672","0.0-76.0-2.36","592","811","23","Male","false","true","false","false","""event"",""trial"",""time""
""fullscreenenter"",""5"",""18603""
","
","
","""event"",""trial"",""time""
""fullscreenenter"",""5"",""18603""
","
","","images/earth.jpg","","","","","","","","","","","","","","fixation","","","","","",""
"d3-animate-choice","246","659827","0.0-76.0-0.37","592","811","23","Male","false","true","false","false","""event"",""trial"",""time""
""fullscreenenter"",""5"",""18603""
","
","
","""event"",""trial"",""time""
""fullscreenenter"",""5"",""18603""
","
","150.10000000149012","","49","","","3000","1","","","images/earth.jpg","images/rocket1","images/rocket2","null","images/rocket2","","1","real","null","1","","",""
"d3-animate-choice","247","662251","0.0-76.0-1.37","592","811","23","Male","false","true","false","false","""event"",""trial"",""time""
