"trial_type","trial_index","time_elapsed","internal_node_id","participant_id","subject_id","age","gender","rocket_sides","red_planet_first_rocket","red_display_order","purple_display_order","interactions","blur_events","focus_events","fullscreenenter_events","fullscreenexit_events","rt","stimulus","key_press","button_pressed","success","duration","valid_pressed","rts","keys","planet_text","right_text","left_text","center_text","chosen_text","reward_text","trial_stage","practice_trial","transition_type","choice","transition","reward","timestamp"
"pavlovia","0","5","0.0-0.0","335","4967","12","Female","true","true","false","true","
","
","
","
","
","","","","","","","","","","","","","","","","","","","","","",""
"html-keyboard-response","1","1435","0.0-1.0","335","4967","12","Female","true","true","false","true","
","
","
","
","
","1428.1000001430511","Welcome! Press the space bar to begin.","32","","","","","","","","","","","","","","","","","","",""
"audio-keyboard-response","2","4087","0.0-2.0","335","4967","12","Female","true","true","false","true","
","
","
","
","
","2440","audio/beep_loop.wav","32","","","","","","","","","","","","","","","","","","",""
"audio-button-response","3","5572","0.0-3.0","335","4967","12","Female","true","true","false","true","
","
","
","
","
","NaN","audio/fish.mp3","","1","","","","","","","","","","","","","","","","","",""
"audio-button-response","4","8331","0.0-4.0","335","4967","12","Female","true","true","false","true","""event"",""trial"",""time""
""fullscreenenter"",""5"",""10701""
","
","
","""event"",""trial"",""time""
""fullscreenenter"",""5"",""10701""
","
","NaN","audio/tiger.mp3","","4","","","","","","","","","","","","","","","","","",""
"fullscreen","5","11702","0.0-5.0","335","4967","12","Female","true","true","false","true","""event"",""trial"",""time""
""fullscreenenter"",""5"",""10701""
","
","
","""event"",""trial"",""time""
""fullscreenenter"",""5"",""10701""
","
","","","","","true","","","","","","","","","","","","","","","","",""
"d3-instructions","6","23842","0.0-6.0","335","4967","12","Female","true","true","false","true","""event"",""trial"",""time""
""fullscreenenter"",""5"",""10701""
","
","
","""event"",""trial"",""time""
""fullscreenenter"",""5"",""10701""
","
","","","","","","","","","","","","","","","","","","","","","",""
"d3-instructions","7","27522","0.0-7.0","335","4967","12","Female","true","true","false","true","""event"",""trial"",""time""
""fullscreenenter"",""5"",""10701""
","
","
","""event"",""trial"",""time""
""fullscreenenter"",""5"",""10701""
","
","","","","","","","","","","","","","","","","","","","","","",""
"d3-instructions","8","29183","0.0-8.0","335","4967","12","Female","true","true","false","true","""event"",""trial"",""time""
""fullscreenenter"",""5"",""10701""
","
","
","""event"",""trial"",""time""
""fullscreenenter"",""5"",""10701""
","
","","","","","","","","","","","","","","","","","","","","","",""
"d3-instructions","9","32208","0.0-9.0","335","4967","12","Female","true","true","false","true","""event"",""trial"",""time""
""fullscreenenter"",""5"",""10701""
","
","
","""event"",""trial"",""time""
""fullscreenenter"",""5"",""10701""
","
","","","","","","","","","","","","","","","","","","","","","",""
"d3-instructions","10","36929","0.0-10.0","335","4967","12","Female","true","true","false","true","""event"",""trial"",""time""
""fullscreenenter"",""5"",""10701""
","
","
","""event"",""trial"",""time""
""fullscreenenter"",""5"",""10701""
","
","","","","","","","","","","","","","","","","","","","","","",""
"d3-animate-choice","11","43923","0.0-11.0","335","4967","12","Female","true","true","false","true","""event"",""trial"",""time""
""fullscreenenter"",""5"",""10701""
","
","
","""event"",""trial"",""time""
""fullscreenenter"",""5"",""10701""
","
","2360.199999809265","","97","","","3000","1","4959.199999809265,5248.199999809265","49,48","images/tutgreenplanet.jpg","images/tutalien1","images/tutalien2","null","images/tutalien2","","NA","practice","null","","","",""
"d3-animate-choice","12","47023","0.0-12.0","335","4967","12","Female","true","true","false","true","""event"",""trial"",""time""
""fullscreenenter"",""5"",""10701""
","
","
","""event"",""trial"",""time""
""fullscreenenter"",""5"",""10701""
","
","1081.6000001430511","","48","","","3000","1","","","images/tutgreenplanet.jpg","images/tutalien1","images/tutalien2","null","images/tutalien1","","NA","practice","null","","","",""
"d3-animate-choice","13","50042","0.0-13.0","335","4967","12","Female","true","true","false","true","""event"",""trial"",""time""
""fullscreenenter"",""5"",""10701""
","
","
","""event"",""trial"",""time""
""fullscreenenter"",""5"",""10701""
","
","1008.2000000476837","","49","","","3000","1","","","images/tutgreenplanet.jpg","images/tutalien1","images/tutalien2","null","images/tutalien2","","NA","practice","null","","","",""
"d3-animate-choice","14","52502","0.0-14.0","335","4967","12","Female","true","true","false","true","""event"",""trial"",""time""
""fullscreenenter"",""5"",""10701""
","
","
","""event"",""trial"",""time""
""fullscreenenter"",""5"",""10701""
","
","434.89999985694885","","48","","","3000","1","","","images/tutgreenplanet.jpg","images/tutalien1","images/tutalien2","null","images/tutalien1","","NA","practice","null","","","",""
"d3-instructions","15","55897","0.0-15.0","335","4967","12","Female","true","true","false","true","""event"",""trial"",""time""
""fullscreenenter"",""5"",""10701""
","
","
","""event"",""trial"",""time""
""fullscreenenter"",""5"",""10701""
","
","","","","","","","","","","","","","","","","","","","","","",""
"d3-instructions","16","57249","0.0-16.0","335","4967","12","Female","true","true","false","true","""event"",""trial"",""time""
""fullscreenenter"",""5"",""10701""
","
","
","""event"",""trial"",""time""
""fullscreenenter"",""5"",""10701""
","
","","","","","","","","","","","","","","","","","","","","","",""
"d3-instructions","17","59337","0.0-17.0","335","4967","12","Female","true","true","false","true","""event"",""trial"",""time""
""fullscreenenter"",""5"",""10701""
","
","
","""event"",""trial"",""time""
""fullscreenenter"",""5"",""10701""
","
","","","","","","","","","","","","","","","","","","","","","",""
"d3-instructions","18","61145","0.0-18.0","335","4967","12","Female","true","true","false","true","""event"",""trial"",""time""
""fullscreenenter"",""5"",""10701""
","
","
","""event"",""trial"",""time""
""fullscreenenter"",""5"",""10701""
","
","","","","","","","","","","","","","","","","","","","","","",""
"d3-instructions","19","68282","0.0-19.0","335","4967","12","Female","true","true","false","true","""event"",""trial"",""time""
""fullscreenenter"",""5"",""10701""
","
","
","""event"",""trial"",""time""
""fullscreenenter"",""5"",""10701""
","
","","","","","","","","","","","","","","","","","","","","","",""
"d3-animate-choice","20","70962","0.0-20.0","335","4967","12","Female","true","true","false","true","""event"",""trial"",""time""
""fullscreenenter"",""5"",""10701""
","
","
","""event"",""trial"",""time""
""fullscreenenter"",""5"",""10701""
","
","655.7000000476837","","49","","","3000","1","2080.600000143051","49","images/tutyellowplanet.jpg","null","images/tutalien3","null","images/tutalien3","images/t.png","NA","practice","null","","","",""
"d3-animate-choice","21","73341","0.0-21.0","335","4967","12","Female","true","true","false","true","""event"",""trial"",""time""
""fullscreenenter"",""5"",""10701""
","
","
","""event"",""trial"",""time""
""fullscreenenter"",""5"",""10701""
","
","347.5","","49","","","3000","1","","","images/tutyellowplanet.jpg","null","images/tutalien3","null","images/tutalien3","images/t.png","NA","practice","null","","","",""
"d3-animate-choice","22","75672","0.0-22.0","335","4967","12","Female","true","true","false","true","""event"",""trial"",""time""
""fullscreenenter"",""5"",""10701""
","
","
","""event"",""trial"",""time""
""fullscreenenter"",""5"",""10701""
","
","311.40000009536743","","49","","","3000","1","","","images/tutyellowplanet.jpg","null","images/tutalien3","null","images/tutalien3","images/nothing.png","NA","practice","null","","","",""
"d3-animate-choice","23","78002","0.0-23.0","335","4967","12","Female","true","true","false","true","""event"",""trial"",""time""
""fullscreenenter"",""5"",""10701""
","
","
","""event"",""trial"",""time""
""fullscreenenter"",""5"",""10701""
","
","309.39999985694885","","49","","","3000","1","","","images/tutyellowplanet.jpg","null","images/tutalien3","null","images/tutalien3","images/t.png","NA","practice","null","","","",""
"d3-animate-choice","24","80323","0.0-24.0","335","4967","12","Female","true","true","false","true","""event"",""trial"",""time""
""fullscreenenter"",""5"",""10701""
","
","
","""event"",""trial"",""time""
""fullscreenenter"",""5"",""10701""
","
","291.40000009536743","","49","","","3000","1","","","images/tutyellowplanet.jpg","null","images/tutalien3","null","images/tutalien3","images/t.png","NA","practice","null","","","",""
"d3-animate-choice","25","82652","0.0-25.0","335","4967","12","Female","true","true","false","true","""event"",""trial"",""time""
""fullscreenenter"",""5"",""10701""
","
","
","""event"",""trial"",""time""
""fullscreenenter"",""5"",""10701""
","
","320.7000000476837","","49","","","3000","1","","","images/tutyellowplanet.jpg","null","images/tutalien3","null","images/tutalien3","images/t.png","NA","practice","null","","","",""
"d3-animate-choice","26","85072","0.0-26.0","335","4967","12","Female","true","true","false","true","""event"",""trial"",""time""
""fullscreenenter"",""5"",""10701""
","
","
","""event"",""trial"",""time""
""fullscreenenter"",""5"",""10701""
","
","392.7000000476837","","49","","","3000","1","","","images/tutyellowplanet.jpg","null","images/tutalien3","null","images/tutalien3","images/nothing.png","NA","practice","null","","","",""
"d3-animate-choice","27","87482","0.0-27.0","335","4967","12","Female","true","true","false","true","""event"",""trial"",""time""
""fullscreenenter"",""5"",""10701""
","
","
","""event"",""trial"",""time""
""fullscreenenter"",""5"",""10701""
","
","398.40000009536743","","49","","","3000","1","","","images/tutyellowplanet.jpg","null","images/tutalien3","null","images/tutalien3","images/t.png","NA","practice","null","","","",""
"d3-animate-choice","28","89862","0.0-28.0","335","4967","12","Female","true","true","false","true","""event"",""trial"",""time""
""fullscreenenter"",""5"",""10701""
","
","
","""event"",""trial"",""time""
""fullscreenenter"",""5"",""10701""
","
","354.7000000476837","","49","","","3000","1","","","images/tutyellowplanet.jpg","null","images/tutalien3","null","images/tutalien3","images/t.png","NA","practice","null","","","",""
"d3-animate-choice","29","92215","0.0-29.0","335","4967","12","Female","true","true","false","true","""event"",""trial"",""time""
""fullscreenenter"",""5"",""10701""
","
","
","""event"",""trial"",""time""
""fullscreenenter"",""5"",""10701""
","
","340.7000000476837","","49","","","3000","1","","","images/tutyellowplanet.jpg","null","images/tutalien3","null","images/tutalien3","images/t.png","NA","practice","null","","","",""
"d3-instructions","30","96023","0.0-30.0","335","4967","12","Female","true","true","false","true","""event"",""trial"",""time""
""fullscreenenter"",""5"",""10701""
","
","
","""event"",""trial"",""time""
""fullscreenenter"",""5"",""10701""
","
","","","","","","","","","","","","","","","","","","","","","",""
"d3-instructions","31","98561","0.0-31.0","335","4967","12","Female","true","true","false","true","""event"",""trial"",""time""
""fullscreenenter"",""5"",""10701""
","
","
","""event"",""trial"",""time""
""fullscreenenter"",""5"",""10701""
","
","","","","","","","","","","","","","","","","","","","","","",""
"d3-instructions","32","103427","0.0-32.0","335","4967","12","Female","true","true","false","true","""event"",""trial"",""time""
""fullscreenenter"",""5"",""10701""
","
","
","""event"",""trial"",""time""
""fullscreenenter"",""5"",""10701""
","
","","","","","","","","","","","","","","","","","","","","","",""
"d3-instructions","33","105345","0.0-33.0","335","4967","12","Female","true","true","false","true","""event"",""trial"",""time""
""fullscreenenter"",""5"",""10701""
","
","
","""event"",""trial"",""time""
""fullscreenenter"",""5"",""10701""
","
","","","","","","","","","","","","","","","","","","","","","",""
"d3-animate-choice","34","108292","0.0-34.0","335","4967","12","Female","true","true","false","true","""event"",""trial"",""time""
""fullscreenenter"",""5"",""10701""
","
","
","""event"",""trial"",""time""
""fullscreenenter"",""5"",""10701""
","
","931.3999998569489","","49","","","3000","1","","","images/tutgreenplanet.jpg","images/tutalien1","images/tutalien2","null","images/tutalien2","images/t.png","NA","practice","null","","","",""
"d3-animate-choice","35","110692","0.0-35.0","335","4967","12","Female","true","true","false","true","""event"",""trial"",""time""
""fullscreenenter"",""5"",""10701""
","
","
","""event"",""trial"",""time""
""fullscreenenter"",""5"",""10701""
","
","383.5","","49","","","3000","1","","","images/tutgreenplanet.jpg","images/tutalien1","images/tutalien2","null","images/tutalien2","images/t.png","NA","practice","null","","","",""
"d3-animate-choice","36","112993","0.0-36.0","335","4967","12","Female","true","true","false","true","""event"",""trial"",""time""
""fullscreenenter"",""5"",""10701""
","
","
","""event"",""trial"",""time""
""fullscreenenter"",""5"",""10701""
","
","280.5","","49","","","3000","1","","","images/tutgreenplanet.jpg","images/tutalien1","images/tutalien2","null","images/tutalien2","images/t.png","NA","practice","null","","","",""
"d3-animate-choice","37","115323","0.0-37.0","335","4967","12","Female","true","true","false","true","""event"",""trial"",""time""
""fullscreenenter"",""5"",""10701""
","
","
","""event"",""trial"",""time""
""fullscreenenter"",""5"",""10701""
","
","299.59999990463257","","49","","","3000","1","","","images/tutgreenplanet.jpg","images/tutalien1","images/tutalien2","null","images/tutalien2","images/nothing.png","NA","practice","null","","","",""
"d3-animate-choice","38","117667","0.0-38.0","335","4967","12","Female","true","true","false","true","""event"",""trial"",""time""
""fullscreenenter"",""5"",""10701""
","
","
","""event"",""trial"",""time""
""fullscreenenter"",""5"",""10701""
","
","322.30000019073486","","49","","","3000","1","","","images/tutgreenplanet.jpg","images/tutalien1","images/tutalien2","null","images/tutalien2","images/t.png","NA","practice","null","","","",""
"d3-animate-choice","39","119942","0.0-39.0","335","4967","12","Female","true","true","false","true","""event"",""trial"",""time""
""fullscreenenter"",""5"",""10701""
","
","
","""event"",""trial"",""time""
""fullscreenenter"",""5"",""10701""
","
","260.19999980926514","","49","","","3000","1","","","images/tutgreenplanet.jpg","images/tutalien1","images/tutalien2","null","images/tutalien2","images/t.png","NA","practice","null","","","",""
"d3-animate-choice","40","122252","0.0-40.0","335","4967","12","Female","true","true","false","true","""event"",""trial"",""time""
""fullscreenenter"",""5"",""10701""
","
","
","""event"",""trial"",""time""
""fullscreenenter"",""5"",""10701""
","
","287.7999999523163","","49","","","3000","1","","","images/tutgreenplanet.jpg","images/tutalien1","images/tutalien2","null","images/tutalien2","images/t.png","NA","practice","null","","","",""
"d3-animate-choice","41","124641","0.0-41.0","335","4967","12","Female","true","true","false","true","""event"",""trial"",""time""
""fullscreenenter"",""5"",""10701""
","
","
","""event"",""trial"",""time""
""fullscreenenter"",""5"",""10701""
","
","359.89999985694885","","49","","","3000","1","","","images/tutgreenplanet.jpg","images/tutalien1","images/tutalien2","null","images/tutalien2","images/t.png","NA","practice","null","","","",""
"d3-animate-choice","42","126963","0.0-42.0","335","4967","12","Female","true","true","false","true","""event"",""trial"",""time""
""fullscreenenter"",""5"",""10701""
","
","
","""event"",""trial"",""time""
""fullscreenenter"",""5"",""10701""
","
","307.39999985694885","","49","","","3000","1","","","images/tutgreenplanet.jpg","images/tutalien1","images/tutalien2","null","images/tutalien2","images/t.png","NA","practice","null","","","",""
"d3-animate-choice","43","129292","0.0-43.0","335","4967","12","Female","true","true","false","true","""event"",""trial"",""time""
""fullscreenenter"",""5"",""10701""
","
","
","""event"",""trial"",""time""
""fullscreenenter"",""5"",""10701""
","
","314.89999985694885","","49","","","3000","1","","","images/tutgreenplanet.jpg","images/tutalien1","images/tutalien2","null","images/tutalien2","images/t.png","NA","practice","null","","","",""
"d3-instructions","44","132209","0.0-44.0","335","4967","12","Female","true","true","false","true","""event"",""trial"",""time""
""fullscreenenter"",""5"",""10701""
","
","
","""event"",""trial"",""time""
""fullscreenenter"",""5"",""10701""
","
","","","","","","","","","","","","","","","","","","","","","",""
"d3-instructions","45","133955","0.0-45.0","335","4967","12","Female","true","true","false","true","""event"",""trial"",""time""
""fullscreenenter"",""5"",""10701""
","
","
","""event"",""trial"",""time""
""fullscreenenter"",""5"",""10701""
","
","","","","","","","","","","","","","","","","","","","","","",""
"d3-instructions","46","135394","0.0-46.0","335","4967","12","Female","true","true","false","true","""event"",""trial"",""time""
""fullscreenenter"",""5"",""10701""
","
","
","""event"",""trial"",""time""
""fullscreenenter"",""5"",""10701""
","
","","","","","","","","","","","","","","","","","","","","","",""
"d3-instructions","47","137818","0.0-47.0","335","4967","12","Female","true","true","false","true","""event"",""trial"",""time""
""fullscreenenter"",""5"",""10701""
","
","
","""event"",""trial"",""time""
""fullscreenenter"",""5"",""10701""
","
","","","","","","","","","","","","","","","","","","","","","",""
"d3-instructions","48","141322","0.0-48.0","335","4967","12","Female","true","true","false","true","""event"",""trial"",""time""
""fullscreenenter"",""5"",""10701""
","
","
","""event"",""trial"",""time""
""fullscreenenter"",""5"",""10701""
","
","","","","","","","","","","","","","","","","","","","","","",""
"d3-instructions","49","146217","0.0-49.0","335","4967","12","Female","true","true","false","true","""event"",""trial"",""time""
""fullscreenenter"",""5"",""10701""
","
","
","""event"",""trial"",""time""
""fullscreenenter"",""5"",""10701""
","
","","","","","","","","","","","","","","","","","","","","","",""
"d3-instructions","50","148723","0.0-50.0","335","4967","12","Female","true","true","false","true","""event"",""trial"",""time""
""fullscreenenter"",""5"",""10701""
","
","
","""event"",""trial"",""time""
""fullscreenenter"",""5"",""10701""
","
","","","","","","","","","","","","","","","","","","","","","",""
"d3-instructions","51","150448","0.0-51.0","335","4967","12","Female","true","true","false","true","""event"",""trial"",""time""
""fullscreenenter"",""5"",""10701""
","
","
","""event"",""trial"",""time""
""fullscreenenter"",""5"",""10701""
","
","","","","","","","","","","","","","","","","","","","","","",""
"d3-instructions","52","151674","0.0-52.0","335","4967","12","Female","true","true","false","true","""event"",""trial"",""time""
""fullscreenenter"",""5"",""10701""
","
","
","""event"",""trial"",""time""
""fullscreenenter"",""5"",""10701""
","
","","","","","","","","","","","","","","","","","","","","","",""
"d3-instructions","53","153744","0.0-53.0","335","4967","12","Female","true","true","false","true","""event"",""trial"",""time""
""fullscreenenter"",""5"",""10701""
","
","
","""event"",""trial"",""time""
""fullscreenenter"",""5"",""10701""
","
","","","","","","","","","","","","","","","","","","","","","",""
"d3-instructions","54","158713","0.0-54.0","335","4967","12","Female","true","true","false","true","""event"",""trial"",""time""
""fullscreenenter"",""5"",""10701""
","
","
","""event"",""trial"",""time""
""fullscreenenter"",""5"",""10701""
","
","","","","","","","","","","","","","","","","","","","","","",""
"d3-instructions","55","160562","0.0-55.0","335","4967","12","Female","true","true","false","true","""event"",""trial"",""time""
""fullscreenenter"",""5"",""10701""
","
","
","""event"",""trial"",""time""
""fullscreenenter"",""5"",""10701""
","
","","","","","","","","","","","","","","","","","","","","","",""
"d3-instructions","56","165753","0.0-56.0","335","4967","12","Female","true","true","false","true","""event"",""trial"",""time""
""fullscreenenter"",""5"",""10701""
","
","
","""event"",""trial"",""time""
""fullscreenenter"",""5"",""10701""
","
","","","","","","","","","","","","","","","","","","","","","",""
"d3-instructions","57","169128","0.0-57.0","335","4967","12","Female","true","true","false","true","""event"",""trial"",""time""
""fullscreenenter"",""5"",""10701""
","
","
","""event"",""trial"",""time""
""fullscreenenter"",""5"",""10701""
","
","","","","","","","","","","","","","","","","","","","","","",""
"d3-instructions","58","171577","0.0-58.0","335","4967","12","Female","true","true","false","true","""event"",""trial"",""time""
""fullscreenenter"",""5"",""10701""
","
","
","""event"",""trial"",""time""
""fullscreenenter"",""5"",""10701""
","
","","","","","","","","","","","","","","","","","","","","","",""
"d3-instructions","59","172929","0.0-59.0","335","4967","12","Female","true","true","false","true","""event"",""trial"",""time""
""fullscreenenter"",""5"",""10701""
","
","
","""event"",""trial"",""time""
""fullscreenenter"",""5"",""10701""
","
","","","","","","","","","","","","","","","","","","","","","",""
"d3-instructions","60","174663","0.0-60.0","335","4967","12","Female","true","true","false","true","""event"",""trial"",""time""
""fullscreenenter"",""5"",""10701""
","
","
","""event"",""trial"",""time""
""fullscreenenter"",""5"",""10701""
","
","","","","","","","","","","","","","","","","","","","","","",""
"d3-animate-choice","61","177172","0.0-61.0-0.0","335","4967","12","Female","true","true","false","true","""event"",""trial"",""time""
""fullscreenenter"",""5"",""10701""
","
","
","""event"",""trial"",""time""
""fullscreenenter"",""5"",""10701""
","
","503.59999990463257","","49","","","3000","1","","","images/earth.jpg","images/tutrocket2","images/tutrocket1","null","images/tutrocket1","","1","practice","null","1","","",""
"d3-animate-choice","62","180002","0.0-61.0-1.0","335","4967","12","Female","true","true","false","true","""event"",""trial"",""time""
""fullscreenenter"",""5"",""10701""
","
","
","""event"",""trial"",""time""
""fullscreenenter"",""5"",""10701""
","
","798.1000001430511","","49","","","3000","1","","","images/tutgreenplanet.jpg","images/tutalien2","images/tutalien1","images/tutrocket1","images/tutalien1","images/nothing.png","2","practice","true","1","common","0","2022-12-05 15:15:51.537"
"two-step-fixation","63","181029","0.0-61.0-2.0","335","4967","12","Female","true","true","false","true","""event"",""trial"",""time""
""fullscreenenter"",""5"",""10701""
","
","
","""event"",""trial"",""time""
""fullscreenenter"",""5"",""10701""
","
","","images/earth.jpg","","","","","","","","","","","","","","fixation","","","","","",""
"d3-animate-choice","64","183402","0.0-61.0-0.1","335","4967","12","Female","true","true","false","true","""event"",""trial"",""time""
""fullscreenenter"",""5"",""10701""
","
","
","""event"",""trial"",""time""
""fullscreenenter"",""5"",""10701""
","
","350.40000009536743","","49","","","3000","1","","","images/earth.jpg","images/tutrocket2","images/tutrocket1","null","images/tutrocket1","","1","practice","null","1","","",""
"d3-animate-choice","65","187412","0.0-61.0-1.1","335","4967","12","Female","true","true","false","true","""event"",""trial"",""time""
""fullscreenenter"",""5"",""10701""
","
","
","""event"",""trial"",""time""
""fullscreenenter"",""5"",""10701""
","
","393.2000000476837","","96","","","3000","1","912,1721.4000000953674,2272.600000143051,2753.5","96,96,97,49","images/tutyellowplanet.jpg","images/tutalien4","images/tutalien3","images/tutrocket1","images/tutalien3","","2","practice","false","","rare","0","2022-12-05 15:15:58.946"
"two-step-fixation","66","188423","0.0-61.0-2.1","335","4967","12","Female","true","true","false","true","""event"",""trial"",""time""
""fullscreenenter"",""5"",""10701""
","
","
","""event"",""trial"",""time""
""fullscreenenter"",""5"",""10701""
","
","","images/earth.jpg","","","","","","","","","","","","","","fixation","","","","","",""
"d3-animate-choice","67","190809","0.0-61.0-0.2","335","4967","12","Female","true","true","false","true","""event"",""trial"",""time""
""fullscreenenter"",""5"",""10701""
","
","
","""event"",""trial"",""time""
""fullscreenenter"",""5"",""10701""
","
","371.39999985694885","","48","","","3000","1","","","images/earth.jpg","images/tutrocket2","images/tutrocket1","null","images/tutrocket2","","1","practice","null","2","","",""
"d3-animate-choice","68","193354","0.0-61.0-1.2","335","4967","12","Female","true","true","false","true","""event"",""trial"",""time""
""fullscreenenter"",""5"",""10701""
","
","
","""event"",""trial"",""time""
""fullscreenenter"",""5"",""10701""
","
","528.7000000476837","","48","","","3000","1","","","images/tutyellowplanet.jpg","images/tutalien4","images/tutalien3","images/tutrocket2","images/tutalien4","images/t.png","2","practice","true","2","common","1","2022-12-05 15:16:04.888"
"two-step-fixation","69","194356","0.0-61.0-2.2","335","4967","12","Female","true","true","false","true","""event"",""trial"",""time""
""fullscreenenter"",""5"",""10701""
","
","
","""event"",""trial"",""time""
""fullscreenenter"",""5"",""10701""
","
","","images/earth.jpg","","","","","","","","","","","","","","fixation","","","","","",""
"d3-animate-choice","70","196682","0.0-61.0-0.3","335","4967","12","Female","true","true","false","true","""event"",""trial"",""time""
""fullscreenenter"",""5"",""10701""
","
","
","""event"",""trial"",""time""
""fullscreenenter"",""5"",""10701""
","
","307.40000009536743","","48","","","3000","1","","","images/earth.jpg","images/tutrocket2","images/tutrocket1","null","images/tutrocket2","","1","practice","null","2","","",""
"d3-animate-choice","71","199361","0.0-61.0-1.3","335","4967","12","Female","true","true","false","true","""event"",""trial"",""time""
""fullscreenenter"",""5"",""10701""
","
","
","""event"",""trial"",""time""
""fullscreenenter"",""5"",""10701""
","
","666.2000000476837","","48","","","3000","1","","","images/tutgreenplanet.jpg","images/tutalien2","images/tutalien1","images/tutrocket2","images/tutalien2","images/t.png","2","practice","false","2","rare","1","2022-12-05 15:16:10.895"
"two-step-fixation","72","200370","0.0-61.0-2.3","335","4967","12","Female","true","true","false","true","""event"",""trial"",""time""
""fullscreenenter"",""5"",""10701""
","
","
","""event"",""trial"",""time""
""fullscreenenter"",""5"",""10701""
","
","","images/earth.jpg","","","","","","","","","","","","","","fixation","","","","","",""
"d3-animate-choice","73","202745","0.0-61.0-0.4","335","4967","12","Female","true","true","false","true","""event"",""trial"",""time""
""fullscreenenter"",""5"",""10701""
","
","
","""event"",""trial"",""time""
""fullscreenenter"",""5"",""10701""
","
","360","","48","","","3000","1","","","images/earth.jpg","images/tutrocket2","images/tutrocket1","null","images/tutrocket2","","1","practice","null","2","","",""
"d3-animate-choice","74","205058","0.0-61.0-1.4","335","4967","12","Female","true","true","false","true","""event"",""trial"",""time""
""fullscreenenter"",""5"",""10701""
","
","
","""event"",""trial"",""time""
""fullscreenenter"",""5"",""10701""
","
","305.10000014305115","","48","","","3000","1","","","images/tutyellowplanet.jpg","images/tutalien4","images/tutalien3","images/tutrocket2","images/tutalien4","images/nothing.png","2","practice","true","2","common","0","2022-12-05 15:16:16.592"
"two-step-fixation","75","206066","0.0-61.0-2.4","335","4967","12","Female","true","true","false","true","""event"",""trial"",""time""
""fullscreenenter"",""5"",""10701""
","
","
","""event"",""trial"",""time""
""fullscreenenter"",""5"",""10701""
","
","","images/earth.jpg","","","","","","","","","","","","","","fixation","","","","","",""
"d3-animate-choice","76","208353","0.0-61.0-0.5","335","4967","12","Female","true","true","false","true","""event"",""trial"",""time""
""fullscreenenter"",""5"",""10701""
","
","
","""event"",""trial"",""time""
""fullscreenenter"",""5"",""10701""
","
","283","","48","","","3000","1","","","images/earth.jpg","images/tutrocket2","images/tutrocket1","null","images/tutrocket2","","1","practice","null","2","","",""
"d3-animate-choice","77","210833","0.0-61.0-1.5","335","4967","12","Female","true","true","false","true","""event"",""trial"",""time""
""fullscreenenter"",""5"",""10701""
","
","
","""event"",""trial"",""time""
""fullscreenenter"",""5"",""10701""
","
","475.2000000476837","","48","","","3000","1","","","images/tutyellowplanet.jpg","images/tutalien4","images/tutalien3","images/tutrocket2","images/tutalien4","images/t.png","2","practice","true","2","common","1","2022-12-05 15:16:22.367"
"two-step-fixation","78","211842","0.0-61.0-2.5","335","4967","12","Female","true","true","false","true","""event"",""trial"",""time""
""fullscreenenter"",""5"",""10701""
","
","
","""event"",""trial"",""time""
""fullscreenenter"",""5"",""10701""
","
","","images/earth.jpg","","","","","","","","","","","","","","fixation","","","","","",""
"d3-animate-choice","79","214186","0.0-61.0-0.6","335","4967","12","Female","true","true","false","true","""event"",""trial"",""time""
""fullscreenenter"",""5"",""10701""
","
","
","""event"",""trial"",""time""
""fullscreenenter"",""5"",""10701""
","
","338.40000009536743","","48","","","3000","1","","","images/earth.jpg","images/tutrocket2","images/tutrocket1","null","images/tutrocket2","","1","practice","null","2","","",""
"d3-animate-choice","80","217090","0.0-61.0-1.6","335","4967","12","Female","true","true","false","true","""event"",""trial"",""time""
""fullscreenenter"",""5"",""10701""
","
","
","""event"",""trial"",""time""
""fullscreenenter"",""5"",""10701""
","
","899.6000001430511","","48","","","3000","1","2850.9000000953674","48","images/tutgreenplanet.jpg","images/tutalien2","images/tutalien1","images/tutrocket2","images/tutalien2","images/nothing.png","2","practice","false","2","rare","0","2022-12-05 15:16:28.624"
"two-step-fixation","81","218098","0.0-61.0-2.6","335","4967","12","Female","true","true","false","true","""event"",""trial"",""time""
""fullscreenenter"",""5"",""10701""
","
","
","""event"",""trial"",""time""
""fullscreenenter"",""5"",""10701""
","
","","images/earth.jpg","","","","","","","","","","","","","","fixation","","","","","",""
"d3-animate-choice","82","220601","0.0-61.0-0.7","335","4967","12","Female","true","true","false","true","""event"",""trial"",""time""
""fullscreenenter"",""5"",""10701""
","
","
","""event"",""trial"",""time""
""fullscreenenter"",""5"",""10701""
","
","495.2000000476837","","49","","","3000","1","","","images/earth.jpg","images/tutrocket2","images/tutrocket1","null","images/tutrocket1","","1","practice","null","1","","",""
"d3-animate-choice","83","223457","0.0-61.0-1.7","335","4967","12","Female","true","true","false","true","""event"",""trial"",""time""
""fullscreenenter"",""5"",""10701""
","
","
","""event"",""trial"",""time""
""fullscreenenter"",""5"",""10701""
","
","850.7000000476837","","48","","","3000","1","","","images/tutyellowplanet.jpg","images/tutalien4","images/tutalien3","images/tutrocket1","images/tutalien4","images/t.png","2","practice","false","2","rare","1","2022-12-05 15:16:34.992"
"two-step-fixation","84","224466","0.0-61.0-2.7","335","4967","12","Female","true","true","false","true","""event"",""trial"",""time""
""fullscreenenter"",""5"",""10701""
","
","
","""event"",""trial"",""time""
""fullscreenenter"",""5"",""10701""
","
","","images/earth.jpg","","","","","","","","","","","","","","fixation","","","","","",""
"d3-animate-choice","85","226833","0.0-61.0-0.8","335","4967","12","Female","true","true","false","true","""event"",""trial"",""time""
""fullscreenenter"",""5"",""10701""
","
","
","""event"",""trial"",""time""
""fullscreenenter"",""5"",""10701""
","
","362.7000000476837","","48","","","3000","1","","","images/earth.jpg","images/tutrocket2","images/tutrocket1","null","images/tutrocket2","","1","practice","null","2","","",""
"d3-animate-choice","86","229434","0.0-61.0-1.8","335","4967","12","Female","true","true","false","true","""event"",""trial"",""time""
""fullscreenenter"",""5"",""10701""
","
","
","""event"",""trial"",""time""
""fullscreenenter"",""5"",""10701""
","
","595.5","","48","","","3000","1","","","images/tutyellowplanet.jpg","images/tutalien4","images/tutalien3","images/tutrocket2","images/tutalien4","images/nothing.png","2","practice","true","2","common","0","2022-12-05 15:16:40.968"
"two-step-fixation","87","230442","0.0-61.0-2.8","335","4967","12","Female","true","true","false","true","""event"",""trial"",""time""
""fullscreenenter"",""5"",""10701""
","
","
","""event"",""trial"",""time""
""fullscreenenter"",""5"",""10701""
","
","","images/earth.jpg","","","","","","","","","","","","","","fixation","","","","","",""
"d3-animate-choice","88","232681","0.0-61.0-0.9","335","4967","12","Female","true","true","false","true","""event"",""trial"",""time""
""fullscreenenter"",""5"",""10701""
","
","
","""event"",""trial"",""time""
""fullscreenenter"",""5"",""10701""
","
","230.90000009536743","","48","","","3000","1","","","images/earth.jpg","images/tutrocket2","images/tutrocket1","null","images/tutrocket2","","1","practice","null","2","","",""
"d3-animate-choice","89","235106","0.0-61.0-1.9","335","4967","12","Female","true","true","false","true","""event"",""trial"",""time""
""fullscreenenter"",""5"",""10701""
","
","
","""event"",""trial"",""time""
""fullscreenenter"",""5"",""10701""
","
","418.80000019073486","","48","","","3000","1","","","images/tutyellowplanet.jpg","images/tutalien4","images/tutalien3","images/tutrocket2","images/tutalien4","images/nothing.png","2","practice","true","2","common","0","2022-12-05 15:16:46.640"
"two-step-fixation","90","236112","0.0-61.0-2.9","335","4967","12","Female","true","true","false","true","""event"",""trial"",""time""
""fullscreenenter"",""5"",""10701""
","
","
","""event"",""trial"",""time""
""fullscreenenter"",""5"",""10701""
","
","","images/earth.jpg","","","","","","","","","","","","","","fixation","","","","","",""
"d3-animate-choice","91","238411","0.0-61.0-0.10","335","4967","12","Female","true","true","false","true","""event"",""trial"",""time""
""fullscreenenter"",""5"",""10701""
","
","
","""event"",""trial"",""time""
""fullscreenenter"",""5"",""10701""
","
","294.2999999523163","","48","","","3000","1","","","images/earth.jpg","images/tutrocket2","images/tutrocket1","null","images/tutrocket2","","1","practice","null","2","","",""
"d3-animate-choice","92","240738","0.0-61.0-1.10","335","4967","12","Female","true","true","false","true","""event"",""trial"",""time""
""fullscreenenter"",""5"",""10701""
","
","
","""event"",""trial"",""time""
""fullscreenenter"",""5"",""10701""
","
","321.5","","48","","","3000","1","","","images/tutyellowplanet.jpg","images/tutalien4","images/tutalien3","images/tutrocket2","images/tutalien4","images/t.png","2","practice","true","2","common","1","2022-12-05 15:16:52.272"
"two-step-fixation","93","241742","0.0-61.0-2.10","335","4967","12","Female","true","true","false","true","""event"",""trial"",""time""
""fullscreenenter"",""5"",""10701""
","
","
","""event"",""trial"",""time""
""fullscreenenter"",""5"",""10701""
","
","","images/earth.jpg","","","","","","","","","","","","","","fixation","","","","","",""
"d3-animate-choice","94","244057","0.0-61.0-0.11","335","4967","12","Female","true","true","false","true","""event"",""trial"",""time""
""fullscreenenter"",""5"",""10701""
","
","
","""event"",""trial"",""time""
""fullscreenenter"",""5"",""10701""
","
","310.09999990463257","","48","","","3000","1","","","images/earth.jpg","images/tutrocket2","images/tutrocket1","null","images/tutrocket2","","1","practice","null","2","","",""
"d3-animate-choice","95","246417","0.0-61.0-1.11","335","4967","12","Female","true","true","false","true","""event"",""trial"",""time""
""fullscreenenter"",""5"",""10701""
","
","
","""event"",""trial"",""time""
""fullscreenenter"",""5"",""10701""
","
","354.5","","48","","","3000","1","","","images/tutgreenplanet.jpg","images/tutalien2","images/tutalien1","images/tutrocket2","images/tutalien2","images/nothing.png","2","practice","false","2","rare","0","2022-12-05 15:16:57.951"
"two-step-fixation","96","247422","0.0-61.0-2.11","335","4967","12","Female","true","true","false","true","""event"",""trial"",""time""
""fullscreenenter"",""5"",""10701""
","
","
","""event"",""trial"",""time""
""fullscreenenter"",""5"",""10701""
","
","","images/earth.jpg","","","","","","","","","","","","","","fixation","","","","","",""
"d3-animate-choice","97","250961","0.0-61.0-0.12","335","4967","12","Female","true","true","false","true","""event"",""trial"",""time""
""fullscreenenter"",""5"",""10701""
","
","
","""event"",""trial"",""time""
""fullscreenenter"",""5"",""10701""
","
","1534.6999998092651","","48","","","3000","1","","","images/earth.jpg","images/tutrocket2","images/tutrocket1","null","images/tutrocket2","","1","practice","null","2","","",""
"d3-animate-choice","98","253346","0.0-61.0-1.12","335","4967","12","Female","true","true","false","true","""event"",""trial"",""time""
""fullscreenenter"",""5"",""10701""
","
","
","""event"",""trial"",""time""
""fullscreenenter"",""5"",""10701""
","
","379.10000014305115","","48","","","3000","1","","","images/tutyellowplanet.jpg","images/tutalien4","images/tutalien3","images/tutrocket2","images/tutalien4","images/t.png","2","practice","true","2","common","1","2022-12-05 15:17:04.880"
"two-step-fixation","99","254350","0.0-61.0-2.12","335","4967","12","Female","true","true","false","true","""event"",""trial"",""time""
""fullscreenenter"",""5"",""10701""
","
","
","""event"",""trial"",""time""
""fullscreenenter"",""5"",""10701""
","
","","images/earth.jpg","","","","","","","","","","","","","","fixation","","","","","",""
"d3-animate-choice","100","256650","0.0-61.0-0.13","335","4967","12","Female","true","true","false","true","""event"",""trial"",""time""
""fullscreenenter"",""5"",""10701""
","
","
","""event"",""trial"",""time""
""fullscreenenter"",""5"",""10701""
","
","294.60000014305115","","48","","","3000","1","","","images/earth.jpg","images/tutrocket2","images/tutrocket1","null","images/tutrocket2","","1","practice","null","2","","",""
"d3-animate-choice","101","259130","0.0-61.0-1.13","335","4967","12","Female","true","true","false","true","""event"",""trial"",""time""
""fullscreenenter"",""5"",""10701""
","
","
","""event"",""trial"",""time""
""fullscreenenter"",""5"",""10701""
","
","474.2000000476837","","48","","","3000","1","2164.100000143051","48","images/tutyellowplanet.jpg","images/tutalien4","images/tutalien3","images/tutrocket2","images/tutalien4","images/t.png","2","practice","true","2","common","1","2022-12-05 15:17:10.664"
"two-step-fixation","102","260138","0.0-61.0-2.13","335","4967","12","Female","true","true","false","true","""event"",""trial"",""time""
""fullscreenenter"",""5"",""10701""
","
","
","""event"",""trial"",""time""
""fullscreenenter"",""5"",""10701""
","
","","images/earth.jpg","","","","","","","","","","","","","","fixation","","","","","",""
"d3-animate-choice","103","262202","0.0-61.0-0.14","335","4967","12","Female","true","true","false","true","""event"",""trial"",""time""
""fullscreenenter"",""5"",""10701""
","
","
","""event"",""trial"",""time""
""fullscreenenter"",""5"",""10701""
","
","60.10000014305115","","48","","","3000","1","","","images/earth.jpg","images/tutrocket2","images/tutrocket1","null","images/tutrocket2","","1","practice","null","2","","",""
"d3-animate-choice","104","264450","0.0-61.0-1.14","335","4967","12","Female","true","true","false","true","""event"",""trial"",""time""
""fullscreenenter"",""5"",""10701""
","
","
","""event"",""trial"",""time""
""fullscreenenter"",""5"",""10701""
","
","242.5","","48","","","3000","1","","","images/tutyellowplanet.jpg","images/tutalien4","images/tutalien3","images/tutrocket2","images/tutalien4","images/t.png","2","practice","true","2","common","1","2022-12-05 15:17:15.984"
"two-step-fixation","105","265457","0.0-61.0-2.14","335","4967","12","Female","true","true","false","true","""event"",""trial"",""time""
""fullscreenenter"",""5"",""10701""
","
","
","""event"",""trial"",""time""
""fullscreenenter"",""5"",""10701""
","
","","images/earth.jpg","","","","","","","","","","","","","","fixation","","","","","",""
"d3-animate-choice","106","267698","0.0-61.0-0.15","335","4967","12","Female","true","true","false","true","""event"",""trial"",""time""
""fullscreenenter"",""5"",""10701""
","
","
","""event"",""trial"",""time""
""fullscreenenter"",""5"",""10701""
","
","235.70000004768372","","48","","","3000","1","1715.6000001430511","48","images/earth.jpg","images/tutrocket2","images/tutrocket1","null","images/tutrocket2","","1","practice","null","2","","",""
"d3-animate-choice","107","270034","0.0-61.0-1.15","335","4967","12","Female","true","true","false","true","""event"",""trial"",""time""
""fullscreenenter"",""5"",""10701""
","
","
","""event"",""trial"",""time""
""fullscreenenter"",""5"",""10701""
","
","326.2000000476837","","48","","","3000","1","","","images/tutyellowplanet.jpg","images/tutalien4","images/tutalien3","images/tutrocket2","images/tutalien4","images/nothing.png","2","practice","true","2","common","0","2022-12-05 15:17:21.568"
"two-step-fixation","108","271043","0.0-61.0-2.15","335","4967","12","Female","true","true","false","true","""event"",""trial"",""time""
""fullscreenenter"",""5"",""10701""
","
","
","""event"",""trial"",""time""
""fullscreenenter"",""5"",""10701""
","
","","images/earth.jpg","","","","","","","","","","","","","","fixation","","","","","",""
"d3-animate-choice","109","273577","0.0-61.0-0.16","335","4967","12","Female","true","true","false","true","""event"",""trial"",""time""
""fullscreenenter"",""5"",""10701""
","
","
","""event"",""trial"",""time""
""fullscreenenter"",""5"",""10701""
","
","527.8999998569489","","48","","","3000","1","","","images/earth.jpg","images/tutrocket2","images/tutrocket1","null","images/tutrocket2","","1","practice","null","2","","",""
"d3-animate-choice","110","276202","0.0-61.0-1.16","335","4967","12","Female","true","true","false","true","""event"",""trial"",""time""
""fullscreenenter"",""5"",""10701""
","
","
","""event"",""trial"",""time""
""fullscreenenter"",""5"",""10701""
","
","619.7000000476837","","48","","","3000","1","","","images/tutgreenplanet.jpg","images/tutalien2","images/tutalien1","images/tutrocket2","images/tutalien2","images/nothing.png","2","practice","false","2","rare","0","2022-12-05 15:17:27.736"
"two-step-fixation","111","277209","0.0-61.0-2.16","335","4967","12","Female","true","true","false","true","""event"",""trial"",""time""
""fullscreenenter"",""5"",""10701""
","
","
","""event"",""trial"",""time""
""fullscreenenter"",""5"",""10701""
","
","","images/earth.jpg","","","","","","","","","","","","","","fixation","","","","","",""
"d3-animate-choice","112","279706","0.0-61.0-0.17","335","4967","12","Female","true","true","false","true","""event"",""trial"",""time""
""fullscreenenter"",""5"",""10701""
","
","
","""event"",""trial"",""time""
""fullscreenenter"",""5"",""10701""
","
","488.7000000476837","","48","","","3000","1","","","images/earth.jpg","images/tutrocket2","images/tutrocket1","null","images/tutrocket2","","1","practice","null","2","","",""
"d3-animate-choice","113","282097","0.0-61.0-1.17","335","4967","12","Female","true","true","false","true","""event"",""trial"",""time""
""fullscreenenter"",""5"",""10701""
","
","
","""event"",""trial"",""time""
""fullscreenenter"",""5"",""10701""
","
","387.2999999523163","","48","","","3000","1","","","images/tutgreenplanet.jpg","images/tutalien2","images/tutalien1","images/tutrocket2","images/tutalien2","images/nothing.png","2","practice","false","2","rare","0","2022-12-05 15:17:33.632"
"two-step-fixation","114","283106","0.0-61.0-2.17","335","4967","12","Female","true","true","false","true","""event"",""trial"",""time""
""fullscreenenter"",""5"",""10701""
","
","
","""event"",""trial"",""time""
""fullscreenenter"",""5"",""10701""
","
","","images/earth.jpg","","","","","","","","","","","","","","fixation","","","","","",""
"d3-animate-choice","115","285362","0.0-61.0-0.18","335","4967","12","Female","true","true","false","true","""event"",""trial"",""time""
""fullscreenenter"",""5"",""10701""
","
","
","""event"",""trial"",""time""
""fullscreenenter"",""5"",""10701""
","
","250.39999985694885","","48","","","3000","1","","","images/earth.jpg","images/tutrocket2","images/tutrocket1","null","images/tutrocket2","","1","practice","null","2","","",""
"d3-animate-choice","116","287650","0.0-61.0-1.18","335","4967","12","Female","true","true","false","true","""event"",""trial"",""time""
""fullscreenenter"",""5"",""10701""
","
","
","""event"",""trial"",""time""
""fullscreenenter"",""5"",""10701""
","
","283","","48","","","3000","1","2091","48","images/tutyellowplanet.jpg","images/tutalien4","images/tutalien3","images/tutrocket2","images/tutalien4","images/t.png","2","practice","true","2","common","1","2022-12-05 15:17:39.184"
"two-step-fixation","117","288658","0.0-61.0-2.18","335","4967","12","Female","true","true","false","true","""event"",""trial"",""time""
""fullscreenenter"",""5"",""10701""
","
","
","""event"",""trial"",""time""
""fullscreenenter"",""5"",""10701""
","
","","images/earth.jpg","","","","","","","","","","","","","","fixation","","","","","",""
"d3-animate-choice","118","291105","0.0-61.0-0.19","335","4967","12","Female","true","true","false","true","""event"",""trial"",""time""
""fullscreenenter"",""5"",""10701""
","
","
","""event"",""trial"",""time""
""fullscreenenter"",""5"",""10701""
","
","443.19999980926514","","48","","","3000","1","","","images/earth.jpg","images/tutrocket2","images/tutrocket1","null","images/tutrocket2","","1","practice","null","2","","",""
"d3-animate-choice","119","293514","0.0-61.0-1.19","335","4967","12","Female","true","true","false","true","""event"",""trial"",""time""
""fullscreenenter"",""5"",""10701""
","
","
","""event"",""trial"",""time""
""fullscreenenter"",""5"",""10701""
","
","403.2999999523163","","48","","","3000","1","","","images/tutyellowplanet.jpg","images/tutalien4","images/tutalien3","images/tutrocket2","images/tutalien4","images/nothing.png","2","practice","true","2","common","0","2022-12-05 15:17:45.048"
"two-step-fixation","120","294523","0.0-61.0-2.19","335","4967","12","Female","true","true","false","true","""event"",""trial"",""time""
""fullscreenenter"",""5"",""10701""
","
","
","""event"",""trial"",""time""
""fullscreenenter"",""5"",""10701""
","
","","images/earth.jpg","","","","","","","","","","","","","","fixation","","","","","",""
"d3-instructions","121","296894","0.0-62.0","335","4967","12","Female","true","true","false","true","""event"",""trial"",""time""
""fullscreenenter"",""5"",""10701""
","
","
","""event"",""trial"",""time""
""fullscreenenter"",""5"",""10701""
","
","","","","","","","","","","","","","","","","","","","","","",""
"audio-keyboard-response","122","299870","0.0-63.0","335","4967","12","Female","true","true","false","true","""event"",""trial"",""time""
""fullscreenenter"",""5"",""10701""
","
","
","""event"",""trial"",""time""
""fullscreenenter"",""5"",""10701""
","
","2971","audio/instructions/treasure_feedback.wav","32","","","","","","","","","","","","","","","","","","",""
"d3-instructions","123","303871","0.0-64.0","335","4967","12","Female","true","true","false","true","""event"",""trial"",""time""
""fullscreenenter"",""5"",""10701""
","
","
","""event"",""trial"",""time""
""fullscreenenter"",""5"",""10701""
","
","","","","","","","","","","","","","","","","","","","","","",""
"d3-instructions","124","309223","0.0-65.0","335","4967","12","Female","true","true","false","true","""event"",""trial"",""time""
""fullscreenenter"",""5"",""10701""
","
","
","""event"",""trial"",""time""
""fullscreenenter"",""5"",""10701""
","
","","","","","","","","","","","","","","","","","","","","","",""
"d3-instructions","125","316759","0.0-66.0","335","4967","12","Female","true","true","false","true","""event"",""trial"",""time""
""fullscreenenter"",""5"",""10701""
","
","
","""event"",""trial"",""time""
""fullscreenenter"",""5"",""10701""
","
","","","","","","","","","","","","","","","","","","","","","",""
"d3-instructions","126","325919","0.0-67.0","335","4967","12","Female","true","true","false","true","""event"",""trial"",""time""
""fullscreenenter"",""5"",""10701""
","
","
","""event"",""trial"",""time""
""fullscreenenter"",""5"",""10701""
","
","","","","","","","","","","","","","","","","","","","","","",""
"d3-instructions","127","327550","0.0-68.0","335","4967","12","Female","true","true","false","true","""event"",""trial"",""time""
""fullscreenenter"",""5"",""10701""
","
","
","""event"",""trial"",""time""
""fullscreenenter"",""5"",""10701""
","
","","","","","","","","","","","","","","","","","","","","","",""
"instructions-quiz","128","331705","0.0-69.0","335","4967","12","Female","true","true","false","true","""event"",""trial"",""time""
""fullscreenenter"",""5"",""10701""
","
","
","""event"",""trial"",""time""
""fullscreenenter"",""5"",""10701""
","
","4152.700000047684","audio/quiz/Q1_Prompt.wav","","1","","","","","","","","","","","","","","","","","",""
"audio-keyboard-response","129","340873","0.0-70.0","335","4967","12","Female","true","true","false","true","""event"",""trial"",""time""
""fullscreenenter"",""5"",""10701""
","
","
","""event"",""trial"",""time""
""fullscreenenter"",""5"",""10701""
","
","null","audio/quiz/Q1_Correct.wav","null","","","","","","","","","","","","","","","","","","",""
"instructions-quiz","130","346343","0.0-71.0","335","4967","12","Female","true","true","false","true","""event"",""trial"",""time""
""fullscreenenter"",""5"",""10701""
","
","
","""event"",""trial"",""time""
""fullscreenenter"",""5"",""10701""
","
","5467.900000095367","audio/quiz/Q2_Prompt.wav","","1","","","","","","","","","","","","","","","","","",""
"audio-keyboard-response","131","360424","0.0-72.0","335","4967","12","Female","true","true","false","true","""event"",""trial"",""time""
""fullscreenenter"",""5"",""10701""
","
","
","""event"",""trial"",""time""
""fullscreenenter"",""5"",""10701""
","
","null","audio/quiz/Q2_Incorrect.wav","null","","","","","","","","","","","","","","","","","","",""
"instructions-quiz","132","362801","0.0-73.0","335","4967","12","Female","true","true","false","true","""event"",""trial"",""time""
""fullscreenenter"",""5"",""10701""
","
","
","""event"",""trial"",""time""
""fullscreenenter"",""5"",""10701""
","
","2374.7000000476837","audio/quiz/Q3_Prompt.wav","","1","","","","","","","","","","","","","","","","","",""
"audio-keyboard-response","133","368594","0.0-74.0","335","4967","12","Female","true","true","false","true","""event"",""trial"",""time""
""fullscreenenter"",""5"",""10701""
","
","
","""event"",""trial"",""time""
""fullscreenenter"",""5"",""10701""
","
","null","audio/quiz/Q3_Correct.wav","null","","","","","","","","","","","","","","","","","","",""
"d3-instructions","134","371614","0.0-75.0","335","4967","12","Female","true","true","false","true","""event"",""trial"",""time""
""fullscreenenter"",""5"",""10701""
","
","
","""event"",""trial"",""time""
""fullscreenenter"",""5"",""10701""
","
","","","","","","","","","","","","","","","","","","","","","",""
"d3-animate-choice","135","374563","0.0-76.0-0.0","335","4967","12","Female","true","true","false","true","""event"",""trial"",""time""
""fullscreenenter"",""5"",""10701""
","
","
","""event"",""trial"",""time""
""fullscreenenter"",""5"",""10701""
","
","925.7000000476837","","49","","","3000","1","","","images/earth.jpg","images/rocket2","images/rocket1","null","images/rocket1","","1","real","null","1","","",""
"d3-animate-choice","136","377417","0.0-76.0-1.0","335","4967","12","Female","true","true","false","true","""event"",""trial"",""time""
""fullscreenenter"",""5"",""10701""
","
","
","""event"",""trial"",""time""
""fullscreenenter"",""5"",""10701""
","
","849.3999998569489","","49","","","3000","1","","","images/redplanet1.jpg","images/alien2","images/alien1","images/rocket1","images/alien1","images/nothing.png","2","real","true","1","common","0","2022-12-05 15:19:08.951"
"two-step-fixation","137","378422","0.0-76.0-2.0","335","4967","12","Female","true","true","false","true","""event"",""trial"",""time""
""fullscreenenter"",""5"",""10701""
","
","
","""event"",""trial"",""time""
""fullscreenenter"",""5"",""10701""
","
","","images/earth.jpg","","","","","","","","","","","","","","fixation","","","","","",""
"d3-animate-choice","138","380754","0.0-76.0-0.1","335","4967","12","Female","true","true","false","true","""event"",""trial"",""time""
""fullscreenenter"",""5"",""10701""
","
","
","""event"",""trial"",""time""
""fullscreenenter"",""5"",""10701""
","
","325.90000009536743","","49","","","3000","1","","","images/earth.jpg","images/rocket2","images/rocket1","null","images/rocket1","","1","real","null","1","","",""
"d3-animate-choice","139","383385","0.0-76.0-1.1","335","4967","12","Female","true","true","false","true","""event"",""trial"",""time""
""fullscreenenter"",""5"",""10701""
","
","
","""event"",""trial"",""time""
""fullscreenenter"",""5"",""10701""
","
","626.2000000476837","","48","","","3000","1","","","images/redplanet1.jpg","images/alien2","images/alien1","images/rocket1","images/alien2","images/t.png","2","real","true","2","common","1","2022-12-05 15:19:14.919"
"two-step-fixation","140","384403","0.0-76.0-2.1","335","4967","12","Female","true","true","false","true","""event"",""trial"",""time""
""fullscreenenter"",""5"",""10701""
","
","
","""event"",""trial"",""time""
""fullscreenenter"",""5"",""10701""
","
","","images/earth.jpg","","","","","","","","","","","","","","fixation","","","","","",""
"d3-animate-choice","141","386733","0.0-76.0-0.2","335","4967","12","Female","true","true","false","true","""event"",""trial"",""time""
""fullscreenenter"",""5"",""10701""
","
","
","""event"",""trial"",""time""
""fullscreenenter"",""5"",""10701""
","
","305.2000000476837","","49","","","3000","1","","","images/earth.jpg","images/rocket2","images/rocket1","null","images/rocket1","","1","real","null","1","","",""
"d3-animate-choice","142","389130","0.0-76.0-1.2","335","4967","12","Female","true","true","false","true","""event"",""trial"",""time""
""fullscreenenter"",""5"",""10701""
","
","
","""event"",""trial"",""time""
""fullscreenenter"",""5"",""10701""
","
","386.39999985694885","","48","","","3000","1","","","images/redplanet1.jpg","images/alien2","images/alien1","images/rocket1","images/alien2","images/t.png","2","real","true","2","common","1","2022-12-05 15:19:20.664"
"two-step-fixation","143","390138","0.0-76.0-2.2","335","4967","12","Female","true","true","false","true","""event"",""trial"",""time""
""fullscreenenter"",""5"",""10701""
","
","
","""event"",""trial"",""time""
""fullscreenenter"",""5"",""10701""
","
","","images/earth.jpg","","","","","","","","","","","","","","fixation","","","","","",""
"d3-animate-choice","144","392463","0.0-76.0-0.3","335","4967","12","Female","true","true","false","true","""event"",""trial"",""time""
""fullscreenenter"",""5"",""10701""
","
","
","""event"",""trial"",""time""
""fullscreenenter"",""5"",""10701""
","
","322.2999999523163","","49","","","3000","1","","","images/earth.jpg","images/rocket2","images/rocket1","null","images/rocket1","","1","real","null","1","","",""
"d3-animate-choice","145","394818","0.0-76.0-1.3","335","4967","12","Female","true","true","false","true","""event"",""trial"",""time""
""fullscreenenter"",""5"",""10701""
","
","
","""event"",""trial"",""time""
""fullscreenenter"",""5"",""10701""
","
","348.80000019073486","","48","","","3000","1","","","images/redplanet1.jpg","images/alien2","images/alien1","images/rocket1","images/alien2","images/t.png","2","real","true","2","common","1","2022-12-05 15:19:26.352"
"two-step-fixation","146","395826","0.0-76.0-2.3","335","4967","12","Female","true","true","false","true","""event"",""trial"",""time""
""fullscreenenter"",""5"",""10701""
","
","
","""event"",""trial"",""time""
""fullscreenenter"",""5"",""10701""
","
","","images/earth.jpg","","","","","","","","","","","","","","fixation","","","","","",""
"d3-animate-choice","147","398146","0.0-76.0-0.4","335","4967","12","Female","true","true","false","true","""event"",""trial"",""time""
""fullscreenenter"",""5"",""10701""
","
","
","""event"",""trial"",""time""
""fullscreenenter"",""5"",""10701""
","
","313.7000000476837","","49","","","3000","1","","","images/earth.jpg","images/rocket2","images/rocket1","null","images/rocket1","","1","real","null","1","","",""
"d3-animate-choice","148","400617","0.0-76.0-1.4","335","4967","12","Female","true","true","false","true","""event"",""trial"",""time""
""fullscreenenter"",""5"",""10701""
","
","
","""event"",""trial"",""time""
""fullscreenenter"",""5"",""10701""
","
","465.7000000476837","","48","","","3000","1","","","images/redplanet1.jpg","images/alien2","images/alien1","images/rocket1","images/alien2","images/nothing.png","2","real","true","2","common","0","2022-12-05 15:19:32.151"
"two-step-fixation","149","401643","0.0-76.0-2.4","335","4967","12","Female","true","true","false","true","""event"",""trial"",""time""
""fullscreenenter"",""5"",""10701""
","
","
","""event"",""trial"",""time""
""fullscreenenter"",""5"",""10701""
","
","","images/earth.jpg","","","","","","","","","","","","","","fixation","","","","","",""
"d3-animate-choice","150","403889","0.0-76.0-0.5","335","4967","12","Female","true","true","false","true","""event"",""trial"",""time""
""fullscreenenter"",""5"",""10701""
","
","
","""event"",""trial"",""time""
""fullscreenenter"",""5"",""10701""
","
","241.70000004768372","","49","","","3000","1","","","images/earth.jpg","images/rocket2","images/rocket1","null","images/rocket1","","1","real","null","1","","",""
"d3-animate-choice","151","406250","0.0-76.0-1.5","335","4967","12","Female","true","true","false","true","""event"",""trial"",""time""
""fullscreenenter"",""5"",""10701""
","
","
","""event"",""trial"",""time""
""fullscreenenter"",""5"",""10701""
","
","355.2000000476837","","48","","","3000","1","","","images/redplanet1.jpg","images/alien2","images/alien1","images/rocket1","images/alien2","images/t.png","2","real","true","2","common","1","2022-12-05 15:19:37.784"
"two-step-fixation","152","407259","0.0-76.0-2.5","335","4967","12","Female","true","true","false","true","""event"",""trial"",""time""
""fullscreenenter"",""5"",""10701""
","
","
","""event"",""trial"",""time""
""fullscreenenter"",""5"",""10701""
","
","","images/earth.jpg","","","","","","","","","","","","","","fixation","","","","","",""
"d3-animate-choice","153","409530","0.0-76.0-0.6","335","4967","12","Female","true","true","false","true","""event"",""trial"",""time""
""fullscreenenter"",""5"",""10701""
","
","
","""event"",""trial"",""time""
""fullscreenenter"",""5"",""10701""
","
","265.5","","49","","","3000","1","","","images/earth.jpg","images/rocket2","images/rocket1","null","images/rocket1","","1","real","null","1","","",""
"d3-animate-choice","154","412000","0.0-76.0-1.6","335","4967","12","Female","true","true","false","true","""event"",""trial"",""time""
""fullscreenenter"",""5"",""10701""
","
","
","""event"",""trial"",""time""
""fullscreenenter"",""5"",""10701""
","
","463.39999985694885","","48","","","3000","1","","","images/redplanet1.jpg","images/alien2","images/alien1","images/rocket1","images/alien2","images/t.png","2","real","true","2","common","1","2022-12-05 15:19:43.534"
"two-step-fixation","155","413010","0.0-76.0-2.6","335","4967","12","Female","true","true","false","true","""event"",""trial"",""time""
""fullscreenenter"",""5"",""10701""
","
","
","""event"",""trial"",""time""
""fullscreenenter"",""5"",""10701""
","
","","images/earth.jpg","","","","","","","","","","","","","","fixation","","","","","",""
"d3-animate-choice","156","415353","0.0-76.0-0.7","335","4967","12","Female","true","true","false","true","""event"",""trial"",""time""
""fullscreenenter"",""5"",""10701""
","
","
","""event"",""trial"",""time""
""fullscreenenter"",""5"",""10701""
","
","339","","49","","","3000","1","","","images/earth.jpg","images/rocket2","images/rocket1","null","images/rocket1","","1","real","null","1","","",""
"d3-animate-choice","157","418490","0.0-76.0-1.7","335","4967","12","Female","true","true","false","true","""event"",""trial"",""time""
""fullscreenenter"",""5"",""10701""
","
","
","""event"",""trial"",""time""
""fullscreenenter"",""5"",""10701""
","
","1132.2000000476837","","49","","","3000","1","","","images/purpleplanet.jpg","images/alien4","images/alien3","images/rocket1","images/alien3","images/nothing.png","2","real","false","1","rare","0","2022-12-05 15:19:50.024"
"two-step-fixation","158","419495","0.0-76.0-2.7","335","4967","12","Female","true","true","false","true","""event"",""trial"",""time""
""fullscreenenter"",""5"",""10701""
","
","
","""event"",""trial"",""time""
""fullscreenenter"",""5"",""10701""
","
","","images/earth.jpg","","","","","","","","","","","","","","fixation","","","","","",""
"d3-animate-choice","159","421826","0.0-76.0-0.8","335","4967","12","Female","true","true","false","true","""event"",""trial"",""time""
""fullscreenenter"",""5"",""10701""
","
","
","""event"",""trial"",""time""
""fullscreenenter"",""5"",""10701""
","
","325.89999985694885","","49","","","3000","1","","","images/earth.jpg","images/rocket2","images/rocket1","null","images/rocket1","","1","real","null","1","","",""
"d3-animate-choice","160","424658","0.0-76.0-1.8","335","4967","12","Female","true","true","false","true","""event"",""trial"",""time""
""fullscreenenter"",""5"",""10701""
","
","
","""event"",""trial"",""time""
""fullscreenenter"",""5"",""10701""
","
","824.9000000953674","","48","","","3000","1","","","images/redplanet1.jpg","images/alien2","images/alien1","images/rocket1","images/alien2","images/t.png","2","real","true","2","common","1","2022-12-05 15:19:56.192"
"two-step-fixation","161","425665","0.0-76.0-2.8","335","4967","12","Female","true","true","false","true","""event"",""trial"",""time""
""fullscreenenter"",""5"",""10701""
","
","
","""event"",""trial"",""time""
""fullscreenenter"",""5"",""10701""
","
","","images/earth.jpg","","","","","","","","","","","","","","fixation","","","","","",""
"d3-animate-choice","162","427955","0.0-76.0-0.9","335","4967","12","Female","true","true","false","true","""event"",""trial"",""time""
""fullscreenenter"",""5"",""10701""
","
","
","""event"",""trial"",""time""
""fullscreenenter"",""5"",""10701""
","
","283.09999990463257","","49","","","3000","1","","","images/earth.jpg","images/rocket2","images/rocket1","null","images/rocket1","","1","real","null","1","","",""
"d3-animate-choice","163","430514","0.0-76.0-1.9","335","4967","12","Female","true","true","false","true","""event"",""trial"",""time""
""fullscreenenter"",""5"",""10701""
","
","
","""event"",""trial"",""time""
""fullscreenenter"",""5"",""10701""
","
","552.2999999523163","","48","","","3000","1","","","images/purpleplanet.jpg","images/alien4","images/alien3","images/rocket1","images/alien4","images/nothing.png","2","real","false","2","rare","0","2022-12-05 15:20:02.048"
"two-step-fixation","164","431522","0.0-76.0-2.9","335","4967","12","Female","true","true","false","true","""event"",""trial"",""time""
""fullscreenenter"",""5"",""10701""
","
","
","""event"",""trial"",""time""
""fullscreenenter"",""5"",""10701""
","
","","images/earth.jpg","","","","","","","","","","","","","","fixation","","","","","",""
"d3-animate-choice","165","433881","0.0-76.0-0.10","335","4967","12","Female","true","true","false","true","""event"",""trial"",""time""
""fullscreenenter"",""5"",""10701""
","
","
","""event"",""trial"",""time""
""fullscreenenter"",""5"",""10701""
","
","355.59999990463257","","49","","","3000","1","","","images/earth.jpg","images/rocket2","images/rocket1","null","images/rocket1","","1","real","null","1","","",""
"d3-animate-choice","166","437105","0.0-76.0-1.10","335","4967","12","Female","true","true","false","true","""event"",""trial"",""time""
""fullscreenenter"",""5"",""10701""
","
","
","""event"",""trial"",""time""
""fullscreenenter"",""5"",""10701""
","
","1212.7000000476837","","49","","","3000","1","","","images/purpleplanet.jpg","images/alien4","images/alien3","images/rocket1","images/alien3","images/nothing.png","2","real","false","1","rare","0","2022-12-05 15:20:08.640"
"two-step-fixation","167","438113","0.0-76.0-2.10","335","4967","12","Female","true","true","false","true","""event"",""trial"",""time""
""fullscreenenter"",""5"",""10701""
","
","
","""event"",""trial"",""time""
""fullscreenenter"",""5"",""10701""
","
","","images/earth.jpg","","","","","","","","","","","","","","fixation","","","","","",""
"d3-animate-choice","168","440601","0.0-76.0-0.11","335","4967","12","Female","true","true","false","true","""event"",""trial"",""time""
""fullscreenenter"",""5"",""10701""
","
","
","""event"",""trial"",""time""
""fullscreenenter"",""5"",""10701""
","
","480.2000000476837","","48","","","3000","1","","","images/earth.jpg","images/rocket2","images/rocket1","null","images/rocket2","","1","real","null","2","","",""
"d3-animate-choice","169","443386","0.0-76.0-1.11","335","4967","12","Female","true","true","false","true","""event"",""trial"",""time""
""fullscreenenter"",""5"",""10701""
","
","
","""event"",""trial"",""time""
""fullscreenenter"",""5"",""10701""
","
","779.3999998569489","","49","","","3000","1","","","images/redplanet1.jpg","images/alien2","images/alien1","images/rocket2","images/alien1","images/nothing.png","2","real","false","1","rare","0","2022-12-05 15:20:14.920"
"two-step-fixation","170","444394","0.0-76.0-2.11","335","4967","12","Female","true","true","false","true","""event"",""trial"",""time""
""fullscreenenter"",""5"",""10701""
","
","
","""event"",""trial"",""time""
""fullscreenenter"",""5"",""10701""
","
","","images/earth.jpg","","","","","","","","","","","","","","fixation","","","","","",""
"d3-animate-choice","171","446697","0.0-76.0-0.12","335","4967","12","Female","true","true","false","true","""event"",""trial"",""time""
""fullscreenenter"",""5"",""10701""
","
","
","""event"",""trial"",""time""
""fullscreenenter"",""5"",""10701""
","
","298.59999990463257","","48","","","3000","1","","","images/earth.jpg","images/rocket2","images/rocket1","null","images/rocket2","","1","real","null","2","","",""
"d3-animate-choice","172","449106","0.0-76.0-1.12","335","4967","12","Female","true","true","false","true","""event"",""trial"",""time""
""fullscreenenter"",""5"",""10701""
","
","
","""event"",""trial"",""time""
""fullscreenenter"",""5"",""10701""
","
","404.5","","48","","","3000","1","","","images/purpleplanet.jpg","images/alien4","images/alien3","images/rocket2","images/alien4","images/nothing.png","2","real","true","2","common","0","2022-12-05 15:20:20.640"
"two-step-fixation","173","450109","0.0-76.0-2.12","335","4967","12","Female","true","true","false","true","""event"",""trial"",""time""
""fullscreenenter"",""5"",""10701""
","
","
","""event"",""trial"",""time""
""fullscreenenter"",""5"",""10701""
","
","","images/earth.jpg","","","","","","","","","","","","","","fixation","","","","","",""
"d3-animate-choice","174","452457","0.0-76.0-0.13","335","4967","12","Female","true","true","false","true","""event"",""trial"",""time""
""fullscreenenter"",""5"",""10701""
","
","
","""event"",""trial"",""time""
""fullscreenenter"",""5"",""10701""
","
","342.59999990463257","","48","","","3000","1","","","images/earth.jpg","images/rocket2","images/rocket1","null","images/rocket2","","1","real","null","2","","",""
"d3-animate-choice","175","455753","0.0-76.0-1.13","335","4967","12","Female","true","true","false","true","""event"",""trial"",""time""
""fullscreenenter"",""5"",""10701""
","
","
","""event"",""trial"",""time""
""fullscreenenter"",""5"",""10701""
","
","1291.5","","49","","","3000","1","","","images/purpleplanet.jpg","images/alien4","images/alien3","images/rocket2","images/alien3","images/nothing.png","2","real","true","1","common","0","2022-12-05 15:20:27.287"
"two-step-fixation","176","456755","0.0-76.0-2.13","335","4967","12","Female","true","true","false","true","""event"",""trial"",""time""
""fullscreenenter"",""5"",""10701""
","
","
","""event"",""trial"",""time""
""fullscreenenter"",""5"",""10701""
","
","","images/earth.jpg","","","","","","","","","","","","","","fixation","","","","","",""
"d3-animate-choice","177","459034","0.0-76.0-0.14","335","4967","12","Female","true","true","false","true","""event"",""trial"",""time""
""fullscreenenter"",""5"",""10701""
","
","
","""event"",""trial"",""time""
""fullscreenenter"",""5"",""10701""
","
","272.7000000476837","","49","","","3000","1","","","images/earth.jpg","images/rocket2","images/rocket1","null","images/rocket1","","1","real","null","1","","",""
"d3-animate-choice","178","461538","0.0-76.0-1.14","335","4967","12","Female","true","true","false","true","""event"",""trial"",""time""
""fullscreenenter"",""5"",""10701""
","
","
","""event"",""trial"",""time""
""fullscreenenter"",""5"",""10701""
","
","492.09999990463257","","49","","","3000","1","","","images/purpleplanet.jpg","images/alien4","images/alien3","images/rocket1","images/alien3","images/nothing.png","2","real","false","1","rare","0","2022-12-05 15:20:33.072"
"two-step-fixation","179","462545","0.0-76.0-2.14","335","4967","12","Female","true","true","false","true","""event"",""trial"",""time""
""fullscreenenter"",""5"",""10701""
","
","
","""event"",""trial"",""time""
""fullscreenenter"",""5"",""10701""
","
","","images/earth.jpg","","","","","","","","","","","","","","fixation","","","","","",""
"d3-animate-choice","180","464817","0.0-76.0-0.15","335","4967","12","Female","true","true","false","true","""event"",""trial"",""time""
""fullscreenenter"",""5"",""10701""
","
","
","""event"",""trial"",""time""
""fullscreenenter"",""5"",""10701""
","
","264","","49","","","3000","1","","","images/earth.jpg","images/rocket2","images/rocket1","null","images/rocket1","","1","real","null","1","","",""
"d3-animate-choice","181","467432","0.0-76.0-1.15","335","4967","12","Female","true","true","false","true","""event"",""trial"",""time""
""fullscreenenter"",""5"",""10701""
","
","
","""event"",""trial"",""time""
""fullscreenenter"",""5"",""10701""
","
","605","","48","","","3000","1","","","images/redplanet1.jpg","images/alien2","images/alien1","images/rocket1","images/alien2","images/nothing.png","2","real","true","2","common","0","2022-12-05 15:20:38.966"
"two-step-fixation","182","468441","0.0-76.0-2.15","335","4967","12","Female","true","true","false","true","""event"",""trial"",""time""
""fullscreenenter"",""5"",""10701""
","
","
","""event"",""trial"",""time""
""fullscreenenter"",""5"",""10701""
","
","","images/earth.jpg","","","","","","","","","","","","","","fixation","","","","","",""
"d3-animate-choice","183","470745","0.0-76.0-0.16","335","4967","12","Female","true","true","false","true","""event"",""trial"",""time""
""fullscreenenter"",""5"",""10701""
","
","
","""event"",""trial"",""time""
""fullscreenenter"",""5"",""10701""
","
","301","","49","","","3000","1","","","images/earth.jpg","images/rocket2","images/rocket1","null","images/rocket1","","1","real","null","1","","",""
"d3-animate-choice","184","473111","0.0-76.0-1.16","335","4967","12","Female","true","true","false","true","""event"",""trial"",""time""
""fullscreenenter"",""5"",""10701""
","
","
","""event"",""trial"",""time""
""fullscreenenter"",""5"",""10701""
","
","360","","48","","","3000","1","","","images/redplanet1.jpg","images/alien2","images/alien1","images/rocket1","images/alien2","images/nothing.png","2","real","true","2","common","0","2022-12-05 15:20:44.645"
"two-step-fixation","185","474121","0.0-76.0-2.16","335","4967","12","Female","true","true","false","true","""event"",""trial"",""time""
""fullscreenenter"",""5"",""10701""
","
","
","""event"",""trial"",""time""
""fullscreenenter"",""5"",""10701""
","
","","images/earth.jpg","","","","","","","","","","","","","","fixation","","","","","",""
"d3-animate-choice","186","476409","0.0-76.0-0.17","335","4967","12","Female","true","true","false","true","""event"",""trial"",""time""
""fullscreenenter"",""5"",""10701""
","
","
","""event"",""trial"",""time""
""fullscreenenter"",""5"",""10701""
","
","283.60000014305115","","49","","","3000","1","","","images/earth.jpg","images/rocket2","images/rocket1","null","images/rocket1","","1","real","null","1","","",""
"d3-animate-choice","187","478841","0.0-76.0-1.17","335","4967","12","Female","true","true","false","true","""event"",""trial"",""time""
""fullscreenenter"",""5"",""10701""
","
","
","""event"",""trial"",""time""
""fullscreenenter"",""5"",""10701""
","
","421.2000000476837","","48","","","3000","1","","","images/redplanet1.jpg","images/alien2","images/alien1","images/rocket1","images/alien2","images/nothing.png","2","real","true","2","common","0","2022-12-05 15:20:50.376"
"two-step-fixation","188","479849","0.0-76.0-2.17","335","4967","12","Female","true","true","false","true","""event"",""trial"",""time""
""fullscreenenter"",""5"",""10701""
","
","
","""event"",""trial"",""time""
""fullscreenenter"",""5"",""10701""
","
","","images/earth.jpg","","","","","","","","","","","","","","fixation","","","","","",""
"d3-animate-choice","189","482122","0.0-76.0-0.18","335","4967","12","Female","true","true","false","true","""event"",""trial"",""time""
""fullscreenenter"",""5"",""10701""
","
","
","""event"",""trial"",""time""
""fullscreenenter"",""5"",""10701""
","
","266.7999999523163","","49","","","3000","1","","","images/earth.jpg","images/rocket2","images/rocket1","null","images/rocket1","","1","real","null","1","","",""
"d3-animate-choice","190","485073","0.0-76.0-1.18","335","4967","12","Female","true","true","false","true","""event"",""trial"",""time""
""fullscreenenter"",""5"",""10701""
","
","
","""event"",""trial"",""time""
""fullscreenenter"",""5"",""10701""
","
","947","","49","","","3000","1","","","images/purpleplanet.jpg","images/alien4","images/alien3","images/rocket1","images/alien3","images/nothing.png","2","real","false","1","rare","0","2022-12-05 15:20:56.607"
"two-step-fixation","191","486082","0.0-76.0-2.18","335","4967","12","Female","true","true","false","true","""event"",""trial"",""time""
""fullscreenenter"",""5"",""10701""
","
","
","""event"",""trial"",""time""
""fullscreenenter"",""5"",""10701""
","
","","images/earth.jpg","","","","","","","","","","","","","","fixation","","","","","",""
"d3-animate-choice","192","488442","0.0-76.0-0.19","335","4967","12","Female","true","true","false","true","""event"",""trial"",""time""
""fullscreenenter"",""5"",""10701""
","
","
","""event"",""trial"",""time""
""fullscreenenter"",""5"",""10701""
","
","353.2999999523163","","49","","","3000","1","","","images/earth.jpg","images/rocket2","images/rocket1","null","images/rocket1","","1","real","null","1","","",""
"d3-animate-choice","193","491377","0.0-76.0-1.19","335","4967","12","Female","true","true","false","true","""event"",""trial"",""time""
""fullscreenenter"",""5"",""10701""
","
","
","""event"",""trial"",""time""
""fullscreenenter"",""5"",""10701""
","
","930.5","","48","","","3000","1","","","images/redplanet1.jpg","images/alien2","images/alien1","images/rocket1","images/alien2","images/t.png","2","real","true","2","common","1","2022-12-05 15:21:02.911"
"two-step-fixation","194","492382","0.0-76.0-2.19","335","4967","12","Female","true","true","false","true","""event"",""trial"",""time""
""fullscreenenter"",""5"",""10701""
","
","
","""event"",""trial"",""time""
""fullscreenenter"",""5"",""10701""
","
","","images/earth.jpg","","","","","","","","","","","","","","fixation","","","","","",""
"d3-animate-choice","195","494753","0.0-76.0-0.20","335","4967","12","Female","true","true","false","true","""event"",""trial"",""time""
""fullscreenenter"",""5"",""10701""
","
","
","""event"",""trial"",""time""
""fullscreenenter"",""5"",""10701""
","
","365.7000000476837","","49","","","3000","1","","","images/earth.jpg","images/rocket2","images/rocket1","null","images/rocket1","","1","real","null","1","","",""
"d3-animate-choice","196","497402","0.0-76.0-1.20","335","4967","12","Female","true","true","false","true","""event"",""trial"",""time""
""fullscreenenter"",""5"",""10701""
","
","
","""event"",""trial"",""time""
""fullscreenenter"",""5"",""10701""
","
","643.2000000476837","","48","","","3000","1","","","images/purpleplanet.jpg","images/alien4","images/alien3","images/rocket1","images/alien4","images/nothing.png","2","real","false","2","rare","0","2022-12-05 15:21:08.936"
"two-step-fixation","197","498410","0.0-76.0-2.20","335","4967","12","Female","true","true","false","true","""event"",""trial"",""time""
""fullscreenenter"",""5"",""10701""
","
","
","""event"",""trial"",""time""
""fullscreenenter"",""5"",""10701""
","
","","images/earth.jpg","","","","","","","","","","","","","","fixation","","","","","",""
"d3-animate-choice","198","500801","0.0-76.0-0.21","335","4967","12","Female","true","true","false","true","""event"",""trial"",""time""
""fullscreenenter"",""5"",""10701""
","
","
","""event"",""trial"",""time""
""fullscreenenter"",""5"",""10701""
","
","386.60000014305115","","49","","","3000","1","","","images/earth.jpg","images/rocket2","images/rocket1","null","images/rocket1","","1","real","null","1","","",""
"d3-animate-choice","199","503610","0.0-76.0-1.21","335","4967","12","Female","true","true","false","true","""event"",""trial"",""time""
""fullscreenenter"",""5"",""10701""
","
","
","""event"",""trial"",""time""
""fullscreenenter"",""5"",""10701""
","
","803.5","","48","","","3000","1","","","images/redplanet1.jpg","images/alien2","images/alien1","images/rocket1","images/alien2","images/nothing.png","2","real","true","2","common","0","2022-12-05 15:21:15.144"
"two-step-fixation","200","504618","0.0-76.0-2.21","335","4967","12","Female","true","true","false","true","""event"",""trial"",""time""
""fullscreenenter"",""5"",""10701""
","
","
","""event"",""trial"",""time""
""fullscreenenter"",""5"",""10701""
","
","","images/earth.jpg","","","","","","","","","","","","","","fixation","","","","","",""
"d3-animate-choice","201","506931","0.0-76.0-0.22","335","4967","12","Female","true","true","false","true","""event"",""trial"",""time""
""fullscreenenter"",""5"",""10701""
","
","
","""event"",""trial"",""time""
""fullscreenenter"",""5"",""10701""
","
","306.2999999523163","","49","","","3000","1","","","images/earth.jpg","images/rocket2","images/rocket1","null","images/rocket1","","1","real","null","1","","",""
"d3-animate-choice","202","509498","0.0-76.0-1.22","335","4967","12","Female","true","true","false","true","""event"",""trial"",""time""
""fullscreenenter"",""5"",""10701""
","
","
","""event"",""trial"",""time""
""fullscreenenter"",""5"",""10701""
","
","562","","48","","","3000","1","","","images/redplanet1.jpg","images/alien2","images/alien1","images/rocket1","images/alien2","images/t.png","2","real","true","2","common","1","2022-12-05 15:21:21.032"
"two-step-fixation","203","510505","0.0-76.0-2.22","335","4967","12","Female","true","true","false","true","""event"",""trial"",""time""
""fullscreenenter"",""5"",""10701""
","
","
","""event"",""trial"",""time""
""fullscreenenter"",""5"",""10701""
","
","","images/earth.jpg","","","","","","","","","","","","","","fixation","","","","","",""
"d3-animate-choice","204","512841","0.0-76.0-0.23","335","4967","12","Female","true","true","false","true","""event"",""trial"",""time""
""fullscreenenter"",""5"",""10701""
","
","
","""event"",""trial"",""time""
""fullscreenenter"",""5"",""10701""
","
","332.2000000476837","","49","","","3000","1","","","images/earth.jpg","images/rocket2","images/rocket1","null","images/rocket1","","1","real","null","1","","",""
"d3-animate-choice","205","515402","0.0-76.0-1.23","335","4967","12","Female","true","true","false","true","""event"",""trial"",""time""
""fullscreenenter"",""5"",""10701""
","
","
","""event"",""trial"",""time""
""fullscreenenter"",""5"",""10701""
","
","556.5999999046326","","48","","","3000","1","","","images/redplanet1.jpg","images/alien2","images/alien1","images/rocket1","images/alien2","images/t.png","2","real","true","2","common","1","2022-12-05 15:21:26.936"
"two-step-fixation","206","516410","0.0-76.0-2.23","335","4967","12","Female","true","true","false","true","""event"",""trial"",""time""
""fullscreenenter"",""5"",""10701""
","
","
","""event"",""trial"",""time""
""fullscreenenter"",""5"",""10701""
","
","","images/earth.jpg","","","","","","","","","","","","","","fixation","","","","","",""
"d3-animate-choice","207","518698","0.0-76.0-0.24","335","4967","12","Female","true","true","false","true","""event"",""trial"",""time""
""fullscreenenter"",""5"",""10701""
","
","
","""event"",""trial"",""time""
""fullscreenenter"",""5"",""10701""
","
","280.7000000476837","","49","","","3000","1","","","images/earth.jpg","images/rocket2","images/rocket1","null","images/rocket1","","1","real","null","1","","",""
"d3-animate-choice","208","521170","0.0-76.0-1.24","335","4967","12","Female","true","true","false","true","""event"",""trial"",""time""
""fullscreenenter"",""5"",""10701""
","
","
","""event"",""trial"",""time""
""fullscreenenter"",""5"",""10701""
","
","467.2999999523163","","48","","","3000","1","","","images/redplanet1.jpg","images/alien2","images/alien1","images/rocket1","images/alien2","images/t.png","2","real","true","2","common","1","2022-12-05 15:21:32.705"
"two-step-fixation","209","522179","0.0-76.0-2.24","335","4967","12","Female","true","true","false","true","""event"",""trial"",""time""
""fullscreenenter"",""5"",""10701""
","
","
","""event"",""trial"",""time""
""fullscreenenter"",""5"",""10701""
","
","","images/earth.jpg","","","","","","","","","","","","","","fixation","","","","","",""
"d3-animate-choice","210","524425","0.0-76.0-0.25","335","4967","12","Female","true","true","false","true","""event"",""trial"",""time""
""fullscreenenter"",""5"",""10701""
","
","
","""event"",""trial"",""time""
""fullscreenenter"",""5"",""10701""
","
","242.59999990463257","","49","","","3000","1","","","images/earth.jpg","images/rocket2","images/rocket1","null","images/rocket1","","1","real","null","1","","",""
"d3-animate-choice","211","526953","0.0-76.0-1.25","335","4967","12","Female","true","true","false","true","""event"",""trial"",""time""
""fullscreenenter"",""5"",""10701""
","
","
","""event"",""trial"",""time""
""fullscreenenter"",""5"",""10701""
","
","523.2999999523163","","48","","","3000","1","","","images/redplanet1.jpg","images/alien2","images/alien1","images/rocket1","images/alien2","images/nothing.png","2","real","true","2","common","0","2022-12-05 15:21:38.487"
"two-step-fixation","212","527963","0.0-76.0-2.25","335","4967","12","Female","true","true","false","true","""event"",""trial"",""time""
""fullscreenenter"",""5"",""10701""
","
","
","""event"",""trial"",""time""
""fullscreenenter"",""5"",""10701""
","
","","images/earth.jpg","","","","","","","","","","","","","","fixation","","","","","",""
"d3-animate-choice","213","530250","0.0-76.0-0.26","335","4967","12","Female","true","true","false","true","""event"",""trial"",""time""
""fullscreenenter"",""5"",""10701""
","
","
","""event"",""trial"",""time""
""fullscreenenter"",""5"",""10701""
","
","281.39999985694885","","49","","","3000","1","","","images/earth.jpg","images/rocket2","images/rocket1","null","images/rocket1","","1","real","null","1","","",""
"d3-animate-choice","214","532818","0.0-76.0-1.26","335","4967","12","Female","true","true","false","true","""event"",""trial"",""time""
""fullscreenenter"",""5"",""10701""
","
","
","""event"",""trial"",""time""
""fullscreenenter"",""5"",""10701""
","
","563.1000001430511","","48","","","3000","1","","","images/redplanet1.jpg","images/alien2","images/alien1","images/rocket1","images/alien2","images/t.png","2","real","true","2","common","1","2022-12-05 15:21:44.352"
"two-step-fixation","215","533826","0.0-76.0-2.26","335","4967","12","Female","true","true","false","true","""event"",""trial"",""time""
""fullscreenenter"",""5"",""10701""
","
","
","""event"",""trial"",""time""
""fullscreenenter"",""5"",""10701""
","
","","images/earth.jpg","","","","","","","","","","","","","","fixation","","","","","",""
"d3-animate-choice","216","536122","0.0-76.0-0.27","335","4967","12","Female","true","true","false","true","""event"",""trial"",""time""
""fullscreenenter"",""5"",""10701""
","
","
","""event"",""trial"",""time""
""fullscreenenter"",""5"",""10701""
","
","288","","49","","","3000","1","","","images/earth.jpg","images/rocket2","images/rocket1","null","images/rocket1","","1","real","null","1","","",""
"d3-animate-choice","217","538553","0.0-76.0-1.27","335","4967","12","Female","true","true","false","true","""event"",""trial"",""time""
""fullscreenenter"",""5"",""10701""
","
","
","""event"",""trial"",""time""
""fullscreenenter"",""5"",""10701""
","
","427.09999990463257","","48","","","3000","1","","","images/redplanet1.jpg","images/alien2","images/alien1","images/rocket1","images/alien2","images/nothing.png","2","real","true","2","common","0","2022-12-05 15:21:50.087"
"two-step-fixation","218","539561","0.0-76.0-2.27","335","4967","12","Female","true","true","false","true","""event"",""trial"",""time""
""fullscreenenter"",""5"",""10701""
","
","
","""event"",""trial"",""time""
""fullscreenenter"",""5"",""10701""
","
","","images/earth.jpg","","","","","","","","","","","","","","fixation","","","","","",""
"d3-animate-choice","219","541885","0.0-76.0-0.28","335","4967","12","Female","true","true","false","true","""event"",""trial"",""time""
""fullscreenenter"",""5"",""10701""
","
","
","""event"",""trial"",""time""
""fullscreenenter"",""5"",""10701""
","
","317","","49","","","3000","1","","","images/earth.jpg","images/rocket2","images/rocket1","null","images/rocket1","","1","real","null","1","","",""
"d3-animate-choice","220","544858","0.0-76.0-1.28","335","4967","12","Female","true","true","false","true","""event"",""trial"",""time""
""fullscreenenter"",""5"",""10701""
","
","
","""event"",""trial"",""time""
""fullscreenenter"",""5"",""10701""
","
","959.0999999046326","","49","","","3000","1","","","images/purpleplanet.jpg","images/alien4","images/alien3","images/rocket1","images/alien3","images/nothing.png","2","real","false","1","rare","0","2022-12-05 15:21:56.392"
"two-step-fixation","221","545867","0.0-76.0-2.28","335","4967","12","Female","true","true","false","true","""event"",""trial"",""time""
""fullscreenenter"",""5"",""10701""
","
","
","""event"",""trial"",""time""
""fullscreenenter"",""5"",""10701""
","
","","images/earth.jpg","","","","","","","","","","","","","","fixation","","","","","",""
"d3-animate-choice","222","548209","0.0-76.0-0.29","335","4967","12","Female","true","true","false","true","""event"",""trial"",""time""
""fullscreenenter"",""5"",""10701""
","
","
","""event"",""trial"",""time""
""fullscreenenter"",""5"",""10701""
","
","334.7999999523163","","49","","","3000","1","","","images/earth.jpg","images/rocket2","images/rocket1","null","images/rocket1","","1","real","null","1","","",""
"d3-animate-choice","223","550786","0.0-76.0-1.29","335","4967","12","Female","true","true","false","true","""event"",""trial"",""time""
""fullscreenenter"",""5"",""10701""
","
","
","""event"",""trial"",""time""
""fullscreenenter"",""5"",""10701""
","
","571.6000001430511","","48","","","3000","1","","","images/redplanet1.jpg","images/alien2","images/alien1","images/rocket1","images/alien2","images/t.png","2","real","true","2","common","1","2022-12-05 15:22:02.320"
"two-step-fixation","224","551794","0.0-76.0-2.29","335","4967","12","Female","true","true","false","true","""event"",""trial"",""time""
""fullscreenenter"",""5"",""10701""
","
","
","""event"",""trial"",""time""
""fullscreenenter"",""5"",""10701""
","
","","images/earth.jpg","","","","","","","","","","","","","","fixation","","","","","",""
"d3-animate-choice","225","554154","0.0-76.0-0.30","335","4967","12","Female","true","true","false","true","""event"",""trial"",""time""
""fullscreenenter"",""5"",""10701""
","
","
","""event"",""trial"",""time""
""fullscreenenter"",""5"",""10701""
","
","348.09999990463257","","49","","","3000","1","","","images/earth.jpg","images/rocket2","images/rocket1","null","images/rocket1","","1","real","null","1","","",""
"d3-animate-choice","226","556698","0.0-76.0-1.30","335","4967","12","Female","true","true","false","true","""event"",""trial"",""time""
""fullscreenenter"",""5"",""10701""
","
","
","""event"",""trial"",""time""
""fullscreenenter"",""5"",""10701""
","
","537","","48","","","3000","1","","","images/purpleplanet.jpg","images/alien4","images/alien3","images/rocket1","images/alien4","images/nothing.png","2","real","false","2","rare","0","2022-12-05 15:22:08.232"
"two-step-fixation","227","557706","0.0-76.0-2.30","335","4967","12","Female","true","true","false","true","""event"",""trial"",""time""
""fullscreenenter"",""5"",""10701""
","
","
","""event"",""trial"",""time""
""fullscreenenter"",""5"",""10701""
","
","","images/earth.jpg","","","","","","","","","","","","","","fixation","","","","","",""
"d3-animate-choice","228","559986","0.0-76.0-0.31","335","4967","12","Female","true","true","false","true","""event"",""trial"",""time""
""fullscreenenter"",""5"",""10701""
","
","
","""event"",""trial"",""time""
""fullscreenenter"",""5"",""10701""
","
","274.10000014305115","","49","","","3000","1","","","images/earth.jpg","images/rocket2","images/rocket1","null","images/rocket1","","1","real","null","1","","",""
"d3-animate-choice","229","562609","0.0-76.0-1.31","335","4967","12","Female","true","true","false","true","""event"",""trial"",""time""
""fullscreenenter"",""5"",""10701""
","
","
","""event"",""trial"",""time""
""fullscreenenter"",""5"",""10701""
","
","618","","48","","","3000","1","","","images/purpleplanet.jpg","images/alien4","images/alien3","images/rocket1","images/alien4","images/nothing.png","2","real","false","2","rare","0","2022-12-05 15:22:14.143"
"two-step-fixation","230","563617","0.0-76.0-2.31","335","4967","12","Female","true","true","false","true","""event"",""trial"",""time""
""fullscreenenter"",""5"",""10701""
","
","
","""event"",""trial"",""time""
""fullscreenenter"",""5"",""10701""
","
","","images/earth.jpg","","","","","","","","","","","","","","fixation","","","","","",""
"d3-animate-choice","231","565994","0.0-76.0-0.32","335","4967","12","Female","true","true","false","true","""event"",""trial"",""time""
""fullscreenenter"",""5"",""10701""
","
","
","""event"",""trial"",""time""
""fullscreenenter"",""5"",""10701""
","
","370.90000009536743","","49","","","3000","1","","","images/earth.jpg","images/rocket2","images/rocket1","null","images/rocket1","","1","real","null","1","","",""
"d3-animate-choice","232","568899","0.0-76.0-1.32","335","4967","12","Female","true","true","false","true","""event"",""trial"",""time""
""fullscreenenter"",""5"",""10701""
","
","
","""event"",""trial"",""time""
""fullscreenenter"",""5"",""10701""
","
","898.3999998569489","","48","","","3000","1","","","images/purpleplanet.jpg","images/alien4","images/alien3","images/rocket1","images/alien4","images/t.png","2","real","false","2","rare","1","2022-12-05 15:22:20.433"
"two-step-fixation","233","569905","0.0-76.0-2.32","335","4967","12","Female","true","true","false","true","""event"",""trial"",""time""
""fullscreenenter"",""5"",""10701""
","
","
","""event"",""trial"",""time""
""fullscreenenter"",""5"",""10701""
","
","","images/earth.jpg","","","","","","","","","","","","","","fixation","","","","","",""
"d3-animate-choice","234","572250","0.0-76.0-0.33","335","4967","12","Female","true","true","false","true","""event"",""trial"",""time""
""fullscreenenter"",""5"",""10701""
","
","
","""event"",""trial"",""time""
""fullscreenenter"",""5"",""10701""
","
","339.09999990463257","","49","","","3000","1","","","images/earth.jpg","images/rocket2","images/rocket1","null","images/rocket1","","1","real","null","1","","",""
"d3-animate-choice","235","574849","0.0-76.0-1.33","335","4967","12","Female","true","true","false","true","""event"",""trial"",""time""
""fullscreenenter"",""5"",""10701""
","
","
","""event"",""trial"",""time""
""fullscreenenter"",""5"",""10701""
","
","594","","48","","","3000","1","","","images/redplanet1.jpg","images/alien2","images/alien1","images/rocket1","images/alien2","images/t.png","2","real","true","2","common","1","2022-12-05 15:22:26.383"
"two-step-fixation","236","575858","0.0-76.0-2.33","335","4967","12","Female","true","true","false","true","""event"",""trial"",""time""
""fullscreenenter"",""5"",""10701""
","
","
","""event"",""trial"",""time""
""fullscreenenter"",""5"",""10701""
","
","","images/earth.jpg","","","","","","","","","","","","","","fixation","","","","","",""
"d3-animate-choice","237","578161","0.0-76.0-0.34","335","4967","12","Female","true","true","false","true","""event"",""trial"",""time""
""fullscreenenter"",""5"",""10701""
","
","
","""event"",""trial"",""time""
""fullscreenenter"",""5"",""10701""
","
","298.60000014305115","","49","","","3000","1","","","images/earth.jpg","images/rocket2","images/rocket1","null","images/rocket1","","1","real","null","1","","",""
"d3-animate-choice","238","580690","0.0-76.0-1.34","335","4967","12","Female","true","true","false","true","""event"",""trial"",""time""
""fullscreenenter"",""5"",""10701""
","
","
","""event"",""trial"",""time""
""fullscreenenter"",""5"",""10701""
","
","517.2000000476837","","48","","","3000","1","","","images/redplanet1.jpg","images/alien2","images/alien1","images/rocket1","images/alien2","images/nothing.png","2","real","true","2","common","0","2022-12-05 15:22:32.224"
"two-step-fixation","239","581697","0.0-76.0-2.34","335","4967","12","Female","true","true","false","true","""event"",""trial"",""time""
""fullscreenenter"",""5"",""10701""
","
","
","""event"",""trial"",""time""
""fullscreenenter"",""5"",""10701""
","
","","images/earth.jpg","","","","","","","","","","","","","","fixation","","","","","",""
"d3-animate-choice","240","584007","0.0-76.0-0.35","335","4967","12","Female","true","true","false","true","""event"",""trial"",""time""
""fullscreenenter"",""5"",""10701""
","
","
","""event"",""trial"",""time""
""fullscreenenter"",""5"",""10701""
","
","304.2999999523163","","49","","","3000","1","","","images/earth.jpg","images/rocket2","images/rocket1","null","images/rocket1","","1","real","null","1","","",""
"d3-animate-choice","241","586450","0.0-76.0-1.35","335","4967","12","Female","true","true","false","true","""event"",""trial"",""time""
""fullscreenenter"",""5"",""10701""
","
","
","""event"",""trial"",""time""
""fullscreenenter"",""5"",""10701""
","
","436.90000009536743","","48","","","3000","1","","","images/purpleplanet.jpg","images/alien4","images/alien3","images/rocket1","images/alien4","images/t.png","2","real","false","2","rare","1","2022-12-05 15:22:37.984"
"two-step-fixation","242","587455","0.0-76.0-2.35","335","4967","12","Female","true","true","false","true","""event"",""trial"",""time""
""fullscreenenter"",""5"",""10701""
","
","
","""event"",""trial"",""time""
""fullscreenenter"",""5"",""10701""
","
","","images/earth.jpg","","","","","","","","","","","","","","fixation","","","","","",""
"d3-animate-choice","243","589754","0.0-76.0-0.36","335","4967","12","Female","true","true","false","true","""event"",""trial"",""time""
""fullscreenenter"",""5"",""10701""
","
","
","""event"",""trial"",""time""
""fullscreenenter"",""5"",""10701""
","
","295.09999990463257","","49","","","3000","1","","","images/earth.jpg","images/rocket2","images/rocket1","null","images/rocket1","","1","real","null","1","","",""
"d3-animate-choice","244","592335","0.0-76.0-1.36","335","4967","12","Female","true","true","false","true","""event"",""trial"",""time""
""fullscreenenter"",""5"",""10701""
","
","
","""event"",""trial"",""time""
""fullscreenenter"",""5"",""10701""
","
","576.3000001907349","","48","","","3000","1","","","images/redplanet1.jpg","images/alien2","images/alien1","images/rocket1","images/alien2","images/t.png","2","real","true","2","common","1","2022-12-05 15:22:43.870"
"two-step-fixation","245","593345","0.0-76.0-2.36","335","4967","12","Female","true","true","false","true","""event"",""trial"",""time""
""fullscreenenter"",""5"",""10701""
","
","
","""event"",""trial"",""time""
""fullscreenenter"",""5"",""10701""
","
","","images/earth.jpg","","","","","","","","","","","","","","fixation","","","","","",""
"d3-animate-choice","246","595985","0.0-76.0-0.37","335","4967","12","Female","true","true","false","true","""event"",""trial"",""time""
""fullscreenenter"",""5"",""10701""
","
","
","""event"",""trial"",""time""
