"trial_type","trial_index","time_elapsed","internal_node_id","participant_id","subject_id","age","gender","rocket_sides","red_planet_first_rocket","red_display_order","purple_display_order","interactions","blur_events","focus_events","fullscreenenter_events","fullscreenexit_events","rt","stimulus","key_press","button_pressed","success","duration","valid_pressed","rts","keys","planet_text","right_text","left_text","center_text","chosen_text","reward_text","trial_stage","practice_trial","transition_type","choice","transition","reward","timestamp"
"pavlovia","0","5","0.0-0.0","2144","2182","14","Female","true","true","false","true","
","
","
","
","
","","","","","","","","","","","","","","","","","","","","","",""
"html-keyboard-response","1","1549","0.0-1.0","2144","2182","14","Female","true","true","false","true","
","
","
","
","
","1543.0999999642372","Welcome! Press the space bar to begin.","32","","","","","","","","","","","","","","","","","","",""
"audio-keyboard-response","2","4573","0.0-2.0","2144","2182","14","Female","true","true","false","true","
","
","
","
","
","3021","audio/beep_loop.wav","32","","","","","","","","","","","","","","","","","","",""
"audio-button-response","3","7338","0.0-3.0","2144","2182","14","Female","true","true","false","true","
","
","
","
","
","NaN","audio/fish.mp3","","1","","","","","","","","","","","","","","","","","",""
"audio-button-response","4","9887","0.0-4.0","2144","2182","14","Female","true","true","false","true","""event"",""trial"",""time""
""fullscreenenter"",""5"",""13620""
","
","
","""event"",""trial"",""time""
""fullscreenenter"",""5"",""13620""
","
","NaN","audio/tiger.mp3","","4","","","","","","","","","","","","","","","","","",""
"fullscreen","5","14611","0.0-5.0","2144","2182","14","Female","true","true","false","true","""event"",""trial"",""time""
""fullscreenenter"",""5"",""13620""
","
","
","""event"",""trial"",""time""
""fullscreenenter"",""5"",""13620""
","
","","","","","true","","","","","","","","","","","","","","","","",""
"d3-instructions","6","41641","0.0-6.0","2144","2182","14","Female","true","true","false","true","""event"",""trial"",""time""
""fullscreenenter"",""5"",""13620""
","
","
","""event"",""trial"",""time""
""fullscreenenter"",""5"",""13620""
","
","","","","","","","","","","","","","","","","","","","","","",""
"d3-instructions","7","56772","0.0-7.0","2144","2182","14","Female","true","true","false","true","""event"",""trial"",""time""
""fullscreenenter"",""5"",""13620""
","
","
","""event"",""trial"",""time""
""fullscreenenter"",""5"",""13620""
","
","","","","","","","","","","","","","","","","","","","","","",""
"d3-instructions","8","64602","0.0-8.0","2144","2182","14","Female","true","true","false","true","""event"",""trial"",""time""
""fullscreenenter"",""5"",""13620""
","
","
","""event"",""trial"",""time""
""fullscreenenter"",""5"",""13620""
","
","","","","","","","","","","","","","","","","","","","","","",""
"d3-instructions","9","76542","0.0-9.0","2144","2182","14","Female","true","true","false","true","""event"",""trial"",""time""
""fullscreenenter"",""5"",""13620""
","
","
","""event"",""trial"",""time""
""fullscreenenter"",""5"",""13620""
","
","","","","","","","","","","","","","","","","","","","","","",""
"d3-instructions","10","98318","0.0-10.0","2144","2182","14","Female","true","true","false","true","""event"",""trial"",""time""
""fullscreenenter"",""5"",""13620""
","
","
","""event"",""trial"",""time""
""fullscreenenter"",""5"",""13620""
","
","","","","","","","","","","","","","","","","","","","","","",""
"d3-animate-choice","11","101409","0.0-11.0","2144","2182","14","Female","true","true","false","true","""event"",""trial"",""time""
""fullscreenenter"",""5"",""13620""
","
","
","""event"",""trial"",""time""
""fullscreenenter"",""5"",""13620""
","
","1066.5999999642372","","48","","","3000","1","","","images/tutgreenplanet.jpg","images/tutalien1","images/tutalien2","null","images/tutalien1","","NA","practice","null","","","",""
"d3-animate-choice","12","104688","0.0-12.0","2144","2182","14","Female","true","true","false","true","""event"",""trial"",""time""
""fullscreenenter"",""5"",""13620""
","
","
","""event"",""trial"",""time""
""fullscreenenter"",""5"",""13620""
","
","1265","","49","","","3000","1","","","images/tutgreenplanet.jpg","images/tutalien1","images/tutalien2","null","images/tutalien2","","NA","practice","null","","","",""
"d3-animate-choice","13","107829","0.0-13.0","2144","2182","14","Female","true","true","false","true","""event"",""trial"",""time""
""fullscreenenter"",""5"",""13620""
","
","
","""event"",""trial"",""time""
""fullscreenenter"",""5"",""13620""
","
","1132.9000000357628","","48","","","3000","1","","","images/tutgreenplanet.jpg","images/tutalien1","images/tutalien2","null","images/tutalien1","","NA","practice","null","","","",""
"d3-animate-choice","14","110159","0.0-14.0","2144","2182","14","Female","true","true","false","true","""event"",""trial"",""time""
""fullscreenenter"",""5"",""13620""
","
","
","""event"",""trial"",""time""
""fullscreenenter"",""5"",""13620""
","
","323.80000001192093","","49","","","3000","1","","","images/tutgreenplanet.jpg","images/tutalien1","images/tutalien2","null","images/tutalien2","","NA","practice","null","","","",""
"d3-instructions","15","117981","0.0-15.0","2144","2182","14","Female","true","true","false","true","""event"",""trial"",""time""
""fullscreenenter"",""5"",""13620""
","
","
","""event"",""trial"",""time""
""fullscreenenter"",""5"",""13620""
","
","","","","","","","","","","","","","","","","","","","","","",""
"d3-instructions","16","124274","0.0-16.0","2144","2182","14","Female","true","true","false","true","""event"",""trial"",""time""
""fullscreenenter"",""5"",""13620""
","
","
","""event"",""trial"",""time""
""fullscreenenter"",""5"",""13620""
","
","","","","","","","","","","","","","","","","","","","","","",""
"d3-instructions","17","133680","0.0-17.0","2144","2182","14","Female","true","true","false","true","""event"",""trial"",""time""
""fullscreenenter"",""5"",""13620""
","
","
","""event"",""trial"",""time""
""fullscreenenter"",""5"",""13620""
","
","","","","","","","","","","","","","","","","","","","","","",""
"d3-instructions","18","140420","0.0-18.0","2144","2182","14","Female","true","true","false","true","""event"",""trial"",""time""
""fullscreenenter"",""5"",""13620""
","
","
","""event"",""trial"",""time""
""fullscreenenter"",""5"",""13620""
","
","","","","","","","","","","","","","","","","","","","","","",""
"d3-instructions","19","154481","0.0-19.0","2144","2182","14","Female","true","true","false","true","""event"",""trial"",""time""
""fullscreenenter"",""5"",""13620""
","
","
","""event"",""trial"",""time""
""fullscreenenter"",""5"",""13620""
","
","","","","","","","","","","","","","","","","","","","","","",""
"d3-animate-choice","20","157709","0.0-20.0","2144","2182","14","Female","true","true","false","true","""event"",""trial"",""time""
""fullscreenenter"",""5"",""13620""
","
","
","""event"",""trial"",""time""
""fullscreenenter"",""5"",""13620""
","
","1219.800000011921","","49","","","3000","1","","","images/tutyellowplanet.jpg","null","images/tutalien3","null","images/tutalien3","images/t.png","NA","practice","null","","","",""
"d3-animate-choice","21","160157","0.0-21.0","2144","2182","14","Female","true","true","false","true","""event"",""trial"",""time""
""fullscreenenter"",""5"",""13620""
","
","
","""event"",""trial"",""time""
""fullscreenenter"",""5"",""13620""
","
","426.60000002384186","","49","","","3000","1","1869.6000000238419","49","images/tutyellowplanet.jpg","null","images/tutalien3","null","images/tutalien3","images/t.png","NA","practice","null","","","",""
"d3-animate-choice","22","162447","0.0-22.0","2144","2182","14","Female","true","true","false","true","""event"",""trial"",""time""
""fullscreenenter"",""5"",""13620""
","
","
","""event"",""trial"",""time""
""fullscreenenter"",""5"",""13620""
","
","282.30000001192093","","49","","","3000","1","","","images/tutyellowplanet.jpg","null","images/tutalien3","null","images/tutalien3","images/t.png","NA","practice","null","","","",""
"d3-animate-choice","23","164683","0.0-23.0","2144","2182","14","Female","true","true","false","true","""event"",""trial"",""time""
""fullscreenenter"",""5"",""13620""
","
","
","""event"",""trial"",""time""
""fullscreenenter"",""5"",""13620""
","
","224.9000000357628","","49","","","3000","1","","","images/tutyellowplanet.jpg","null","images/tutalien3","null","images/tutalien3","images/nothing.png","NA","practice","null","","","",""
"d3-animate-choice","24","166968","0.0-24.0","2144","2182","14","Female","true","true","false","true","""event"",""trial"",""time""
""fullscreenenter"",""5"",""13620""
","
","
","""event"",""trial"",""time""
""fullscreenenter"",""5"",""13620""
","
","279.60000002384186","","49","","","3000","1","","","images/tutyellowplanet.jpg","null","images/tutalien3","null","images/tutalien3","images/t.png","NA","practice","null","","","",""
"d3-animate-choice","25","169257","0.0-25.0","2144","2182","14","Female","true","true","false","true","""event"",""trial"",""time""
""fullscreenenter"",""5"",""13620""
","
","
","""event"",""trial"",""time""
""fullscreenenter"",""5"",""13620""
","
","271.80000001192093","","49","","","3000","1","1694.6000000238419","49","images/tutyellowplanet.jpg","null","images/tutalien3","null","images/tutalien3","images/t.png","NA","practice","null","","","",""
"d3-animate-choice","26","171497","0.0-26.0","2144","2182","14","Female","true","true","false","true","""event"",""trial"",""time""
""fullscreenenter"",""5"",""13620""
","
","
","""event"",""trial"",""time""
""fullscreenenter"",""5"",""13620""
","
","220","","49","","","3000","1","","","images/tutyellowplanet.jpg","null","images/tutalien3","null","images/tutalien3","images/t.png","NA","practice","null","","","",""
"d3-animate-choice","27","173767","0.0-27.0","2144","2182","14","Female","true","true","false","true","""event"",""trial"",""time""
""fullscreenenter"",""5"",""13620""
","
","
","""event"",""trial"",""time""
""fullscreenenter"",""5"",""13620""
","
","253","","49","","","3000","1","","","images/tutyellowplanet.jpg","null","images/tutalien3","null","images/tutalien3","images/t.png","NA","practice","null","","","",""
"d3-animate-choice","28","176017","0.0-28.0","2144","2182","14","Female","true","true","false","true","""event"",""trial"",""time""
""fullscreenenter"",""5"",""13620""
","
","
","""event"",""trial"",""time""
""fullscreenenter"",""5"",""13620""
","
","243.10000002384186","","49","","","3000","1","","","images/tutyellowplanet.jpg","null","images/tutalien3","null","images/tutalien3","images/nothing.png","NA","practice","null","","","",""
"d3-animate-choice","29","178367","0.0-29.0","2144","2182","14","Female","true","true","false","true","""event"",""trial"",""time""
""fullscreenenter"",""5"",""13620""
","
","
","""event"",""trial"",""time""
""fullscreenenter"",""5"",""13620""
","
","338","","49","","","3000","1","","","images/tutyellowplanet.jpg","null","images/tutalien3","null","images/tutalien3","images/t.png","NA","practice","null","","","",""
"d3-instructions","30","187760","0.0-30.0","2144","2182","14","Female","true","true","false","true","""event"",""trial"",""time""
""fullscreenenter"",""5"",""13620""
","
","
","""event"",""trial"",""time""
""fullscreenenter"",""5"",""13620""
","
","","","","","","","","","","","","","","","","","","","","","",""
"d3-instructions","31","200777","0.0-31.0","2144","2182","14","Female","true","true","false","true","""event"",""trial"",""time""
""fullscreenenter"",""5"",""13620""
","
","
","""event"",""trial"",""time""
""fullscreenenter"",""5"",""13620""
","
","","","","","","","","","","","","","","","","","","","","","",""
"d3-instructions","32","210603","0.0-32.0","2144","2182","14","Female","true","true","false","true","""event"",""trial"",""time""
""fullscreenenter"",""5"",""13620""
","
","
","""event"",""trial"",""time""
""fullscreenenter"",""5"",""13620""
","
","","","","","","","","","","","","","","","","","","","","","",""
"d3-instructions","33","219384","0.0-33.0","2144","2182","14","Female","true","true","false","true","""event"",""trial"",""time""
""fullscreenenter"",""5"",""13620""
","
","
","""event"",""trial"",""time""
""fullscreenenter"",""5"",""13620""
","
","","","","","","","","","","","","","","","","","","","","","",""
"d3-animate-choice","34","222758","0.0-34.0","2144","2182","14","Female","true","true","false","true","""event"",""trial"",""time""
""fullscreenenter"",""5"",""13620""
","
","
","""event"",""trial"",""time""
""fullscreenenter"",""5"",""13620""
","
","1357.800000011921","","49","","","3000","1","","","images/tutgreenplanet.jpg","images/tutalien1","images/tutalien2","null","images/tutalien2","images/t.png","NA","practice","null","","","",""
"d3-animate-choice","35","226317","0.0-35.0","2144","2182","14","Female","true","true","false","true","""event"",""trial"",""time""
""fullscreenenter"",""5"",""13620""
","
","
","""event"",""trial"",""time""
""fullscreenenter"",""5"",""13620""
","
","1539.199999988079","","49","","","3000","1","","","images/tutgreenplanet.jpg","images/tutalien1","images/tutalien2","null","images/tutalien2","images/t.png","NA","practice","null","","","",""
"d3-animate-choice","36","228622","0.0-36.0","2144","2182","14","Female","true","true","false","true","""event"",""trial"",""time""
""fullscreenenter"",""5"",""13620""
","
","
","""event"",""trial"",""time""
""fullscreenenter"",""5"",""13620""
","
","287.4000000357628","","49","","","3000","1","1707.800000011921","49","images/tutgreenplanet.jpg","images/tutalien1","images/tutalien2","null","images/tutalien2","images/t.png","NA","practice","null","","","",""
"d3-animate-choice","37","230988","0.0-37.0","2144","2182","14","Female","true","true","false","true","""event"",""trial"",""time""
""fullscreenenter"",""5"",""13620""
","
","
","""event"",""trial"",""time""
""fullscreenenter"",""5"",""13620""
","
","362.5","","49","","","3000","1","","","images/tutgreenplanet.jpg","images/tutalien1","images/tutalien2","null","images/tutalien2","images/t.png","NA","practice","null","","","",""
"d3-animate-choice","38","233446","0.0-38.0","2144","2182","14","Female","true","true","false","true","""event"",""trial"",""time""
""fullscreenenter"",""5"",""13620""
","
","
","""event"",""trial"",""time""
""fullscreenenter"",""5"",""13620""
","
","454.9000000357628","","49","","","3000","1","","","images/tutgreenplanet.jpg","images/tutalien1","images/tutalien2","null","images/tutalien2","images/t.png","NA","practice","null","","","",""
"d3-animate-choice","39","235758","0.0-39.0","2144","2182","14","Female","true","true","false","true","""event"",""trial"",""time""
""fullscreenenter"",""5"",""13620""
","
","
","""event"",""trial"",""time""
""fullscreenenter"",""5"",""13620""
","
","300.89999997615814","","49","","","3000","1","","","images/tutgreenplanet.jpg","images/tutalien1","images/tutalien2","null","images/tutalien2","images/t.png","NA","practice","null","","","",""
"d3-animate-choice","40","238208","0.0-40.0","2144","2182","14","Female","true","true","false","true","""event"",""trial"",""time""
""fullscreenenter"",""5"",""13620""
","
","
","""event"",""trial"",""time""
""fullscreenenter"",""5"",""13620""
","
","426.89999997615814","","49","","","3000","1","","","images/tutgreenplanet.jpg","images/tutalien1","images/tutalien2","null","images/tutalien2","images/t.png","NA","practice","null","","","",""
"d3-animate-choice","41","240498","0.0-41.0","2144","2182","14","Female","true","true","false","true","""event"",""trial"",""time""
""fullscreenenter"",""5"",""13620""
","
","
","""event"",""trial"",""time""
""fullscreenenter"",""5"",""13620""
","
","273.10000002384186","","49","","","3000","1","","","images/tutgreenplanet.jpg","images/tutalien1","images/tutalien2","null","images/tutalien2","images/t.png","NA","practice","null","","","",""
"d3-animate-choice","42","242796","0.0-42.0","2144","2182","14","Female","true","true","false","true","""event"",""trial"",""time""
""fullscreenenter"",""5"",""13620""
","
","
","""event"",""trial"",""time""
""fullscreenenter"",""5"",""13620""
","
","287.5","","49","","","3000","1","","","images/tutgreenplanet.jpg","images/tutalien1","images/tutalien2","null","images/tutalien2","images/t.png","NA","practice","null","","","",""
"d3-animate-choice","43","245103","0.0-43.0","2144","2182","14","Female","true","true","false","true","""event"",""trial"",""time""
""fullscreenenter"",""5"",""13620""
","
","
","""event"",""trial"",""time""
""fullscreenenter"",""5"",""13620""
","
","298.39999997615814","","49","","","3000","1","","","images/tutgreenplanet.jpg","images/tutalien1","images/tutalien2","null","images/tutalien2","images/t.png","NA","practice","null","","","",""
"d3-instructions","44","258016","0.0-44.0","2144","2182","14","Female","true","true","false","true","""event"",""trial"",""time""
""fullscreenenter"",""5"",""13620""
","
","
","""event"",""trial"",""time""
""fullscreenenter"",""5"",""13620""
","
","","","","","","","","","","","","","","","","","","","","","",""
"d3-instructions","45","264057","0.0-45.0","2144","2182","14","Female","true","true","false","true","""event"",""trial"",""time""
""fullscreenenter"",""5"",""13620""
","
","
","""event"",""trial"",""time""
""fullscreenenter"",""5"",""13620""
","
","","","","","","","","","","","","","","","","","","","","","",""
"d3-instructions","46","269496","0.0-46.0","2144","2182","14","Female","true","true","false","true","""event"",""trial"",""time""
""fullscreenenter"",""5"",""13620""
","
","
","""event"",""trial"",""time""
""fullscreenenter"",""5"",""13620""
","
","","","","","","","","","","","","","","","","","","","","","",""
"d3-instructions","47","284623","0.0-47.0","2144","2182","14","Female","true","true","false","true","""event"",""trial"",""time""
""fullscreenenter"",""5"",""13620""
","
","
","""event"",""trial"",""time""
""fullscreenenter"",""5"",""13620""
","
","","","","","","","","","","","","","","","","","","","","","",""
"d3-instructions","48","293076","0.0-48.0","2144","2182","14","Female","true","true","false","true","""event"",""trial"",""time""
""fullscreenenter"",""5"",""13620""
","
","
","""event"",""trial"",""time""
""fullscreenenter"",""5"",""13620""
","
","","","","","","","","","","","","","","","","","","","","","",""
"d3-instructions","49","304320","0.0-49.0","2144","2182","14","Female","true","true","false","true","""event"",""trial"",""time""
""fullscreenenter"",""5"",""13620""
","
","
","""event"",""trial"",""time""
""fullscreenenter"",""5"",""13620""
","
","","","","","","","","","","","","","","","","","","","","","",""
"d3-instructions","50","313671","0.0-50.0","2144","2182","14","Female","true","true","false","true","""event"",""trial"",""time""
""fullscreenenter"",""5"",""13620""
","
","
","""event"",""trial"",""time""
""fullscreenenter"",""5"",""13620""
","
","","","","","","","","","","","","","","","","","","","","","",""
"d3-instructions","51","316188","0.0-51.0","2144","2182","14","Female","true","true","false","true","""event"",""trial"",""time""
""fullscreenenter"",""5"",""13620""
","
","
","""event"",""trial"",""time""
""fullscreenenter"",""5"",""13620""
","
","","","","","","","","","","","","","","","","","","","","","",""
"d3-instructions","52","318685","0.0-52.0","2144","2182","14","Female","true","true","false","true","""event"",""trial"",""time""
""fullscreenenter"",""5"",""13620""
","
","
","""event"",""trial"",""time""
""fullscreenenter"",""5"",""13620""
","
","","","","","","","","","","","","","","","","","","","","","",""
"d3-instructions","53","331715","0.0-53.0","2144","2182","14","Female","true","true","false","true","""event"",""trial"",""time""
""fullscreenenter"",""5"",""13620""
","
","
","""event"",""trial"",""time""
""fullscreenenter"",""5"",""13620""
","
","","","","","","","","","","","","","","","","","","","","","",""
"d3-instructions","54","347941","0.0-54.0","2144","2182","14","Female","true","true","false","true","""event"",""trial"",""time""
""fullscreenenter"",""5"",""13620""
","
","
","""event"",""trial"",""time""
""fullscreenenter"",""5"",""13620""
","
","","","","","","","","","","","","","","","","","","","","","",""
"d3-instructions","55","358197","0.0-55.0","2144","2182","14","Female","true","true","false","true","""event"",""trial"",""time""
""fullscreenenter"",""5"",""13620""
","
","
","""event"",""trial"",""time""
""fullscreenenter"",""5"",""13620""
","
","","","","","","","","","","","","","","","","","","","","","",""
"d3-instructions","56","366480","0.0-56.0","2144","2182","14","Female","true","true","false","true","""event"",""trial"",""time""
""fullscreenenter"",""5"",""13620""
","
","
","""event"",""trial"",""time""
""fullscreenenter"",""5"",""13620""
","
","","","","","","","","","","","","","","","","","","","","","",""
"d3-instructions","57","379389","0.0-57.0","2144","2182","14","Female","true","true","false","true","""event"",""trial"",""time""
""fullscreenenter"",""5"",""13620""
","
","
","""event"",""trial"",""time""
""fullscreenenter"",""5"",""13620""
","
","","","","","","","","","","","","","","","","","","","","","",""
"d3-instructions","58","389334","0.0-58.0","2144","2182","14","Female","true","true","false","true","""event"",""trial"",""time""
""fullscreenenter"",""5"",""13620""
","
","
","""event"",""trial"",""time""
""fullscreenenter"",""5"",""13620""
","
","","","","","","","","","","","","","","","","","","","","","",""
"d3-instructions","59","394704","0.0-59.0","2144","2182","14","Female","true","true","false","true","""event"",""trial"",""time""
""fullscreenenter"",""5"",""13620""
","
","
","""event"",""trial"",""time""
""fullscreenenter"",""5"",""13620""
","
","","","","","","","","","","","","","","","","","","","","","",""
"d3-instructions","60","399451","0.0-60.0","2144","2182","14","Female","true","true","false","true","""event"",""trial"",""time""
""fullscreenenter"",""5"",""13620""
","
","
","""event"",""trial"",""time""
""fullscreenenter"",""5"",""13620""
","
","","","","","","","","","","","","","","","","","","","","","",""
"d3-animate-choice","61","402244","0.0-61.0-0.0","2144","2182","14","Female","true","true","false","true","""event"",""trial"",""time""
""fullscreenenter"",""5"",""13620""
","
","
","""event"",""trial"",""time""
""fullscreenenter"",""5"",""13620""
","
","786.6999999880791","","49","","","3000","1","","","images/earth.jpg","images/tutrocket1","images/tutrocket2","null","images/tutrocket2","","1","practice","null","1","","",""
"d3-animate-choice","62","405085","0.0-61.0-1.0","2144","2182","14","Female","true","true","false","true","""event"",""trial"",""time""
""fullscreenenter"",""5"",""13620""
","
","
","""event"",""trial"",""time""
""fullscreenenter"",""5"",""13620""
","
","820.1000000238419","","49","","","3000","1","","","images/tutyellowplanet.jpg","images/tutalien4","images/tutalien3","images/tutrocket2","images/tutalien3","images/nothing.png","2","practice","true","1","common","0","2022-07-21 22:11:03.649"
"two-step-fixation","63","406093","0.0-61.0-2.0","2144","2182","14","Female","true","true","false","true","""event"",""trial"",""time""
""fullscreenenter"",""5"",""13620""
","
","
","""event"",""trial"",""time""
""fullscreenenter"",""5"",""13620""
","
","","images/earth.jpg","","","","","","","","","","","","","","fixation","","","","","",""
"d3-animate-choice","64","408920","0.0-61.0-0.1","2144","2182","14","Female","true","true","false","true","""event"",""trial"",""time""
""fullscreenenter"",""5"",""13620""
","
","
","""event"",""trial"",""time""
""fullscreenenter"",""5"",""13620""
","
","813.3999999761581","","48","","","3000","1","","","images/earth.jpg","images/tutrocket1","images/tutrocket2","null","images/tutrocket1","","1","practice","null","2","","",""
"d3-animate-choice","65","411482","0.0-61.0-1.1","2144","2182","14","Female","true","true","false","true","""event"",""trial"",""time""
""fullscreenenter"",""5"",""13620""
","
","
","""event"",""trial"",""time""
""fullscreenenter"",""5"",""13620""
","
","554.5999999642372","","48","","","3000","1","","","images/tutgreenplanet.jpg","images/tutalien2","images/tutalien1","images/tutrocket1","images/tutalien2","images/nothing.png","2","practice","true","2","common","0","2022-07-21 22:11:10.047"
"two-step-fixation","66","412488","0.0-61.0-2.1","2144","2182","14","Female","true","true","false","true","""event"",""trial"",""time""
""fullscreenenter"",""5"",""13620""
","
","
","""event"",""trial"",""time""
""fullscreenenter"",""5"",""13620""
","
","","images/earth.jpg","","","","","","","","","","","","","","fixation","","","","","",""
"d3-animate-choice","67","414815","0.0-61.0-0.2","2144","2182","14","Female","true","true","false","true","""event"",""trial"",""time""
""fullscreenenter"",""5"",""13620""
","
","
","""event"",""trial"",""time""
""fullscreenenter"",""5"",""13620""
","
","311.30000001192093","","49","","","3000","1","","","images/earth.jpg","images/tutrocket1","images/tutrocket2","null","images/tutrocket2","","1","practice","null","1","","",""
"d3-animate-choice","68","417169","0.0-61.0-1.2","2144","2182","14","Female","true","true","false","true","""event"",""trial"",""time""
""fullscreenenter"",""5"",""13620""
","
","
","""event"",""trial"",""time""
""fullscreenenter"",""5"",""13620""
","
","340.39999997615814","","48","","","3000","1","","","images/tutyellowplanet.jpg","images/tutalien4","images/tutalien3","images/tutrocket2","images/tutalien4","images/t.png","2","practice","true","2","common","1","2022-07-21 22:11:15.733"
"two-step-fixation","69","418175","0.0-61.0-2.2","2144","2182","14","Female","true","true","false","true","""event"",""trial"",""time""
""fullscreenenter"",""5"",""13620""
","
","
","""event"",""trial"",""time""
""fullscreenenter"",""5"",""13620""
","
","","images/earth.jpg","","","","","","","","","","","","","","fixation","","","","","",""
"d3-animate-choice","70","420501","0.0-61.0-0.3","2144","2182","14","Female","true","true","false","true","""event"",""trial"",""time""
""fullscreenenter"",""5"",""13620""
","
","
","""event"",""trial"",""time""
""fullscreenenter"",""5"",""13620""
","
","321.9000000357628","","49","","","3000","1","","","images/earth.jpg","images/tutrocket1","images/tutrocket2","null","images/tutrocket2","","1","practice","null","1","","",""
"d3-animate-choice","71","423814","0.0-61.0-1.3","2144","2182","14","Female","true","true","false","true","""event"",""trial"",""time""
""fullscreenenter"",""5"",""13620""
","
","
","""event"",""trial"",""time""
""fullscreenenter"",""5"",""13620""
","
","1308.8999999761581","","48","","","3000","1","","","images/tutgreenplanet.jpg","images/tutalien2","images/tutalien1","images/tutrocket2","images/tutalien2","images/nothing.png","2","practice","false","2","rare","0","2022-07-21 22:11:22.378"
"two-step-fixation","72","424821","0.0-61.0-2.3","2144","2182","14","Female","true","true","false","true","""event"",""trial"",""time""
""fullscreenenter"",""5"",""13620""
","
","
","""event"",""trial"",""time""
""fullscreenenter"",""5"",""13620""
","
","","images/earth.jpg","","","","","","","","","","","","","","fixation","","","","","",""
"d3-animate-choice","73","427195","0.0-61.0-0.4","2144","2182","14","Female","true","true","false","true","""event"",""trial"",""time""
""fullscreenenter"",""5"",""13620""
","
","
","""event"",""trial"",""time""
""fullscreenenter"",""5"",""13620""
","
","351.19999998807907","","48","","","3000","1","","","images/earth.jpg","images/tutrocket1","images/tutrocket2","null","images/tutrocket1","","1","practice","null","2","","",""
"d3-animate-choice","74","430115","0.0-61.0-1.4","2144","2182","14","Female","true","true","false","true","""event"",""trial"",""time""
""fullscreenenter"",""5"",""13620""
","
","
","""event"",""trial"",""time""
""fullscreenenter"",""5"",""13620""
","
","913.4000000357628","","48","","","3000","1","","","images/tutyellowplanet.jpg","images/tutalien4","images/tutalien3","images/tutrocket1","images/tutalien4","images/t.png","2","practice","false","2","rare","1","2022-07-21 22:11:28.679"
"two-step-fixation","75","431121","0.0-61.0-2.4","2144","2182","14","Female","true","true","false","true","""event"",""trial"",""time""
""fullscreenenter"",""5"",""13620""
","
","
","""event"",""trial"",""time""
""fullscreenenter"",""5"",""13620""
","
","","images/earth.jpg","","","","","","","","","","","","","","fixation","","","","","",""
"d3-animate-choice","76","433926","0.0-61.0-0.5","2144","2182","14","Female","true","true","false","true","""event"",""trial"",""time""
""fullscreenenter"",""5"",""13620""
","
","
","""event"",""trial"",""time""
""fullscreenenter"",""5"",""13620""
","
","795.7999999523163","","48","","","3000","1","","","images/earth.jpg","images/tutrocket1","images/tutrocket2","null","images/tutrocket1","","1","practice","null","2","","",""
"d3-animate-choice","77","437046","0.0-61.0-1.5","2144","2182","14","Female","true","true","false","true","""event"",""trial"",""time""
""fullscreenenter"",""5"",""13620""
","
","
","""event"",""trial"",""time""
""fullscreenenter"",""5"",""13620""
","
","1113.5","","49","","","3000","1","","","images/tutgreenplanet.jpg","images/tutalien2","images/tutalien1","images/tutrocket1","images/tutalien1","images/nothing.png","2","practice","true","1","common","0","2022-07-21 22:11:35.611"
"two-step-fixation","78","438062","0.0-61.0-2.5","2144","2182","14","Female","true","true","false","true","""event"",""trial"",""time""
""fullscreenenter"",""5"",""13620""
","
","
","""event"",""trial"",""time""
""fullscreenenter"",""5"",""13620""
","
","","images/earth.jpg","","","","","","","","","","","","","","fixation","","","","","",""
"d3-animate-choice","79","440535","0.0-61.0-0.6","2144","2182","14","Female","true","true","false","true","""event"",""trial"",""time""
""fullscreenenter"",""5"",""13620""
","
","
","""event"",""trial"",""time""
""fullscreenenter"",""5"",""13620""
","
","463.19999998807907","","48","","","3000","1","","","images/earth.jpg","images/tutrocket1","images/tutrocket2","null","images/tutrocket1","","1","practice","null","2","","",""
"d3-animate-choice","80","443358","0.0-61.0-1.6","2144","2182","14","Female","true","true","false","true","""event"",""trial"",""time""
""fullscreenenter"",""5"",""13620""
","
","
","""event"",""trial"",""time""
""fullscreenenter"",""5"",""13620""
","
","813","","49","","","3000","1","","","images/tutgreenplanet.jpg","images/tutalien2","images/tutalien1","images/tutrocket1","images/tutalien1","images/nothing.png","2","practice","true","1","common","0","2022-07-21 22:11:41.922"
"two-step-fixation","81","444376","0.0-61.0-2.6","2144","2182","14","Female","true","true","false","true","""event"",""trial"",""time""
""fullscreenenter"",""5"",""13620""
","
","
","""event"",""trial"",""time""
""fullscreenenter"",""5"",""13620""
","
","","images/earth.jpg","","","","","","","","","","","","","","fixation","","","","","",""
"d3-animate-choice","82","446867","0.0-61.0-0.7","2144","2182","14","Female","true","true","false","true","""event"",""trial"",""time""
""fullscreenenter"",""5"",""13620""
","
","
","""event"",""trial"",""time""
""fullscreenenter"",""5"",""13620""
","
","485.69999998807907","","49","","","3000","1","","","images/earth.jpg","images/tutrocket1","images/tutrocket2","null","images/tutrocket2","","1","practice","null","1","","",""
"d3-animate-choice","83","449635","0.0-61.0-1.7","2144","2182","14","Female","true","true","false","true","""event"",""trial"",""time""
""fullscreenenter"",""5"",""13620""
","
","
","""event"",""trial"",""time""
""fullscreenenter"",""5"",""13620""
","
","762.6000000238419","","48","","","3000","1","","","images/tutyellowplanet.jpg","images/tutalien4","images/tutalien3","images/tutrocket2","images/tutalien4","images/t.png","2","practice","true","2","common","1","2022-07-21 22:11:48.199"
"two-step-fixation","84","450647","0.0-61.0-2.7","2144","2182","14","Female","true","true","false","true","""event"",""trial"",""time""
""fullscreenenter"",""5"",""13620""
","
","
","""event"",""trial"",""time""
""fullscreenenter"",""5"",""13620""
","
","","images/earth.jpg","","","","","","","","","","","","","","fixation","","","","","",""
"d3-animate-choice","85","452965","0.0-61.0-0.8","2144","2182","14","Female","true","true","false","true","""event"",""trial"",""time""
""fullscreenenter"",""5"",""13620""
","
","
","""event"",""trial"",""time""
""fullscreenenter"",""5"",""13620""
","
","314.5","","49","","","3000","1","","","images/earth.jpg","images/tutrocket1","images/tutrocket2","null","images/tutrocket2","","1","practice","null","1","","",""
"d3-animate-choice","86","456044","0.0-61.0-1.8","2144","2182","14","Female","true","true","false","true","""event"",""trial"",""time""
""fullscreenenter"",""5"",""13620""
","
","
","""event"",""trial"",""time""
""fullscreenenter"",""5"",""13620""
","
","1073","","49","","","3000","1","","","images/tutgreenplanet.jpg","images/tutalien2","images/tutalien1","images/tutrocket2","images/tutalien1","images/nothing.png","2","practice","false","1","rare","0","2022-07-21 22:11:54.609"
"two-step-fixation","87","457051","0.0-61.0-2.8","2144","2182","14","Female","true","true","false","true","""event"",""trial"",""time""
""fullscreenenter"",""5"",""13620""
","
","
","""event"",""trial"",""time""
""fullscreenenter"",""5"",""13620""
","
","","images/earth.jpg","","","","","","","","","","","","","","fixation","","","","","",""
"d3-animate-choice","88","459312","0.0-61.0-0.9","2144","2182","14","Female","true","true","false","true","""event"",""trial"",""time""
""fullscreenenter"",""5"",""13620""
","
","
","""event"",""trial"",""time""
""fullscreenenter"",""5"",""13620""
","
","253.19999998807907","","49","","","3000","1","","","images/earth.jpg","images/tutrocket1","images/tutrocket2","null","images/tutrocket2","","1","practice","null","1","","",""
"d3-animate-choice","89","461958","0.0-61.0-1.9","2144","2182","14","Female","true","true","false","true","""event"",""trial"",""time""
""fullscreenenter"",""5"",""13620""
","
","
","""event"",""trial"",""time""
""fullscreenenter"",""5"",""13620""
","
","633.6999999880791","","48","","","3000","1","","","images/tutyellowplanet.jpg","images/tutalien4","images/tutalien3","images/tutrocket2","images/tutalien4","images/t.png","2","practice","true","2","common","1","2022-07-21 22:12:00.522"
"two-step-fixation","90","462964","0.0-61.0-2.9","2144","2182","14","Female","true","true","false","true","""event"",""trial"",""time""
""fullscreenenter"",""5"",""13620""
","
","
","""event"",""trial"",""time""
""fullscreenenter"",""5"",""13620""
","
","","images/earth.jpg","","","","","","","","","","","","","","fixation","","","","","",""
"d3-animate-choice","91","465240","0.0-61.0-0.10","2144","2182","14","Female","true","true","false","true","""event"",""trial"",""time""
""fullscreenenter"",""5"",""13620""
","
","
","""event"",""trial"",""time""
""fullscreenenter"",""5"",""13620""
","
","270","","49","","","3000","1","","","images/earth.jpg","images/tutrocket1","images/tutrocket2","null","images/tutrocket2","","1","practice","null","1","","",""
"d3-animate-choice","92","467679","0.0-61.0-1.10","2144","2182","14","Female","true","true","false","true","""event"",""trial"",""time""
""fullscreenenter"",""5"",""13620""
","
","
","""event"",""trial"",""time""
""fullscreenenter"",""5"",""13620""
","
","428.69999998807907","","48","","","3000","1","","","images/tutyellowplanet.jpg","images/tutalien4","images/tutalien3","images/tutrocket2","images/tutalien4","images/t.png","2","practice","true","2","common","1","2022-07-21 22:12:06.244"
"two-step-fixation","93","468685","0.0-61.0-2.10","2144","2182","14","Female","true","true","false","true","""event"",""trial"",""time""
""fullscreenenter"",""5"",""13620""
","
","
","""event"",""trial"",""time""
""fullscreenenter"",""5"",""13620""
","
","","images/earth.jpg","","","","","","","","","","","","","","fixation","","","","","",""
"d3-animate-choice","94","470972","0.0-61.0-0.11","2144","2182","14","Female","true","true","false","true","""event"",""trial"",""time""
""fullscreenenter"",""5"",""13620""
","
","
","""event"",""trial"",""time""
""fullscreenenter"",""5"",""13620""
","
","269","","49","","","3000","1","","","images/earth.jpg","images/tutrocket1","images/tutrocket2","null","images/tutrocket2","","1","practice","null","1","","",""
"d3-animate-choice","95","473388","0.0-61.0-1.11","2144","2182","14","Female","true","true","false","true","""event"",""trial"",""time""
""fullscreenenter"",""5"",""13620""
","
","
","""event"",""trial"",""time""
""fullscreenenter"",""5"",""13620""
","
","409.5","","48","","","3000","1","","","images/tutyellowplanet.jpg","images/tutalien4","images/tutalien3","images/tutrocket2","images/tutalien4","images/t.png","2","practice","true","2","common","1","2022-07-21 22:12:11.952"
"two-step-fixation","96","474396","0.0-61.0-2.11","2144","2182","14","Female","true","true","false","true","""event"",""trial"",""time""
""fullscreenenter"",""5"",""13620""
","
","
","""event"",""trial"",""time""
""fullscreenenter"",""5"",""13620""
","
","","images/earth.jpg","","","","","","","","","","","","","","fixation","","","","","",""
"d3-animate-choice","97","476696","0.0-61.0-0.12","2144","2182","14","Female","true","true","false","true","""event"",""trial"",""time""
""fullscreenenter"",""5"",""13620""
","
","
","""event"",""trial"",""time""
""fullscreenenter"",""5"",""13620""
","
","295","","49","","","3000","1","","","images/earth.jpg","images/tutrocket1","images/tutrocket2","null","images/tutrocket2","","1","practice","null","1","","",""
"d3-animate-choice","98","479044","0.0-61.0-1.12","2144","2182","14","Female","true","true","false","true","""event"",""trial"",""time""
""fullscreenenter"",""5"",""13620""
","
","
","""event"",""trial"",""time""
""fullscreenenter"",""5"",""13620""
","
","344.0999999642372","","48","","","3000","1","","","images/tutyellowplanet.jpg","images/tutalien4","images/tutalien3","images/tutrocket2","images/tutalien4","images/nothing.png","2","practice","true","2","common","0","2022-07-21 22:12:17.608"
"two-step-fixation","99","480049","0.0-61.0-2.12","2144","2182","14","Female","true","true","false","true","""event"",""trial"",""time""
""fullscreenenter"",""5"",""13620""
","
","
","""event"",""trial"",""time""
""fullscreenenter"",""5"",""13620""
","
","","images/earth.jpg","","","","","","","","","","","","","","fixation","","","","","",""
"d3-animate-choice","100","482318","0.0-61.0-0.13","2144","2182","14","Female","true","true","false","true","""event"",""trial"",""time""
""fullscreenenter"",""5"",""13620""
","
","
","""event"",""trial"",""time""
""fullscreenenter"",""5"",""13620""
","
","261.5999999642372","","49","","","3000","1","","","images/earth.jpg","images/tutrocket1","images/tutrocket2","null","images/tutrocket2","","1","practice","null","1","","",""
"d3-animate-choice","101","484592","0.0-61.0-1.13","2144","2182","14","Female","true","true","false","true","""event"",""trial"",""time""
""fullscreenenter"",""5"",""13620""
","
","
","""event"",""trial"",""time""
""fullscreenenter"",""5"",""13620""
","
","268.60000002384186","","48","","","3000","1","","","images/tutyellowplanet.jpg","images/tutalien4","images/tutalien3","images/tutrocket2","images/tutalien4","images/t.png","2","practice","true","2","common","1","2022-07-21 22:12:23.156"
"two-step-fixation","102","485596","0.0-61.0-2.13","2144","2182","14","Female","true","true","false","true","""event"",""trial"",""time""
""fullscreenenter"",""5"",""13620""
","
","
","""event"",""trial"",""time""
""fullscreenenter"",""5"",""13620""
","
","","images/earth.jpg","","","","","","","","","","","","","","fixation","","","","","",""
"d3-animate-choice","103","487865","0.0-61.0-0.14","2144","2182","14","Female","true","true","false","true","""event"",""trial"",""time""
""fullscreenenter"",""5"",""13620""
","
","
","""event"",""trial"",""time""
""fullscreenenter"",""5"",""13620""
","
","260.7999999523163","","49","","","3000","1","","","images/earth.jpg","images/tutrocket1","images/tutrocket2","null","images/tutrocket2","","1","practice","null","1","","",""
"d3-animate-choice","104","490269","0.0-61.0-1.14","2144","2182","14","Female","true","true","false","true","""event"",""trial"",""time""
""fullscreenenter"",""5"",""13620""
","
","
","""event"",""trial"",""time""
""fullscreenenter"",""5"",""13620""
","
","397.0999999642372","","48","","","3000","1","","","images/tutyellowplanet.jpg","images/tutalien4","images/tutalien3","images/tutrocket2","images/tutalien4","images/t.png","2","practice","true","2","common","1","2022-07-21 22:12:28.833"
"two-step-fixation","105","491279","0.0-61.0-2.14","2144","2182","14","Female","true","true","false","true","""event"",""trial"",""time""
""fullscreenenter"",""5"",""13620""
","
","
","""event"",""trial"",""time""
""fullscreenenter"",""5"",""13620""
","
","","images/earth.jpg","","","","","","","","","","","","","","fixation","","","","","",""
"d3-animate-choice","106","493604","0.0-61.0-0.15","2144","2182","14","Female","true","true","false","true","""event"",""trial"",""time""
""fullscreenenter"",""5"",""13620""
","
","
","""event"",""trial"",""time""
""fullscreenenter"",""5"",""13620""
","
","316.80000001192093","","49","","","3000","1","","","images/earth.jpg","images/tutrocket1","images/tutrocket2","null","images/tutrocket2","","1","practice","null","1","","",""
"d3-animate-choice","107","496140","0.0-61.0-1.15","2144","2182","14","Female","true","true","false","true","""event"",""trial"",""time""
""fullscreenenter"",""5"",""13620""
","
","
","""event"",""trial"",""time""
""fullscreenenter"",""5"",""13620""
","
","524.5999999642372","","48","","","3000","1","","","images/tutyellowplanet.jpg","images/tutalien4","images/tutalien3","images/tutrocket2","images/tutalien4","images/nothing.png","2","practice","true","2","common","0","2022-07-21 22:12:34.704"
"two-step-fixation","108","497144","0.0-61.0-2.15","2144","2182","14","Female","true","true","false","true","""event"",""trial"",""time""
""fullscreenenter"",""5"",""13620""
","
","
","""event"",""trial"",""time""
""fullscreenenter"",""5"",""13620""
","
","","images/earth.jpg","","","","","","","","","","","","","","fixation","","","","","",""
"d3-animate-choice","109","499557","0.0-61.0-0.16","2144","2182","14","Female","true","true","false","true","""event"",""trial"",""time""
""fullscreenenter"",""5"",""13620""
","
","
","""event"",""trial"",""time""
""fullscreenenter"",""5"",""13620""
","
","404.19999998807907","","49","","","3000","1","","","images/earth.jpg","images/tutrocket1","images/tutrocket2","null","images/tutrocket2","","1","practice","null","1","","",""
"d3-animate-choice","110","501831","0.0-61.0-1.16","2144","2182","14","Female","true","true","false","true","""event"",""trial"",""time""
""fullscreenenter"",""5"",""13620""
","
","
","""event"",""trial"",""time""
""fullscreenenter"",""5"",""13620""
","
","265","","48","","","3000","1","","","images/tutgreenplanet.jpg","images/tutalien2","images/tutalien1","images/tutrocket2","images/tutalien2","images/nothing.png","2","practice","false","2","rare","0","2022-07-21 22:12:40.395"
"two-step-fixation","111","502838","0.0-61.0-2.16","2144","2182","14","Female","true","true","false","true","""event"",""trial"",""time""
""fullscreenenter"",""5"",""13620""
","
","
","""event"",""trial"",""time""
""fullscreenenter"",""5"",""13620""
","
","","images/earth.jpg","","","","","","","","","","","","","","fixation","","","","","",""
"d3-animate-choice","112","505133","0.0-61.0-0.17","2144","2182","14","Female","true","true","false","true","""event"",""trial"",""time""
""fullscreenenter"",""5"",""13620""
","
","
","""event"",""trial"",""time""
""fullscreenenter"",""5"",""13620""
","
","290","","49","","","3000","1","","","images/earth.jpg","images/tutrocket1","images/tutrocket2","null","images/tutrocket2","","1","practice","null","1","","",""
"d3-animate-choice","113","508043","0.0-61.0-1.17","2144","2182","14","Female","true","true","false","true","""event"",""trial"",""time""
""fullscreenenter"",""5"",""13620""
","
","
","""event"",""trial"",""time""
""fullscreenenter"",""5"",""13620""
","
","900.6999999880791","","49","","","3000","1","","","images/tutgreenplanet.jpg","images/tutalien2","images/tutalien1","images/tutrocket2","images/tutalien1","images/t.png","2","practice","false","1","rare","1","2022-07-21 22:12:46.607"
"two-step-fixation","114","509047","0.0-61.0-2.17","2144","2182","14","Female","true","true","false","true","""event"",""trial"",""time""
""fullscreenenter"",""5"",""13620""
","
","
","""event"",""trial"",""time""
""fullscreenenter"",""5"",""13620""
","
","","images/earth.jpg","","","","","","","","","","","","","","fixation","","","","","",""
"d3-animate-choice","115","511351","0.0-61.0-0.18","2144","2182","14","Female","true","true","false","true","""event"",""trial"",""time""
""fullscreenenter"",""5"",""13620""
","
","
","""event"",""trial"",""time""
""fullscreenenter"",""5"",""13620""
","
","298.69999998807907","","49","","","3000","1","","","images/earth.jpg","images/tutrocket1","images/tutrocket2","null","images/tutrocket2","","1","practice","null","1","","",""
"d3-animate-choice","116","513969","0.0-61.0-1.18","2144","2182","14","Female","true","true","false","true","""event"",""trial"",""time""
""fullscreenenter"",""5"",""13620""
","
","
","""event"",""trial"",""time""
""fullscreenenter"",""5"",""13620""
","
","603.9000000357628","","48","","","3000","1","","","images/tutyellowplanet.jpg","images/tutalien4","images/tutalien3","images/tutrocket2","images/tutalien4","images/t.png","2","practice","true","2","common","1","2022-07-21 22:12:52.533"
"two-step-fixation","117","514982","0.0-61.0-2.18","2144","2182","14","Female","true","true","false","true","""event"",""trial"",""time""
""fullscreenenter"",""5"",""13620""
","
","
","""event"",""trial"",""time""
""fullscreenenter"",""5"",""13620""
","
","","images/earth.jpg","","","","","","","","","","","","","","fixation","","","","","",""
"d3-animate-choice","118","517267","0.0-61.0-0.19","2144","2182","14","Female","true","true","false","true","""event"",""trial"",""time""
""fullscreenenter"",""5"",""13620""
","
","
","""event"",""trial"",""time""
""fullscreenenter"",""5"",""13620""
","
","274.80000001192093","","49","","","3000","1","","","images/earth.jpg","images/tutrocket1","images/tutrocket2","null","images/tutrocket2","","1","practice","null","1","","",""
"d3-animate-choice","119","519659","0.0-61.0-1.19","2144","2182","14","Female","true","true","false","true","""event"",""trial"",""time""
""fullscreenenter"",""5"",""13620""
","
","
","""event"",""trial"",""time""
""fullscreenenter"",""5"",""13620""
","
","372.4000000357628","","48","","","3000","1","","","images/tutyellowplanet.jpg","images/tutalien4","images/tutalien3","images/tutrocket2","images/tutalien4","images/t.png","2","practice","true","2","common","1","2022-07-21 22:12:58.223"
"two-step-fixation","120","520673","0.0-61.0-2.19","2144","2182","14","Female","true","true","false","true","""event"",""trial"",""time""
""fullscreenenter"",""5"",""13620""
","
","
","""event"",""trial"",""time""
""fullscreenenter"",""5"",""13620""
","
","","images/earth.jpg","","","","","","","","","","","","","","fixation","","","","","",""
"d3-instructions","121","528285","0.0-62.0","2144","2182","14","Female","true","true","false","true","""event"",""trial"",""time""
""fullscreenenter"",""5"",""13620""
","
","
","""event"",""trial"",""time""
""fullscreenenter"",""5"",""13620""
","
","","","","","","","","","","","","","","","","","","","","","",""
"audio-keyboard-response","122","532833","0.0-63.0","2144","2182","14","Female","true","true","false","true","""event"",""trial"",""time""
""fullscreenenter"",""5"",""13620""
","
","
","""event"",""trial"",""time""
""fullscreenenter"",""5"",""13620""
","
","4539","audio/instructions/treasure_feedback.wav","32","","","","","","","","","","","","","","","","","","",""
"d3-instructions","123","553083","0.0-64.0","2144","2182","14","Female","true","true","false","true","""event"",""trial"",""time""
""fullscreenenter"",""5"",""13620""
","
","
","""event"",""trial"",""time""
""fullscreenenter"",""5"",""13620""
","
","","","","","","","","","","","","","","","","","","","","","",""
"d3-instructions","124","567246","0.0-65.0","2144","2182","14","Female","true","true","false","true","""event"",""trial"",""time""
""fullscreenenter"",""5"",""13620""
","
","
","""event"",""trial"",""time""
""fullscreenenter"",""5"",""13620""
","
","","","","","","","","","","","","","","","","","","","","","",""
"d3-instructions","125","591927","0.0-66.0","2144","2182","14","Female","true","true","false","true","""event"",""trial"",""time""
""fullscreenenter"",""5"",""13620""
","
","
","""event"",""trial"",""time""
""fullscreenenter"",""5"",""13620""
","
","","","","","","","","","","","","","","","","","","","","","",""
"d3-instructions","126","607836","0.0-67.0","2144","2182","14","Female","true","true","false","true","""event"",""trial"",""time""
""fullscreenenter"",""5"",""13620""
","
","
","""event"",""trial"",""time""
""fullscreenenter"",""5"",""13620""
","
","","","","","","","","","","","","","","","","","","","","","",""
"d3-instructions","127","616632","0.0-68.0","2144","2182","14","Female","true","true","false","true","""event"",""trial"",""time""
""fullscreenenter"",""5"",""13620""
","
","
","""event"",""trial"",""time""
""fullscreenenter"",""5"",""13620""
","
","","","","","","","","","","","","","","","","","","","","","",""
"instructions-quiz","128","621346","0.0-69.0","2144","2182","14","Female","true","true","false","true","""event"",""trial"",""time""
""fullscreenenter"",""5"",""13620""
","
","
","""event"",""trial"",""time""
""fullscreenenter"",""5"",""13620""
","
","4712.199999988079","audio/quiz/Q1_Prompt.wav","","1","","","","","","","","","","","","","","","","","",""
"audio-keyboard-response","129","625211","0.0-70.0","2144","2182","14","Female","true","true","false","true","""event"",""trial"",""time""
""fullscreenenter"",""5"",""13620""
","
","
","""event"",""trial"",""time""
""fullscreenenter"",""5"",""13620""
","
","3861","audio/quiz/Q1_Correct.wav","32","","","","","","","","","","","","","","","","","","",""
"instructions-quiz","130","633194","0.0-71.0","2144","2182","14","Female","true","true","false","true","""event"",""trial"",""time""
""fullscreenenter"",""5"",""13620""
","
","
","""event"",""trial"",""time""
""fullscreenenter"",""5"",""13620""
","
","7980.5","audio/quiz/Q2_Prompt.wav","","0","","","","","","","","","","","","","","","","","",""
"audio-keyboard-response","131","635511","0.0-72.0","2144","2182","14","Female","true","true","false","true","""event"",""trial"",""time""
""fullscreenenter"",""5"",""13620""
","
","
","""event"",""trial"",""time""
""fullscreenenter"",""5"",""13620""
","
","2309","audio/quiz/Q2_Correct.wav","32","","","","","","","","","","","","","","","","","","",""
"instructions-quiz","132","639088","0.0-73.0","2144","2182","14","Female","true","true","false","true","""event"",""trial"",""time""
""fullscreenenter"",""5"",""13620""
","
","
","""event"",""trial"",""time""
""fullscreenenter"",""5"",""13620""
","
","3572.199999988079","audio/quiz/Q3_Prompt.wav","","1","","","","","","","","","","","","","","","","","",""
"audio-keyboard-response","133","639661","0.0-74.0","2144","2182","14","Female","true","true","false","true","""event"",""trial"",""time""
""fullscreenenter"",""5"",""13620""
","
","
","""event"",""trial"",""time""
""fullscreenenter"",""5"",""13620""
","
","571","audio/quiz/Q3_Correct.wav","32","","","","","","","","","","","","","","","","","","",""
"d3-instructions","134","650720","0.0-75.0","2144","2182","14","Female","true","true","false","true","""event"",""trial"",""time""
""fullscreenenter"",""5"",""13620""
","
","
","""event"",""trial"",""time""
""fullscreenenter"",""5"",""13620""
","
","","","","","","","","","","","","","","","","","","","","","",""
"d3-animate-choice","135","653717","0.0-76.0-0.0","2144","2182","14","Female","true","true","false","true","""event"",""trial"",""time""
""fullscreenenter"",""5"",""13620""
","
","
","""event"",""trial"",""time""
""fullscreenenter"",""5"",""13620""
","
","991.3999999761581","","48","","","3000","1","","","images/earth.jpg","images/rocket2","images/rocket1","null","images/rocket2","","1","real","null","2","","",""
"d3-animate-choice","136","656425","0.0-76.0-1.0","2144","2182","14","Female","true","true","false","true","""event"",""trial"",""time""
""fullscreenenter"",""5"",""13620""
","
","
","""event"",""trial"",""time""
""fullscreenenter"",""5"",""13620""
","
","700.3999999761581","","48","","","3000","1","","","images/purpleplanet.jpg","images/alien4","images/alien3","images/rocket2","images/alien4","images/nothing.png","2","real","true","2","common","0","2022-07-21 22:15:14.989"
"two-step-fixation","137","657430","0.0-76.0-2.0","2144","2182","14","Female","true","true","false","true","""event"",""trial"",""time""
""fullscreenenter"",""5"",""13620""
","
","
","""event"",""trial"",""time""
""fullscreenenter"",""5"",""13620""
","
","","images/earth.jpg","","","","","","","","","","","","","","fixation","","","","","",""
"d3-animate-choice","138","660023","0.0-76.0-0.1","2144","2182","14","Female","true","true","false","true","""event"",""trial"",""time""
""fullscreenenter"",""5"",""13620""
","
","
","""event"",""trial"",""time""
""fullscreenenter"",""5"",""13620""
","
","587.6999999880791","","49","","","3000","1","","","images/earth.jpg","images/rocket2","images/rocket1","null","images/rocket1","","1","real","null","1","","",""
"d3-animate-choice","139","662526","0.0-76.0-1.1","2144","2182","14","Female","true","true","false","true","""event"",""trial"",""time""
""fullscreenenter"",""5"",""13620""
","
","
","""event"",""trial"",""time""
""fullscreenenter"",""5"",""13620""
","
","479.80000001192093","","49","","","3000","1","","","images/redplanet1.jpg","images/alien2","images/alien1","images/rocket1","images/alien1","images/nothing.png","2","real","true","1","common","0","2022-07-21 22:15:21.090"
"two-step-fixation","140","663532","0.0-76.0-2.1","2144","2182","14","Female","true","true","false","true","""event"",""trial"",""time""
""fullscreenenter"",""5"",""13620""
","
","
","""event"",""trial"",""time""
""fullscreenenter"",""5"",""13620""
","
","","images/earth.jpg","","","","","","","","","","","","","","fixation","","","","","",""
"d3-animate-choice","141","665904","0.0-76.0-0.2","2144","2182","14","Female","true","true","false","true","""event"",""trial"",""time""
""fullscreenenter"",""5"",""13620""
","
","
","""event"",""trial"",""time""
""fullscreenenter"",""5"",""13620""
","
","359.80000001192093","","49","","","3000","1","","","images/earth.jpg","images/rocket2","images/rocket1","null","images/rocket1","","1","real","null","1","","",""
"d3-animate-choice","142","668862","0.0-76.0-1.2","2144","2182","14","Female","true","true","false","true","""event"",""trial"",""time""
""fullscreenenter"",""5"",""13620""
","
","
","""event"",""trial"",""time""
""fullscreenenter"",""5"",""13620""
","
","951.7999999523163","","48","","","3000","1","","","images/redplanet1.jpg","images/alien2","images/alien1","images/rocket1","images/alien2","images/t.png","2","real","true","2","common","1","2022-07-21 22:15:27.426"
"two-step-fixation","143","669873","0.0-76.0-2.2","2144","2182","14","Female","true","true","false","true","""event"",""trial"",""time""
""fullscreenenter"",""5"",""13620""
","
","
","""event"",""trial"",""time""
""fullscreenenter"",""5"",""13620""
","
","","images/earth.jpg","","","","","","","","","","","","","","fixation","","","","","",""
"d3-animate-choice","144","672188","0.0-76.0-0.3","2144","2182","14","Female","true","true","false","true","""event"",""trial"",""time""
""fullscreenenter"",""5"",""13620""
","
","
","""event"",""trial"",""time""
""fullscreenenter"",""5"",""13620""
","
","310","","49","","","3000","1","","","images/earth.jpg","images/rocket2","images/rocket1","null","images/rocket1","","1","real","null","1","","",""
"d3-animate-choice","145","674716","0.0-76.0-1.3","2144","2182","14","Female","true","true","false","true","""event"",""trial"",""time""
""fullscreenenter"",""5"",""13620""
","
","
","""event"",""trial"",""time""
""fullscreenenter"",""5"",""13620""
","
","521.1999999880791","","48","","","3000","1","","","images/redplanet1.jpg","images/alien2","images/alien1","images/rocket1","images/alien2","images/t.png","2","real","true","2","common","1","2022-07-21 22:15:33.280"
"two-step-fixation","146","675722","0.0-76.0-2.3","2144","2182","14","Female","true","true","false","true","""event"",""trial"",""time""
""fullscreenenter"",""5"",""13620""
","
","
","""event"",""trial"",""time""
""fullscreenenter"",""5"",""13620""
","
","","images/earth.jpg","","","","","","","","","","","","","","fixation","","","","","",""
"d3-animate-choice","147","678043","0.0-76.0-0.4","2144","2182","14","Female","true","true","false","true","""event"",""trial"",""time""
""fullscreenenter"",""5"",""13620""
","
","
","""event"",""trial"",""time""
""fullscreenenter"",""5"",""13620""
","
","305.69999998807907","","49","","","3000","1","","","images/earth.jpg","images/rocket2","images/rocket1","null","images/rocket1","","1","real","null","1","","",""
"d3-animate-choice","148","680476","0.0-76.0-1.4","2144","2182","14","Female","true","true","false","true","""event"",""trial"",""time""
""fullscreenenter"",""5"",""13620""
","
","
","""event"",""trial"",""time""
""fullscreenenter"",""5"",""13620""
","
","412.69999998807907","","48","","","3000","1","","","images/redplanet1.jpg","images/alien2","images/alien1","images/rocket1","images/alien2","images/nothing.png","2","real","true","2","common","0","2022-07-21 22:15:39.040"
"two-step-fixation","149","681484","0.0-76.0-2.4","2144","2182","14","Female","true","true","false","true","""event"",""trial"",""time""
""fullscreenenter"",""5"",""13620""
","
","
","""event"",""trial"",""time""
""fullscreenenter"",""5"",""13620""
","
","","images/earth.jpg","","","","","","","","","","","","","","fixation","","","","","",""
"d3-animate-choice","150","683794","0.0-76.0-0.5","2144","2182","14","Female","true","true","false","true","""event"",""trial"",""time""
""fullscreenenter"",""5"",""13620""
","
","
","""event"",""trial"",""time""
""fullscreenenter"",""5"",""13620""
","
","298.7999999523163","","49","","","3000","1","","","images/earth.jpg","images/rocket2","images/rocket1","null","images/rocket1","","1","real","null","1","","",""
"d3-animate-choice","151","686295","0.0-76.0-1.5","2144","2182","14","Female","true","true","false","true","""event"",""trial"",""time""
""fullscreenenter"",""5"",""13620""
","
","
","""event"",""trial"",""time""
""fullscreenenter"",""5"",""13620""
","
","494","","48","","","3000","1","","","images/redplanet1.jpg","images/alien2","images/alien1","images/rocket1","images/alien2","images/nothing.png","2","real","true","2","common","0","2022-07-21 22:15:44.859"
"two-step-fixation","152","687306","0.0-76.0-2.5","2144","2182","14","Female","true","true","false","true","""event"",""trial"",""time""
""fullscreenenter"",""5"",""13620""
","
","
","""event"",""trial"",""time""
""fullscreenenter"",""5"",""13620""
","
","","images/earth.jpg","","","","","","","","","","","","","","fixation","","","","","",""
"d3-animate-choice","153","690039","0.0-76.0-0.6","2144","2182","14","Female","true","true","false","true","""event"",""trial"",""time""
""fullscreenenter"",""5"",""13620""
","
","
","""event"",""trial"",""time""
""fullscreenenter"",""5"",""13620""
","
","725.3999999761581","","48","","","3000","1","","","images/earth.jpg","images/rocket2","images/rocket1","null","images/rocket2","","1","real","null","2","","",""
"d3-animate-choice","154","693262","0.0-76.0-1.6","2144","2182","14","Female","true","true","false","true","""event"",""trial"",""time""
""fullscreenenter"",""5"",""13620""
","
","
","""event"",""trial"",""time""
""fullscreenenter"",""5"",""13620""
","
","1219.3999999761581","","49","","","3000","1","","","images/redplanet1.jpg","images/alien2","images/alien1","images/rocket2","images/alien1","images/t.png","2","real","false","1","rare","1","2022-07-21 22:15:51.826"
"two-step-fixation","155","694272","0.0-76.0-2.6","2144","2182","14","Female","true","true","false","true","""event"",""trial"",""time""
""fullscreenenter"",""5"",""13620""
","
","
","""event"",""trial"",""time""
""fullscreenenter"",""5"",""13620""
","
","","images/earth.jpg","","","","","","","","","","","","","","fixation","","","","","",""
"d3-animate-choice","156","696608","0.0-76.0-0.7","2144","2182","14","Female","true","true","false","true","""event"",""trial"",""time""
""fullscreenenter"",""5"",""13620""
","
","
","""event"",""trial"",""time""
""fullscreenenter"",""5"",""13620""
","
","330.69999998807907","","48","","","3000","1","","","images/earth.jpg","images/rocket2","images/rocket1","null","images/rocket2","","1","real","null","2","","",""
"d3-animate-choice","157","699126","0.0-76.0-1.7","2144","2182","14","Female","true","true","false","true","""event"",""trial"",""time""
""fullscreenenter"",""5"",""13620""
","
","
","""event"",""trial"",""time""
""fullscreenenter"",""5"",""13620""
","
","515.1000000238419","","49","","","3000","1","","","images/redplanet1.jpg","images/alien2","images/alien1","images/rocket2","images/alien1","images/t.png","2","real","false","1","rare","1","2022-07-21 22:15:57.691"
"two-step-fixation","158","700134","0.0-76.0-2.7","2144","2182","14","Female","true","true","false","true","""event"",""trial"",""time""
""fullscreenenter"",""5"",""13620""
","
","
","""event"",""trial"",""time""
""fullscreenenter"",""5"",""13620""
","
","","images/earth.jpg","","","","","","","","","","","","","","fixation","","","","","",""
"d3-animate-choice","159","702495","0.0-76.0-0.8","2144","2182","14","Female","true","true","false","true","""event"",""trial"",""time""
""fullscreenenter"",""5"",""13620""
","
","
","""event"",""trial"",""time""
""fullscreenenter"",""5"",""13620""
","
","356.60000002384186","","48","","","3000","1","","","images/earth.jpg","images/rocket2","images/rocket1","null","images/rocket2","","1","real","null","2","","",""
"d3-animate-choice","160","705808","0.0-76.0-1.8","2144","2182","14","Female","true","true","false","true","""event"",""trial"",""time""
""fullscreenenter"",""5"",""13620""
","
","
","""event"",""trial"",""time""
""fullscreenenter"",""5"",""13620""
","
","1307.8999999761581","","49","","","3000","1","","","images/purpleplanet.jpg","images/alien4","images/alien3","images/rocket2","images/alien3","images/nothing.png","2","real","true","1","common","0","2022-07-21 22:16:04.372"
"two-step-fixation","161","706811","0.0-76.0-2.8","2144","2182","14","Female","true","true","false","true","""event"",""trial"",""time""
""fullscreenenter"",""5"",""13620""
","
","
","""event"",""trial"",""time""
""fullscreenenter"",""5"",""13620""
","
","","images/earth.jpg","","","","","","","","","","","","","","fixation","","","","","",""
"d3-animate-choice","162","709227","0.0-76.0-0.9","2144","2182","14","Female","true","true","false","true","""event"",""trial"",""time""
""fullscreenenter"",""5"",""13620""
","
","
","""event"",""trial"",""time""
""fullscreenenter"",""5"",""13620""
","
","411.30000001192093","","48","","","3000","1","","","images/earth.jpg","images/rocket2","images/rocket1","null","images/rocket2","","1","real","null","2","","",""
"d3-animate-choice","163","712021","0.0-76.0-1.9","2144","2182","14","Female","true","true","false","true","""event"",""trial"",""time""
""fullscreenenter"",""5"",""13620""
","
","
","""event"",""trial"",""time""
""fullscreenenter"",""5"",""13620""
","
","783.1999999880791","","49","","","3000","1","","","images/redplanet1.jpg","images/alien2","images/alien1","images/rocket2","images/alien1","images/t.png","2","real","false","1","rare","1","2022-07-21 22:16:10.585"
"two-step-fixation","164","713026","0.0-76.0-2.9","2144","2182","14","Female","true","true","false","true","""event"",""trial"",""time""
""fullscreenenter"",""5"",""13620""
","
","
","""event"",""trial"",""time""
""fullscreenenter"",""5"",""13620""
","
","","images/earth.jpg","","","","","","","","","","","","","","fixation","","","","","",""
"d3-animate-choice","165","715324","0.0-76.0-0.10","2144","2182","14","Female","true","true","false","true","""event"",""trial"",""time""
""fullscreenenter"",""5"",""13620""
","
","
","""event"",""trial"",""time""
""fullscreenenter"",""5"",""13620""
","
","289.60000002384186","","48","","","3000","1","","","images/earth.jpg","images/rocket2","images/rocket1","null","images/rocket2","","1","real","null","2","","",""
"d3-animate-choice","166","717695","0.0-76.0-1.10","2144","2182","14","Female","true","true","false","true","""event"",""trial"",""time""
""fullscreenenter"",""5"",""13620""
","
","
","""event"",""trial"",""time""
""fullscreenenter"",""5"",""13620""
","
","361.39999997615814","","49","","","3000","1","","","images/redplanet1.jpg","images/alien2","images/alien1","images/rocket2","images/alien1","images/nothing.png","2","real","false","1","rare","0","2022-07-21 22:16:16.259"
"two-step-fixation","167","718704","0.0-76.0-2.10","2144","2182","14","Female","true","true","false","true","""event"",""trial"",""time""
""fullscreenenter"",""5"",""13620""
","
","
","""event"",""trial"",""time""
""fullscreenenter"",""5"",""13620""
","
","","images/earth.jpg","","","","","","","","","","","","","","fixation","","","","","",""
"d3-animate-choice","168","721012","0.0-76.0-0.11","2144","2182","14","Female","true","true","false","true","""event"",""trial"",""time""
""fullscreenenter"",""5"",""13620""
","
","
","""event"",""trial"",""time""
""fullscreenenter"",""5"",""13620""
","
","288.5","","48","","","3000","1","","","images/earth.jpg","images/rocket2","images/rocket1","null","images/rocket2","","1","real","null","2","","",""
"d3-animate-choice","169","724045","0.0-76.0-1.11","2144","2182","14","Female","true","true","false","true","""event"",""trial"",""time""
""fullscreenenter"",""5"",""13620""
","
","
","""event"",""trial"",""time""
""fullscreenenter"",""5"",""13620""
","
","1025.800000011921","","48","","","3000","1","","","images/purpleplanet.jpg","images/alien4","images/alien3","images/rocket2","images/alien4","images/nothing.png","2","real","true","2","common","0","2022-07-21 22:16:22.609"
"two-step-fixation","170","725051","0.0-76.0-2.11","2144","2182","14","Female","true","true","false","true","""event"",""trial"",""time""
""fullscreenenter"",""5"",""13620""
","
","
","""event"",""trial"",""time""
""fullscreenenter"",""5"",""13620""
","
","","images/earth.jpg","","","","","","","","","","","","","","fixation","","","","","",""
"d3-animate-choice","171","727389","0.0-76.0-0.12","2144","2182","14","Female","true","true","false","true","""event"",""trial"",""time""
""fullscreenenter"",""5"",""13620""
","
","
","""event"",""trial"",""time""
""fullscreenenter"",""5"",""13620""
","
","332.30000001192093","","48","","","3000","1","","","images/earth.jpg","images/rocket2","images/rocket1","null","images/rocket2","","1","real","null","2","","",""
"d3-animate-choice","172","730755","0.0-76.0-1.12","2144","2182","14","Female","true","true","false","true","""event"",""trial"",""time""
""fullscreenenter"",""5"",""13620""
","
","
","""event"",""trial"",""time""
""fullscreenenter"",""5"",""13620""
","
","1356.699999988079","","49","","","3000","1","","","images/purpleplanet.jpg","images/alien4","images/alien3","images/rocket2","images/alien3","images/nothing.png","2","real","true","1","common","0","2022-07-21 22:16:29.320"
"two-step-fixation","173","731763","0.0-76.0-2.12","2144","2182","14","Female","true","true","false","true","""event"",""trial"",""time""
""fullscreenenter"",""5"",""13620""
","
","
","""event"",""trial"",""time""
""fullscreenenter"",""5"",""13620""
","
","","images/earth.jpg","","","","","","","","","","","","","","fixation","","","","","",""
"d3-animate-choice","174","734038","0.0-76.0-0.13","2144","2182","14","Female","true","true","false","true","""event"",""trial"",""time""
""fullscreenenter"",""5"",""13620""
","
","
","""event"",""trial"",""time""
""fullscreenenter"",""5"",""13620""
","
","271.0999999642372","","49","","","3000","1","","","images/earth.jpg","images/rocket2","images/rocket1","null","images/rocket1","","1","real","null","1","","",""
"d3-animate-choice","175","737248","0.0-76.0-1.13","2144","2182","14","Female","true","true","false","true","""event"",""trial"",""time""
""fullscreenenter"",""5"",""13620""
","
","
","""event"",""trial"",""time""
""fullscreenenter"",""5"",""13620""
","
","1199.6000000238419","","49","","","3000","1","","","images/redplanet1.jpg","images/alien2","images/alien1","images/rocket1","images/alien1","images/nothing.png","2","real","true","1","common","0","2022-07-21 22:16:35.812"
"two-step-fixation","176","738253","0.0-76.0-2.13","2144","2182","14","Female","true","true","false","true","""event"",""trial"",""time""
""fullscreenenter"",""5"",""13620""
","
","
","""event"",""trial"",""time""
""fullscreenenter"",""5"",""13620""
","
","","images/earth.jpg","","","","","","","","","","","","","","fixation","","","","","",""
"d3-animate-choice","177","740507","0.0-76.0-0.14","2144","2182","14","Female","true","true","false","true","""event"",""trial"",""time""
""fullscreenenter"",""5"",""13620""
","
","
","""event"",""trial"",""time""
""fullscreenenter"",""5"",""13620""
","
","248.80000001192093","","49","","","3000","1","","","images/earth.jpg","images/rocket2","images/rocket1","null","images/rocket1","","1","real","null","1","","",""
"d3-animate-choice","178","742873","0.0-76.0-1.14","2144","2182","14","Female","true","true","false","true","""event"",""trial"",""time""
""fullscreenenter"",""5"",""13620""
","
","
","""event"",""trial"",""time""
""fullscreenenter"",""5"",""13620""
","
","360.7999999523163","","48","","","3000","1","","","images/redplanet1.jpg","images/alien2","images/alien1","images/rocket1","images/alien2","images/t.png","2","real","true","2","common","1","2022-07-21 22:16:41.437"
"two-step-fixation","179","743877","0.0-76.0-2.14","2144","2182","14","Female","true","true","false","true","""event"",""trial"",""time""
""fullscreenenter"",""5"",""13620""
","
","
","""event"",""trial"",""time""
""fullscreenenter"",""5"",""13620""
","
","","images/earth.jpg","","","","","","","","","","","","","","fixation","","","","","",""
"d3-animate-choice","180","746168","0.0-76.0-0.15","2144","2182","14","Female","true","true","false","true","""event"",""trial"",""time""
""fullscreenenter"",""5"",""13620""
","
","
","""event"",""trial"",""time""
""fullscreenenter"",""5"",""13620""
","
","284.19999998807907","","49","","","3000","1","","","images/earth.jpg","images/rocket2","images/rocket1","null","images/rocket1","","1","real","null","1","","",""
"d3-animate-choice","181","748519","0.0-76.0-1.15","2144","2182","14","Female","true","true","false","true","""event"",""trial"",""time""
""fullscreenenter"",""5"",""13620""
","
","
","""event"",""trial"",""time""
""fullscreenenter"",""5"",""13620""
","
","343.5999999642372","","48","","","3000","1","","","images/purpleplanet.jpg","images/alien4","images/alien3","images/rocket1","images/alien4","images/t.png","2","real","false","2","rare","1","2022-07-21 22:16:47.083"
"two-step-fixation","182","749524","0.0-76.0-2.15","2144","2182","14","Female","true","true","false","true","""event"",""trial"",""time""
""fullscreenenter"",""5"",""13620""
","
","
","""event"",""trial"",""time""
""fullscreenenter"",""5"",""13620""
","
","","images/earth.jpg","","","","","","","","","","","","","","fixation","","","","","",""
"d3-animate-choice","183","751823","0.0-76.0-0.16","2144","2182","14","Female","true","true","false","true","""event"",""trial"",""time""
""fullscreenenter"",""5"",""13620""
","
","
","""event"",""trial"",""time""
""fullscreenenter"",""5"",""13620""
","
","291.69999998807907","","49","","","3000","1","","","images/earth.jpg","images/rocket2","images/rocket1","null","images/rocket1","","1","real","null","1","","",""
"d3-animate-choice","184","754673","0.0-76.0-1.16","2144","2182","14","Female","true","true","false","true","""event"",""trial"",""time""
""fullscreenenter"",""5"",""13620""
","
","
","""event"",""trial"",""time""
""fullscreenenter"",""5"",""13620""
","
","843.1000000238419","","48","","","3000","1","","","images/redplanet1.jpg","images/alien2","images/alien1","images/rocket1","images/alien2","images/t.png","2","real","true","2","common","1","2022-07-21 22:16:53.237"
"two-step-fixation","185","755678","0.0-76.0-2.16","2144","2182","14","Female","true","true","false","true","""event"",""trial"",""time""
""fullscreenenter"",""5"",""13620""
","
","
","""event"",""trial"",""time""
""fullscreenenter"",""5"",""13620""
","
","","images/earth.jpg","","","","","","","","","","","","","","fixation","","","","","",""
"d3-animate-choice","186","757985","0.0-76.0-0.17","2144","2182","14","Female","true","true","false","true","""event"",""trial"",""time""
""fullscreenenter"",""5"",""13620""
","
","
","""event"",""trial"",""time""
""fullscreenenter"",""5"",""13620""
","
","295","","49","","","3000","1","","","images/earth.jpg","images/rocket2","images/rocket1","null","images/rocket1","","1","real","null","1","","",""
"d3-animate-choice","187","760439","0.0-76.0-1.17","2144","2182","14","Female","true","true","false","true","""event"",""trial"",""time""
""fullscreenenter"",""5"",""13620""
","
","
","""event"",""trial"",""time""
""fullscreenenter"",""5"",""13620""
","
","444.5999999642372","","48","","","3000","1","","","images/redplanet1.jpg","images/alien2","images/alien1","images/rocket1","images/alien2","images/nothing.png","2","real","true","2","common","0","2022-07-21 22:16:59.003"
"two-step-fixation","188","761442","0.0-76.0-2.17","2144","2182","14","Female","true","true","false","true","""event"",""trial"",""time""
""fullscreenenter"",""5"",""13620""
","
","
","""event"",""trial"",""time""
""fullscreenenter"",""5"",""13620""
","
","","images/earth.jpg","","","","","","","","","","","","","","fixation","","","","","",""
"d3-animate-choice","189","763756","0.0-76.0-0.18","2144","2182","14","Female","true","true","false","true","""event"",""trial"",""time""
""fullscreenenter"",""5"",""13620""
","
","
","""event"",""trial"",""time""
""fullscreenenter"",""5"",""13620""
","
","300.0999999642372","","49","","","3000","1","","","images/earth.jpg","images/rocket2","images/rocket1","null","images/rocket1","","1","real","null","1","","",""
"d3-animate-choice","190","766193","0.0-76.0-1.18","2144","2182","14","Female","true","true","false","true","""event"",""trial"",""time""
""fullscreenenter"",""5"",""13620""
","
","
","""event"",""trial"",""time""
""fullscreenenter"",""5"",""13620""
","
","433","","48","","","3000","1","","","images/redplanet1.jpg","images/alien2","images/alien1","images/rocket1","images/alien2","images/nothing.png","2","real","true","2","common","0","2022-07-21 22:17:04.757"
"two-step-fixation","191","767197","0.0-76.0-2.18","2144","2182","14","Female","true","true","false","true","""event"",""trial"",""time""
""fullscreenenter"",""5"",""13620""
","
","
","""event"",""trial"",""time""
""fullscreenenter"",""5"",""13620""
","
","","images/earth.jpg","","","","","","","","","","","","","","fixation","","","","","",""
"d3-animate-choice","192","769906","0.0-76.0-0.19","2144","2182","14","Female","true","true","false","true","""event"",""trial"",""time""
""fullscreenenter"",""5"",""13620""
","
","
","""event"",""trial"",""time""
""fullscreenenter"",""5"",""13620""
","
","701.9000000357628","","49","","","3000","1","","","images/earth.jpg","images/rocket2","images/rocket1","null","images/rocket1","","1","real","null","1","","",""
"d3-animate-choice","193","772673","0.0-76.0-1.19","2144","2182","14","Female","true","true","false","true","""event"",""trial"",""time""
""fullscreenenter"",""5"",""13620""
","
","
","""event"",""trial"",""time""
""fullscreenenter"",""5"",""13620""
","
","763.1000000238419","","48","","","3000","1","","","images/purpleplanet.jpg","images/alien4","images/alien3","images/rocket1","images/alien4","images/t.png","2","real","false","2","rare","1","2022-07-21 22:17:11.237"
"two-step-fixation","194","773679","0.0-76.0-2.19","2144","2182","14","Female","true","true","false","true","""event"",""trial"",""time""
""fullscreenenter"",""5"",""13620""
","
","
","""event"",""trial"",""time""
""fullscreenenter"",""5"",""13620""
","
","","images/earth.jpg","","","","","","","","","","","","","","fixation","","","","","",""
"d3-animate-choice","195","776124","0.0-76.0-0.20","2144","2182","14","Female","true","true","false","true","""event"",""trial"",""time""
""fullscreenenter"",""5"",""13620""
","
","
","""event"",""trial"",""time""
""fullscreenenter"",""5"",""13620""
","
","441","","49","","","3000","1","","","images/earth.jpg","images/rocket2","images/rocket1","null","images/rocket1","","1","real","null","1","","",""
"d3-animate-choice","196","778598","0.0-76.0-1.20","2144","2182","14","Female","true","true","false","true","""event"",""trial"",""time""
""fullscreenenter"",""5"",""13620""
","
","
","""event"",""trial"",""time""
""fullscreenenter"",""5"",""13620""
","
","469.0999999642372","","49","","","3000","1","","","images/redplanet1.jpg","images/alien2","images/alien1","images/rocket1","images/alien1","images/t.png","2","real","true","1","common","1","2022-07-21 22:17:17.162"
"two-step-fixation","197","779605","0.0-76.0-2.20","2144","2182","14","Female","true","true","false","true","""event"",""trial"",""time""
""fullscreenenter"",""5"",""13620""
","
","
","""event"",""trial"",""time""
""fullscreenenter"",""5"",""13620""
","
","","images/earth.jpg","","","","","","","","","","","","","","fixation","","","","","",""
"d3-animate-choice","198","782022","0.0-76.0-0.21","2144","2182","14","Female","true","true","false","true","""event"",""trial"",""time""
""fullscreenenter"",""5"",""13620""
","
","
","""event"",""trial"",""time""
""fullscreenenter"",""5"",""13620""
","
","410.5","","49","","","3000","1","","","images/earth.jpg","images/rocket2","images/rocket1","null","images/rocket1","","1","real","null","1","","",""
"d3-animate-choice","199","784598","0.0-76.0-1.21","2144","2182","14","Female","true","true","false","true","""event"",""trial"",""time""
""fullscreenenter"",""5"",""13620""
","
","
","""event"",""trial"",""time""
""fullscreenenter"",""5"",""13620""
","
","570.8000000119209","","49","","","3000","1","","","images/redplanet1.jpg","images/alien2","images/alien1","images/rocket1","images/alien1","images/t.png","2","real","true","1","common","1","2022-07-21 22:17:23.162"
"two-step-fixation","200","785605","0.0-76.0-2.21","2144","2182","14","Female","true","true","false","true","""event"",""trial"",""time""
""fullscreenenter"",""5"",""13620""
","
","
","""event"",""trial"",""time""
""fullscreenenter"",""5"",""13620""
","
","","images/earth.jpg","","","","","","","","","","","","","","fixation","","","","","",""
"d3-animate-choice","201","787960","0.0-76.0-0.22","2144","2182","14","Female","true","true","false","true","""event"",""trial"",""time""
""fullscreenenter"",""5"",""13620""
","
","
","""event"",""trial"",""time""
""fullscreenenter"",""5"",""13620""
","
","343.80000001192093","","49","","","3000","1","","","images/earth.jpg","images/rocket2","images/rocket1","null","images/rocket1","","1","real","null","1","","",""
"d3-animate-choice","202","790793","0.0-76.0-1.22","2144","2182","14","Female","true","true","false","true","""event"",""trial"",""time""
""fullscreenenter"",""5"",""13620""
","
","
","""event"",""trial"",""time""
""fullscreenenter"",""5"",""13620""
","
","827.1999999880791","","48","","","3000","1","","","images/purpleplanet.jpg","images/alien4","images/alien3","images/rocket1","images/alien4","images/t.png","2","real","false","2","rare","1","2022-07-21 22:17:29.357"
"two-step-fixation","203","791796","0.0-76.0-2.22","2144","2182","14","Female","true","true","false","true","""event"",""trial"",""time""
""fullscreenenter"",""5"",""13620""
","
","
","""event"",""trial"",""time""
""fullscreenenter"",""5"",""13620""
","
","","images/earth.jpg","","","","","","","","","","","","","","fixation","","","","","",""
"d3-animate-choice","204","794333","0.0-76.0-0.23","2144","2182","14","Female","true","true","false","true","""event"",""trial"",""time""
""fullscreenenter"",""5"",""13620""
","
","
","""event"",""trial"",""time""
""fullscreenenter"",""5"",""13620""
","
","530.9000000357628","","48","","","3000","1","","","images/earth.jpg","images/rocket2","images/rocket1","null","images/rocket2","","1","real","null","2","","",""
"d3-animate-choice","205","796664","0.0-76.0-1.23","2144","2182","14","Female","true","true","false","true","""event"",""trial"",""time""
""fullscreenenter"",""5"",""13620""
","
","
","""event"",""trial"",""time""
""fullscreenenter"",""5"",""13620""
","
","324.5","","48","","","3000","1","","","images/purpleplanet.jpg","images/alien4","images/alien3","images/rocket2","images/alien4","images/nothing.png","2","real","true","2","common","0","2022-07-21 22:17:35.228"
"two-step-fixation","206","797672","0.0-76.0-2.23","2144","2182","14","Female","true","true","false","true","""event"",""trial"",""time""
""fullscreenenter"",""5"",""13620""
","
","
","""event"",""trial"",""time""
""fullscreenenter"",""5"",""13620""
","
","","images/earth.jpg","","","","","","","","","","","","","","fixation","","","","","",""
"d3-animate-choice","207","799907","0.0-76.0-0.24","2144","2182","14","Female","true","true","false","true","""event"",""trial"",""time""
""fullscreenenter"",""5"",""13620""
","
","
","""event"",""trial"",""time""
""fullscreenenter"",""5"",""13620""
","
","230.70000004768372","","49","","","3000","1","","","images/earth.jpg","images/rocket2","images/rocket1","null","images/rocket1","","1","real","null","1","","",""
"d3-animate-choice","208","802460","0.0-76.0-1.24","2144","2182","14","Female","true","true","false","true","""event"",""trial"",""time""
""fullscreenenter"",""5"",""13620""
","
","
","""event"",""trial"",""time""
""fullscreenenter"",""5"",""13620""
","
","549","","49","","","3000","1","","","images/redplanet1.jpg","images/alien2","images/alien1","images/rocket1","images/alien1","images/nothing.png","2","real","true","1","common","0","2022-07-21 22:17:41.024"
"two-step-fixation","209","803468","0.0-76.0-2.24","2144","2182","14","Female","true","true","false","true","""event"",""trial"",""time""
""fullscreenenter"",""5"",""13620""
","
","
","""event"",""trial"",""time""
""fullscreenenter"",""5"",""13620""
","
","","images/earth.jpg","","","","","","","","","","","","","","fixation","","","","","",""
"d3-animate-choice","210","805717","0.0-76.0-0.25","2144","2182","14","Female","true","true","false","true","""event"",""trial"",""time""
""fullscreenenter"",""5"",""13620""
","
","
","""event"",""trial"",""time""
""fullscreenenter"",""5"",""13620""
","
","238.60000002384186","","49","","","3000","1","","","images/earth.jpg","images/rocket2","images/rocket1","null","images/rocket1","","1","real","null","1","","",""
"d3-animate-choice","211","808298","0.0-76.0-1.25","2144","2182","14","Female","true","true","false","true","""event"",""trial"",""time""
""fullscreenenter"",""5"",""13620""
","
","
","""event"",""trial"",""time""
""fullscreenenter"",""5"",""13620""
","
","574.3999999761581","","48","","","3000","1","","","images/purpleplanet.jpg","images/alien4","images/alien3","images/rocket1","images/alien4","images/t.png","2","real","false","2","rare","1","2022-07-21 22:17:46.862"
"two-step-fixation","212","809303","0.0-76.0-2.25","2144","2182","14","Female","true","true","false","true","""event"",""trial"",""time""
""fullscreenenter"",""5"",""13620""
","
","
","""event"",""trial"",""time""
""fullscreenenter"",""5"",""13620""
","
","","images/earth.jpg","","","","","","","","","","","","","","fixation","","","","","",""
"d3-animate-choice","213","812098","0.0-76.0-0.26","2144","2182","14","Female","true","true","false","true","""event"",""trial"",""time""
""fullscreenenter"",""5"",""13620""
","
","
","""event"",""trial"",""time""
""fullscreenenter"",""5"",""13620""
","
","783.6000000238419","","48","","","3000","1","","","images/earth.jpg","images/rocket2","images/rocket1","null","images/rocket2","","1","real","null","2","","",""
"d3-animate-choice","214","814537","0.0-76.0-1.26","2144","2182","14","Female","true","true","false","true","""event"",""trial"",""time""
""fullscreenenter"",""5"",""13620""
","
","
","""event"",""trial"",""time""
""fullscreenenter"",""5"",""13620""
","
","431.30000001192093","","48","","","3000","1","","","images/purpleplanet.jpg","images/alien4","images/alien3","images/rocket2","images/alien4","images/t.png","2","real","true","2","common","1","2022-07-21 22:17:53.101"
"two-step-fixation","215","815546","0.0-76.0-2.26","2144","2182","14","Female","true","true","false","true","""event"",""trial"",""time""
""fullscreenenter"",""5"",""13620""
","
","
","""event"",""trial"",""time""
""fullscreenenter"",""5"",""13620""
","
","","images/earth.jpg","","","","","","","","","","","","","","fixation","","","","","",""
"d3-animate-choice","216","817985","0.0-76.0-0.27","2144","2182","14","Female","true","true","false","true","""event"",""trial"",""time""
""fullscreenenter"",""5"",""13620""
","
","
","""event"",""trial"",""time""
""fullscreenenter"",""5"",""13620""
","
","428.2999999523163","","48","","","3000","1","","","images/earth.jpg","images/rocket2","images/rocket1","null","images/rocket2","","1","real","null","2","","",""
"d3-animate-choice","217","820354","0.0-76.0-1.27","2144","2182","14","Female","true","true","false","true","""event"",""trial"",""time""
""fullscreenenter"",""5"",""13620""
","
","
","""event"",""trial"",""time""
""fullscreenenter"",""5"",""13620""
","
","366.5999999642372","","48","","","3000","1","","","images/purpleplanet.jpg","images/alien4","images/alien3","images/rocket2","images/alien4","images/t.png","2","real","true","2","common","1","2022-07-21 22:17:58.918"
"two-step-fixation","218","821359","0.0-76.0-2.27","2144","2182","14","Female","true","true","false","true","""event"",""trial"",""time""
""fullscreenenter"",""5"",""13620""
","
","
","""event"",""trial"",""time""
""fullscreenenter"",""5"",""13620""
","
","","images/earth.jpg","","","","","","","","","","","","","","fixation","","","","","",""
"d3-animate-choice","219","823644","0.0-76.0-0.28","2144","2182","14","Female","true","true","false","true","""event"",""trial"",""time""
""fullscreenenter"",""5"",""13620""
","
","
","""event"",""trial"",""time""
""fullscreenenter"",""5"",""13620""
","
","275.2999999523163","","48","","","3000","1","","","images/earth.jpg","images/rocket2","images/rocket1","null","images/rocket2","","1","real","null","2","","",""
"d3-animate-choice","220","827272","0.0-76.0-1.28","2144","2182","14","Female","true","true","false","true","""event"",""trial"",""time""
""fullscreenenter"",""5"",""13620""
","
","
","""event"",""trial"",""time""
""fullscreenenter"",""5"",""13620""
","
","1624.5","","48","","","3000","1","","","images/redplanet1.jpg","images/alien2","images/alien1","images/rocket2","images/alien2","images/t.png","2","real","false","2","rare","1","2022-07-21 22:18:05.836"
"two-step-fixation","221","828277","0.0-76.0-2.28","2144","2182","14","Female","true","true","false","true","""event"",""trial"",""time""
""fullscreenenter"",""5"",""13620""
","
","
","""event"",""trial"",""time""
""fullscreenenter"",""5"",""13620""
","
","","images/earth.jpg","","","","","","","","","","","","","","fixation","","","","","",""
"d3-animate-choice","222","830557","0.0-76.0-0.29","2144","2182","14","Female","true","true","false","true","""event"",""trial"",""time""
""fullscreenenter"",""5"",""13620""
","
","
","""event"",""trial"",""time""
""fullscreenenter"",""5"",""13620""
","
","277.30000001192093","","48","","","3000","1","","","images/earth.jpg","images/rocket2","images/rocket1","null","images/rocket2","","1","real","null","2","","",""
"d3-animate-choice","223","832900","0.0-76.0-1.29","2144","2182","14","Female","true","true","false","true","""event"",""trial"",""time""
""fullscreenenter"",""5"",""13620""
","
","
","""event"",""trial"",""time""
""fullscreenenter"",""5"",""13620""
","
","338.30000001192093","","48","","","3000","1","","","images/purpleplanet.jpg","images/alien4","images/alien3","images/rocket2","images/alien4","images/t.png","2","real","true","2","common","1","2022-07-21 22:18:11.464"
"two-step-fixation","224","833907","0.0-76.0-2.29","2144","2182","14","Female","true","true","false","true","""event"",""trial"",""time""
""fullscreenenter"",""5"",""13620""
","
","
","""event"",""trial"",""time""
""fullscreenenter"",""5"",""13620""
","
","","images/earth.jpg","","","","","","","","","","","","","","fixation","","","","","",""
"d3-animate-choice","225","836216","0.0-76.0-0.30","2144","2182","14","Female","true","true","false","true","""event"",""trial"",""time""
""fullscreenenter"",""5"",""13620""
","
","
","""event"",""trial"",""time""
""fullscreenenter"",""5"",""13620""
","
","304.30000001192093","","48","","","3000","1","","","images/earth.jpg","images/rocket2","images/rocket1","null","images/rocket2","","1","real","null","2","","",""
"d3-animate-choice","226","838562","0.0-76.0-1.30","2144","2182","14","Female","true","true","false","true","""event"",""trial"",""time""
""fullscreenenter"",""5"",""13620""
","
","
","""event"",""trial"",""time""
""fullscreenenter"",""5"",""13620""
","
","338.80000001192093","","48","","","3000","1","","","images/purpleplanet.jpg","images/alien4","images/alien3","images/rocket2","images/alien4","images/t.png","2","real","true","2","common","1","2022-07-21 22:18:17.126"
"two-step-fixation","227","839565","0.0-76.0-2.30","2144","2182","14","Female","true","true","false","true","""event"",""trial"",""time""
""fullscreenenter"",""5"",""13620""
","
","
","""event"",""trial"",""time""
""fullscreenenter"",""5"",""13620""
","
","","images/earth.jpg","","","","","","","","","","","","","","fixation","","","","","",""
"d3-animate-choice","228","841911","0.0-76.0-0.31","2144","2182","14","Female","true","true","false","true","""event"",""trial"",""time""
""fullscreenenter"",""5"",""13620""
","
","
","""event"",""trial"",""time""
""fullscreenenter"",""5"",""13620""
","
","341.39999997615814","","48","","","3000","1","","","images/earth.jpg","images/rocket2","images/rocket1","null","images/rocket2","","1","real","null","2","","",""
"d3-animate-choice","229","844237","0.0-76.0-1.31","2144","2182","14","Female","true","true","false","true","""event"",""trial"",""time""
""fullscreenenter"",""5"",""13620""
","
","
","""event"",""trial"",""time""
""fullscreenenter"",""5"",""13620""
","
","316.2999999523163","","48","","","3000","1","","","images/purpleplanet.jpg","images/alien4","images/alien3","images/rocket2","images/alien4","images/t.png","2","real","true","2","common","1","2022-07-21 22:18:22.801"
"two-step-fixation","230","845248","0.0-76.0-2.31","2144","2182","14","Female","true","true","false","true","""event"",""trial"",""time""
""fullscreenenter"",""5"",""13620""
","
","
","""event"",""trial"",""time""
""fullscreenenter"",""5"",""13620""
","
","","images/earth.jpg","","","","","","","","","","","","","","fixation","","","","","",""
"d3-animate-choice","231","847281","0.0-76.0-0.32","2144","2182","14","Female","true","true","false","true","""event"",""trial"",""time""
""fullscreenenter"",""5"",""13620""
","
","
","""event"",""trial"",""time""
""fullscreenenter"",""5"",""13620""
","
","23","","48","","","3000","1","","","images/earth.jpg","images/rocket2","images/rocket1","null","images/rocket2","","1","real","null","2","","",""
"d3-animate-choice","232","849598","0.0-76.0-1.32","2144","2182","14","Female","true","true","false","true","""event"",""trial"",""time""
""fullscreenenter"",""5"",""13620""
","
","
","""event"",""trial"",""time""
""fullscreenenter"",""5"",""13620""
","
","310.5","","48","","","3000","1","","","images/purpleplanet.jpg","images/alien4","images/alien3","images/rocket2","images/alien4","images/nothing.png","2","real","true","2","common","0","2022-07-21 22:18:28.162"
"two-step-fixation","233","850601","0.0-76.0-2.32","2144","2182","14","Female","true","true","false","true","""event"",""trial"",""time""
""fullscreenenter"",""5"",""13620""
","
","
","""event"",""trial"",""time""
""fullscreenenter"",""5"",""13620""
","
","","images/earth.jpg","","","","","","","","","","","","","","fixation","","","","","",""
"d3-animate-choice","234","852881","0.0-76.0-0.33","2144","2182","14","Female","true","true","false","true","""event"",""trial"",""time""
""fullscreenenter"",""5"",""13620""
","
","
","""event"",""trial"",""time""
""fullscreenenter"",""5"",""13620""
","
","275.7000000476837","","48","","","3000","1","","","images/earth.jpg","images/rocket2","images/rocket1","null","images/rocket2","","1","real","null","2","","",""
"d3-animate-choice","235","856181","0.0-76.0-1.33","2144","2182","14","Female","true","true","false","true","""event"",""trial"",""time""
""fullscreenenter"",""5"",""13620""
","
","
","""event"",""trial"",""time""
""fullscreenenter"",""5"",""13620""
","
","1289.9000000357628","","48","","","3000","1","","","images/redplanet1.jpg","images/alien2","images/alien1","images/rocket2","images/alien2","images/t.png","2","real","false","2","rare","1","2022-07-21 22:18:34.745"
"two-step-fixation","236","857190","0.0-76.0-2.33","2144","2182","14","Female","true","true","false","true","""event"",""trial"",""time""
""fullscreenenter"",""5"",""13620""
","
","
","""event"",""trial"",""time""
""fullscreenenter"",""5"",""13620""
","
","","images/earth.jpg","","","","","","","","","","","","","","fixation","","","","","",""
"d3-animate-choice","237","859563","0.0-76.0-0.34","2144","2182","14","Female","true","true","false","true","""event"",""trial"",""time""
""fullscreenenter"",""5"",""13620""
","
","
","""event"",""trial"",""time""
""fullscreenenter"",""5"",""13620""
","
","365.2000000476837","","48","","","3000","1","","","images/earth.jpg","images/rocket2","images/rocket1","null","images/rocket2","","1","real","null","2","","",""
"d3-animate-choice","238","861897","0.0-76.0-1.34","2144","2182","14","Female","true","true","false","true","""event"",""trial"",""time""
""fullscreenenter"",""5"",""13620""
","
","
","""event"",""trial"",""time""
""fullscreenenter"",""5"",""13620""
","
","325.10000002384186","","48","","","3000","1","","","images/purpleplanet.jpg","images/alien4","images/alien3","images/rocket2","images/alien4","images/t.png","2","real","true","2","common","1","2022-07-21 22:18:40.461"
"two-step-fixation","239","862901","0.0-76.0-2.34","2144","2182","14","Female","true","true","false","true","""event"",""trial"",""time""
""fullscreenenter"",""5"",""13620""
","
","
","""event"",""trial"",""time""
""fullscreenenter"",""5"",""13620""
","
","","images/earth.jpg","","","","","","","","","","","","","","fixation","","","","","",""
"d3-animate-choice","240","865197","0.0-76.0-0.35","2144","2182","14","Female","true","true","false","true","""event"",""trial"",""time""
""fullscreenenter"",""5"",""13620""
","
","
","""event"",""trial"",""time""
""fullscreenenter"",""5"",""13620""
","
","289.5","","48","","","3000","1","","","images/earth.jpg","images/rocket2","images/rocket1","null","images/rocket2","","1","real","null","2","","",""
"d3-animate-choice","241","867551","0.0-76.0-1.35","2144","2182","14","Female","true","true","false","true","""event"",""trial"",""time""
""fullscreenenter"",""5"",""13620""
","
","
","""event"",""trial"",""time""
""fullscreenenter"",""5"",""13620""
","
","349.69999998807907","","48","","","3000","1","","","images/purpleplanet.jpg","images/alien4","images/alien3","images/rocket2","images/alien4","images/t.png","2","real","true","2","common","1","2022-07-21 22:18:46.116"
"two-step-fixation","242","868560","0.0-76.0-2.35","2144","2182","14","Female","true","true","false","true","""event"",""trial"",""time""
""fullscreenenter"",""5"",""13620""
","
","
","""event"",""trial"",""time""
""fullscreenenter"",""5"",""13620""
","
","","images/earth.jpg","","","","","","","","","","","","","","fixation","","","","","",""
"d3-animate-choice","243","870780","0.0-76.0-0.36","2144","2182","14","Female","true","true","false","true","""event"",""trial"",""time""
""fullscreenenter"",""5"",""13620""
","
","
","""event"",""trial"",""time""
""fullscreenenter"",""5"",""13620""
","
","215.5","","48","","","3000","1","","","images/earth.jpg","images/rocket2","images/rocket1","null","images/rocket2","","1","real","null","2","","",""
"d3-animate-choice","244","874105","0.0-76.0-1.36","2144","2182","14","Female","true","true","false","true","""event"",""trial"",""time""
""fullscreenenter"",""5"",""13620""
","
","
","""event"",""trial"",""time""
""fullscreenenter"",""5"",""13620""
","
","1319","","48","","","3000","1","","","images/redplanet1.jpg","images/alien2","images/alien1","images/rocket2","images/alien2","images/t.png","2","real","false","2","rare","1","2022-07-21 22:18:52.669"
"two-step-fixation","245","875112","0.0-76.0-2.36","2144","2182","14","Female","true","true","false","true","""event"",""trial"",""time""
""fullscreenenter"",""5"",""13620""
","
","
","""event"",""trial"",""time""
""fullscreenenter"",""5"",""13620""
","
","","images/earth.jpg","","","","","","","","","","","","","","fixation","","","","","",""
"d3-animate-choice","246","877349","0.0-76.0-0.37","2144","2182","14","Female","true","true","false","true","""event"",""trial"",""time""
""fullscreenenter"",""5"",""13620""
","
","
