"trial_type","trial_index","time_elapsed","internal_node_id","participant_id","subject_id","age","gender","rocket_sides","red_planet_first_rocket","red_display_order","purple_display_order","interactions","blur_events","focus_events","fullscreenenter_events","fullscreenexit_events","rt","stimulus","key_press","button_pressed","success","duration","valid_pressed","rts","keys","planet_text","right_text","left_text","center_text","chosen_text","reward_text","trial_stage","practice_trial","transition_type","transition","reward","timestamp","choice"
"pavlovia","0","3","0.0-0.0","843","688","15","Female","false","false","false","true","
","
","
","
","
","","","","","","","","","","","","","","","","","","","","","",""
"html-keyboard-response","1","4764","0.0-1.0","843","688","15","Female","false","false","false","true","
","
","
","
","
","4758.800000011921","Welcome! Press the space bar to begin.","32","","","","","","","","","","","","","","","","","","",""
"audio-keyboard-response","2","10734","0.0-2.0","843","688","15","Female","false","false","false","true","
","
","
","
","
","5960","audio/beep_loop.wav","32","","","","","","","","","","","","","","","","","","",""
"audio-button-response","3","14757","0.0-3.0","843","688","15","Female","false","false","false","true","
","
","
","
","
","NaN","audio/fish.mp3","","1","","","","","","","","","","","","","","","","","",""
"audio-button-response","4","17964","0.0-4.0","843","688","15","Female","false","false","false","true","""event"",""trial"",""time""
""fullscreenenter"",""5"",""25912""
","
","
","""event"",""trial"",""time""
""fullscreenenter"",""5"",""25912""
","
","NaN","audio/tiger.mp3","","4","","","","","","","","","","","","","","","","","",""
"fullscreen","5","26889","0.0-5.0","843","688","15","Female","false","false","false","true","""event"",""trial"",""time""
""fullscreenenter"",""5"",""25912""
","
","
","""event"",""trial"",""time""
""fullscreenenter"",""5"",""25912""
","
","","","","","true","","","","","","","","","","","","","","","","",""
"d3-instructions","6","49166","0.0-6.0","843","688","15","Female","false","false","false","true","""event"",""trial"",""time""
""fullscreenenter"",""5"",""25912""
","
","
","""event"",""trial"",""time""
""fullscreenenter"",""5"",""25912""
","
","","","","","","","","","","","","","","","","","","","","","",""
"d3-instructions","7","61925","0.0-7.0","843","688","15","Female","false","false","false","true","""event"",""trial"",""time""
""fullscreenenter"",""5"",""25912""
","
","
","""event"",""trial"",""time""
""fullscreenenter"",""5"",""25912""
","
","","","","","","","","","","","","","","","","","","","","","",""
"d3-instructions","8","72006","0.0-8.0","843","688","15","Female","false","false","false","true","""event"",""trial"",""time""
""fullscreenenter"",""5"",""25912""
","
","
","""event"",""trial"",""time""
""fullscreenenter"",""5"",""25912""
","
","","","","","","","","","","","","","","","","","","","","","",""
"d3-instructions","9","96046","0.0-9.0","843","688","15","Female","false","false","false","true","""event"",""trial"",""time""
""fullscreenenter"",""5"",""25912""
","
","
","""event"",""trial"",""time""
""fullscreenenter"",""5"",""25912""
","
","","","","","","","","","","","","","","","","","","","","","",""
"d3-instructions","10","122629","0.0-10.0","843","688","15","Female","false","false","false","true","""event"",""trial"",""time""
""fullscreenenter"",""5"",""25912""
","
","
","""event"",""trial"",""time""
""fullscreenenter"",""5"",""25912""
","
","","","","","","","","","","","","","","","","","","","","","",""
"d3-animate-choice","11","132614","0.0-11.0","843","688","15","Female","false","false","false","true","""event"",""trial"",""time""
""fullscreenenter"",""5"",""25912""
","
","
","""event"",""trial"",""time""
""fullscreenenter"",""5"",""25912""
","
","4331.800000011921","","32","","","3000","1","7962.9000000059605,9559.699999988079","49,48","images/tutgreenplanet.jpg","images/tutalien1","images/tutalien2","null","images/tutalien2","","NA","practice","null","","","",""
"d3-animate-choice","12","135894","0.0-12.0","843","688","15","Female","false","false","false","true","""event"",""trial"",""time""
""fullscreenenter"",""5"",""25912""
","
","
","""event"",""trial"",""time""
""fullscreenenter"",""5"",""25912""
","
","1259.800000011921","","48","","","3000","1","","","images/tutgreenplanet.jpg","images/tutalien1","images/tutalien2","null","images/tutalien1","","NA","practice","null","","","",""
"d3-animate-choice","13","139174","0.0-13.0","843","688","15","Female","false","false","false","true","""event"",""trial"",""time""
""fullscreenenter"",""5"",""25912""
","
","
","""event"",""trial"",""time""
""fullscreenenter"",""5"",""25912""
","
","1267.7999999821186","","49","","","3000","1","","","images/tutgreenplanet.jpg","images/tutalien1","images/tutalien2","null","images/tutalien2","","NA","practice","null","","","",""
"d3-animate-choice","14","141870","0.0-14.0","843","688","15","Female","false","false","false","true","""event"",""trial"",""time""
""fullscreenenter"",""5"",""25912""
","
","
","""event"",""trial"",""time""
""fullscreenenter"",""5"",""25912""
","
","684.5","","48","","","3000","1","","","images/tutgreenplanet.jpg","images/tutalien1","images/tutalien2","null","images/tutalien1","","NA","practice","null","","","",""
"d3-instructions","15","177509","0.0-15.0","843","688","15","Female","false","false","false","true","""event"",""trial"",""time""
""fullscreenenter"",""5"",""25912""
","
","
","""event"",""trial"",""time""
""fullscreenenter"",""5"",""25912""
","
","","","","","","","","","","","","","","","","","","","","","",""
"d3-instructions","16","184717","0.0-16.0","843","688","15","Female","false","false","false","true","""event"",""trial"",""time""
""fullscreenenter"",""5"",""25912""
","
","
","""event"",""trial"",""time""
""fullscreenenter"",""5"",""25912""
","
","","","","","","","","","","","","","","","","","","","","","",""
"d3-instructions","17","195277","0.0-17.0","843","688","15","Female","false","false","false","true","""event"",""trial"",""time""
""fullscreenenter"",""5"",""25912""
","
","
","""event"",""trial"",""time""
""fullscreenenter"",""5"",""25912""
","
","","","","","","","","","","","","","","","","","","","","","",""
"d3-instructions","18","209493","0.0-18.0","843","688","15","Female","false","false","false","true","""event"",""trial"",""time""
""fullscreenenter"",""5"",""25912""
","
","
","""event"",""trial"",""time""
""fullscreenenter"",""5"",""25912""
","
","","","","","","","","","","","","","","","","","","","","","",""
"d3-instructions","19","224166","0.0-19.0","843","688","15","Female","false","false","false","true","""event"",""trial"",""time""
""fullscreenenter"",""5"",""25912""
","
","
","""event"",""trial"",""time""
""fullscreenenter"",""5"",""25912""
","
","","","","","","","","","","","","","","","","","","","","","",""
"d3-animate-choice","20","227825","0.0-20.0","843","688","15","Female","false","false","false","true","""event"",""trial"",""time""
""fullscreenenter"",""5"",""25912""
","
","
","""event"",""trial"",""time""
""fullscreenenter"",""5"",""25912""
","
","1652.2000000178814","","49","","","3000","1","2868.2000000178814","49","images/tutyellowplanet.jpg","null","images/tutalien3","null","images/tutalien3","images/t.png","NA","practice","null","","","",""
"d3-animate-choice","21","230583","0.0-21.0","843","688","15","Female","false","false","false","true","""event"",""trial"",""time""
""fullscreenenter"",""5"",""25912""
","
","
","""event"",""trial"",""time""
""fullscreenenter"",""5"",""25912""
","
","754.9000000059605","","49","","","3000","1","","","images/tutyellowplanet.jpg","null","images/tutalien3","null","images/tutalien3","images/t.png","NA","practice","null","","","",""
"d3-animate-choice","22","233290","0.0-22.0","843","688","15","Female","false","false","false","true","""event"",""trial"",""time""
""fullscreenenter"",""5"",""25912""
","
","
","""event"",""trial"",""time""
""fullscreenenter"",""5"",""25912""
","
","698.6999999880791","","49","","","3000","1","","","images/tutyellowplanet.jpg","null","images/tutalien3","null","images/tutalien3","images/nothing.png","NA","practice","null","","","",""
"d3-animate-choice","23","235964","0.0-23.0","843","688","15","Female","false","false","false","true","""event"",""trial"",""time""
""fullscreenenter"",""5"",""25912""
","
","
","""event"",""trial"",""time""
""fullscreenenter"",""5"",""25912""
","
","660.2000000178814","","49","","","3000","1","","","images/tutyellowplanet.jpg","null","images/tutalien3","null","images/tutalien3","images/nothing.png","NA","practice","null","","","",""
"d3-animate-choice","24","238525","0.0-24.0","843","688","15","Female","false","false","false","true","""event"",""trial"",""time""
""fullscreenenter"",""5"",""25912""
","
","
","""event"",""trial"",""time""
""fullscreenenter"",""5"",""25912""
","
","542.6999999880791","","49","","","3000","1","","","images/tutyellowplanet.jpg","null","images/tutalien3","null","images/tutalien3","images/t.png","NA","practice","null","","","",""
"d3-animate-choice","25","241063","0.0-25.0","843","688","15","Female","false","false","false","true","""event"",""trial"",""time""
""fullscreenenter"",""5"",""25912""
","
","
","""event"",""trial"",""time""
""fullscreenenter"",""5"",""25912""
","
","534.2000000178814","","49","","","3000","1","","","images/tutyellowplanet.jpg","null","images/tutalien3","null","images/tutalien3","images/t.png","NA","practice","null","","","",""
"d3-animate-choice","26","243594","0.0-26.0","843","688","15","Female","false","false","false","true","""event"",""trial"",""time""
""fullscreenenter"",""5"",""25912""
","
","
","""event"",""trial"",""time""
""fullscreenenter"",""5"",""25912""
","
","525","","49","","","3000","1","","","images/tutyellowplanet.jpg","null","images/tutalien3","null","images/tutalien3","images/t.png","NA","practice","null","","","",""
"d3-animate-choice","27","246205","0.0-27.0","843","688","15","Female","false","false","false","true","""event"",""trial"",""time""
""fullscreenenter"",""5"",""25912""
","
","
","""event"",""trial"",""time""
""fullscreenenter"",""5"",""25912""
","
","587.7000000178814","","49","","","3000","1","","","images/tutyellowplanet.jpg","null","images/tutalien3","null","images/tutalien3","images/nothing.png","NA","practice","null","","","",""
"d3-animate-choice","28","248710","0.0-28.0","843","688","15","Female","false","false","false","true","""event"",""trial"",""time""
""fullscreenenter"",""5"",""25912""
","
","
","""event"",""trial"",""time""
""fullscreenenter"",""5"",""25912""
","
","502.30000001192093","","49","","","3000","1","","","images/tutyellowplanet.jpg","null","images/tutalien3","null","images/tutalien3","images/t.png","NA","practice","null","","","",""
"d3-animate-choice","29","251205","0.0-29.0","843","688","15","Female","false","false","false","true","""event"",""trial"",""time""
""fullscreenenter"",""5"",""25912""
","
","
","""event"",""trial"",""time""
""fullscreenenter"",""5"",""25912""
","
","476.59999999403954","","49","","","3000","1","","","images/tutyellowplanet.jpg","null","images/tutalien3","null","images/tutalien3","images/t.png","NA","practice","null","","","",""
"d3-instructions","30","258934","0.0-30.0","843","688","15","Female","false","false","false","true","""event"",""trial"",""time""
""fullscreenenter"",""5"",""25912""
","
","
","""event"",""trial"",""time""
""fullscreenenter"",""5"",""25912""
","
","","","","","","","","","","","","","","","","","","","","","",""
"d3-instructions","31","269302","0.0-31.0","843","688","15","Female","false","false","false","true","""event"",""trial"",""time""
""fullscreenenter"",""5"",""25912""
","
","
","""event"",""trial"",""time""
""fullscreenenter"",""5"",""25912""
","
","","","","","","","","","","","","","","","","","","","","","",""
"d3-instructions","32","280158","0.0-32.0","843","688","15","Female","false","false","false","true","""event"",""trial"",""time""
""fullscreenenter"",""5"",""25912""
","
","
","""event"",""trial"",""time""
""fullscreenenter"",""5"",""25912""
","
","","","","","","","","","","","","","","","","","","","","","",""
"d3-instructions","33","291534","0.0-33.0","843","688","15","Female","false","false","false","true","""event"",""trial"",""time""
""fullscreenenter"",""5"",""25912""
","
","
","""event"",""trial"",""time""
""fullscreenenter"",""5"",""25912""
","
","","","","","","","","","","","","","","","","","","","","","",""
"d3-animate-choice","34","295394","0.0-34.0","843","688","15","Female","false","false","false","true","""event"",""trial"",""time""
""fullscreenenter"",""5"",""25912""
","
","
","""event"",""trial"",""time""
""fullscreenenter"",""5"",""25912""
","
","1845.0999999940395","","48","","","3000","1","","","images/tutgreenplanet.jpg","images/tutalien1","images/tutalien2","null","images/tutalien1","images/nothing.png","NA","practice","null","","","",""
"d3-animate-choice","35","297964","0.0-35.0","843","688","15","Female","false","false","false","true","""event"",""trial"",""time""
""fullscreenenter"",""5"",""25912""
","
","
","""event"",""trial"",""time""
""fullscreenenter"",""5"",""25912""
","
","560.4000000059605","","48","","","3000","1","","","images/tutgreenplanet.jpg","images/tutalien1","images/tutalien2","null","images/tutalien1","images/nothing.png","NA","practice","null","","","",""
"d3-animate-choice","36","300364","0.0-36.0","843","688","15","Female","false","false","false","true","""event"",""trial"",""time""
""fullscreenenter"",""5"",""25912""
","
","
","""event"",""trial"",""time""
""fullscreenenter"",""5"",""25912""
","
","389.90000000596046","","48","","","3000","1","","","images/tutgreenplanet.jpg","images/tutalien1","images/tutalien2","null","images/tutalien1","images/nothing.png","NA","practice","null","","","",""
"d3-animate-choice","37","302794","0.0-37.0","843","688","15","Female","false","false","false","true","""event"",""trial"",""time""
""fullscreenenter"",""5"",""25912""
","
","
","""event"",""trial"",""time""
""fullscreenenter"",""5"",""25912""
","
","409.39999997615814","","49","","","3000","1","","","images/tutgreenplanet.jpg","images/tutalien1","images/tutalien2","null","images/tutalien2","images/t.png","NA","practice","null","","","",""
"d3-animate-choice","38","305255","0.0-38.0","843","688","15","Female","false","false","false","true","""event"",""trial"",""time""
""fullscreenenter"",""5"",""25912""
","
","
","""event"",""trial"",""time""
""fullscreenenter"",""5"",""25912""
","
","440.59999999403954","","49","","","3000","1","","","images/tutgreenplanet.jpg","images/tutalien1","images/tutalien2","null","images/tutalien2","images/t.png","NA","practice","null","","","",""
"d3-animate-choice","39","307711","0.0-39.0","843","688","15","Female","false","false","false","true","""event"",""trial"",""time""
""fullscreenenter"",""5"",""25912""
","
","
","""event"",""trial"",""time""
""fullscreenenter"",""5"",""25912""
","
","452.30000001192093","","49","","","3000","1","","","images/tutgreenplanet.jpg","images/tutalien1","images/tutalien2","null","images/tutalien2","images/t.png","NA","practice","null","","","",""
"d3-animate-choice","40","310144","0.0-40.0","843","688","15","Female","false","false","false","true","""event"",""trial"",""time""
""fullscreenenter"",""5"",""25912""
","
","
","""event"",""trial"",""time""
""fullscreenenter"",""5"",""25912""
","
","420","","49","","","3000","1","","","images/tutgreenplanet.jpg","images/tutalien1","images/tutalien2","null","images/tutalien2","images/t.png","NA","practice","null","","","",""
"d3-animate-choice","41","312678","0.0-41.0","843","688","15","Female","false","false","false","true","""event"",""trial"",""time""
""fullscreenenter"",""5"",""25912""
","
","
","""event"",""trial"",""time""
""fullscreenenter"",""5"",""25912""
","
","514.5","","49","","","3000","1","","","images/tutgreenplanet.jpg","images/tutalien1","images/tutalien2","null","images/tutalien2","images/nothing.png","NA","practice","null","","","",""
"d3-animate-choice","42","315125","0.0-42.0","843","688","15","Female","false","false","false","true","""event"",""trial"",""time""
""fullscreenenter"",""5"",""25912""
","
","
","""event"",""trial"",""time""
""fullscreenenter"",""5"",""25912""
","
","424","","48","","","3000","1","","","images/tutgreenplanet.jpg","images/tutalien1","images/tutalien2","null","images/tutalien1","images/nothing.png","NA","practice","null","","","",""
"d3-animate-choice","43","317675","0.0-43.0","843","688","15","Female","false","false","false","true","""event"",""trial"",""time""
""fullscreenenter"",""5"",""25912""
","
","
","""event"",""trial"",""time""
""fullscreenenter"",""5"",""25912""
","
","534.3000000119209","","48","","","3000","1","","","images/tutgreenplanet.jpg","images/tutalien1","images/tutalien2","null","images/tutalien1","images/nothing.png","NA","practice","null","","","",""
"d3-instructions","44","331478","0.0-44.0","843","688","15","Female","false","false","false","true","""event"",""trial"",""time""
""fullscreenenter"",""5"",""25912""
","
","
","""event"",""trial"",""time""
""fullscreenenter"",""5"",""25912""
","
","","","","","","","","","","","","","","","","","","","","","",""
"d3-instructions","45","338070","0.0-45.0","843","688","15","Female","false","false","false","true","""event"",""trial"",""time""
""fullscreenenter"",""5"",""25912""
","
","
","""event"",""trial"",""time""
""fullscreenenter"",""5"",""25912""
","
","","","","","","","","","","","","","","","","","","","","","",""
"d3-instructions","46","343509","0.0-46.0","843","688","15","Female","false","false","false","true","""event"",""trial"",""time""
""fullscreenenter"",""5"",""25912""
","
","
","""event"",""trial"",""time""
""fullscreenenter"",""5"",""25912""
","
","","","","","","","","","","","","","","","","","","","","","",""
"d3-instructions","47","362221","0.0-47.0","843","688","15","Female","false","false","false","true","""event"",""trial"",""time""
""fullscreenenter"",""5"",""25912""
","
","
","""event"",""trial"",""time""
""fullscreenenter"",""5"",""25912""
","
","","","","","","","","","","","","","","","","","","","","","",""
"d3-instructions","48","369590","0.0-48.0","843","688","15","Female","false","false","false","true","""event"",""trial"",""time""
""fullscreenenter"",""5"",""25912""
","
","
","""event"",""trial"",""time""
""fullscreenenter"",""5"",""25912""
","
","","","","","","","","","","","","","","","","","","","","","",""
"d3-instructions","49","381182","0.0-49.0","843","688","15","Female","false","false","false","true","""event"",""trial"",""time""
""fullscreenenter"",""5"",""25912""
","
","
","""event"",""trial"",""time""
""fullscreenenter"",""5"",""25912""
","
","","","","","","","","","","","","","","","","","","","","","",""
"d3-instructions","50","390912","0.0-50.0","843","688","15","Female","false","false","false","true","""event"",""trial"",""time""
""fullscreenenter"",""5"",""25912""
","
","
","""event"",""trial"",""time""
""fullscreenenter"",""5"",""25912""
","
","","","","","","","","","","","","","","","","","","","","","",""
"d3-instructions","51","394782","0.0-51.0","843","688","15","Female","false","false","false","true","""event"",""trial"",""time""
""fullscreenenter"",""5"",""25912""
","
","
","""event"",""trial"",""time""
""fullscreenenter"",""5"",""25912""
","
","","","","","","","","","","","","","","","","","","","","","",""
"d3-instructions","52","398221","0.0-52.0","843","688","15","Female","false","false","false","true","""event"",""trial"",""time""
""fullscreenenter"",""5"",""25912""
","
","
","""event"",""trial"",""time""
""fullscreenenter"",""5"",""25912""
","
","","","","","","","","","","","","","","","","","","","","","",""
"d3-instructions","53","411134","0.0-53.0","843","688","15","Female","false","false","false","true","""event"",""trial"",""time""
""fullscreenenter"",""5"",""25912""
","
","
","""event"",""trial"",""time""
""fullscreenenter"",""5"",""25912""
","
","","","","","","","","","","","","","","","","","","","","","",""
"d3-instructions","54","424853","0.0-54.0","843","688","15","Female","false","false","false","true","""event"",""trial"",""time""
""fullscreenenter"",""5"",""25912""
","
","
","""event"",""trial"",""time""
""fullscreenenter"",""5"",""25912""
","
","","","","","","","","","","","","","","","","","","","","","",""
"d3-instructions","55","437174","0.0-55.0","843","688","15","Female","false","false","false","true","""event"",""trial"",""time""
""fullscreenenter"",""5"",""25912""
","
","
","""event"",""trial"",""time""
""fullscreenenter"",""5"",""25912""
","
","","","","","","","","","","","","","","","","","","","","","",""
"d3-instructions","56","447192","0.0-56.0","843","688","15","Female","false","false","false","true","""event"",""trial"",""time""
""fullscreenenter"",""5"",""25912""
","
","
","""event"",""trial"",""time""
""fullscreenenter"",""5"",""25912""
","
","","","","","","","","","","","","","","","","","","","","","",""
"d3-instructions","57","458598","0.0-57.0","843","688","15","Female","false","false","false","true","""event"",""trial"",""time""
""fullscreenenter"",""5"",""25912""
","
","
","""event"",""trial"",""time""
""fullscreenenter"",""5"",""25912""
","
","","","","","","","","","","","","","","","","","","","","","",""
"d3-instructions","58","469982","0.0-58.0","843","688","15","Female","false","false","false","true","""event"",""trial"",""time""
""fullscreenenter"",""5"",""25912""
","
","
","""event"",""trial"",""time""
""fullscreenenter"",""5"",""25912""
","
","","","","","","","","","","","","","","","","","","","","","",""
"d3-instructions","59","476022","0.0-59.0","843","688","15","Female","false","false","false","true","""event"",""trial"",""time""
""fullscreenenter"",""5"",""25912""
","
","
","""event"",""trial"",""time""
""fullscreenenter"",""5"",""25912""
","
","","","","","","","","","","","","","","","","","","","","","",""
"d3-instructions","60","484566","0.0-60.0","843","688","15","Female","false","false","false","true","""event"",""trial"",""time""
""fullscreenenter"",""5"",""25912""
","
","
","""event"",""trial"",""time""
""fullscreenenter"",""5"",""25912""
","
","","","","","","","","","","","","","","","","","","","","","",""
"d3-animate-choice","61","488590","0.0-61.0-0.0","843","688","15","Female","false","false","false","true","""event"",""trial"",""time""
""fullscreenenter"",""5"",""25912""
","
","
","""event"",""trial"",""time""
""fullscreenenter"",""5"",""25912""
","
","1121.0999999940395","","189","","","3000","1","2617.0999999940395","48","images/earth.jpg","images/tutrocket1","images/tutrocket2","null","images/tutrocket1","","1","practice","null","","","",""
"d3-animate-choice","62","492594","0.0-61.0-1.0","843","688","15","Female","false","false","false","true","""event"",""trial"",""time""
""fullscreenenter"",""5"",""25912""
","
","
","""event"",""trial"",""time""
""fullscreenenter"",""5"",""25912""
","
","null","","null","","","3000","0","","","images/tutyellowplanet.jpg","images/tutalien4","images/tutalien3","images/tutrocket1","","","2","practice","true","common","0","2022-02-10 22:05:11.092",""
"two-step-fixation","63","493605","0.0-61.0-2.0","843","688","15","Female","false","false","false","true","""event"",""trial"",""time""
""fullscreenenter"",""5"",""25912""
","
","
","""event"",""trial"",""time""
""fullscreenenter"",""5"",""25912""
","
","","images/earth.jpg","","","","","","","","","","","","","","fixation","","","","","",""
"d3-animate-choice","64","497635","0.0-61.0-0.1","843","688","15","Female","false","false","false","true","""event"",""trial"",""time""
""fullscreenenter"",""5"",""25912""
","
","
","""event"",""trial"",""time""
""fullscreenenter"",""5"",""25912""
","
","2580","","48","","","3000","1","","","images/earth.jpg","images/tutrocket1","images/tutrocket2","null","images/tutrocket1","","1","practice","null","","","","2"
"d3-animate-choice","65","501075","0.0-61.0-1.1","843","688","15","Female","false","false","false","true","""event"",""trial"",""time""
""fullscreenenter"",""5"",""25912""
","
","
","""event"",""trial"",""time""
""fullscreenenter"",""5"",""25912""
","
","1412.5999999940395","","49","","","3000","1","","","images/tutyellowplanet.jpg","images/tutalien4","images/tutalien3","images/tutrocket1","images/tutalien3","images/nothing.png","2","practice","true","common","0","2022-02-10 22:05:19.572","1"
"two-step-fixation","66","502095","0.0-61.0-2.1","843","688","15","Female","false","false","false","true","""event"",""trial"",""time""
""fullscreenenter"",""5"",""25912""
","
","
","""event"",""trial"",""time""
""fullscreenenter"",""5"",""25912""
","
","","images/earth.jpg","","","","","","","","","","","","","","fixation","","","","","",""
"d3-animate-choice","67","505184","0.0-61.0-0.2","843","688","15","Female","false","false","false","true","""event"",""trial"",""time""
""fullscreenenter"",""5"",""25912""
","
","
","""event"",""trial"",""time""
""fullscreenenter"",""5"",""25912""
","
","1082.699999988079","","49","","","3000","1","","","images/earth.jpg","images/tutrocket1","images/tutrocket2","null","images/tutrocket2","","1","practice","null","","","","1"
"d3-animate-choice","68","508184","0.0-61.0-1.2","843","688","15","Female","false","false","false","true","""event"",""trial"",""time""
""fullscreenenter"",""5"",""25912""
","
","
","""event"",""trial"",""time""
""fullscreenenter"",""5"",""25912""
","
","980.2999999821186","","48","","","3000","1","","","images/tutgreenplanet.jpg","images/tutalien2","images/tutalien1","images/tutrocket2","images/tutalien2","images/t.png","2","practice","true","common","1","2022-02-10 22:05:26.681","2"
"two-step-fixation","69","509189","0.0-61.0-2.2","843","688","15","Female","false","false","false","true","""event"",""trial"",""time""
""fullscreenenter"",""5"",""25912""
","
","
","""event"",""trial"",""time""
""fullscreenenter"",""5"",""25912""
","
","","images/earth.jpg","","","","","","","","","","","","","","fixation","","","","","",""
"d3-animate-choice","70","511846","0.0-61.0-0.3","843","688","15","Female","false","false","false","true","""event"",""trial"",""time""
""fullscreenenter"",""5"",""25912""
","
","
","""event"",""trial"",""time""
""fullscreenenter"",""5"",""25912""
","
","653.1999999880791","","49","","","3000","1","","","images/earth.jpg","images/tutrocket1","images/tutrocket2","null","images/tutrocket2","","1","practice","null","","","","1"
"d3-animate-choice","71","514527","0.0-61.0-1.3","843","688","15","Female","false","false","false","true","""event"",""trial"",""time""
""fullscreenenter"",""5"",""25912""
","
","
","""event"",""trial"",""time""
""fullscreenenter"",""5"",""25912""
","
","674.5999999940395","","48","","","3000","1","","","images/tutyellowplanet.jpg","images/tutalien4","images/tutalien3","images/tutrocket2","images/tutalien4","images/nothing.png","2","practice","false","rare","0","2022-02-10 22:05:33.024","2"
"two-step-fixation","72","515531","0.0-61.0-2.3","843","688","15","Female","false","false","false","true","""event"",""trial"",""time""
""fullscreenenter"",""5"",""25912""
","
","
","""event"",""trial"",""time""
""fullscreenenter"",""5"",""25912""
","
","","images/earth.jpg","","","","","","","","","","","","","","fixation","","","","","",""
"d3-animate-choice","73","518024","0.0-61.0-0.4","843","688","15","Female","false","false","false","true","""event"",""trial"",""time""
""fullscreenenter"",""5"",""25912""
","
","
","""event"",""trial"",""time""
""fullscreenenter"",""5"",""25912""
","
","486","","49","","","3000","1","","","images/earth.jpg","images/tutrocket1","images/tutrocket2","null","images/tutrocket2","","1","practice","null","","","","1"
"d3-animate-choice","74","520884","0.0-61.0-1.4","843","688","15","Female","false","false","false","true","""event"",""trial"",""time""
""fullscreenenter"",""5"",""25912""
","
","
","""event"",""trial"",""time""
""fullscreenenter"",""5"",""25912""
","
","854.5","","48","","","3000","1","","","images/tutgreenplanet.jpg","images/tutalien2","images/tutalien1","images/tutrocket2","images/tutalien2","images/nothing.png","2","practice","true","common","0","2022-02-10 22:05:39.381","2"
"two-step-fixation","75","521888","0.0-61.0-2.4","843","688","15","Female","false","false","false","true","""event"",""trial"",""time""
""fullscreenenter"",""5"",""25912""
","
","
","""event"",""trial"",""time""
""fullscreenenter"",""5"",""25912""
","
","","images/earth.jpg","","","","","","","","","","","","","","fixation","","","","","",""
"d3-animate-choice","76","524887","0.0-61.0-0.5","843","688","15","Female","false","false","false","true","""event"",""trial"",""time""
""fullscreenenter"",""5"",""25912""
","
","
","""event"",""trial"",""time""
""fullscreenenter"",""5"",""25912""
","
","994","","49","","","3000","1","","","images/earth.jpg","images/tutrocket1","images/tutrocket2","null","images/tutrocket2","","1","practice","null","","","","1"
"d3-animate-choice","77","527528","0.0-61.0-1.5","843","688","15","Female","false","false","false","true","""event"",""trial"",""time""
""fullscreenenter"",""5"",""25912""
","
","
","""event"",""trial"",""time""
""fullscreenenter"",""5"",""25912""
","
","633.8000000119209","","49","","","3000","1","","","images/tutyellowplanet.jpg","images/tutalien4","images/tutalien3","images/tutrocket2","images/tutalien3","images/t.png","2","practice","false","rare","1","2022-02-10 22:05:46.025","1"
"two-step-fixation","78","528533","0.0-61.0-2.5","843","688","15","Female","false","false","false","true","""event"",""trial"",""time""
""fullscreenenter"",""5"",""25912""
","
","
","""event"",""trial"",""time""
""fullscreenenter"",""5"",""25912""
","
","","images/earth.jpg","","","","","","","","","","","","","","fixation","","","","","",""
"d3-animate-choice","79","531327","0.0-61.0-0.6","843","688","15","Female","false","false","false","true","""event"",""trial"",""time""
""fullscreenenter"",""5"",""25912""
","
","
","""event"",""trial"",""time""
""fullscreenenter"",""5"",""25912""
","
","789","","49","","","3000","1","","","images/earth.jpg","images/tutrocket1","images/tutrocket2","null","images/tutrocket2","","1","practice","null","","","","1"
"d3-animate-choice","80","534167","0.0-61.0-1.6","843","688","15","Female","false","false","false","true","""event"",""trial"",""time""
""fullscreenenter"",""5"",""25912""
","
","
","""event"",""trial"",""time""
""fullscreenenter"",""5"",""25912""
","
","834.8000000119209","","49","","","3000","1","","","images/tutgreenplanet.jpg","images/tutalien2","images/tutalien1","images/tutrocket2","images/tutalien1","images/nothing.png","2","practice","true","common","0","2022-02-10 22:05:52.664","1"
"two-step-fixation","81","535171","0.0-61.0-2.6","843","688","15","Female","false","false","false","true","""event"",""trial"",""time""
""fullscreenenter"",""5"",""25912""
","
","
","""event"",""trial"",""time""
""fullscreenenter"",""5"",""25912""
","
","","images/earth.jpg","","","","","","","","","","","","","","fixation","","","","","",""
"d3-animate-choice","82","538056","0.0-61.0-0.7","843","688","15","Female","false","false","false","true","""event"",""trial"",""time""
""fullscreenenter"",""5"",""25912""
","
","
","""event"",""trial"",""time""
""fullscreenenter"",""5"",""25912""
","
","877.6999999880791","","49","","","3000","1","","","images/earth.jpg","images/tutrocket1","images/tutrocket2","null","images/tutrocket2","","1","practice","null","","","","1"
"d3-animate-choice","83","540783","0.0-61.0-1.7","843","688","15","Female","false","false","false","true","""event"",""trial"",""time""
""fullscreenenter"",""5"",""25912""
","
","
","""event"",""trial"",""time""
""fullscreenenter"",""5"",""25912""
","
","721.7000000178814","","49","","","3000","1","","","images/tutgreenplanet.jpg","images/tutalien2","images/tutalien1","images/tutrocket2","images/tutalien1","images/nothing.png","2","practice","true","common","0","2022-02-10 22:05:59.281","1"
"two-step-fixation","84","541789","0.0-61.0-2.7","843","688","15","Female","false","false","false","true","""event"",""trial"",""time""
""fullscreenenter"",""5"",""25912""
","
","
","""event"",""trial"",""time""
""fullscreenenter"",""5"",""25912""
","
","","images/earth.jpg","","","","","","","","","","","","","","fixation","","","","","",""
"d3-animate-choice","85","544498","0.0-61.0-0.8","843","688","15","Female","false","false","false","true","""event"",""trial"",""time""
""fullscreenenter"",""5"",""25912""
","
","
","""event"",""trial"",""time""
""fullscreenenter"",""5"",""25912""
","
","705.1999999880791","","49","","","3000","1","","","images/earth.jpg","images/tutrocket1","images/tutrocket2","null","images/tutrocket2","","1","practice","null","","","","1"
"d3-animate-choice","86","547352","0.0-61.0-1.8","843","688","15","Female","false","false","false","true","""event"",""trial"",""time""
""fullscreenenter"",""5"",""25912""
","
","
","""event"",""trial"",""time""
""fullscreenenter"",""5"",""25912""
","
","846.9000000059605","","49","","","3000","1","","","images/tutgreenplanet.jpg","images/tutalien2","images/tutalien1","images/tutrocket2","images/tutalien1","images/nothing.png","2","practice","true","common","0","2022-02-10 22:06:05.849","1"
"two-step-fixation","87","548356","0.0-61.0-2.8","843","688","15","Female","false","false","false","true","""event"",""trial"",""time""
""fullscreenenter"",""5"",""25912""
","
","
","""event"",""trial"",""time""
""fullscreenenter"",""5"",""25912""
","
","","images/earth.jpg","","","","","","","","","","","","","","fixation","","","","","",""
"d3-animate-choice","88","551455","0.0-61.0-0.9","843","688","15","Female","false","false","false","true","""event"",""trial"",""time""
""fullscreenenter"",""5"",""25912""
","
","
","""event"",""trial"",""time""
""fullscreenenter"",""5"",""25912""
","
","1094.0999999940395","","48","","","3000","1","","","images/earth.jpg","images/tutrocket1","images/tutrocket2","null","images/tutrocket1","","1","practice","null","","","","2"
"d3-animate-choice","89","554175","0.0-61.0-1.9","843","688","15","Female","false","false","false","true","""event"",""trial"",""time""
""fullscreenenter"",""5"",""25912""
","
","
","""event"",""trial"",""time""
""fullscreenenter"",""5"",""25912""
","
","714.3000000119209","","49","","","3000","1","","","images/tutyellowplanet.jpg","images/tutalien4","images/tutalien3","images/tutrocket1","images/tutalien3","images/nothing.png","2","practice","true","common","0","2022-02-10 22:06:12.672","1"
"two-step-fixation","90","555179","0.0-61.0-2.9","843","688","15","Female","false","false","false","true","""event"",""trial"",""time""
""fullscreenenter"",""5"",""25912""
","
","
","""event"",""trial"",""time""
""fullscreenenter"",""5"",""25912""
","
","","images/earth.jpg","","","","","","","","","","","","","","fixation","","","","","",""
"d3-animate-choice","91","557738","0.0-61.0-0.10","843","688","15","Female","false","false","false","true","""event"",""trial"",""time""
""fullscreenenter"",""5"",""25912""
","
","
","""event"",""trial"",""time""
""fullscreenenter"",""5"",""25912""
","
","553.3999999761581","","48","","","3000","1","","","images/earth.jpg","images/tutrocket1","images/tutrocket2","null","images/tutrocket1","","1","practice","null","","","","2"
"d3-animate-choice","92","560439","0.0-61.0-1.10","843","688","15","Female","false","false","false","true","""event"",""trial"",""time""
""fullscreenenter"",""5"",""25912""
","
","
","""event"",""trial"",""time""
""fullscreenenter"",""5"",""25912""
","
","695.6999999880791","","49","","","3000","1","","","images/tutgreenplanet.jpg","images/tutalien2","images/tutalien1","images/tutrocket1","images/tutalien1","images/t.png","2","practice","false","rare","1","2022-02-10 22:06:18.936","1"
"two-step-fixation","93","561443","0.0-61.0-2.10","843","688","15","Female","false","false","false","true","""event"",""trial"",""time""
""fullscreenenter"",""5"",""25912""
","
","
","""event"",""trial"",""time""
""fullscreenenter"",""5"",""25912""
","
","","images/earth.jpg","","","","","","","","","","","","","","fixation","","","","","",""
"d3-animate-choice","94","564127","0.0-61.0-0.11","843","688","15","Female","false","false","false","true","""event"",""trial"",""time""
""fullscreenenter"",""5"",""25912""
","
","
","""event"",""trial"",""time""
""fullscreenenter"",""5"",""25912""
","
","679.5999999940395","","48","","","3000","1","","","images/earth.jpg","images/tutrocket1","images/tutrocket2","null","images/tutrocket1","","1","practice","null","","","","2"
"d3-animate-choice","95","566719","0.0-61.0-1.11","843","688","15","Female","false","false","false","true","""event"",""trial"",""time""
""fullscreenenter"",""5"",""25912""
","
","
","""event"",""trial"",""time""
""fullscreenenter"",""5"",""25912""
","
","586.0999999940395","","49","","","3000","1","","","images/tutgreenplanet.jpg","images/tutalien2","images/tutalien1","images/tutrocket1","images/tutalien1","images/nothing.png","2","practice","false","rare","0","2022-02-10 22:06:25.216","1"
"two-step-fixation","96","567724","0.0-61.0-2.11","843","688","15","Female","false","false","false","true","""event"",""trial"",""time""
""fullscreenenter"",""5"",""25912""
","
","
","""event"",""trial"",""time""
""fullscreenenter"",""5"",""25912""
","
","","images/earth.jpg","","","","","","","","","","","","","","fixation","","","","","",""
"d3-animate-choice","97","571162","0.0-61.0-0.12","843","688","15","Female","false","false","false","true","""event"",""trial"",""time""
""fullscreenenter"",""5"",""25912""
","
","
","""event"",""trial"",""time""
""fullscreenenter"",""5"",""25912""
","
","1432.0999999940395","","49","","","3000","1","","","images/earth.jpg","images/tutrocket1","images/tutrocket2","null","images/tutrocket2","","1","practice","null","","","","1"
"d3-animate-choice","98","573895","0.0-61.0-1.12","843","688","15","Female","false","false","false","true","""event"",""trial"",""time""
""fullscreenenter"",""5"",""25912""
","
","
","""event"",""trial"",""time""
""fullscreenenter"",""5"",""25912""
","
","727.2000000178814","","48","","","3000","1","","","images/tutgreenplanet.jpg","images/tutalien2","images/tutalien1","images/tutrocket2","images/tutalien2","images/t.png","2","practice","true","common","1","2022-02-10 22:06:32.392","2"
"two-step-fixation","99","574899","0.0-61.0-2.12","843","688","15","Female","false","false","false","true","""event"",""trial"",""time""
""fullscreenenter"",""5"",""25912""
","
","
","""event"",""trial"",""time""
""fullscreenenter"",""5"",""25912""
","
","","images/earth.jpg","","","","","","","","","","","","","","fixation","","","","","",""
"d3-animate-choice","100","577558","0.0-61.0-0.13","843","688","15","Female","false","false","false","true","""event"",""trial"",""time""
""fullscreenenter"",""5"",""25912""
","
","
","""event"",""trial"",""time""
""fullscreenenter"",""5"",""25912""
","
","655.2999999821186","","49","","","3000","1","","","images/earth.jpg","images/tutrocket1","images/tutrocket2","null","images/tutrocket2","","1","practice","null","","","","1"
"d3-animate-choice","101","580214","0.0-61.0-1.13","843","688","15","Female","false","false","false","true","""event"",""trial"",""time""
""fullscreenenter"",""5"",""25912""
","
","
","""event"",""trial"",""time""
""fullscreenenter"",""5"",""25912""
","
","651.2999999821186","","48","","","3000","1","","","images/tutyellowplanet.jpg","images/tutalien4","images/tutalien3","images/tutrocket2","images/tutalien4","images/nothing.png","2","practice","false","rare","0","2022-02-10 22:06:38.711","2"
"two-step-fixation","102","581219","0.0-61.0-2.13","843","688","15","Female","false","false","false","true","""event"",""trial"",""time""
""fullscreenenter"",""5"",""25912""
","
","
","""event"",""trial"",""time""
""fullscreenenter"",""5"",""25912""
","
","","images/earth.jpg","","","","","","","","","","","","","","fixation","","","","","",""
"d3-animate-choice","103","583729","0.0-61.0-0.14","843","688","15","Female","false","false","false","true","""event"",""trial"",""time""
""fullscreenenter"",""5"",""25912""
","
","
","""event"",""trial"",""time""
""fullscreenenter"",""5"",""25912""
","
","506.19999998807907","","49","","","3000","1","","","images/earth.jpg","images/tutrocket1","images/tutrocket2","null","images/tutrocket2","","1","practice","null","","","","1"
"d3-animate-choice","104","586271","0.0-61.0-1.14","843","688","15","Female","false","false","false","true","""event"",""trial"",""time""
""fullscreenenter"",""5"",""25912""
","
","
","""event"",""trial"",""time""
""fullscreenenter"",""5"",""25912""
","
","534.6000000238419","","49","","","3000","1","","","images/tutgreenplanet.jpg","images/tutalien2","images/tutalien1","images/tutrocket2","images/tutalien1","images/nothing.png","2","practice","true","common","0","2022-02-10 22:06:44.768","1"
"two-step-fixation","105","587274","0.0-61.0-2.14","843","688","15","Female","false","false","false","true","""event"",""trial"",""time""
""fullscreenenter"",""5"",""25912""
","
","
","""event"",""trial"",""time""
""fullscreenenter"",""5"",""25912""
","
","","images/earth.jpg","","","","","","","","","","","","","","fixation","","","","","",""
"d3-animate-choice","106","589752","0.0-61.0-0.15","843","688","15","Female","false","false","false","true","""event"",""trial"",""time""
""fullscreenenter"",""5"",""25912""
","
","
","""event"",""trial"",""time""
""fullscreenenter"",""5"",""25912""
","
","471.90000000596046","","48","","","3000","1","","","images/earth.jpg","images/tutrocket1","images/tutrocket2","null","images/tutrocket1","","1","practice","null","","","","2"
"d3-animate-choice","107","592398","0.0-61.0-1.15","843","688","15","Female","false","false","false","true","""event"",""trial"",""time""
""fullscreenenter"",""5"",""25912""
","
","
","""event"",""trial"",""time""
""fullscreenenter"",""5"",""25912""
","
","641.8000000119209","","49","","","3000","1","","","images/tutgreenplanet.jpg","images/tutalien2","images/tutalien1","images/tutrocket1","images/tutalien1","images/t.png","2","practice","false","rare","1","2022-02-10 22:06:50.895","1"
"two-step-fixation","108","593402","0.0-61.0-2.15","843","688","15","Female","false","false","false","true","""event"",""trial"",""time""
""fullscreenenter"",""5"",""25912""
","
","
","""event"",""trial"",""time""
""fullscreenenter"",""5"",""25912""
","
","","images/earth.jpg","","","","","","","","","","","","","","fixation","","","","","",""
"d3-animate-choice","109","595946","0.0-61.0-0.16","843","688","15","Female","false","false","false","true","""event"",""trial"",""time""
""fullscreenenter"",""5"",""25912""
","
","
","""event"",""trial"",""time""
""fullscreenenter"",""5"",""25912""
","
","538.6999999880791","","48","","","3000","1","","","images/earth.jpg","images/tutrocket1","images/tutrocket2","null","images/tutrocket1","","1","practice","null","","","","2"
"d3-animate-choice","110","598535","0.0-61.0-1.16","843","688","15","Female","false","false","false","true","""event"",""trial"",""time""
""fullscreenenter"",""5"",""25912""
","
","
","""event"",""trial"",""time""
""fullscreenenter"",""5"",""25912""
","
","583","","49","","","3000","1","","","images/tutyellowplanet.jpg","images/tutalien4","images/tutalien3","images/tutrocket1","images/tutalien3","images/t.png","2","practice","true","common","1","2022-02-10 22:06:57.032","1"
"two-step-fixation","111","599539","0.0-61.0-2.16","843","688","15","Female","false","false","false","true","""event"",""trial"",""time""
""fullscreenenter"",""5"",""25912""
","
","
","""event"",""trial"",""time""
""fullscreenenter"",""5"",""25912""
","
","","images/earth.jpg","","","","","","","","","","","","","","fixation","","","","","",""
"d3-animate-choice","112","602024","0.0-61.0-0.17","843","688","15","Female","false","false","false","true","""event"",""trial"",""time""
""fullscreenenter"",""5"",""25912""
","
","
","""event"",""trial"",""time""
""fullscreenenter"",""5"",""25912""
","
","478.09999999403954","","48","","","3000","1","","","images/earth.jpg","images/tutrocket1","images/tutrocket2","null","images/tutrocket1","","1","practice","null","","","","2"
"d3-animate-choice","113","604719","0.0-61.0-1.17","843","688","15","Female","false","false","false","true","""event"",""trial"",""time""
""fullscreenenter"",""5"",""25912""
","
","
","""event"",""trial"",""time""
""fullscreenenter"",""5"",""25912""
","
","689.5","","49","","","3000","1","","","images/tutgreenplanet.jpg","images/tutalien2","images/tutalien1","images/tutrocket1","images/tutalien1","images/nothing.png","2","practice","false","rare","0","2022-02-10 22:07:03.216","1"
"two-step-fixation","114","605723","0.0-61.0-2.17","843","688","15","Female","false","false","false","true","""event"",""trial"",""time""
""fullscreenenter"",""5"",""25912""
","
","
","""event"",""trial"",""time""
""fullscreenenter"",""5"",""25912""
","
","","images/earth.jpg","","","","","","","","","","","","","","fixation","","","","","",""
"d3-animate-choice","115","608347","0.0-61.0-0.18","843","688","15","Female","false","false","false","true","""event"",""trial"",""time""
""fullscreenenter"",""5"",""25912""
","
","
","""event"",""trial"",""time""
""fullscreenenter"",""5"",""25912""
","
","618.5999999940395","","48","","","3000","1","","","images/earth.jpg","images/tutrocket1","images/tutrocket2","null","images/tutrocket1","","1","practice","null","","","","2"
"d3-animate-choice","116","610887","0.0-61.0-1.18","843","688","15","Female","false","false","false","true","""event"",""trial"",""time""
""fullscreenenter"",""5"",""25912""
","
","
","""event"",""trial"",""time""
""fullscreenenter"",""5"",""25912""
","
","535","","49","","","3000","1","","","images/tutyellowplanet.jpg","images/tutalien4","images/tutalien3","images/tutrocket1","images/tutalien3","images/nothing.png","2","practice","true","common","0","2022-02-10 22:07:09.384","1"
"two-step-fixation","117","611891","0.0-61.0-2.18","843","688","15","Female","false","false","false","true","""event"",""trial"",""time""
""fullscreenenter"",""5"",""25912""
","
","
","""event"",""trial"",""time""
""fullscreenenter"",""5"",""25912""
","
","","images/earth.jpg","","","","","","","","","","","","","","fixation","","","","","",""
"d3-animate-choice","118","614534","0.0-61.0-0.19","843","688","15","Female","false","false","false","true","""event"",""trial"",""time""
""fullscreenenter"",""5"",""25912""
","
","
","""event"",""trial"",""time""
""fullscreenenter"",""5"",""25912""
","
","639.2000000178814","","48","","","3000","1","","","images/earth.jpg","images/tutrocket1","images/tutrocket2","null","images/tutrocket1","","1","practice","null","","","","2"
"d3-animate-choice","119","617626","0.0-61.0-1.19","843","688","15","Female","false","false","false","true","""event"",""trial"",""time""
""fullscreenenter"",""5"",""25912""
","
","
","""event"",""trial"",""time""
""fullscreenenter"",""5"",""25912""
","
","1083.9000000059605","","49","","","3000","1","","","images/tutgreenplanet.jpg","images/tutalien2","images/tutalien1","images/tutrocket1","images/tutalien1","images/nothing.png","2","practice","false","rare","0","2022-02-10 22:07:16.123","1"
"two-step-fixation","120","618631","0.0-61.0-2.19","843","688","15","Female","false","false","false","true","""event"",""trial"",""time""
""fullscreenenter"",""5"",""25912""
","
","
","""event"",""trial"",""time""
""fullscreenenter"",""5"",""25912""
","
","","images/earth.jpg","","","","","","","","","","","","","","fixation","","","","","",""
"d3-instructions","121","737301","0.0-62.0","843","688","15","Female","false","false","false","true","""event"",""trial"",""time""
""fullscreenenter"",""5"",""25912""
","
","
","""event"",""trial"",""time""
""fullscreenenter"",""5"",""25912""
","
","","","","","","","","","","","","","","","","","","","","","",""
"audio-keyboard-response","122","742557","0.0-63.0","843","688","15","Female","false","false","false","true","""event"",""trial"",""time""
""fullscreenenter"",""5"",""25912""
","
","
","""event"",""trial"",""time""
""fullscreenenter"",""5"",""25912""
","
","5029","audio/instructions/treasure_feedback.wav","32","","","","","","","","","","","","","","","","","","",""
"d3-instructions","123","767167","0.0-64.0","843","688","15","Female","false","false","false","true","""event"",""trial"",""time""
""fullscreenenter"",""5"",""25912""
","
","
","""event"",""trial"",""time""
""fullscreenenter"",""5"",""25912""
","
","","","","","","","","","","","","","","","","","","","","","",""
"d3-instructions","124","789557","0.0-65.0","843","688","15","Female","false","false","false","true","""event"",""trial"",""time""
""fullscreenenter"",""5"",""25912""
","
","
","""event"",""trial"",""time""
""fullscreenenter"",""5"",""25912""
","
","","","","","","","","","","","","","","","","","","","","","",""
"d3-instructions","125","819342","0.0-66.0","843","688","15","Female","false","false","false","true","""event"",""trial"",""time""
""fullscreenenter"",""5"",""25912""
","
","
","""event"",""trial"",""time""
""fullscreenenter"",""5"",""25912""
","
","","","","","","","","","","","","","","","","","","","","","",""
"d3-instructions","126","843038","0.0-67.0","843","688","15","Female","false","false","false","true","""event"",""trial"",""time""
""fullscreenenter"",""5"",""25912""
","
","
","""event"",""trial"",""time""
""fullscreenenter"",""5"",""25912""
","
","","","","","","","","","","","","","","","","","","","","","",""
"d3-instructions","127","854270","0.0-68.0","843","688","15","Female","false","false","false","true","""event"",""trial"",""time""
""fullscreenenter"",""5"",""25912""
","
","
","""event"",""trial"",""time""
""fullscreenenter"",""5"",""25912""
","
","","","","","","","","","","","","","","","","","","","","","",""
"instructions-quiz","128","860030","0.0-69.0","843","688","15","Female","false","false","false","true","""event"",""trial"",""time""
""fullscreenenter"",""5"",""25912""
","
","
","""event"",""trial"",""time""
""fullscreenenter"",""5"",""25912""
","
","5756.9000000059605","audio/quiz/Q1_Prompt.wav","","0","","","","","","","","","","","","","","","","","",""
"audio-keyboard-response","129","870302","0.0-70.0","843","688","15","Female","false","false","false","true","""event"",""trial"",""time""
""fullscreenenter"",""5"",""25912""
","
","
","""event"",""trial"",""time""
""fullscreenenter"",""5"",""25912""
","
","null","audio/quiz/Q1_Incorrect.wav","null","","","","","","","","","","","","","","","","","","",""
"instructions-quiz","130","879693","0.0-71.0","843","688","15","Female","false","false","false","true","""event"",""trial"",""time""
""fullscreenenter"",""5"",""25912""
","
","
","""event"",""trial"",""time""
""fullscreenenter"",""5"",""25912""
","
","9388.699999988079","audio/quiz/Q2_Prompt.wav","","0","","","","","","","","","","","","","","","","","",""
"audio-keyboard-response","131","892562","0.0-72.0","843","688","15","Female","false","false","false","true","""event"",""trial"",""time""
""fullscreenenter"",""5"",""25912""
","
","
","""event"",""trial"",""time""
""fullscreenenter"",""5"",""25912""
","
","null","audio/quiz/Q2_Correct.wav","null","","","","","","","","","","","","","","","","","","",""
"instructions-quiz","132","897725","0.0-73.0","843","688","15","Female","false","false","false","true","""event"",""trial"",""time""
""fullscreenenter"",""5"",""25912""
","
","
","""event"",""trial"",""time""
""fullscreenenter"",""5"",""25912""
","
","5161.299999982119","audio/quiz/Q3_Prompt.wav","","1","","","","","","","","","","","","","","","","","",""
"audio-keyboard-response","133","903521","0.0-74.0","843","688","15","Female","false","false","false","true","""event"",""trial"",""time""
""fullscreenenter"",""5"",""25912""
","
","
","""event"",""trial"",""time""
""fullscreenenter"",""5"",""25912""
","
","null","audio/quiz/Q3_Correct.wav","null","","","","","","","","","","","","","","","","","","",""
"d3-instructions","134","923461","0.0-75.0","843","688","15","Female","false","false","false","true","""event"",""trial"",""time""
""fullscreenenter"",""5"",""25912""
","
","
","""event"",""trial"",""time""
""fullscreenenter"",""5"",""25912""
","
","","","","","","","","","","","","","","","","","","","","","",""
"d3-animate-choice","135","927132","0.0-76.0-0.0","843","688","15","Female","false","false","false","true","""event"",""trial"",""time""
""fullscreenenter"",""5"",""25912""
","
","
","""event"",""trial"",""time""
""fullscreenenter"",""5"",""25912""
","
","1659.5999999940395","","49","","","3000","1","1662.5","173","images/earth.jpg","images/rocket1","images/rocket2","null","images/rocket2","","1","real","null","","","","1"
"d3-animate-choice","136","930438","0.0-76.0-1.0","843","688","15","Female","false","false","false","true","""event"",""trial"",""time""
""fullscreenenter"",""5"",""25912""
","
","
","""event"",""trial"",""time""
""fullscreenenter"",""5"",""25912""
","
","1301.5","","49","","","3000","1","","","images/redplanet1.jpg","images/alien2","images/alien1","images/rocket2","images/alien1","images/nothing.png","2","real","true","common","0","2022-02-10 22:12:28.935","1"
"two-step-fixation","137","931443","0.0-76.0-2.0","843","688","15","Female","false","false","false","true","""event"",""trial"",""time""
""fullscreenenter"",""5"",""25912""
","
","
","""event"",""trial"",""time""
""fullscreenenter"",""5"",""25912""
","
","","images/earth.jpg","","","","","","","","","","","","","","fixation","","","","","",""
"d3-animate-choice","138","934082","0.0-76.0-0.1","843","688","15","Female","false","false","false","true","""event"",""trial"",""time""
""fullscreenenter"",""5"",""25912""
","
","
","""event"",""trial"",""time""
""fullscreenenter"",""5"",""25912""
","
","634.5999999940395","","49","","","3000","1","","","images/earth.jpg","images/rocket1","images/rocket2","null","images/rocket2","","1","real","null","","","","1"
"d3-animate-choice","139","938087","0.0-76.0-1.1","843","688","15","Female","false","false","false","true","""event"",""trial"",""time""
""fullscreenenter"",""5"",""25912""
","
","
","""event"",""trial"",""time""
""fullscreenenter"",""5"",""25912""
","
","2312","","49","","","3000","1","","","images/redplanet1.jpg","images/alien2","images/alien1","images/rocket2","images/alien1","images/nothing.png","2","real","true","common","0","2022-02-10 22:12:36.584","1"
"two-step-fixation","140","939092","0.0-76.0-2.1","843","688","15","Female","false","false","false","true","""event"",""trial"",""time""
""fullscreenenter"",""5"",""25912""
","
","
","""event"",""trial"",""time""
""fullscreenenter"",""5"",""25912""
","
","","images/earth.jpg","","","","","","","","","","","","","","fixation","","","","","",""
"d3-animate-choice","141","941488","0.0-76.0-0.2","843","688","15","Female","false","false","false","true","""event"",""trial"",""time""
""fullscreenenter"",""5"",""25912""
","
","
","""event"",""trial"",""time""
""fullscreenenter"",""5"",""25912""
","
","390.40000000596046","","49","","","3000","1","","","images/earth.jpg","images/rocket1","images/rocket2","null","images/rocket2","","1","real","null","","","","1"
"d3-animate-choice","142","944190","0.0-76.0-1.2","843","688","15","Female","false","false","false","true","""event"",""trial"",""time""
""fullscreenenter"",""5"",""25912""
","
","
","""event"",""trial"",""time""
""fullscreenenter"",""5"",""25912""
","
","676.5","","49","","","3000","1","","","images/purpleplanet.jpg","images/alien4","images/alien3","images/rocket2","images/alien3","images/t.png","2","real","false","rare","1","2022-02-10 22:12:42.687","1"
"two-step-fixation","143","945201","0.0-76.0-2.2","843","688","15","Female","false","false","false","true","""event"",""trial"",""time""
""fullscreenenter"",""5"",""25912""
","
","
","""event"",""trial"",""time""
""fullscreenenter"",""5"",""25912""
","
","","images/earth.jpg","","","","","","","","","","","","","","fixation","","","","","",""
"d3-animate-choice","144","947670","0.0-76.0-0.3","843","688","15","Female","false","false","false","true","""event"",""trial"",""time""
""fullscreenenter"",""5"",""25912""
","
","
","""event"",""trial"",""time""
""fullscreenenter"",""5"",""25912""
","
","465.5","","48","","","3000","1","","","images/earth.jpg","images/rocket1","images/rocket2","null","images/rocket1","","1","real","null","","","","2"
"d3-animate-choice","145","950334","0.0-76.0-1.3","843","688","15","Female","false","false","false","true","""event"",""trial"",""time""
""fullscreenenter"",""5"",""25912""
","
","
","""event"",""trial"",""time""
""fullscreenenter"",""5"",""25912""
","
","658.6999999880791","","49","","","3000","1","","","images/purpleplanet.jpg","images/alien4","images/alien3","images/rocket1","images/alien3","images/t.png","2","real","true","common","1","2022-02-10 22:12:48.832","1"
"two-step-fixation","146","951339","0.0-76.0-2.3","843","688","15","Female","false","false","false","true","""event"",""trial"",""time""
""fullscreenenter"",""5"",""25912""
","
","
","""event"",""trial"",""time""
""fullscreenenter"",""5"",""25912""
","
","","images/earth.jpg","","","","","","","","","","","","","","fixation","","","","","",""
"d3-animate-choice","147","953943","0.0-76.0-0.4","843","688","15","Female","false","false","false","true","""event"",""trial"",""time""
""fullscreenenter"",""5"",""25912""
","
","
","""event"",""trial"",""time""
""fullscreenenter"",""5"",""25912""
","
","599.1999999880791","","48","","","3000","1","","","images/earth.jpg","images/rocket1","images/rocket2","null","images/rocket1","","1","real","null","","","","2"
"d3-animate-choice","148","956466","0.0-76.0-1.4","843","688","15","Female","false","false","false","true","""event"",""trial"",""time""
""fullscreenenter"",""5"",""25912""
","
","
","""event"",""trial"",""time""
""fullscreenenter"",""5"",""25912""
","
","518.1999999880791","","49","","","3000","1","","","images/purpleplanet.jpg","images/alien4","images/alien3","images/rocket1","images/alien3","images/nothing.png","2","real","true","common","0","2022-02-10 22:12:54.963","1"
"two-step-fixation","149","957471","0.0-76.0-2.4","843","688","15","Female","false","false","false","true","""event"",""trial"",""time""
""fullscreenenter"",""5"",""25912""
","
","
","""event"",""trial"",""time""
""fullscreenenter"",""5"",""25912""
","
","","images/earth.jpg","","","","","","","","","","","","","","fixation","","","","","",""
"d3-animate-choice","150","959855","0.0-76.0-0.5","843","688","15","Female","false","false","false","true","""event"",""trial"",""time""
""fullscreenenter"",""5"",""25912""
","
","
","""event"",""trial"",""time""
""fullscreenenter"",""5"",""25912""
","
","379.59999999403954","","48","","","3000","1","","","images/earth.jpg","images/rocket1","images/rocket2","null","images/rocket1","","1","real","null","","","","2"
"d3-animate-choice","151","962479","0.0-76.0-1.5","843","688","15","Female","false","false","false","true","""event"",""trial"",""time""
""fullscreenenter"",""5"",""25912""
","
","
","""event"",""trial"",""time""
""fullscreenenter"",""5"",""25912""
","
","619.1000000238419","","49","","","3000","1","","","images/purpleplanet.jpg","images/alien4","images/alien3","images/rocket1","images/alien3","images/nothing.png","2","real","true","common","0","2022-02-10 22:13:00.976","1"
"two-step-fixation","152","963484","0.0-76.0-2.5","843","688","15","Female","false","false","false","true","""event"",""trial"",""time""
""fullscreenenter"",""5"",""25912""
","
","
","""event"",""trial"",""time""
""fullscreenenter"",""5"",""25912""
","
","","images/earth.jpg","","","","","","","","","","","","","","fixation","","","","","",""
"d3-animate-choice","153","966079","0.0-76.0-0.6","843","688","15","Female","false","false","false","true","""event"",""trial"",""time""
""fullscreenenter"",""5"",""25912""
","
","
","""event"",""trial"",""time""
""fullscreenenter"",""5"",""25912""
","
","590","","49","","","3000","1","","","images/earth.jpg","images/rocket1","images/rocket2","null","images/rocket2","","1","real","null","","","","1"
"d3-animate-choice","154","968609","0.0-76.0-1.6","843","688","15","Female","false","false","false","true","""event"",""trial"",""time""
""fullscreenenter"",""5"",""25912""
","
","
","""event"",""trial"",""time""
""fullscreenenter"",""5"",""25912""
","
","525.5","","49","","","3000","1","","","images/purpleplanet.jpg","images/alien4","images/alien3","images/rocket2","images/alien3","images/nothing.png","2","real","false","rare","0","2022-02-10 22:13:07.106","1"
"two-step-fixation","155","969613","0.0-76.0-2.6","843","688","15","Female","false","false","false","true","""event"",""trial"",""time""
""fullscreenenter"",""5"",""25912""
","
","
","""event"",""trial"",""time""
""fullscreenenter"",""5"",""25912""
","
","","images/earth.jpg","","","","","","","","","","","","","","fixation","","","","","",""
"d3-animate-choice","156","972191","0.0-76.0-0.7","843","688","15","Female","false","false","false","true","""event"",""trial"",""time""
""fullscreenenter"",""5"",""25912""
","
","
","""event"",""trial"",""time""
""fullscreenenter"",""5"",""25912""
","
","572.7999999821186","","48","","","3000","1","","","images/earth.jpg","images/rocket1","images/rocket2","null","images/rocket1","","1","real","null","","","","2"
"d3-animate-choice","157","974774","0.0-76.0-1.7","843","688","15","Female","false","false","false","true","""event"",""trial"",""time""
""fullscreenenter"",""5"",""25912""
","
","
","""event"",""trial"",""time""
""fullscreenenter"",""5"",""25912""
","
","578.4000000059605","","49","","","3000","1","","","images/purpleplanet.jpg","images/alien4","images/alien3","images/rocket1","images/alien3","images/nothing.png","2","real","true","common","0","2022-02-10 22:13:13.271","1"
"two-step-fixation","158","975779","0.0-76.0-2.7","843","688","15","Female","false","false","false","true","""event"",""trial"",""time""
""fullscreenenter"",""5"",""25912""
","
","
","""event"",""trial"",""time""
""fullscreenenter"",""5"",""25912""
","
","","images/earth.jpg","","","","","","","","","","","","","","fixation","","","","","",""
"d3-animate-choice","159","978423","0.0-76.0-0.8","843","688","15","Female","false","false","false","true","""event"",""trial"",""time""
""fullscreenenter"",""5"",""25912""
","
","
","""event"",""trial"",""time""
""fullscreenenter"",""5"",""25912""
","
","639.2999999821186","","49","","","3000","1","","","images/earth.jpg","images/rocket1","images/rocket2","null","images/rocket2","","1","real","null","","","","1"
"d3-animate-choice","160","981107","0.0-76.0-1.8","843","688","15","Female","false","false","false","true","""event"",""trial"",""time""
""fullscreenenter"",""5"",""25912""
","
","
","""event"",""trial"",""time""
""fullscreenenter"",""5"",""25912""
","
","677.6999999880791","","49","","","3000","1","","","images/purpleplanet.jpg","images/alien4","images/alien3","images/rocket2","images/alien3","images/t.png","2","real","false","rare","1","2022-02-10 22:13:19.605","1"
"two-step-fixation","161","982112","0.0-76.0-2.8","843","688","15","Female","false","false","false","true","""event"",""trial"",""time""
""fullscreenenter"",""5"",""25912""
","
","
","""event"",""trial"",""time""
""fullscreenenter"",""5"",""25912""
","
","","images/earth.jpg","","","","","","","","","","","","","","fixation","","","","","",""
"d3-animate-choice","162","984663","0.0-76.0-0.9","843","688","15","Female","false","false","false","true","""event"",""trial"",""time""
""fullscreenenter"",""5"",""25912""
","
","
","""event"",""trial"",""time""
""fullscreenenter"",""5"",""25912""
","
","546.2999999821186","","48","","","3000","1","","","images/earth.jpg","images/rocket1","images/rocket2","null","images/rocket1","","1","real","null","","","","2"
"d3-animate-choice","163","987311","0.0-76.0-1.9","843","688","15","Female","false","false","false","true","""event"",""trial"",""time""
""fullscreenenter"",""5"",""25912""
","
","
","""event"",""trial"",""time""
""fullscreenenter"",""5"",""25912""
","
","642.5","","49","","","3000","1","","","images/purpleplanet.jpg","images/alien4","images/alien3","images/rocket1","images/alien3","images/t.png","2","real","true","common","1","2022-02-10 22:13:25.808","1"
"two-step-fixation","164","988316","0.0-76.0-2.9","843","688","15","Female","false","false","false","true","""event"",""trial"",""time""
""fullscreenenter"",""5"",""25912""
","
","
","""event"",""trial"",""time""
""fullscreenenter"",""5"",""25912""
","
","","images/earth.jpg","","","","","","","","","","","","","","fixation","","","","","",""
"d3-animate-choice","165","990639","0.0-76.0-0.10","843","688","15","Female","false","false","false","true","""event"",""trial"",""time""
""fullscreenenter"",""5"",""25912""
","
","
","""event"",""trial"",""time""
""fullscreenenter"",""5"",""25912""
","
","318.5","","48","","","3000","1","","","images/earth.jpg","images/rocket1","images/rocket2","null","images/rocket1","","1","real","null","","","","2"
"d3-animate-choice","166","993203","0.0-76.0-1.10","843","688","15","Female","false","false","false","true","""event"",""trial"",""time""
""fullscreenenter"",""5"",""25912""
","
","
","""event"",""trial"",""time""
""fullscreenenter"",""5"",""25912""
","
","558.5","","49","","","3000","1","","","images/purpleplanet.jpg","images/alien4","images/alien3","images/rocket1","images/alien3","images/t.png","2","real","true","common","1","2022-02-10 22:13:31.700","1"
"two-step-fixation","167","994207","0.0-76.0-2.10","843","688","15","Female","false","false","false","true","""event"",""trial"",""time""
""fullscreenenter"",""5"",""25912""
","
","
","""event"",""trial"",""time""
""fullscreenenter"",""5"",""25912""
","
","","images/earth.jpg","","","","","","","","","","","","","","fixation","","","","","",""
"d3-animate-choice","168","996775","0.0-76.0-0.11","843","688","15","Female","false","false","false","true","""event"",""trial"",""time""
""fullscreenenter"",""5"",""25912""
","
","
","""event"",""trial"",""time""
""fullscreenenter"",""5"",""25912""
","
","562.9000000059605","","48","","","3000","1","","","images/earth.jpg","images/rocket1","images/rocket2","null","images/rocket1","","1","real","null","","","","2"
"d3-animate-choice","169","999351","0.0-76.0-1.11","843","688","15","Female","false","false","false","true","""event"",""trial"",""time""
""fullscreenenter"",""5"",""25912""
","
","
","""event"",""trial"",""time""
""fullscreenenter"",""5"",""25912""
","
","571.2999999821186","","49","","","3000","1","","","images/purpleplanet.jpg","images/alien4","images/alien3","images/rocket1","images/alien3","images/nothing.png","2","real","true","common","0","2022-02-10 22:13:37.848","1"
"two-step-fixation","170","1000365","0.0-76.0-2.11","843","688","15","Female","false","false","false","true","""event"",""trial"",""time""
""fullscreenenter"",""5"",""25912""
","
","
","""event"",""trial"",""time""
""fullscreenenter"",""5"",""25912""
","
","","images/earth.jpg","","","","","","","","","","","","","","fixation","","","","","",""
"d3-animate-choice","171","1002903","0.0-76.0-0.12","843","688","15","Female","false","false","false","true","""event"",""trial"",""time""
""fullscreenenter"",""5"",""25912""
","
","
","""event"",""trial"",""time""
""fullscreenenter"",""5"",""25912""
","
","533.1999999880791","","48","","","3000","1","","","images/earth.jpg","images/rocket1","images/rocket2","null","images/rocket1","","1","real","null","","","","2"
"d3-animate-choice","172","1005706","0.0-76.0-1.12","843","688","15","Female","false","false","false","true","""event"",""trial"",""time""
""fullscreenenter"",""5"",""25912""
","
","
","""event"",""trial"",""time""
""fullscreenenter"",""5"",""25912""
","
","798.0999999940395","","49","","","3000","1","","","images/purpleplanet.jpg","images/alien4","images/alien3","images/rocket1","images/alien3","images/nothing.png","2","real","true","common","0","2022-02-10 22:13:44.203","1"
"two-step-fixation","173","1006710","0.0-76.0-2.12","843","688","15","Female","false","false","false","true","""event"",""trial"",""time""
""fullscreenenter"",""5"",""25912""
","
","
","""event"",""trial"",""time""
""fullscreenenter"",""5"",""25912""
","
","","images/earth.jpg","","","","","","","","","","","","","","fixation","","","","","",""
"d3-animate-choice","174","1009312","0.0-76.0-0.13","843","688","15","Female","false","false","false","true","""event"",""trial"",""time""
""fullscreenenter"",""5"",""25912""
","
","
","""event"",""trial"",""time""
""fullscreenenter"",""5"",""25912""
","
","596.3999999761581","","48","","","3000","1","","","images/earth.jpg","images/rocket1","images/rocket2","null","images/rocket1","","1","real","null","","","","2"
"d3-animate-choice","175","1012127","0.0-76.0-1.13","843","688","15","Female","false","false","false","true","""event"",""trial"",""time""
""fullscreenenter"",""5"",""25912""
","
","
","""event"",""trial"",""time""
""fullscreenenter"",""5"",""25912""
","
","809.1999999880791","","49","","","3000","1","","","images/purpleplanet.jpg","images/alien4","images/alien3","images/rocket1","images/alien3","images/t.png","2","real","true","common","1","2022-02-10 22:13:50.624","1"
"two-step-fixation","176","1013131","0.0-76.0-2.13","843","688","15","Female","false","false","false","true","""event"",""trial"",""time""
""fullscreenenter"",""5"",""25912""
","
","
","""event"",""trial"",""time""
""fullscreenenter"",""5"",""25912""
","
","","images/earth.jpg","","","","","","","","","","","","","","fixation","","","","","",""
"d3-animate-choice","177","1015737","0.0-76.0-0.14","843","688","15","Female","false","false","false","true","""event"",""trial"",""time""
""fullscreenenter"",""5"",""25912""
","
","
","""event"",""trial"",""time""
""fullscreenenter"",""5"",""25912""
","
","602.2000000178814","","48","","","3000","1","","","images/earth.jpg","images/rocket1","images/rocket2","null","images/rocket1","","1","real","null","","","","2"
"d3-animate-choice","178","1018279","0.0-76.0-1.14","843","688","15","Female","false","false","false","true","""event"",""trial"",""time""
""fullscreenenter"",""5"",""25912""
","
","
","""event"",""trial"",""time""
""fullscreenenter"",""5"",""25912""
","
","536.2999999821186","","49","","","3000","1","","","images/purpleplanet.jpg","images/alien4","images/alien3","images/rocket1","images/alien3","images/nothing.png","2","real","true","common","0","2022-02-10 22:13:56.776","1"
"two-step-fixation","179","1019284","0.0-76.0-2.14","843","688","15","Female","false","false","false","true","""event"",""trial"",""time""
""fullscreenenter"",""5"",""25912""
","
","
","""event"",""trial"",""time""
""fullscreenenter"",""5"",""25912""
","
","","images/earth.jpg","","","","","","","","","","","","","","fixation","","","","","",""
"d3-animate-choice","180","1021951","0.0-76.0-0.15","843","688","15","Female","false","false","false","true","""event"",""trial"",""time""
""fullscreenenter"",""5"",""25912""
","
","
","""event"",""trial"",""time""
""fullscreenenter"",""5"",""25912""
","
","662.0999999940395","","49","","","3000","1","","","images/earth.jpg","images/rocket1","images/rocket2","null","images/rocket2","","1","real","null","","","","1"
"d3-animate-choice","181","1024567","0.0-76.0-1.15","843","688","15","Female","false","false","false","true","""event"",""trial"",""time""
""fullscreenenter"",""5"",""25912""
","
","
","""event"",""trial"",""time""
""fullscreenenter"",""5"",""25912""
","
","610.8000000119209","","49","","","3000","1","","","images/purpleplanet.jpg","images/alien4","images/alien3","images/rocket2","images/alien3","images/t.png","2","real","false","rare","1","2022-02-10 22:14:03.064","1"
"two-step-fixation","182","1025571","0.0-76.0-2.15","843","688","15","Female","false","false","false","true","""event"",""trial"",""time""
""fullscreenenter"",""5"",""25912""
","
","
","""event"",""trial"",""time""
""fullscreenenter"",""5"",""25912""
","
","","images/earth.jpg","","","","","","","","","","","","","","fixation","","","","","",""
"d3-animate-choice","183","1028066","0.0-76.0-0.16","843","688","15","Female","false","false","false","true","""event"",""trial"",""time""
""fullscreenenter"",""5"",""25912""
","
","
","""event"",""trial"",""time""
""fullscreenenter"",""5"",""25912""
","
","490.19999998807907","","48","","","3000","1","","","images/earth.jpg","images/rocket1","images/rocket2","null","images/rocket1","","1","real","null","","","","2"
"d3-animate-choice","184","1030590","0.0-76.0-1.16","843","688","15","Female","false","false","false","true","""event"",""trial"",""time""
""fullscreenenter"",""5"",""25912""
","
","
","""event"",""trial"",""time""
""fullscreenenter"",""5"",""25912""
","
","520.3000000119209","","49","","","3000","1","","","images/purpleplanet.jpg","images/alien4","images/alien3","images/rocket1","images/alien3","images/nothing.png","2","real","true","common","0","2022-02-10 22:14:09.088","1"
"two-step-fixation","185","1031594","0.0-76.0-2.16","843","688","15","Female","false","false","false","true","""event"",""trial"",""time""
""fullscreenenter"",""5"",""25912""
","
","
","""event"",""trial"",""time""
""fullscreenenter"",""5"",""25912""
","
","","images/earth.jpg","","","","","","","","","","","","","","fixation","","","","","",""
"d3-animate-choice","186","1034119","0.0-76.0-0.17","843","688","15","Female","false","false","false","true","""event"",""trial"",""time""
""fullscreenenter"",""5"",""25912""
","
","
","""event"",""trial"",""time""
""fullscreenenter"",""5"",""25912""
","
","520.1999999880791","","48","","","3000","1","","","images/earth.jpg","images/rocket1","images/rocket2","null","images/rocket1","","1","real","null","","","","2"
"d3-animate-choice","187","1036879","0.0-76.0-1.17","843","688","15","Female","false","false","false","true","""event"",""trial"",""time""
""fullscreenenter"",""5"",""25912""
","
","
","""event"",""trial"",""time""
""fullscreenenter"",""5"",""25912""
","
","754.3000000119209","","49","","","3000","1","","","images/redplanet1.jpg","images/alien2","images/alien1","images/rocket1","images/alien1","images/nothing.png","2","real","false","rare","0","2022-02-10 22:14:15.376","1"
"two-step-fixation","188","1037884","0.0-76.0-2.17","843","688","15","Female","false","false","false","true","""event"",""trial"",""time""
""fullscreenenter"",""5"",""25912""
","
","
","""event"",""trial"",""time""
""fullscreenenter"",""5"",""25912""
","
","","images/earth.jpg","","","","","","","","","","","","","","fixation","","","","","",""
"d3-animate-choice","189","1040466","0.0-76.0-0.18","843","688","15","Female","false","false","false","true","""event"",""trial"",""time""
""fullscreenenter"",""5"",""25912""
","
","
","""event"",""trial"",""time""
""fullscreenenter"",""5"",""25912""
","
","577.6000000238419","","48","","","3000","1","","","images/earth.jpg","images/rocket1","images/rocket2","null","images/rocket1","","1","real","null","","","","2"
"d3-animate-choice","190","1043967","0.0-76.0-1.18","843","688","15","Female","false","false","false","true","""event"",""trial"",""time""
""fullscreenenter"",""5"",""25912""
","
","
","""event"",""trial"",""time""
""fullscreenenter"",""5"",""25912""
","
","1496.300000011921","","48","","","3000","1","","","images/redplanet1.jpg","images/alien2","images/alien1","images/rocket1","images/alien2","images/t.png","2","real","false","rare","1","2022-02-10 22:14:22.464","2"
"two-step-fixation","191","1044971","0.0-76.0-2.18","843","688","15","Female","false","false","false","true","""event"",""trial"",""time""
""fullscreenenter"",""5"",""25912""
","
","
","""event"",""trial"",""time""
""fullscreenenter"",""5"",""25912""
","
","","images/earth.jpg","","","","","","","","","","","","","","fixation","","","","","",""
"d3-animate-choice","192","1047694","0.0-76.0-0.19","843","688","15","Female","false","false","false","true","""event"",""trial"",""time""
""fullscreenenter"",""5"",""25912""
","
","
","""event"",""trial"",""time""
""fullscreenenter"",""5"",""25912""
","
","718.7999999821186","","49","","","3000","1","","","images/earth.jpg","images/rocket1","images/rocket2","null","images/rocket2","","1","real","null","","","","1"
"d3-animate-choice","193","1050471","0.0-76.0-1.19","843","688","15","Female","false","false","false","true","""event"",""trial"",""time""
""fullscreenenter"",""5"",""25912""
","
","
","""event"",""trial"",""time""
""fullscreenenter"",""5"",""25912""
","
","771.3999999761581","","49","","","3000","1","","","images/purpleplanet.jpg","images/alien4","images/alien3","images/rocket2","images/alien3","images/nothing.png","2","real","false","rare","0","2022-02-10 22:14:28.968","1"
"two-step-fixation","194","1051474","0.0-76.0-2.19","843","688","15","Female","false","false","false","true","""event"",""trial"",""time""
""fullscreenenter"",""5"",""25912""
","
","
","""event"",""trial"",""time""
""fullscreenenter"",""5"",""25912""
","
","","images/earth.jpg","","","","","","","","","","","","","","fixation","","","","","",""
"d3-animate-choice","195","1054074","0.0-76.0-0.20","843","688","15","Female","false","false","false","true","""event"",""trial"",""time""
""fullscreenenter"",""5"",""25912""
","
","
","""event"",""trial"",""time""
""fullscreenenter"",""5"",""25912""
","
","595.1999999880791","","48","","","3000","1","","","images/earth.jpg","images/rocket1","images/rocket2","null","images/rocket1","","1","real","null","","","","2"
"d3-animate-choice","196","1056958","0.0-76.0-1.20","843","688","15","Female","false","false","false","true","""event"",""trial"",""time""
""fullscreenenter"",""5"",""25912""
","
","
","""event"",""trial"",""time""
""fullscreenenter"",""5"",""25912""
","
","879.0999999940395","","49","","","3000","1","","","images/purpleplanet.jpg","images/alien4","images/alien3","images/rocket1","images/alien3","images/t.png","2","real","true","common","1","2022-02-10 22:14:35.456","1"
"two-step-fixation","197","1057963","0.0-76.0-2.20","843","688","15","Female","false","false","false","true","""event"",""trial"",""time""
""fullscreenenter"",""5"",""25912""
","
","
","""event"",""trial"",""time""
""fullscreenenter"",""5"",""25912""
","
","","images/earth.jpg","","","","","","","","","","","","","","fixation","","","","","",""
"d3-animate-choice","198","1060519","0.0-76.0-0.21","843","688","15","Female","false","false","false","true","""event"",""trial"",""time""
""fullscreenenter"",""5"",""25912""
","
","
","""event"",""trial"",""time""
""fullscreenenter"",""5"",""25912""
","
","550.3999999761581","","48","","","3000","1","","","images/earth.jpg","images/rocket1","images/rocket2","null","images/rocket1","","1","real","null","","","","2"
"d3-animate-choice","199","1063103","0.0-76.0-1.21","843","688","15","Female","false","false","false","true","""event"",""trial"",""time""
""fullscreenenter"",""5"",""25912""
","
","
","""event"",""trial"",""time""
""fullscreenenter"",""5"",""25912""
","
","579","","49","","","3000","1","","","images/purpleplanet.jpg","images/alien4","images/alien3","images/rocket1","images/alien3","images/nothing.png","2","real","true","common","0","2022-02-10 22:14:41.600","1"
"two-step-fixation","200","1064107","0.0-76.0-2.21","843","688","15","Female","false","false","false","true","""event"",""trial"",""time""
""fullscreenenter"",""5"",""25912""
","
","
","""event"",""trial"",""time""
""fullscreenenter"",""5"",""25912""
","
","","images/earth.jpg","","","","","","","","","","","","","","fixation","","","","","",""
"d3-animate-choice","201","1066682","0.0-76.0-0.22","843","688","15","Female","false","false","false","true","""event"",""trial"",""time""
""fullscreenenter"",""5"",""25912""
","
","
","""event"",""trial"",""time""
""fullscreenenter"",""5"",""25912""
","
","569.7999999821186","","49","","","3000","1","","","images/earth.jpg","images/rocket1","images/rocket2","null","images/rocket2","","1","real","null","","","","1"
"d3-animate-choice","202","1069663","0.0-76.0-1.22","843","688","15","Female","false","false","false","true","""event"",""trial"",""time""
""fullscreenenter"",""5"",""25912""
","
","
","""event"",""trial"",""time""
""fullscreenenter"",""5"",""25912""
","
","975.5999999940395","","48","","","3000","1","","","images/redplanet1.jpg","images/alien2","images/alien1","images/rocket2","images/alien2","images/nothing.png","2","real","true","common","0","2022-02-10 22:14:48.160","2"
"two-step-fixation","203","1070667","0.0-76.0-2.22","843","688","15","Female","false","false","false","true","""event"",""trial"",""time""
""fullscreenenter"",""5"",""25912""
","
","
","""event"",""trial"",""time""
""fullscreenenter"",""5"",""25912""
","
","","images/earth.jpg","","","","","","","","","","","","","","fixation","","","","","",""
"d3-animate-choice","204","1073223","0.0-76.0-0.23","843","688","15","Female","false","false","false","true","""event"",""trial"",""time""
""fullscreenenter"",""5"",""25912""
","
","
","""event"",""trial"",""time""
""fullscreenenter"",""5"",""25912""
","
","550.9000000059605","","49","","","3000","1","","","images/earth.jpg","images/rocket1","images/rocket2","null","images/rocket2","","1","real","null","","","","1"
"d3-animate-choice","205","1076223","0.0-76.0-1.23","843","688","15","Female","false","false","false","true","""event"",""trial"",""time""
""fullscreenenter"",""5"",""25912""
","
","
","""event"",""trial"",""time""
""fullscreenenter"",""5"",""25912""
","
","994.5999999940395","","48","","","3000","1","","","images/redplanet1.jpg","images/alien2","images/alien1","images/rocket2","images/alien2","images/t.png","2","real","true","common","1","2022-02-10 22:14:54.720","2"
"two-step-fixation","206","1077227","0.0-76.0-2.23","843","688","15","Female","false","false","false","true","""event"",""trial"",""time""
""fullscreenenter"",""5"",""25912""
","
","
","""event"",""trial"",""time""
""fullscreenenter"",""5"",""25912""
","
","","images/earth.jpg","","","","","","","","","","","","","","fixation","","","","","",""
"d3-animate-choice","207","1079755","0.0-76.0-0.24","843","688","15","Female","false","false","false","true","""event"",""trial"",""time""
""fullscreenenter"",""5"",""25912""
","
","
","""event"",""trial"",""time""
""fullscreenenter"",""5"",""25912""
","
","523.5","","49","","","3000","1","","","images/earth.jpg","images/rocket1","images/rocket2","null","images/rocket2","","1","real","null","","","","1"
"d3-animate-choice","208","1082550","0.0-76.0-1.24","843","688","15","Female","false","false","false","true","""event"",""trial"",""time""
""fullscreenenter"",""5"",""25912""
","
","
","""event"",""trial"",""time""
""fullscreenenter"",""5"",""25912""
","
","790.2000000178814","","49","","","3000","1","","","images/purpleplanet.jpg","images/alien4","images/alien3","images/rocket2","images/alien3","images/nothing.png","2","real","false","rare","0","2022-02-10 22:15:01.047","1"
"two-step-fixation","209","1083554","0.0-76.0-2.24","843","688","15","Female","false","false","false","true","""event"",""trial"",""time""
""fullscreenenter"",""5"",""25912""
","
","
","""event"",""trial"",""time""
""fullscreenenter"",""5"",""25912""
","
","","images/earth.jpg","","","","","","","","","","","","","","fixation","","","","","",""
"d3-animate-choice","210","1086167","0.0-76.0-0.25","843","688","15","Female","false","false","false","true","""event"",""trial"",""time""
""fullscreenenter"",""5"",""25912""
","
","
","""event"",""trial"",""time""
""fullscreenenter"",""5"",""25912""
","
","608","","48","","","3000","1","","","images/earth.jpg","images/rocket1","images/rocket2","null","images/rocket1","","1","real","null","","","","2"
"d3-animate-choice","211","1088935","0.0-76.0-1.25","843","688","15","Female","false","false","false","true","""event"",""trial"",""time""
""fullscreenenter"",""5"",""25912""
","
","
","""event"",""trial"",""time""
""fullscreenenter"",""5"",""25912""
","
","761.5","","49","","","3000","1","","","images/purpleplanet.jpg","images/alien4","images/alien3","images/rocket1","images/alien3","images/nothing.png","2","real","true","common","0","2022-02-10 22:15:07.432","1"
"two-step-fixation","212","1089939","0.0-76.0-2.25","843","688","15","Female","false","false","false","true","""event"",""trial"",""time""
""fullscreenenter"",""5"",""25912""
","
","
","""event"",""trial"",""time""
""fullscreenenter"",""5"",""25912""
","
","","images/earth.jpg","","","","","","","","","","","","","","fixation","","","","","",""
"d3-animate-choice","213","1092975","0.0-76.0-0.26","843","688","15","Female","false","false","false","true","""event"",""trial"",""time""
""fullscreenenter"",""5"",""25912""
","
","
","""event"",""trial"",""time""
""fullscreenenter"",""5"",""25912""
","
","1032.199999988079","","48","","","3000","1","","","images/earth.jpg","images/rocket1","images/rocket2","null","images/rocket1","","1","real","null","","","","2"
"d3-animate-choice","214","1095926","0.0-76.0-1.26","843","688","15","Female","false","false","false","true","""event"",""trial"",""time""
""fullscreenenter"",""5"",""25912""
","
","
","""event"",""trial"",""time""
""fullscreenenter"",""5"",""25912""
","
","946.2999999821186","","48","","","3000","1","","","images/redplanet1.jpg","images/alien2","images/alien1","images/rocket1","images/alien2","images/t.png","2","real","false","rare","1","2022-02-10 22:15:14.423","2"
"two-step-fixation","215","1096930","0.0-76.0-2.26","843","688","15","Female","false","false","false","true","""event"",""trial"",""time""
""fullscreenenter"",""5"",""25912""
","
","
","""event"",""trial"",""time""
""fullscreenenter"",""5"",""25912""
","
","","images/earth.jpg","","","","","","","","","","","","","","fixation","","","","","",""
"d3-animate-choice","216","1099464","0.0-76.0-0.27","843","688","15","Female","false","false","false","true","""event"",""trial"",""time""
""fullscreenenter"",""5"",""25912""
","
","
","""event"",""trial"",""time""
""fullscreenenter"",""5"",""25912""
","
","528.2000000178814","","49","","","3000","1","","","images/earth.jpg","images/rocket1","images/rocket2","null","images/rocket2","","1","real","null","","","","1"
"d3-animate-choice","217","1102406","0.0-76.0-1.27","843","688","15","Female","false","false","false","true","""event"",""trial"",""time""
""fullscreenenter"",""5"",""25912""
","
","
","""event"",""trial"",""time""
""fullscreenenter"",""5"",""25912""
","
","937.5999999940395","","48","","","3000","1","","","images/redplanet1.jpg","images/alien2","images/alien1","images/rocket2","images/alien2","images/t.png","2","real","true","common","1","2022-02-10 22:15:20.903","2"
"two-step-fixation","218","1103410","0.0-76.0-2.27","843","688","15","Female","false","false","false","true","""event"",""trial"",""time""
""fullscreenenter"",""5"",""25912""
","
","
","""event"",""trial"",""time""
""fullscreenenter"",""5"",""25912""
","
","","images/earth.jpg","","","","","","","","","","","","","","fixation","","","","","",""
"d3-animate-choice","219","1105986","0.0-76.0-0.28","843","688","15","Female","false","false","false","true","""event"",""trial"",""time""
""fullscreenenter"",""5"",""25912""
","
","
","""event"",""trial"",""time""
""fullscreenenter"",""5"",""25912""
","
","571.4000000059605","","49","","","3000","1","","","images/earth.jpg","images/rocket1","images/rocket2","null","images/rocket2","","1","real","null","","","","1"
"d3-animate-choice","220","1108631","0.0-76.0-1.28","843","688","15","Female","false","false","false","true","""event"",""trial"",""time""
""fullscreenenter"",""5"",""25912""
","
","
","""event"",""trial"",""time""
""fullscreenenter"",""5"",""25912""
","
","639.5","","48","","","3000","1","","","images/redplanet1.jpg","images/alien2","images/alien1","images/rocket2","images/alien2","images/t.png","2","real","true","common","1","2022-02-10 22:15:27.128","2"
"two-step-fixation","221","1109636","0.0-76.0-2.28","843","688","15","Female","false","false","false","true","""event"",""trial"",""time""
""fullscreenenter"",""5"",""25912""
","
","
","""event"",""trial"",""time""
""fullscreenenter"",""5"",""25912""
","
","","images/earth.jpg","","","","","","","","","","","","","","fixation","","","","","",""
"d3-animate-choice","222","1112040","0.0-76.0-0.29","843","688","15","Female","false","false","false","true","""event"",""trial"",""time""
""fullscreenenter"",""5"",""25912""
","
","
","""event"",""trial"",""time""
""fullscreenenter"",""5"",""25912""
","
","398.2000000178814","","49","","","3000","1","","","images/earth.jpg","images/rocket1","images/rocket2","null","images/rocket2","","1","real","null","","","","1"
"d3-animate-choice","223","1114783","0.0-76.0-1.29","843","688","15","Female","false","false","false","true","""event"",""trial"",""time""
""fullscreenenter"",""5"",""25912""
","
","
","""event"",""trial"",""time""
""fullscreenenter"",""5"",""25912""
","
","737.9000000059605","","48","","","3000","1","","","images/redplanet1.jpg","images/alien2","images/alien1","images/rocket2","images/alien2","images/nothing.png","2","real","true","common","0","2022-02-10 22:15:33.280","2"
"two-step-fixation","224","1115787","0.0-76.0-2.29","843","688","15","Female","false","false","false","true","""event"",""trial"",""time""
""fullscreenenter"",""5"",""25912""
","
","
","""event"",""trial"",""time""
""fullscreenenter"",""5"",""25912""
","
","","images/earth.jpg","","","","","","","","","","","","","","fixation","","","","","",""
"d3-animate-choice","225","1118283","0.0-76.0-0.30","843","688","15","Female","false","false","false","true","""event"",""trial"",""time""
""fullscreenenter"",""5"",""25912""
","
","
","""event"",""trial"",""time""
""fullscreenenter"",""5"",""25912""
","
","490.59999999403954","","49","","","3000","1","","","images/earth.jpg","images/rocket1","images/rocket2","null","images/rocket2","","1","real","null","","","","1"
"d3-animate-choice","226","1120983","0.0-76.0-1.30","843","688","15","Female","false","false","false","true","""event"",""trial"",""time""
""fullscreenenter"",""5"",""25912""
","
","
","""event"",""trial"",""time""
""fullscreenenter"",""5"",""25912""
","
","694.8000000119209","","48","","","3000","1","","","images/redplanet1.jpg","images/alien2","images/alien1","images/rocket2","images/alien2","images/t.png","2","real","true","common","1","2022-02-10 22:15:39.480","2"
"two-step-fixation","227","1121986","0.0-76.0-2.30","843","688","15","Female","false","false","false","true","""event"",""trial"",""time""
""fullscreenenter"",""5"",""25912""
","
","
","""event"",""trial"",""time""
""fullscreenenter"",""5"",""25912""
","
","","images/earth.jpg","","","","","","","","","","","","","","fixation","","","","","",""
"d3-animate-choice","228","1124791","0.0-76.0-0.31","843","688","15","Female","false","false","false","true","""event"",""trial"",""time""
""fullscreenenter"",""5"",""25912""
","
","
","""event"",""trial"",""time""
""fullscreenenter"",""5"",""25912""
","
","799.7000000178814","","48","","","3000","1","","","images/earth.jpg","images/rocket1","images/rocket2","null","images/rocket1","","1","real","null","","","","2"
"d3-animate-choice","229","1127654","0.0-76.0-1.31","843","688","15","Female","false","false","false","true","""event"",""trial"",""time""
""fullscreenenter"",""5"",""25912""
","
","
","""event"",""trial"",""time""
""fullscreenenter"",""5"",""25912""
","
","858.0999999940395","","48","","","3000","1","","","images/redplanet1.jpg","images/alien2","images/alien1","images/rocket1","images/alien2","images/nothing.png","2","real","false","rare","0","2022-02-10 22:15:46.151","2"
"two-step-fixation","230","1128658","0.0-76.0-2.31","843","688","15","Female","false","false","false","true","""event"",""trial"",""time""
""fullscreenenter"",""5"",""25912""
","
","
","""event"",""trial"",""time""
""fullscreenenter"",""5"",""25912""
","
","","images/earth.jpg","","","","","","","","","","","","","","fixation","","","","","",""
"d3-animate-choice","231","1131673","0.0-76.0-0.32","843","688","15","Female","false","false","false","true","""event"",""trial"",""time""
""fullscreenenter"",""5"",""25912""
","
","
","""event"",""trial"",""time""
""fullscreenenter"",""5"",""25912""
","
","1010.6999999880791","","48","","","3000","1","","","images/earth.jpg","images/rocket1","images/rocket2","null","images/rocket1","","1","real","null","","","","2"
"d3-animate-choice","232","1134422","0.0-76.0-1.32","843","688","15","Female","false","false","false","true","""event"",""trial"",""time""
""fullscreenenter"",""5"",""25912""
","
","
","""event"",""trial"",""time""
""fullscreenenter"",""5"",""25912""
","
","744.7000000178814","","48","","","3000","1","","","images/redplanet1.jpg","images/alien2","images/alien1","images/rocket1","images/alien2","images/nothing.png","2","real","false","rare","0","2022-02-10 22:15:52.919","2"
"two-step-fixation","233","1135427","0.0-76.0-2.32","843","688","15","Female","false","false","false","true","""event"",""trial"",""time""
""fullscreenenter"",""5"",""25912""
","
","
","""event"",""trial"",""time""
""fullscreenenter"",""5"",""25912""
","
","","images/earth.jpg","","","","","","","","","","","","","","fixation","","","","","",""
"d3-animate-choice","234","1138279","0.0-76.0-0.33","843","688","15","Female","false","false","false","true","""event"",""trial"",""time""
""fullscreenenter"",""5"",""25912""
","
","
","""event"",""trial"",""time""
""fullscreenenter"",""5"",""25912""
","
","846.8000000119209","","48","","","3000","1","","","images/earth.jpg","images/rocket1","images/rocket2","null","images/rocket1","","1","real","null","","","","2"
"d3-animate-choice","235","1140959","0.0-76.0-1.33","843","688","15","Female","false","false","false","true","""event"",""trial"",""time""
""fullscreenenter"",""5"",""25912""
","
","
","""event"",""trial"",""time""
""fullscreenenter"",""5"",""25912""
","
","674.5","","48","","","3000","1","","","images/redplanet1.jpg","images/alien2","images/alien1","images/rocket1","images/alien2","images/nothing.png","2","real","false","rare","0","2022-02-10 22:15:59.456","2"
"two-step-fixation","236","1141963","0.0-76.0-2.33","843","688","15","Female","false","false","false","true","""event"",""trial"",""time""
""fullscreenenter"",""5"",""25912""
","
","
","""event"",""trial"",""time""
""fullscreenenter"",""5"",""25912""
","
","","images/earth.jpg","","","","","","","","","","","","","","fixation","","","","","",""
"d3-animate-choice","237","1144746","0.0-76.0-0.34","843","688","15","Female","false","false","false","true","""event"",""trial"",""time""
""fullscreenenter"",""5"",""25912""
","
","
","""event"",""trial"",""time""
""fullscreenenter"",""5"",""25912""
","
","777.8000000119209","","48","","","3000","1","","","images/earth.jpg","images/rocket1","images/rocket2","null","images/rocket1","","1","real","null","","","","2"
"d3-animate-choice","238","1147590","0.0-76.0-1.34","843","688","15","Female","false","false","false","true","""event"",""trial"",""time""
""fullscreenenter"",""5"",""25912""
","
","
","""event"",""trial"",""time""
""fullscreenenter"",""5"",""25912""
","
","839.3000000119209","","48","","","3000","1","","","images/redplanet1.jpg","images/alien2","images/alien1","images/rocket1","images/alien2","images/t.png","2","real","false","rare","1","2022-02-10 22:16:06.087","2"
"two-step-fixation","239","1148595","0.0-76.0-2.34","843","688","15","Female","false","false","false","true","""event"",""trial"",""time""
""fullscreenenter"",""5"",""25912""
","
","
","""event"",""trial"",""time""
""fullscreenenter"",""5"",""25912""
","
","","images/earth.jpg","","","","","","","","","","","","","","fixation","","","","","",""
"d3-animate-choice","240","1151127","0.0-76.0-0.35","843","688","15","Female","false","false","false","true","""event"",""trial"",""time""
""fullscreenenter"",""5"",""25912""
","
","
","""event"",""trial"",""time""
""fullscreenenter"",""5"",""25912""
","
","526.7999999821186","","48","","","3000","1","","","images/earth.jpg","images/rocket1","images/rocket2","null","images/rocket1","","1","real","null","","","","2"
"d3-animate-choice","241","1153823","0.0-76.0-1.35","843","688","15","Female","false","false","false","true","""event"",""trial"",""time""
""fullscreenenter"",""5"",""25912""
","
","
","""event"",""trial"",""time""
""fullscreenenter"",""5"",""25912""
","
","691.0999999940395","","48","","","3000","1","","","images/redplanet1.jpg","images/alien2","images/alien1","images/rocket1","images/alien2","images/t.png","2","real","false","rare","1","2022-02-10 22:16:12.320","2"
"two-step-fixation","242","1154827","0.0-76.0-2.35","843","688","15","Female","false","false","false","true","""event"",""trial"",""time""
""fullscreenenter"",""5"",""25912""
","
","
","""event"",""trial"",""time""
""fullscreenenter"",""5"",""25912""
","
","","images/earth.jpg","","","","","","","","","","","","","","fixation","","","","","",""
"d3-animate-choice","243","1157893","0.0-76.0-0.36","843","688","15","Female","false","false","false","true","""event"",""trial"",""time""
""fullscreenenter"",""5"",""25912""
","
","
","""event"",""trial"",""time""
""fullscreenenter"",""5"",""25912""
","
","1058.5999999940395","","48","","","3000","1","","","images/earth.jpg","images/rocket1","images/rocket2","null","images/rocket1","","1","real","null","","","","2"
"d3-animate-choice","244","1160726","0.0-76.0-1.36","843","688","15","Female","false","false","false","true","""event"",""trial"",""time""
""fullscreenenter"",""5"",""25912""
","
","
","""event"",""trial"",""time""
""fullscreenenter"",""5"",""25912""
","
","828.6000000238419","","48","","","3000","1","","","images/redplanet1.jpg","images/alien2","images/alien1","images/rocket1","images/alien2","images/t.png","2","real","false","rare","1","2022-02-10 22:16:19.224","2"
"two-step-fixation","245","1161730","0.0-76.0-2.36","843","688","15","Female","false","false","false","true","""event"",""trial"",""time""
""fullscreenenter"",""5"",""25912""
","
","
","""event"",""trial"",""time""
""fullscreenenter"",""5"",""25912""
","
","","images/earth.jpg","","","","","","","","","","","","","","fixation","","","","","",""
