"trial_type","trial_index","time_elapsed","internal_node_id","participant_id","subject_id","age","gender","rocket_sides","red_planet_first_rocket","red_display_order","purple_display_order","interactions","blur_events","focus_events","fullscreenenter_events","fullscreenexit_events","rt","stimulus","key_press","button_pressed","success","duration","valid_pressed","rts","keys","planet_text","right_text","left_text","center_text","chosen_text","reward_text","trial_stage","practice_trial","transition_type","choice","transition","reward","timestamp"
"pavlovia","0","4","0.0-0.0","1756","1667","25","Female","true","false","false","true","
","
","
","
","
","","","","","","","","","","","","","","","","","","","","","",""
"html-keyboard-response","1","1556","0.0-1.0","1756","1667","25","Female","true","false","false","true","
","
","
","
","
","1549.2000007629395","Welcome! Press the space bar to begin.","32","","","","","","","","","","","","","","","","","","",""
"audio-keyboard-response","2","2557","0.0-2.0","1756","1667","25","Female","true","false","false","true","
","
","
","
","
","771","audio/beep_loop.wav","32","","","","","","","","","","","","","","","","","","",""
"audio-button-response","3","4101","0.0-3.0","1756","1667","25","Female","true","false","false","true","
","
","
","
","
","NaN","audio/fish.mp3","","1","","","","","","","","","","","","","","","","","",""
"audio-button-response","4","6378","0.0-4.0","1756","1667","25","Female","true","false","false","true","""event"",""trial"",""time""
""fullscreenenter"",""5"",""11497""
","
","
","""event"",""trial"",""time""
""fullscreenenter"",""5"",""11497""
","
","NaN","audio/tiger.mp3","","4","","","","","","","","","","","","","","","","","",""
"fullscreen","5","12476","0.0-5.0","1756","1667","25","Female","true","false","false","true","""event"",""trial"",""time""
""fullscreenenter"",""5"",""11497""
","
","
","""event"",""trial"",""time""
""fullscreenenter"",""5"",""11497""
","
","","","","","true","","","","","","","","","","","","","","","","",""
"d3-instructions","6","14781","0.0-6.0","1756","1667","25","Female","true","false","false","true","""event"",""trial"",""time""
""fullscreenenter"",""5"",""11497""
","
","
","""event"",""trial"",""time""
""fullscreenenter"",""5"",""11497""
","
","","","","","","","","","","","","","","","","","","","","","",""
"d3-instructions","7","16829","0.0-7.0","1756","1667","25","Female","true","false","false","true","""event"",""trial"",""time""
""fullscreenenter"",""5"",""11497""
","
","
","""event"",""trial"",""time""
""fullscreenenter"",""5"",""11497""
","
","","","","","","","","","","","","","","","","","","","","","",""
"d3-instructions","8","18281","0.0-8.0","1756","1667","25","Female","true","false","false","true","""event"",""trial"",""time""
""fullscreenenter"",""5"",""11497""
","
","
","""event"",""trial"",""time""
""fullscreenenter"",""5"",""11497""
","
","","","","","","","","","","","","","","","","","","","","","",""
"d3-instructions","9","19899","0.0-9.0","1756","1667","25","Female","true","false","false","true","""event"",""trial"",""time""
""fullscreenenter"",""5"",""11497""
","
","
","""event"",""trial"",""time""
""fullscreenenter"",""5"",""11497""
","
","","","","","","","","","","","","","","","","","","","","","",""
"d3-instructions","10","20998","0.0-10.0","1756","1667","25","Female","true","false","false","true","""event"",""trial"",""time""
""fullscreenenter"",""5"",""11497""
","
","
","""event"",""trial"",""time""
""fullscreenenter"",""5"",""11497""
","
","","","","","","","","","","","","","","","","","","","","","",""
"d3-animate-choice","11","25226","0.0-11.0","1756","1667","25","Female","true","false","false","true","""event"",""trial"",""time""
""fullscreenenter"",""5"",""11497""
","
","
","""event"",""trial"",""time""
""fullscreenenter"",""5"",""11497""
","
","2205.5999994277954","","49","","","3000","1","","","images/tutgreenplanet.jpg","images/tutalien1","images/tutalien2","null","images/tutalien2","","NA","practice","null","","","",""
"d3-animate-choice","12","27546","0.0-12.0","1756","1667","25","Female","true","false","false","true","""event"",""trial"",""time""
""fullscreenenter"",""5"",""11497""
","
","
","""event"",""trial"",""time""
""fullscreenenter"",""5"",""11497""
","
","299.8999996185303","","49","","","3000","1","","","images/tutgreenplanet.jpg","images/tutalien1","images/tutalien2","null","images/tutalien2","","NA","practice","null","","","",""
"d3-animate-choice","13","29956","0.0-13.0","1756","1667","25","Female","true","false","false","true","""event"",""trial"",""time""
""fullscreenenter"",""5"",""11497""
","
","
","""event"",""trial"",""time""
""fullscreenenter"",""5"",""11497""
","
","388.30000019073486","","48","","","3000","1","","","images/tutgreenplanet.jpg","images/tutalien1","images/tutalien2","null","images/tutalien1","","NA","practice","null","","","",""
"d3-animate-choice","14","32309","0.0-14.0","1756","1667","25","Female","true","false","false","true","""event"",""trial"",""time""
""fullscreenenter"",""5"",""11497""
","
","
","""event"",""trial"",""time""
""fullscreenenter"",""5"",""11497""
","
","345.3999996185303","","48","","","3000","1","","","images/tutgreenplanet.jpg","images/tutalien1","images/tutalien2","null","images/tutalien1","","NA","practice","null","","","",""
"d3-instructions","15","33528","0.0-15.0","1756","1667","25","Female","true","false","false","true","""event"",""trial"",""time""
""fullscreenenter"",""5"",""11497""
","
","
","""event"",""trial"",""time""
""fullscreenenter"",""5"",""11497""
","
","","","","","","","","","","","","","","","","","","","","","",""
"d3-instructions","16","34788","0.0-16.0","1756","1667","25","Female","true","false","false","true","""event"",""trial"",""time""
""fullscreenenter"",""5"",""11497""
","
","
","""event"",""trial"",""time""
""fullscreenenter"",""5"",""11497""
","
","","","","","","","","","","","","","","","","","","","","","",""
"d3-instructions","17","36029","0.0-17.0","1756","1667","25","Female","true","false","false","true","""event"",""trial"",""time""
""fullscreenenter"",""5"",""11497""
","
","
","""event"",""trial"",""time""
""fullscreenenter"",""5"",""11497""
","
","","","","","","","","","","","","","","","","","","","","","",""
"d3-instructions","18","37068","0.0-18.0","1756","1667","25","Female","true","false","false","true","""event"",""trial"",""time""
""fullscreenenter"",""5"",""11497""
","
","
","""event"",""trial"",""time""
""fullscreenenter"",""5"",""11497""
","
","","","","","","","","","","","","","","","","","","","","","",""
"d3-instructions","19","38088","0.0-19.0","1756","1667","25","Female","true","false","false","true","""event"",""trial"",""time""
""fullscreenenter"",""5"",""11497""
","
","
","""event"",""trial"",""time""
""fullscreenenter"",""5"",""11497""
","
","","","","","","","","","","","","","","","","","","","","","",""
"d3-animate-choice","20","41396","0.0-20.0","1756","1667","25","Female","true","false","false","true","""event"",""trial"",""time""
""fullscreenenter"",""5"",""11497""
","
","
","""event"",""trial"",""time""
""fullscreenenter"",""5"",""11497""
","
","1287","","49","","","3000","1","1466.8000001907349,1665.8000001907349","49,49","images/tutyellowplanet.jpg","null","images/tutalien3","null","images/tutalien3","images/t.png","NA","practice","null","","","",""
"d3-animate-choice","21","43726","0.0-21.0","1756","1667","25","Female","true","false","false","true","""event"",""trial"",""time""
""fullscreenenter"",""5"",""11497""
","
","
","""event"",""trial"",""time""
""fullscreenenter"",""5"",""11497""
","
","316.30000019073486","","49","","","3000","1","","","images/tutyellowplanet.jpg","null","images/tutalien3","null","images/tutalien3","images/t.png","NA","practice","null","","","",""
"d3-animate-choice","22","46846","0.0-22.0","1756","1667","25","Female","true","false","false","true","""event"",""trial"",""time""
""fullscreenenter"",""5"",""11497""
","
","
","""event"",""trial"",""time""
""fullscreenenter"",""5"",""11497""
","
","1101.5","","49","","","3000","1","","","images/tutyellowplanet.jpg","null","images/tutalien3","null","images/tutalien3","images/t.png","NA","practice","null","","","",""
"d3-animate-choice","23","50016","0.0-23.0","1756","1667","25","Female","true","false","false","true","""event"",""trial"",""time""
""fullscreenenter"",""5"",""11497""
","
","
","""event"",""trial"",""time""
""fullscreenenter"",""5"",""11497""
","
","1152.3000001907349","","49","","","3000","1","2691.5","49","images/tutyellowplanet.jpg","null","images/tutalien3","null","images/tutalien3","images/t.png","NA","practice","null","","","",""
"d3-animate-choice","24","52356","0.0-24.0","1756","1667","25","Female","true","false","false","true","""event"",""trial"",""time""
""fullscreenenter"",""5"",""11497""
","
","
","""event"",""trial"",""time""
""fullscreenenter"",""5"",""11497""
","
","319.19999980926514","","49","","","3000","1","","","images/tutyellowplanet.jpg","null","images/tutalien3","null","images/tutalien3","images/t.png","NA","practice","null","","","",""
"d3-animate-choice","25","54756","0.0-25.0","1756","1667","25","Female","true","false","false","true","""event"",""trial"",""time""
""fullscreenenter"",""5"",""11497""
","
","
","""event"",""trial"",""time""
""fullscreenenter"",""5"",""11497""
","
","382.0999994277954","","49","","","3000","1","","","images/tutyellowplanet.jpg","null","images/tutalien3","null","images/tutalien3","images/t.png","NA","practice","null","","","",""
"d3-animate-choice","26","57146","0.0-26.0","1756","1667","25","Female","true","false","false","true","""event"",""trial"",""time""
""fullscreenenter"",""5"",""11497""
","
","
","""event"",""trial"",""time""
""fullscreenenter"",""5"",""11497""
","
","367.5","","49","","","3000","1","","","images/tutyellowplanet.jpg","null","images/tutalien3","null","images/tutalien3","images/nothing.png","NA","practice","null","","","",""
"d3-animate-choice","27","59836","0.0-27.0","1756","1667","25","Female","true","false","false","true","""event"",""trial"",""time""
""fullscreenenter"",""5"",""11497""
","
","
","""event"",""trial"",""time""
""fullscreenenter"",""5"",""11497""
","
","682.1000003814697","","49","","","3000","1","","","images/tutyellowplanet.jpg","null","images/tutalien3","null","images/tutalien3","images/t.png","NA","practice","null","","","",""
"d3-animate-choice","28","63316","0.0-28.0","1756","1667","25","Female","true","false","false","true","""event"",""trial"",""time""
""fullscreenenter"",""5"",""11497""
","
","
","""event"",""trial"",""time""
""fullscreenenter"",""5"",""11497""
","
","1458.1999998092651","","49","","","3000","1","","","images/tutyellowplanet.jpg","null","images/tutalien3","null","images/tutalien3","images/t.png","NA","practice","null","","","",""
"d3-animate-choice","29","66253","0.0-29.0","1756","1667","25","Female","true","false","false","true","""event"",""trial"",""time""
""fullscreenenter"",""5"",""11497""
","
","
","""event"",""trial"",""time""
""fullscreenenter"",""5"",""11497""
","
","927.6999998092651","","49","","","3000","1","","","images/tutyellowplanet.jpg","null","images/tutalien3","null","images/tutalien3","images/t.png","NA","practice","null","","","",""
"d3-instructions","30","69617","0.0-30.0","1756","1667","25","Female","true","false","false","true","""event"",""trial"",""time""
""fullscreenenter"",""5"",""11497""
","
","
","""event"",""trial"",""time""
""fullscreenenter"",""5"",""11497""
","
","","","","","","","","","","","","","","","","","","","","","",""
"d3-instructions","31","72739","0.0-31.0","1756","1667","25","Female","true","false","false","true","""event"",""trial"",""time""
""fullscreenenter"",""5"",""11497""
","
","
","""event"",""trial"",""time""
""fullscreenenter"",""5"",""11497""
","
","","","","","","","","","","","","","","","","","","","","","",""
"d3-instructions","32","74128","0.0-32.0","1756","1667","25","Female","true","false","false","true","""event"",""trial"",""time""
""fullscreenenter"",""5"",""11497""
","
","
","""event"",""trial"",""time""
""fullscreenenter"",""5"",""11497""
","
","","","","","","","","","","","","","","","","","","","","","",""
"d3-instructions","33","87978","0.0-33.0","1756","1667","25","Female","true","false","false","true","""event"",""trial"",""time""
""fullscreenenter"",""5"",""11497""
","
","
","""event"",""trial"",""time""
""fullscreenenter"",""5"",""11497""
","
","","","","","","","","","","","","","","","","","","","","","",""
"d3-animate-choice","34","90926","0.0-34.0","1756","1667","25","Female","true","false","false","true","""event"",""trial"",""time""
""fullscreenenter"",""5"",""11497""
","
","
","""event"",""trial"",""time""
""fullscreenenter"",""5"",""11497""
","
","927","","49","","","3000","1","","","images/tutgreenplanet.jpg","images/tutalien1","images/tutalien2","null","images/tutalien2","images/nothing.png","NA","practice","null","","","",""
"d3-animate-choice","35","94156","0.0-35.0","1756","1667","25","Female","true","false","false","true","""event"",""trial"",""time""
""fullscreenenter"",""5"",""11497""
","
","
","""event"",""trial"",""time""
""fullscreenenter"",""5"",""11497""
","
","1217.8000001907349","","49","","","3000","1","","","images/tutgreenplanet.jpg","images/tutalien1","images/tutalien2","null","images/tutalien2","images/t.png","NA","practice","null","","","",""
"d3-animate-choice","36","96806","0.0-36.0","1756","1667","25","Female","true","false","false","true","""event"",""trial"",""time""
""fullscreenenter"",""5"",""11497""
","
","
","""event"",""trial"",""time""
""fullscreenenter"",""5"",""11497""
","
","627.6999998092651","","49","","","3000","1","","","images/tutgreenplanet.jpg","images/tutalien1","images/tutalien2","null","images/tutalien2","images/nothing.png","NA","practice","null","","","",""
"d3-animate-choice","37","100086","0.0-37.0","1756","1667","25","Female","true","false","false","true","""event"",""trial"",""time""
""fullscreenenter"",""5"",""11497""
","
","
","""event"",""trial"",""time""
""fullscreenenter"",""5"",""11497""
","
","1263.2999992370605","","49","","","3000","1","","","images/tutgreenplanet.jpg","images/tutalien1","images/tutalien2","null","images/tutalien2","images/t.png","NA","practice","null","","","",""
"d3-animate-choice","38","102586","0.0-38.0","1756","1667","25","Female","true","false","false","true","""event"",""trial"",""time""
""fullscreenenter"",""5"",""11497""
","
","
","""event"",""trial"",""time""
""fullscreenenter"",""5"",""11497""
","
","487.1000003814697","","49","","","3000","1","","","images/tutgreenplanet.jpg","images/tutalien1","images/tutalien2","null","images/tutalien2","images/t.png","NA","practice","null","","","",""
"d3-animate-choice","39","105042","0.0-39.0","1756","1667","25","Female","true","false","false","true","""event"",""trial"",""time""
""fullscreenenter"",""5"",""11497""
","
","
","""event"",""trial"",""time""
""fullscreenenter"",""5"",""11497""
","
","439.79999923706055","","49","","","3000","1","","","images/tutgreenplanet.jpg","images/tutalien1","images/tutalien2","null","images/tutalien2","images/t.png","NA","practice","null","","","",""
"d3-animate-choice","40","107966","0.0-40.0","1756","1667","25","Female","true","false","false","true","""event"",""trial"",""time""
""fullscreenenter"",""5"",""11497""
","
","
","""event"",""trial"",""time""
""fullscreenenter"",""5"",""11497""
","
","910.8000001907349","","49","","","3000","1","","","images/tutgreenplanet.jpg","images/tutalien1","images/tutalien2","null","images/tutalien2","images/t.png","NA","practice","null","","","",""
"d3-animate-choice","41","111646","0.0-41.0","1756","1667","25","Female","true","false","false","true","""event"",""trial"",""time""
""fullscreenenter"",""5"",""11497""
","
","
","""event"",""trial"",""time""
""fullscreenenter"",""5"",""11497""
","
","1660.3000001907349","","49","","","3000","1","","","images/tutgreenplanet.jpg","images/tutalien1","images/tutalien2","null","images/tutalien2","images/t.png","NA","practice","null","","","",""
"d3-animate-choice","42","115365","0.0-42.0","1756","1667","25","Female","true","false","false","true","""event"",""trial"",""time""
""fullscreenenter"",""5"",""11497""
","
","
","""event"",""trial"",""time""
""fullscreenenter"",""5"",""11497""
","
","1715.5","","49","","","3000","1","","","images/tutgreenplanet.jpg","images/tutalien1","images/tutalien2","null","images/tutalien2","images/t.png","NA","practice","null","","","",""
"d3-animate-choice","43","121167","0.0-43.0","1756","1667","25","Female","true","false","false","true","""event"",""trial"",""time""
""fullscreenenter"",""5"",""11497""
","
","
","""event"",""trial"",""time""
""fullscreenenter"",""5"",""11497""
","
","3790.800000190735","","49","","","3000","1","","","images/tutgreenplanet.jpg","images/tutalien1","images/tutalien2","null","images/tutalien2","images/t.png","NA","practice","null","","","",""
"d3-instructions","44","123658","0.0-44.0","1756","1667","25","Female","true","false","false","true","""event"",""trial"",""time""
""fullscreenenter"",""5"",""11497""
","
","
","""event"",""trial"",""time""
""fullscreenenter"",""5"",""11497""
","
","","","","","","","","","","","","","","","","","","","","","",""
"d3-instructions","45","125907","0.0-45.0","1756","1667","25","Female","true","false","false","true","""event"",""trial"",""time""
""fullscreenenter"",""5"",""11497""
","
","
","""event"",""trial"",""time""
""fullscreenenter"",""5"",""11497""
","
","","","","","","","","","","","","","","","","","","","","","",""
"d3-instructions","46","126956","0.0-46.0","1756","1667","25","Female","true","false","false","true","""event"",""trial"",""time""
""fullscreenenter"",""5"",""11497""
","
","
","""event"",""trial"",""time""
""fullscreenenter"",""5"",""11497""
","
","","","","","","","","","","","","","","","","","","","","","",""
"d3-instructions","47","129308","0.0-47.0","1756","1667","25","Female","true","false","false","true","""event"",""trial"",""time""
""fullscreenenter"",""5"",""11497""
","
","
","""event"",""trial"",""time""
""fullscreenenter"",""5"",""11497""
","
","","","","","","","","","","","","","","","","","","","","","",""
"d3-instructions","48","130596","0.0-48.0","1756","1667","25","Female","true","false","false","true","""event"",""trial"",""time""
""fullscreenenter"",""5"",""11497""
","
","
","""event"",""trial"",""time""
""fullscreenenter"",""5"",""11497""
","
","","","","","","","","","","","","","","","","","","","","","",""
"d3-instructions","49","131680","0.0-49.0","1756","1667","25","Female","true","false","false","true","""event"",""trial"",""time""
""fullscreenenter"",""5"",""11497""
","
","
","""event"",""trial"",""time""
""fullscreenenter"",""5"",""11497""
","
","","","","","","","","","","","","","","","","","","","","","",""
"d3-instructions","50","135703","0.0-50.0","1756","1667","25","Female","true","false","false","true","""event"",""trial"",""time""
""fullscreenenter"",""5"",""11497""
","
","
","""event"",""trial"",""time""
""fullscreenenter"",""5"",""11497""
","
","","","","","","","","","","","","","","","","","","","","","",""
"d3-instructions","51","137160","0.0-51.0","1756","1667","25","Female","true","false","false","true","""event"",""trial"",""time""
""fullscreenenter"",""5"",""11497""
","
","
","""event"",""trial"",""time""
""fullscreenenter"",""5"",""11497""
","
","","","","","","","","","","","","","","","","","","","","","",""
"d3-instructions","52","138416","0.0-52.0","1756","1667","25","Female","true","false","false","true","""event"",""trial"",""time""
""fullscreenenter"",""5"",""11497""
","
","
","""event"",""trial"",""time""
""fullscreenenter"",""5"",""11497""
","
","","","","","","","","","","","","","","","","","","","","","",""
"d3-instructions","53","140127","0.0-53.0","1756","1667","25","Female","true","false","false","true","""event"",""trial"",""time""
""fullscreenenter"",""5"",""11497""
","
","
","""event"",""trial"",""time""
""fullscreenenter"",""5"",""11497""
","
","","","","","","","","","","","","","","","","","","","","","",""
"d3-instructions","54","141126","0.0-54.0","1756","1667","25","Female","true","false","false","true","""event"",""trial"",""time""
""fullscreenenter"",""5"",""11497""
","
","
","""event"",""trial"",""time""
""fullscreenenter"",""5"",""11497""
","
","","","","","","","","","","","","","","","","","","","","","",""
"d3-instructions","55","144786","0.0-55.0","1756","1667","25","Female","true","false","false","true","""event"",""trial"",""time""
""fullscreenenter"",""5"",""11497""
","
","
","""event"",""trial"",""time""
""fullscreenenter"",""5"",""11497""
","
","","","","","","","","","","","","","","","","","","","","","",""
"d3-instructions","56","148679","0.0-56.0","1756","1667","25","Female","true","false","false","true","""event"",""trial"",""time""
""fullscreenenter"",""5"",""11497""
","
","
","""event"",""trial"",""time""
""fullscreenenter"",""5"",""11497""
","
","","","","","","","","","","","","","","","","","","","","","",""
"d3-instructions","57","150777","0.0-57.0","1756","1667","25","Female","true","false","false","true","""event"",""trial"",""time""
""fullscreenenter"",""5"",""11497""
","
","
","""event"",""trial"",""time""
""fullscreenenter"",""5"",""11497""
","
","","","","","","","","","","","","","","","","","","","","","",""
"d3-instructions","58","152462","0.0-58.0","1756","1667","25","Female","true","false","false","true","""event"",""trial"",""time""
""fullscreenenter"",""5"",""11497""
","
","
","""event"",""trial"",""time""
""fullscreenenter"",""5"",""11497""
","
","","","","","","","","","","","","","","","","","","","","","",""
"d3-instructions","59","154157","0.0-59.0","1756","1667","25","Female","true","false","false","true","""event"",""trial"",""time""
""fullscreenenter"",""5"",""11497""
","
","
","""event"",""trial"",""time""
""fullscreenenter"",""5"",""11497""
","
","","","","","","","","","","","","","","","","","","","","","",""
"d3-instructions","60","157282","0.0-60.0","1756","1667","25","Female","true","false","false","true","""event"",""trial"",""time""
""fullscreenenter"",""5"",""11497""
","
","
","""event"",""trial"",""time""
""fullscreenenter"",""5"",""11497""
","
","","","","","","","","","","","","","","","","","","","","","",""
"d3-animate-choice","61","160235","0.0-61.0-0.0","1756","1667","25","Female","true","false","false","true","""event"",""trial"",""time""
""fullscreenenter"",""5"",""11497""
","
","
","""event"",""trial"",""time""
""fullscreenenter"",""5"",""11497""
","
","940.7999992370605","","49","","","3000","1","","","images/earth.jpg","images/tutrocket2","images/tutrocket1","null","images/tutrocket1","","1","practice","null","1","","",""
"d3-animate-choice","62","163115","0.0-61.0-1.0","1756","1667","25","Female","true","false","false","true","""event"",""trial"",""time""
""fullscreenenter"",""5"",""11497""
","
","
","""event"",""trial"",""time""
""fullscreenenter"",""5"",""11497""
","
","870.8000001907349","","49","","","3000","1","","","images/tutyellowplanet.jpg","images/tutalien4","images/tutalien3","images/tutrocket1","images/tutalien3","images/nothing.png","2","practice","true","1","common","0","2022-05-07 15:08:00.645"
"two-step-fixation","63","164121","0.0-61.0-2.0","1756","1667","25","Female","true","false","false","true","""event"",""trial"",""time""
""fullscreenenter"",""5"",""11497""
","
","
","""event"",""trial"",""time""
""fullscreenenter"",""5"",""11497""
","
","","images/earth.jpg","","","","","","","","","","","","","","fixation","","","","","",""
"d3-animate-choice","64","167005","0.0-61.0-0.1","1756","1667","25","Female","true","false","false","true","""event"",""trial"",""time""
""fullscreenenter"",""5"",""11497""
","
","
","""event"",""trial"",""time""
""fullscreenenter"",""5"",""11497""
","
","866.3000001907349","","49","","","3000","1","","","images/earth.jpg","images/tutrocket2","images/tutrocket1","null","images/tutrocket1","","1","practice","null","1","","",""
"d3-animate-choice","65","169395","0.0-61.0-1.1","1756","1667","25","Female","true","false","false","true","""event"",""trial"",""time""
""fullscreenenter"",""5"",""11497""
","
","
","""event"",""trial"",""time""
""fullscreenenter"",""5"",""11497""
","
","376.0999994277954","","48","","","3000","1","","","images/tutyellowplanet.jpg","images/tutalien4","images/tutalien3","images/tutrocket1","images/tutalien4","images/t.png","2","practice","true","2","common","1","2022-05-07 15:08:06.925"
"two-step-fixation","66","170415","0.0-61.0-2.1","1756","1667","25","Female","true","false","false","true","""event"",""trial"",""time""
""fullscreenenter"",""5"",""11497""
","
","
","""event"",""trial"",""time""
""fullscreenenter"",""5"",""11497""
","
","","images/earth.jpg","","","","","","","","","","","","","","fixation","","","","","",""
"d3-animate-choice","67","172742","0.0-61.0-0.2","1756","1667","25","Female","true","false","false","true","""event"",""trial"",""time""
""fullscreenenter"",""5"",""11497""
","
","
","""event"",""trial"",""time""
""fullscreenenter"",""5"",""11497""
","
","319.80000019073486","","49","","","3000","1","","","images/earth.jpg","images/tutrocket2","images/tutrocket1","null","images/tutrocket1","","1","practice","null","1","","",""
"d3-animate-choice","68","175278","0.0-61.0-1.2","1756","1667","25","Female","true","false","false","true","""event"",""trial"",""time""
""fullscreenenter"",""5"",""11497""
","
","
","""event"",""trial"",""time""
""fullscreenenter"",""5"",""11497""
","
","528.1999998092651","","48","","","3000","1","","","images/tutyellowplanet.jpg","images/tutalien4","images/tutalien3","images/tutrocket1","images/tutalien4","images/t.png","2","practice","true","2","common","1","2022-05-07 15:08:12.808"
"two-step-fixation","69","176283","0.0-61.0-2.2","1756","1667","25","Female","true","false","false","true","""event"",""trial"",""time""
""fullscreenenter"",""5"",""11497""
","
","
","""event"",""trial"",""time""
""fullscreenenter"",""5"",""11497""
","
","","images/earth.jpg","","","","","","","","","","","","","","fixation","","","","","",""
"d3-animate-choice","70","178645","0.0-61.0-0.3","1756","1667","25","Female","true","false","false","true","""event"",""trial"",""time""
""fullscreenenter"",""5"",""11497""
","
","
","""event"",""trial"",""time""
""fullscreenenter"",""5"",""11497""
","
","343.19999980926514","","49","","","3000","1","","","images/earth.jpg","images/tutrocket2","images/tutrocket1","null","images/tutrocket1","","1","practice","null","1","","",""
"d3-animate-choice","71","181075","0.0-61.0-1.3","1756","1667","25","Female","true","false","false","true","""event"",""trial"",""time""
""fullscreenenter"",""5"",""11497""
","
","
","""event"",""trial"",""time""
""fullscreenenter"",""5"",""11497""
","
","423.5999994277954","","48","","","3000","1","","","images/tutyellowplanet.jpg","images/tutalien4","images/tutalien3","images/tutrocket1","images/tutalien4","images/nothing.png","2","practice","true","2","common","0","2022-05-07 15:08:18.605"
"two-step-fixation","72","182082","0.0-61.0-2.3","1756","1667","25","Female","true","false","false","true","""event"",""trial"",""time""
""fullscreenenter"",""5"",""11497""
","
","
","""event"",""trial"",""time""
""fullscreenenter"",""5"",""11497""
","
","","images/earth.jpg","","","","","","","","","","","","","","fixation","","","","","",""
"d3-animate-choice","73","184386","0.0-61.0-0.4","1756","1667","25","Female","true","false","false","true","""event"",""trial"",""time""
""fullscreenenter"",""5"",""11497""
","
","
","""event"",""trial"",""time""
""fullscreenenter"",""5"",""11497""
","
","285.0999994277954","","49","","","3000","1","","","images/earth.jpg","images/tutrocket2","images/tutrocket1","null","images/tutrocket1","","1","practice","null","1","","",""
"d3-animate-choice","74","186688","0.0-61.0-1.4","1756","1667","25","Female","true","false","false","true","""event"",""trial"",""time""
""fullscreenenter"",""5"",""11497""
","
","
","""event"",""trial"",""time""
""fullscreenenter"",""5"",""11497""
","
","292.70000076293945","","48","","","3000","1","","","images/tutyellowplanet.jpg","images/tutalien4","images/tutalien3","images/tutrocket1","images/tutalien4","images/t.png","2","practice","true","2","common","1","2022-05-07 15:08:24.219"
"two-step-fixation","75","187704","0.0-61.0-2.4","1756","1667","25","Female","true","false","false","true","""event"",""trial"",""time""
""fullscreenenter"",""5"",""11497""
","
","
","""event"",""trial"",""time""
""fullscreenenter"",""5"",""11497""
","
","","images/earth.jpg","","","","","","","","","","","","","","fixation","","","","","",""
"d3-animate-choice","76","189812","0.0-61.0-0.5","1756","1667","25","Female","true","false","false","true","""event"",""trial"",""time""
""fullscreenenter"",""5"",""11497""
","
","
","""event"",""trial"",""time""
""fullscreenenter"",""5"",""11497""
","
","98.29999923706055","","49","","","3000","1","","","images/earth.jpg","images/tutrocket2","images/tutrocket1","null","images/tutrocket1","","1","practice","null","1","","",""
"d3-animate-choice","77","192241","0.0-61.0-1.5","1756","1667","25","Female","true","false","false","true","""event"",""trial"",""time""
""fullscreenenter"",""5"",""11497""
","
","
","""event"",""trial"",""time""
""fullscreenenter"",""5"",""11497""
","
","423.69999980926514","","48","","","3000","1","","","images/tutyellowplanet.jpg","images/tutalien4","images/tutalien3","images/tutrocket1","images/tutalien4","images/nothing.png","2","practice","true","2","common","0","2022-05-07 15:08:29.771"
"two-step-fixation","78","193255","0.0-61.0-2.5","1756","1667","25","Female","true","false","false","true","""event"",""trial"",""time""
""fullscreenenter"",""5"",""11497""
","
","
","""event"",""trial"",""time""
""fullscreenenter"",""5"",""11497""
","
","","images/earth.jpg","","","","","","","","","","","","","","fixation","","","","","",""
"d3-animate-choice","79","195536","0.0-61.0-0.6","1756","1667","25","Female","true","false","false","true","""event"",""trial"",""time""
""fullscreenenter"",""5"",""11497""
","
","
","""event"",""trial"",""time""
""fullscreenenter"",""5"",""11497""
","
","270.19999980926514","","49","","","3000","1","1754.5999994277954","48","images/earth.jpg","images/tutrocket2","images/tutrocket1","null","images/tutrocket1","","1","practice","null","1","","",""
"d3-animate-choice","80","197979","0.0-61.0-1.6","1756","1667","25","Female","true","false","false","true","""event"",""trial"",""time""
""fullscreenenter"",""5"",""11497""
","
","
","""event"",""trial"",""time""
""fullscreenenter"",""5"",""11497""
","
","431.19999980926514","","48","","","3000","1","","","images/tutyellowplanet.jpg","images/tutalien4","images/tutalien3","images/tutrocket1","images/tutalien4","images/t.png","2","practice","true","2","common","1","2022-05-07 15:08:35.509"
"two-step-fixation","81","198999","0.0-61.0-2.6","1756","1667","25","Female","true","false","false","true","""event"",""trial"",""time""
""fullscreenenter"",""5"",""11497""
","
","
","""event"",""trial"",""time""
""fullscreenenter"",""5"",""11497""
","
","","images/earth.jpg","","","","","","","","","","","","","","fixation","","","","","",""
"d3-animate-choice","82","201466","0.0-61.0-0.7","1756","1667","25","Female","true","false","false","true","""event"",""trial"",""time""
""fullscreenenter"",""5"",""11497""
","
","
","""event"",""trial"",""time""
""fullscreenenter"",""5"",""11497""
","
","458.6000003814697","","49","","","3000","1","2229.699999809265","48","images/earth.jpg","images/tutrocket2","images/tutrocket1","null","images/tutrocket1","","1","practice","null","1","","",""
"d3-animate-choice","83","203900","0.0-61.0-1.7","1756","1667","25","Female","true","false","false","true","""event"",""trial"",""time""
""fullscreenenter"",""5"",""11497""
","
","
","""event"",""trial"",""time""
""fullscreenenter"",""5"",""11497""
","
","424.69999980926514","","48","","","3000","1","","","images/tutgreenplanet.jpg","images/tutalien2","images/tutalien1","images/tutrocket1","images/tutalien2","images/nothing.png","2","practice","false","2","rare","0","2022-05-07 15:08:41.430"
"two-step-fixation","84","204907","0.0-61.0-2.7","1756","1667","25","Female","true","false","false","true","""event"",""trial"",""time""
""fullscreenenter"",""5"",""11497""
","
","
","""event"",""trial"",""time""
""fullscreenenter"",""5"",""11497""
","
","","images/earth.jpg","","","","","","","","","","","","","","fixation","","","","","",""
"d3-animate-choice","85","207323","0.0-61.0-0.8","1756","1667","25","Female","true","false","false","true","""event"",""trial"",""time""
""fullscreenenter"",""5"",""11497""
","
","
","""event"",""trial"",""time""
""fullscreenenter"",""5"",""11497""
","
","407.79999923706055","","49","","","3000","1","","","images/earth.jpg","images/tutrocket2","images/tutrocket1","null","images/tutrocket1","","1","practice","null","1","","",""
"d3-animate-choice","86","209692","0.0-61.0-1.8","1756","1667","25","Female","true","false","false","true","""event"",""trial"",""time""
""fullscreenenter"",""5"",""11497""
","
","
","""event"",""trial"",""time""
""fullscreenenter"",""5"",""11497""
","
","358.5","","48","","","3000","1","","","images/tutyellowplanet.jpg","images/tutalien4","images/tutalien3","images/tutrocket1","images/tutalien4","images/t.png","2","practice","true","2","common","1","2022-05-07 15:08:47.222"
"two-step-fixation","87","210696","0.0-61.0-2.8","1756","1667","25","Female","true","false","false","true","""event"",""trial"",""time""
""fullscreenenter"",""5"",""11497""
","
","
","""event"",""trial"",""time""
""fullscreenenter"",""5"",""11497""
","
","","images/earth.jpg","","","","","","","","","","","","","","fixation","","","","","",""
"d3-animate-choice","88","213037","0.0-61.0-0.9","1756","1667","25","Female","true","false","false","true","""event"",""trial"",""time""
""fullscreenenter"",""5"",""11497""
","
","
","""event"",""trial"",""time""
""fullscreenenter"",""5"",""11497""
","
","334.5","","49","","","3000","1","","","images/earth.jpg","images/tutrocket2","images/tutrocket1","null","images/tutrocket1","","1","practice","null","1","","",""
"d3-animate-choice","89","215360","0.0-61.0-1.9","1756","1667","25","Female","true","false","false","true","""event"",""trial"",""time""
""fullscreenenter"",""5"",""11497""
","
","
","""event"",""trial"",""time""
""fullscreenenter"",""5"",""11497""
","
","315.5","","48","","","3000","1","","","images/tutyellowplanet.jpg","images/tutalien4","images/tutalien3","images/tutrocket1","images/tutalien4","images/nothing.png","2","practice","true","2","common","0","2022-05-07 15:08:52.890"
"two-step-fixation","90","216366","0.0-61.0-2.9","1756","1667","25","Female","true","false","false","true","""event"",""trial"",""time""
""fullscreenenter"",""5"",""11497""
","
","
","""event"",""trial"",""time""
""fullscreenenter"",""5"",""11497""
","
","","images/earth.jpg","","","","","","","","","","","","","","fixation","","","","","",""
"d3-animate-choice","91","218677","0.0-61.0-0.10","1756","1667","25","Female","true","false","false","true","""event"",""trial"",""time""
""fullscreenenter"",""5"",""11497""
","
","
","""event"",""trial"",""time""
""fullscreenenter"",""5"",""11497""
","
","302","","49","","","3000","1","","","images/earth.jpg","images/tutrocket2","images/tutrocket1","null","images/tutrocket1","","1","practice","null","1","","",""
"d3-animate-choice","92","221103","0.0-61.0-1.10","1756","1667","25","Female","true","false","false","true","""event"",""trial"",""time""
""fullscreenenter"",""5"",""11497""
","
","
","""event"",""trial"",""time""
""fullscreenenter"",""5"",""11497""
","
","413.69999980926514","","48","","","3000","1","","","images/tutyellowplanet.jpg","images/tutalien4","images/tutalien3","images/tutrocket1","images/tutalien4","images/t.png","2","practice","true","2","common","1","2022-05-07 15:08:58.633"
"two-step-fixation","93","222109","0.0-61.0-2.10","1756","1667","25","Female","true","false","false","true","""event"",""trial"",""time""
""fullscreenenter"",""5"",""11497""
","
","
","""event"",""trial"",""time""
""fullscreenenter"",""5"",""11497""
","
","","images/earth.jpg","","","","","","","","","","","","","","fixation","","","","","",""
"d3-animate-choice","94","224635","0.0-61.0-0.11","1756","1667","25","Female","true","false","false","true","""event"",""trial"",""time""
""fullscreenenter"",""5"",""11497""
","
","
","""event"",""trial"",""time""
""fullscreenenter"",""5"",""11497""
","
","518.7000007629395","","49","","","3000","1","","","images/earth.jpg","images/tutrocket2","images/tutrocket1","null","images/tutrocket1","","1","practice","null","1","","",""
"d3-animate-choice","95","226968","0.0-61.0-1.11","1756","1667","25","Female","true","false","false","true","""event"",""trial"",""time""
""fullscreenenter"",""5"",""11497""
","
","
","""event"",""trial"",""time""
""fullscreenenter"",""5"",""11497""
","
","326","","48","","","3000","1","","","images/tutyellowplanet.jpg","images/tutalien4","images/tutalien3","images/tutrocket1","images/tutalien4","images/nothing.png","2","practice","true","2","common","0","2022-05-07 15:09:04.498"
"two-step-fixation","96","227979","0.0-61.0-2.11","1756","1667","25","Female","true","false","false","true","""event"",""trial"",""time""
""fullscreenenter"",""5"",""11497""
","
","
","""event"",""trial"",""time""
""fullscreenenter"",""5"",""11497""
","
","","images/earth.jpg","","","","","","","","","","","","","","fixation","","","","","",""
"d3-animate-choice","97","230294","0.0-61.0-0.12","1756","1667","25","Female","true","false","false","true","""event"",""trial"",""time""
""fullscreenenter"",""5"",""11497""
","
","
","""event"",""trial"",""time""
""fullscreenenter"",""5"",""11497""
","
","309.80000019073486","","49","","","3000","1","","","images/earth.jpg","images/tutrocket2","images/tutrocket1","null","images/tutrocket1","","1","practice","null","1","","",""
"d3-animate-choice","98","232559","0.0-61.0-1.12","1756","1667","25","Female","true","false","false","true","""event"",""trial"",""time""
""fullscreenenter"",""5"",""11497""
","
","
","""event"",""trial"",""time""
""fullscreenenter"",""5"",""11497""
","
","258.8999996185303","","48","","","3000","1","","","images/tutyellowplanet.jpg","images/tutalien4","images/tutalien3","images/tutrocket1","images/tutalien4","images/t.png","2","practice","true","2","common","1","2022-05-07 15:09:10.089"
"two-step-fixation","99","233578","0.0-61.0-2.12","1756","1667","25","Female","true","false","false","true","""event"",""trial"",""time""
""fullscreenenter"",""5"",""11497""
","
","
","""event"",""trial"",""time""
""fullscreenenter"",""5"",""11497""
","
","","images/earth.jpg","","","","","","","","","","","","","","fixation","","","","","",""
"d3-animate-choice","100","235952","0.0-61.0-0.13","1756","1667","25","Female","true","false","false","true","""event"",""trial"",""time""
""fullscreenenter"",""5"",""11497""
","
","
","""event"",""trial"",""time""
""fullscreenenter"",""5"",""11497""
","
","364","","49","","","3000","1","","","images/earth.jpg","images/tutrocket2","images/tutrocket1","null","images/tutrocket1","","1","practice","null","1","","",""
"d3-animate-choice","101","238248","0.0-61.0-1.13","1756","1667","25","Female","true","false","false","true","""event"",""trial"",""time""
""fullscreenenter"",""5"",""11497""
","
","
","""event"",""trial"",""time""
""fullscreenenter"",""5"",""11497""
","
","291.30000019073486","","48","","","3000","1","","","images/tutyellowplanet.jpg","images/tutalien4","images/tutalien3","images/tutrocket1","images/tutalien4","images/t.png","2","practice","true","2","common","1","2022-05-07 15:09:15.779"
"two-step-fixation","102","239260","0.0-61.0-2.13","1756","1667","25","Female","true","false","false","true","""event"",""trial"",""time""
""fullscreenenter"",""5"",""11497""
","
","
","""event"",""trial"",""time""
""fullscreenenter"",""5"",""11497""
","
","","images/earth.jpg","","","","","","","","","","","","","","fixation","","","","","",""
"d3-animate-choice","103","241533","0.0-61.0-0.14","1756","1667","25","Female","true","false","false","true","""event"",""trial"",""time""
""fullscreenenter"",""5"",""11497""
","
","
","""event"",""trial"",""time""
""fullscreenenter"",""5"",""11497""
","
","267.4000005722046","","49","","","3000","1","2190.4000005722046","48","images/earth.jpg","images/tutrocket2","images/tutrocket1","null","images/tutrocket1","","1","practice","null","1","","",""
"d3-animate-choice","104","243705","0.0-61.0-1.14","1756","1667","25","Female","true","false","false","true","""event"",""trial"",""time""
""fullscreenenter"",""5"",""11497""
","
","
","""event"",""trial"",""time""
""fullscreenenter"",""5"",""11497""
","
","164.5","","48","","","3000","1","525.3000001907349","48","images/tutyellowplanet.jpg","images/tutalien4","images/tutalien3","images/tutrocket1","images/tutalien4","images/t.png","2","practice","true","2","common","1","2022-05-07 15:09:21.235"
"two-step-fixation","105","244709","0.0-61.0-2.14","1756","1667","25","Female","true","false","false","true","""event"",""trial"",""time""
""fullscreenenter"",""5"",""11497""
","
","
","""event"",""trial"",""time""
""fullscreenenter"",""5"",""11497""
","
","","images/earth.jpg","","","","","","","","","","","","","","fixation","","","","","",""
"d3-animate-choice","106","246901","0.0-61.0-0.15","1756","1667","25","Female","true","false","false","true","""event"",""trial"",""time""
""fullscreenenter"",""5"",""11497""
","
","
","""event"",""trial"",""time""
""fullscreenenter"",""5"",""11497""
","
","182","","49","","","3000","1","","","images/earth.jpg","images/tutrocket2","images/tutrocket1","null","images/tutrocket1","","1","practice","null","1","","",""
"d3-animate-choice","107","249198","0.0-61.0-1.15","1756","1667","25","Female","true","false","false","true","""event"",""trial"",""time""
""fullscreenenter"",""5"",""11497""
","
","
","""event"",""trial"",""time""
""fullscreenenter"",""5"",""11497""
","
","291.20000076293945","","48","","","3000","1","","","images/tutyellowplanet.jpg","images/tutalien4","images/tutalien3","images/tutrocket1","images/tutalien4","images/nothing.png","2","practice","true","2","common","0","2022-05-07 15:09:26.728"
"two-step-fixation","108","250206","0.0-61.0-2.15","1756","1667","25","Female","true","false","false","true","""event"",""trial"",""time""
""fullscreenenter"",""5"",""11497""
","
","
","""event"",""trial"",""time""
""fullscreenenter"",""5"",""11497""
","
","","images/earth.jpg","","","","","","","","","","","","","","fixation","","","","","",""
"d3-animate-choice","109","252597","0.0-61.0-0.16","1756","1667","25","Female","true","false","false","true","""event"",""trial"",""time""
""fullscreenenter"",""5"",""11497""
","
","
","""event"",""trial"",""time""
""fullscreenenter"",""5"",""11497""
","
","380.29999923706055","","49","","","3000","1","","","images/earth.jpg","images/tutrocket2","images/tutrocket1","null","images/tutrocket1","","1","practice","null","1","","",""
"d3-animate-choice","110","256461","0.0-61.0-1.16","1756","1667","25","Female","true","false","false","true","""event"",""trial"",""time""
""fullscreenenter"",""5"",""11497""
","
","
","""event"",""trial"",""time""
""fullscreenenter"",""5"",""11497""
","
","1858.3000001907349","","48","","","3000","1","","","images/tutyellowplanet.jpg","images/tutalien4","images/tutalien3","images/tutrocket1","images/tutalien4","images/t.png","2","practice","true","2","common","1","2022-05-07 15:09:33.991"
"two-step-fixation","111","257471","0.0-61.0-2.16","1756","1667","25","Female","true","false","false","true","""event"",""trial"",""time""
""fullscreenenter"",""5"",""11497""
","
","
","""event"",""trial"",""time""
""fullscreenenter"",""5"",""11497""
","
","","images/earth.jpg","","","","","","","","","","","","","","fixation","","","","","",""
"d3-animate-choice","112","259791","0.0-61.0-0.17","1756","1667","25","Female","true","false","false","true","""event"",""trial"",""time""
""fullscreenenter"",""5"",""11497""
","
","
","""event"",""trial"",""time""
""fullscreenenter"",""5"",""11497""
","
","311.5","","49","","","3000","1","","","images/earth.jpg","images/tutrocket2","images/tutrocket1","null","images/tutrocket1","","1","practice","null","1","","",""
"d3-animate-choice","113","262156","0.0-61.0-1.17","1756","1667","25","Female","true","false","false","true","""event"",""trial"",""time""
""fullscreenenter"",""5"",""11497""
","
","
","""event"",""trial"",""time""
""fullscreenenter"",""5"",""11497""
","
","356.79999923706055","","48","","","3000","1","","","images/tutyellowplanet.jpg","images/tutalien4","images/tutalien3","images/tutrocket1","images/tutalien4","images/nothing.png","2","practice","true","2","common","0","2022-05-07 15:09:39.686"
"two-step-fixation","114","263165","0.0-61.0-2.17","1756","1667","25","Female","true","false","false","true","""event"",""trial"",""time""
""fullscreenenter"",""5"",""11497""
","
","
","""event"",""trial"",""time""
""fullscreenenter"",""5"",""11497""
","
","","images/earth.jpg","","","","","","","","","","","","","","fixation","","","","","",""
"d3-animate-choice","115","265505","0.0-61.0-0.18","1756","1667","25","Female","true","false","false","true","""event"",""trial"",""time""
""fullscreenenter"",""5"",""11497""
","
","
","""event"",""trial"",""time""
""fullscreenenter"",""5"",""11497""
","
","328.80000019073486","","49","","","3000","1","","","images/earth.jpg","images/tutrocket2","images/tutrocket1","null","images/tutrocket1","","1","practice","null","1","","",""
"d3-animate-choice","116","267834","0.0-61.0-1.18","1756","1667","25","Female","true","false","false","true","""event"",""trial"",""time""
""fullscreenenter"",""5"",""11497""
","
","
","""event"",""trial"",""time""
""fullscreenenter"",""5"",""11497""
","
","322.8999996185303","","48","","","3000","1","","","images/tutgreenplanet.jpg","images/tutalien2","images/tutalien1","images/tutrocket1","images/tutalien2","images/nothing.png","2","practice","false","2","rare","0","2022-05-07 15:09:45.365"
"two-step-fixation","117","268839","0.0-61.0-2.18","1756","1667","25","Female","true","false","false","true","""event"",""trial"",""time""
""fullscreenenter"",""5"",""11497""
","
","
","""event"",""trial"",""time""
""fullscreenenter"",""5"",""11497""
","
","","images/earth.jpg","","","","","","","","","","","","","","fixation","","","","","",""
"d3-animate-choice","118","271129","0.0-61.0-0.19","1756","1667","25","Female","true","false","false","true","""event"",""trial"",""time""
""fullscreenenter"",""5"",""11497""
","
","
","""event"",""trial"",""time""
""fullscreenenter"",""5"",""11497""
","
","280.5","","49","","","3000","1","","","images/earth.jpg","images/tutrocket2","images/tutrocket1","null","images/tutrocket1","","1","practice","null","1","","",""
"d3-animate-choice","119","273461","0.0-61.0-1.19","1756","1667","25","Female","true","false","false","true","""event"",""trial"",""time""
""fullscreenenter"",""5"",""11497""
","
","
","""event"",""trial"",""time""
""fullscreenenter"",""5"",""11497""
","
","327.0999994277954","","48","","","3000","1","","","images/tutyellowplanet.jpg","images/tutalien4","images/tutalien3","images/tutrocket1","images/tutalien4","images/nothing.png","2","practice","true","2","common","0","2022-05-07 15:09:50.991"
"two-step-fixation","120","274470","0.0-61.0-2.19","1756","1667","25","Female","true","false","false","true","""event"",""trial"",""time""
""fullscreenenter"",""5"",""11497""
","
","
","""event"",""trial"",""time""
""fullscreenenter"",""5"",""11497""
","
","","images/earth.jpg","","","","","","","","","","","","","","fixation","","","","","",""
"d3-instructions","121","276916","0.0-62.0","1756","1667","25","Female","true","false","false","true","""event"",""trial"",""time""
""fullscreenenter"",""5"",""11497""
","
","
","""event"",""trial"",""time""
""fullscreenenter"",""5"",""11497""
","
","","","","","","","","","","","","","","","","","","","","","",""
"audio-keyboard-response","122","312360","0.0-63.0","1756","1667","25","Female","true","false","false","true","""event"",""trial"",""time""
""fullscreenenter"",""5"",""11497""
","
","
","""event"",""trial"",""time""
""fullscreenenter"",""5"",""11497""
","
","35440","audio/instructions/treasure_feedback.wav","32","","","","","","","","","","","","","","","","","","",""
"d3-instructions","123","316245","0.0-64.0","1756","1667","25","Female","true","false","false","true","""event"",""trial"",""time""
""fullscreenenter"",""5"",""11497""
","
","
","""event"",""trial"",""time""
""fullscreenenter"",""5"",""11497""
","
","","","","","","","","","","","","","","","","","","","","","",""
"d3-instructions","124","317188","0.0-65.0","1756","1667","25","Female","true","false","false","true","""event"",""trial"",""time""
""fullscreenenter"",""5"",""11497""
","
","
","""event"",""trial"",""time""
""fullscreenenter"",""5"",""11497""
","
","","","","","","","","","","","","","","","","","","","","","",""
"d3-instructions","125","318102","0.0-66.0","1756","1667","25","Female","true","false","false","true","""event"",""trial"",""time""
""fullscreenenter"",""5"",""11497""
","
","
","""event"",""trial"",""time""
""fullscreenenter"",""5"",""11497""
","
","","","","","","","","","","","","","","","","","","","","","",""
"d3-instructions","126","319442","0.0-67.0","1756","1667","25","Female","true","false","false","true","""event"",""trial"",""time""
""fullscreenenter"",""5"",""11497""
","
","
","""event"",""trial"",""time""
""fullscreenenter"",""5"",""11497""
","
","","","","","","","","","","","","","","","","","","","","","",""
"d3-instructions","127","321460","0.0-68.0","1756","1667","25","Female","true","false","false","true","""event"",""trial"",""time""
""fullscreenenter"",""5"",""11497""
","
","
","""event"",""trial"",""time""
""fullscreenenter"",""5"",""11497""
","
","","","","","","","","","","","","","","","","","","","","","",""
"instructions-quiz","128","325536","0.0-69.0","1756","1667","25","Female","true","false","false","true","""event"",""trial"",""time""
""fullscreenenter"",""5"",""11497""
","
","
","""event"",""trial"",""time""
""fullscreenenter"",""5"",""11497""
","
","4072.699999809265","audio/quiz/Q1_Prompt.wav","","1","","","","","","","","","","","","","","","","","",""
"audio-keyboard-response","129","334703","0.0-70.0","1756","1667","25","Female","true","false","false","true","""event"",""trial"",""time""
""fullscreenenter"",""5"",""11497""
","
","
","""event"",""trial"",""time""
""fullscreenenter"",""5"",""11497""
","
","null","audio/quiz/Q1_Correct.wav","null","","","","","","","","","","","","","","","","","","",""
"instructions-quiz","130","337645","0.0-71.0","1756","1667","25","Female","true","false","false","true","""event"",""trial"",""time""
""fullscreenenter"",""5"",""11497""
","
","
","""event"",""trial"",""time""
""fullscreenenter"",""5"",""11497""
","
","2939.4000005722046","audio/quiz/Q2_Prompt.wav","","0","","","","","","","","","","","","","","","","","",""
"audio-keyboard-response","131","350512","0.0-72.0","1756","1667","25","Female","true","false","false","true","""event"",""trial"",""time""
""fullscreenenter"",""5"",""11497""
","
","
","""event"",""trial"",""time""
""fullscreenenter"",""5"",""11497""
","
","null","audio/quiz/Q2_Correct.wav","null","","","","","","","","","","","","","","","","","","",""
"instructions-quiz","132","353147","0.0-73.0","1756","1667","25","Female","true","false","false","true","""event"",""trial"",""time""
""fullscreenenter"",""5"",""11497""
","
","
","""event"",""trial"",""time""
""fullscreenenter"",""5"",""11497""
","
","2632.199999809265","audio/quiz/Q3_Prompt.wav","","1","","","","","","","","","","","","","","","","","",""
"audio-keyboard-response","133","358941","0.0-74.0","1756","1667","25","Female","true","false","false","true","""event"",""trial"",""time""
""fullscreenenter"",""5"",""11497""
","
","
","""event"",""trial"",""time""
""fullscreenenter"",""5"",""11497""
","
","null","audio/quiz/Q3_Correct.wav","null","","","","","","","","","","","","","","","","","","",""
"d3-instructions","134","432559","0.0-75.0","1756","1667","25","Female","true","false","false","true","""event"",""trial"",""time""
""fullscreenenter"",""5"",""11497""
","
","
","""event"",""trial"",""time""
""fullscreenenter"",""5"",""11497""
","
","","","","","","","","","","","","","","","","","","","","","",""
"d3-animate-choice","135","436269","0.0-76.0-0.0","1756","1667","25","Female","true","false","false","true","""event"",""trial"",""time""
""fullscreenenter"",""5"",""11497""
","
","
","""event"",""trial"",""time""
""fullscreenenter"",""5"",""11497""
","
","1698.6999998092651","","49","","","3000","1","","","images/earth.jpg","images/rocket2","images/rocket1","null","images/rocket1","","1","real","null","1","","",""
"d3-animate-choice","136","438641","0.0-76.0-1.0","1756","1667","25","Female","true","false","false","true","""event"",""trial"",""time""
""fullscreenenter"",""5"",""11497""
","
","
","""event"",""trial"",""time""
""fullscreenenter"",""5"",""11497""
","
","361.1000003814697","","49","","","3000","1","","","images/purpleplanet.jpg","images/alien4","images/alien3","images/rocket1","images/alien3","images/nothing.png","2","real","true","1","common","0","2022-05-07 15:12:36.171"
"two-step-fixation","137","439651","0.0-76.0-2.0","1756","1667","25","Female","true","false","false","true","""event"",""trial"",""time""
""fullscreenenter"",""5"",""11497""
","
","
","""event"",""trial"",""time""
""fullscreenenter"",""5"",""11497""
","
","","images/earth.jpg","","","","","","","","","","","","","","fixation","","","","","",""
"d3-animate-choice","138","441968","0.0-76.0-0.1","1756","1667","25","Female","true","false","false","true","""event"",""trial"",""time""
""fullscreenenter"",""5"",""11497""
","
","
","""event"",""trial"",""time""
""fullscreenenter"",""5"",""11497""
","
","308.5","","48","","","3000","1","","","images/earth.jpg","images/rocket2","images/rocket1","null","images/rocket2","","1","real","null","2","","",""
"d3-animate-choice","139","444302","0.0-76.0-1.1","1756","1667","25","Female","true","false","false","true","""event"",""trial"",""time""
""fullscreenenter"",""5"",""11497""
","
","
","""event"",""trial"",""time""
""fullscreenenter"",""5"",""11497""
","
","326.8999996185303","","48","","","3000","1","","","images/redplanet1.jpg","images/alien2","images/alien1","images/rocket2","images/alien2","images/t.png","2","real","true","2","common","1","2022-05-07 15:12:41.832"
"two-step-fixation","140","445307","0.0-76.0-2.1","1756","1667","25","Female","true","false","false","true","""event"",""trial"",""time""
""fullscreenenter"",""5"",""11497""
","
","
","""event"",""trial"",""time""
""fullscreenenter"",""5"",""11497""
","
","","images/earth.jpg","","","","","","","","","","","","","","fixation","","","","","",""
"d3-animate-choice","141","447621","0.0-76.0-0.2","1756","1667","25","Female","true","false","false","true","""event"",""trial"",""time""
""fullscreenenter"",""5"",""11497""
","
","
","""event"",""trial"",""time""
""fullscreenenter"",""5"",""11497""
","
","303.70000076293945","","48","","","3000","1","","","images/earth.jpg","images/rocket2","images/rocket1","null","images/rocket2","","1","real","null","2","","",""
"d3-animate-choice","142","449901","0.0-76.0-1.2","1756","1667","25","Female","true","false","false","true","""event"",""trial"",""time""
""fullscreenenter"",""5"",""11497""
","
","
","""event"",""trial"",""time""
""fullscreenenter"",""5"",""11497""
","
","273.9000005722046","","48","","","3000","1","","","images/purpleplanet.jpg","images/alien4","images/alien3","images/rocket2","images/alien4","images/t.png","2","real","false","2","rare","1","2022-05-07 15:12:47.431"
"two-step-fixation","143","450906","0.0-76.0-2.2","1756","1667","25","Female","true","false","false","true","""event"",""trial"",""time""
""fullscreenenter"",""5"",""11497""
","
","
","""event"",""trial"",""time""
""fullscreenenter"",""5"",""11497""
","
","","images/earth.jpg","","","","","","","","","","","","","","fixation","","","","","",""
"d3-animate-choice","144","453190","0.0-76.0-0.3","1756","1667","25","Female","true","false","false","true","""event"",""trial"",""time""
""fullscreenenter"",""5"",""11497""
","
","
","""event"",""trial"",""time""
""fullscreenenter"",""5"",""11497""
","
","278.3999996185303","","48","","","3000","1","","","images/earth.jpg","images/rocket2","images/rocket1","null","images/rocket2","","1","real","null","2","","",""
"d3-animate-choice","145","455470","0.0-76.0-1.3","1756","1667","25","Female","true","false","false","true","""event"",""trial"",""time""
""fullscreenenter"",""5"",""11497""
","
","
","""event"",""trial"",""time""
""fullscreenenter"",""5"",""11497""
","
","270.69999980926514","","48","","","3000","1","2002.8000001907349","48","images/purpleplanet.jpg","images/alien4","images/alien3","images/rocket2","images/alien4","images/t.png","2","real","false","2","rare","1","2022-05-07 15:12:53.000"
"two-step-fixation","146","456473","0.0-76.0-2.3","1756","1667","25","Female","true","false","false","true","""event"",""trial"",""time""
""fullscreenenter"",""5"",""11497""
","
","
","""event"",""trial"",""time""
""fullscreenenter"",""5"",""11497""
","
","","images/earth.jpg","","","","","","","","","","","","","","fixation","","","","","",""
"d3-animate-choice","147","458833","0.0-76.0-0.4","1756","1667","25","Female","true","false","false","true","""event"",""trial"",""time""
""fullscreenenter"",""5"",""11497""
","
","
","""event"",""trial"",""time""
""fullscreenenter"",""5"",""11497""
","
","353.19999980926514","","48","","","3000","1","","","images/earth.jpg","images/rocket2","images/rocket1","null","images/rocket2","","1","real","null","2","","",""
"d3-animate-choice","148","461181","0.0-76.0-1.4","1756","1667","25","Female","true","false","false","true","""event"",""trial"",""time""
""fullscreenenter"",""5"",""11497""
","
","
","""event"",""trial"",""time""
""fullscreenenter"",""5"",""11497""
","
","336.9000005722046","","48","","","3000","1","","","images/redplanet1.jpg","images/alien2","images/alien1","images/rocket2","images/alien2","images/t.png","2","real","true","2","common","1","2022-05-07 15:12:58.711"
"two-step-fixation","149","462188","0.0-76.0-2.4","1756","1667","25","Female","true","false","false","true","""event"",""trial"",""time""
""fullscreenenter"",""5"",""11497""
","
","
","""event"",""trial"",""time""
""fullscreenenter"",""5"",""11497""
","
","","images/earth.jpg","","","","","","","","","","","","","","fixation","","","","","",""
"d3-animate-choice","150","464551","0.0-76.0-0.5","1756","1667","25","Female","true","false","false","true","""event"",""trial"",""time""
""fullscreenenter"",""5"",""11497""
","
","
","""event"",""trial"",""time""
""fullscreenenter"",""5"",""11497""
","
","353.80000019073486","","48","","","3000","1","","","images/earth.jpg","images/rocket2","images/rocket1","null","images/rocket2","","1","real","null","2","","",""
"d3-animate-choice","151","467198","0.0-76.0-1.5","1756","1667","25","Female","true","false","false","true","""event"",""trial"",""time""
""fullscreenenter"",""5"",""11497""
","
","
","""event"",""trial"",""time""
""fullscreenenter"",""5"",""11497""
","
","636.8999996185303","","48","","","3000","1","","","images/redplanet1.jpg","images/alien2","images/alien1","images/rocket2","images/alien2","images/t.png","2","real","true","2","common","1","2022-05-07 15:13:04.728"
"two-step-fixation","152","468203","0.0-76.0-2.5","1756","1667","25","Female","true","false","false","true","""event"",""trial"",""time""
""fullscreenenter"",""5"",""11497""
","
","
","""event"",""trial"",""time""
""fullscreenenter"",""5"",""11497""
","
","","images/earth.jpg","","","","","","","","","","","","","","fixation","","","","","",""
"d3-animate-choice","153","470516","0.0-76.0-0.6","1756","1667","25","Female","true","false","false","true","""event"",""trial"",""time""
""fullscreenenter"",""5"",""11497""
","
","
","""event"",""trial"",""time""
""fullscreenenter"",""5"",""11497""
","
","308.4000005722046","","48","","","3000","1","","","images/earth.jpg","images/rocket2","images/rocket1","null","images/rocket2","","1","real","null","2","","",""
"d3-animate-choice","154","472875","0.0-76.0-1.6","1756","1667","25","Female","true","false","false","true","""event"",""trial"",""time""
""fullscreenenter"",""5"",""11497""
","
","
","""event"",""trial"",""time""
""fullscreenenter"",""5"",""11497""
","
","354.19999980926514","","48","","","3000","1","","","images/redplanet1.jpg","images/alien2","images/alien1","images/rocket2","images/alien2","images/t.png","2","real","true","2","common","1","2022-05-07 15:13:10.405"
"two-step-fixation","155","473883","0.0-76.0-2.6","1756","1667","25","Female","true","false","false","true","""event"",""trial"",""time""
""fullscreenenter"",""5"",""11497""
","
","
","""event"",""trial"",""time""
""fullscreenenter"",""5"",""11497""
","
","","images/earth.jpg","","","","","","","","","","","","","","fixation","","","","","",""
"d3-animate-choice","156","476189","0.0-76.0-0.7","1756","1667","25","Female","true","false","false","true","""event"",""trial"",""time""
""fullscreenenter"",""5"",""11497""
","
","
","""event"",""trial"",""time""
""fullscreenenter"",""5"",""11497""
","
","299","","48","","","3000","1","","","images/earth.jpg","images/rocket2","images/rocket1","null","images/rocket2","","1","real","null","2","","",""
"d3-animate-choice","157","478586","0.0-76.0-1.7","1756","1667","25","Female","true","false","false","true","""event"",""trial"",""time""
""fullscreenenter"",""5"",""11497""
","
","
","""event"",""trial"",""time""
""fullscreenenter"",""5"",""11497""
","
","385.8999996185303","","48","","","3000","1","2084.8999996185303","48","images/redplanet1.jpg","images/alien2","images/alien1","images/rocket2","images/alien2","images/t.png","2","real","true","2","common","1","2022-05-07 15:13:16.116"
"two-step-fixation","158","479591","0.0-76.0-2.7","1756","1667","25","Female","true","false","false","true","""event"",""trial"",""time""
""fullscreenenter"",""5"",""11497""
","
","
","""event"",""trial"",""time""
""fullscreenenter"",""5"",""11497""
","
","","images/earth.jpg","","","","","","","","","","","","","","fixation","","","","","",""
"d3-animate-choice","159","481933","0.0-76.0-0.8","1756","1667","25","Female","true","false","false","true","""event"",""trial"",""time""
""fullscreenenter"",""5"",""11497""
","
","
","""event"",""trial"",""time""
""fullscreenenter"",""5"",""11497""
","
","334.20000076293945","","48","","","3000","1","","","images/earth.jpg","images/rocket2","images/rocket1","null","images/rocket2","","1","real","null","2","","",""
"d3-animate-choice","160","484430","0.0-76.0-1.8","1756","1667","25","Female","true","false","false","true","""event"",""trial"",""time""
""fullscreenenter"",""5"",""11497""
","
","
","""event"",""trial"",""time""
""fullscreenenter"",""5"",""11497""
","
","491.19999980926514","","48","","","3000","1","","","images/redplanet1.jpg","images/alien2","images/alien1","images/rocket2","images/alien2","images/nothing.png","2","real","true","2","common","0","2022-05-07 15:13:21.960"
"two-step-fixation","161","485436","0.0-76.0-2.8","1756","1667","25","Female","true","false","false","true","""event"",""trial"",""time""
""fullscreenenter"",""5"",""11497""
","
","
","""event"",""trial"",""time""
""fullscreenenter"",""5"",""11497""
","
","","images/earth.jpg","","","","","","","","","","","","","","fixation","","","","","",""
"d3-animate-choice","162","487773","0.0-76.0-0.9","1756","1667","25","Female","true","false","false","true","""event"",""trial"",""time""
""fullscreenenter"",""5"",""11497""
","
","
","""event"",""trial"",""time""
""fullscreenenter"",""5"",""11497""
","
","328.5","","48","","","3000","1","","","images/earth.jpg","images/rocket2","images/rocket1","null","images/rocket2","","1","real","null","2","","",""
"d3-animate-choice","163","491039","0.0-76.0-1.9","1756","1667","25","Female","true","false","false","true","""event"",""trial"",""time""
""fullscreenenter"",""5"",""11497""
","
","
","""event"",""trial"",""time""
""fullscreenenter"",""5"",""11497""
","
","1257.1000003814697","","48","","","3000","1","","","images/purpleplanet.jpg","images/alien4","images/alien3","images/rocket2","images/alien4","images/t.png","2","real","false","2","rare","1","2022-05-07 15:13:28.569"
"two-step-fixation","164","492050","0.0-76.0-2.9","1756","1667","25","Female","true","false","false","true","""event"",""trial"",""time""
""fullscreenenter"",""5"",""11497""
","
","
","""event"",""trial"",""time""
""fullscreenenter"",""5"",""11497""
","
","","images/earth.jpg","","","","","","","","","","","","","","fixation","","","","","",""
"d3-animate-choice","165","494501","0.0-76.0-0.10","1756","1667","25","Female","true","false","false","true","""event"",""trial"",""time""
""fullscreenenter"",""5"",""11497""
","
","
","""event"",""trial"",""time""
""fullscreenenter"",""5"",""11497""
","
","445.5","","48","","","3000","1","","","images/earth.jpg","images/rocket2","images/rocket1","null","images/rocket2","","1","real","null","2","","",""
"d3-animate-choice","166","498368","0.0-76.0-1.10","1756","1667","25","Female","true","false","false","true","""event"",""trial"",""time""
""fullscreenenter"",""5"",""11497""
","
","
","""event"",""trial"",""time""
""fullscreenenter"",""5"",""11497""
","
","1857.2000007629395","","48","","","3000","1","","","images/purpleplanet.jpg","images/alien4","images/alien3","images/rocket2","images/alien4","images/t.png","2","real","false","2","rare","1","2022-05-07 15:13:35.898"
"two-step-fixation","167","499373","0.0-76.0-2.10","1756","1667","25","Female","true","false","false","true","""event"",""trial"",""time""
""fullscreenenter"",""5"",""11497""
","
","
","""event"",""trial"",""time""
""fullscreenenter"",""5"",""11497""
","
","","images/earth.jpg","","","","","","","","","","","","","","fixation","","","","","",""
"d3-animate-choice","168","501745","0.0-76.0-0.11","1756","1667","25","Female","true","false","false","true","""event"",""trial"",""time""
""fullscreenenter"",""5"",""11497""
","
","
","""event"",""trial"",""time""
""fullscreenenter"",""5"",""11497""
","
","367","","48","","","3000","1","","","images/earth.jpg","images/rocket2","images/rocket1","null","images/rocket2","","1","real","null","2","","",""
"d3-animate-choice","169","504439","0.0-76.0-1.11","1756","1667","25","Female","true","false","false","true","""event"",""trial"",""time""
""fullscreenenter"",""5"",""11497""
","
","
","""event"",""trial"",""time""
""fullscreenenter"",""5"",""11497""
","
","684.8000001907349","","48","","","3000","1","","","images/redplanet1.jpg","images/alien2","images/alien1","images/rocket2","images/alien2","images/nothing.png","2","real","true","2","common","0","2022-05-07 15:13:41.969"
"two-step-fixation","170","505445","0.0-76.0-2.11","1756","1667","25","Female","true","false","false","true","""event"",""trial"",""time""
""fullscreenenter"",""5"",""11497""
","
","
","""event"",""trial"",""time""
""fullscreenenter"",""5"",""11497""
","
","","images/earth.jpg","","","","","","","","","","","","","","fixation","","","","","",""
"d3-animate-choice","171","507506","0.0-76.0-0.12","1756","1667","25","Female","true","false","false","true","""event"",""trial"",""time""
""fullscreenenter"",""5"",""11497""
","
","
","""event"",""trial"",""time""
""fullscreenenter"",""5"",""11497""
","
","54.80000019073486","","48","","","3000","1","","","images/earth.jpg","images/rocket2","images/rocket1","null","images/rocket2","","1","real","null","2","","",""
"d3-animate-choice","172","510737","0.0-76.0-1.12","1756","1667","25","Female","true","false","false","true","""event"",""trial"",""time""
""fullscreenenter"",""5"",""11497""
","
","
","""event"",""trial"",""time""
""fullscreenenter"",""5"",""11497""
","
","1222.7999992370605","","48","","","3000","1","","","images/redplanet1.jpg","images/alien2","images/alien1","images/rocket2","images/alien2","images/nothing.png","2","real","true","2","common","0","2022-05-07 15:13:48.267"
"two-step-fixation","173","511748","0.0-76.0-2.12","1756","1667","25","Female","true","false","false","true","""event"",""trial"",""time""
""fullscreenenter"",""5"",""11497""
","
","
","""event"",""trial"",""time""
""fullscreenenter"",""5"",""11497""
","
","","images/earth.jpg","","","","","","","","","","","","","","fixation","","","","","",""
"d3-animate-choice","174","514052","0.0-76.0-0.13","1756","1667","25","Female","true","false","false","true","""event"",""trial"",""time""
""fullscreenenter"",""5"",""11497""
","
","
","""event"",""trial"",""time""
""fullscreenenter"",""5"",""11497""
","
","297.80000019073486","","48","","","3000","1","","","images/earth.jpg","images/rocket2","images/rocket1","null","images/rocket2","","1","real","null","2","","",""
"d3-animate-choice","175","516430","0.0-76.0-1.13","1756","1667","25","Female","true","false","false","true","""event"",""trial"",""time""
""fullscreenenter"",""5"",""11497""
","
","
","""event"",""trial"",""time""
""fullscreenenter"",""5"",""11497""
","
","371.8999996185303","","48","","","3000","1","","","images/redplanet1.jpg","images/alien2","images/alien1","images/rocket2","images/alien2","images/t.png","2","real","true","2","common","1","2022-05-07 15:13:53.960"
"two-step-fixation","176","517439","0.0-76.0-2.13","1756","1667","25","Female","true","false","false","true","""event"",""trial"",""time""
""fullscreenenter"",""5"",""11497""
","
","
","""event"",""trial"",""time""
""fullscreenenter"",""5"",""11497""
","
","","images/earth.jpg","","","","","","","","","","","","","","fixation","","","","","",""
"d3-animate-choice","177","519836","0.0-76.0-0.14","1756","1667","25","Female","true","false","false","true","""event"",""trial"",""time""
""fullscreenenter"",""5"",""11497""
","
","
","""event"",""trial"",""time""
""fullscreenenter"",""5"",""11497""
","
","390.19999980926514","","48","","","3000","1","","","images/earth.jpg","images/rocket2","images/rocket1","null","images/rocket2","","1","real","null","2","","",""
"d3-animate-choice","178","523432","0.0-76.0-1.14","1756","1667","25","Female","true","false","false","true","""event"",""trial"",""time""
""fullscreenenter"",""5"",""11497""
","
","
","""event"",""trial"",""time""
""fullscreenenter"",""5"",""11497""
","
","1588.5","","48","","","3000","1","","","images/purpleplanet.jpg","images/alien4","images/alien3","images/rocket2","images/alien4","images/t.png","2","real","false","2","rare","1","2022-05-07 15:14:00.962"
"two-step-fixation","179","524444","0.0-76.0-2.14","1756","1667","25","Female","true","false","false","true","""event"",""trial"",""time""
""fullscreenenter"",""5"",""11497""
","
","
","""event"",""trial"",""time""
""fullscreenenter"",""5"",""11497""
","
","","images/earth.jpg","","","","","","","","","","","","","","fixation","","","","","",""
"d3-animate-choice","180","526874","0.0-76.0-0.15","1756","1667","25","Female","true","false","false","true","""event"",""trial"",""time""
""fullscreenenter"",""5"",""11497""
","
","
","""event"",""trial"",""time""
""fullscreenenter"",""5"",""11497""
","
","425.19999980926514","","48","","","3000","1","","","images/earth.jpg","images/rocket2","images/rocket1","null","images/rocket2","","1","real","null","2","","",""
"d3-animate-choice","181","529417","0.0-76.0-1.15","1756","1667","25","Female","true","false","false","true","""event"",""trial"",""time""
""fullscreenenter"",""5"",""11497""
","
","
","""event"",""trial"",""time""
""fullscreenenter"",""5"",""11497""
","
","535.0999994277954","","48","","","3000","1","","","images/redplanet1.jpg","images/alien2","images/alien1","images/rocket2","images/alien2","images/t.png","2","real","true","2","common","1","2022-05-07 15:14:06.947"
"two-step-fixation","182","530421","0.0-76.0-2.15","1756","1667","25","Female","true","false","false","true","""event"",""trial"",""time""
""fullscreenenter"",""5"",""11497""
","
","
","""event"",""trial"",""time""
""fullscreenenter"",""5"",""11497""
","
","","images/earth.jpg","","","","","","","","","","","","","","fixation","","","","","",""
"d3-animate-choice","183","532738","0.0-76.0-0.16","1756","1667","25","Female","true","false","false","true","""event"",""trial"",""time""
""fullscreenenter"",""5"",""11497""
","
","
","""event"",""trial"",""time""
""fullscreenenter"",""5"",""11497""
","
","310.5999994277954","","48","","","3000","1","","","images/earth.jpg","images/rocket2","images/rocket1","null","images/rocket2","","1","real","null","2","","",""
"d3-animate-choice","184","535211","0.0-76.0-1.16","1756","1667","25","Female","true","false","false","true","""event"",""trial"",""time""
""fullscreenenter"",""5"",""11497""
","
","
","""event"",""trial"",""time""
""fullscreenenter"",""5"",""11497""
","
","469.0999994277954","","48","","","3000","1","","","images/purpleplanet.jpg","images/alien4","images/alien3","images/rocket2","images/alien4","images/t.png","2","real","false","2","rare","1","2022-05-07 15:14:12.741"
"two-step-fixation","185","536221","0.0-76.0-2.16","1756","1667","25","Female","true","false","false","true","""event"",""trial"",""time""
""fullscreenenter"",""5"",""11497""
","
","
","""event"",""trial"",""time""
""fullscreenenter"",""5"",""11497""
","
","","images/earth.jpg","","","","","","","","","","","","","","fixation","","","","","",""
"d3-animate-choice","186","538600","0.0-76.0-0.17","1756","1667","25","Female","true","false","false","true","""event"",""trial"",""time""
""fullscreenenter"",""5"",""11497""
","
","
","""event"",""trial"",""time""
""fullscreenenter"",""5"",""11497""
","
","372.80000019073486","","48","","","3000","1","","","images/earth.jpg","images/rocket2","images/rocket1","null","images/rocket2","","1","real","null","2","","",""
"d3-animate-choice","187","541307","0.0-76.0-1.17","1756","1667","25","Female","true","false","false","true","""event"",""trial"",""time""
""fullscreenenter"",""5"",""11497""
","
","
","""event"",""trial"",""time""
""fullscreenenter"",""5"",""11497""
","
","697.5","","48","","","3000","1","","","images/purpleplanet.jpg","images/alien4","images/alien3","images/rocket2","images/alien4","images/nothing.png","2","real","false","2","rare","0","2022-05-07 15:14:18.839"
"two-step-fixation","188","542318","0.0-76.0-2.17","1756","1667","25","Female","true","false","false","true","""event"",""trial"",""time""
""fullscreenenter"",""5"",""11497""
","
","
","""event"",""trial"",""time""
""fullscreenenter"",""5"",""11497""
","
","","images/earth.jpg","","","","","","","","","","","","","","fixation","","","","","",""
"d3-animate-choice","189","544622","0.0-76.0-0.18","1756","1667","25","Female","true","false","false","true","""event"",""trial"",""time""
""fullscreenenter"",""5"",""11497""
","
","
","""event"",""trial"",""time""
""fullscreenenter"",""5"",""11497""
","
","295.69999980926514","","48","","","3000","1","","","images/earth.jpg","images/rocket2","images/rocket1","null","images/rocket2","","1","real","null","2","","",""
"d3-animate-choice","190","547254","0.0-76.0-1.18","1756","1667","25","Female","true","false","false","true","""event"",""trial"",""time""
""fullscreenenter"",""5"",""11497""
","
","
","""event"",""trial"",""time""
""fullscreenenter"",""5"",""11497""
","
","626.0999994277954","","48","","","3000","1","","","images/redplanet1.jpg","images/alien2","images/alien1","images/rocket2","images/alien2","images/t.png","2","real","true","2","common","1","2022-05-07 15:14:24.785"
"two-step-fixation","191","548263","0.0-76.0-2.18","1756","1667","25","Female","true","false","false","true","""event"",""trial"",""time""
""fullscreenenter"",""5"",""11497""
","
","
","""event"",""trial"",""time""
""fullscreenenter"",""5"",""11497""
","
","","images/earth.jpg","","","","","","","","","","","","","","fixation","","","","","",""
"d3-animate-choice","192","550857","0.0-76.0-0.19","1756","1667","25","Female","true","false","false","true","""event"",""trial"",""time""
""fullscreenenter"",""5"",""11497""
","
","
","""event"",""trial"",""time""
""fullscreenenter"",""5"",""11497""
","
","582.1999998092651","","48","","","3000","1","","","images/earth.jpg","images/rocket2","images/rocket1","null","images/rocket2","","1","real","null","2","","",""
"d3-animate-choice","193","553661","0.0-76.0-1.19","1756","1667","25","Female","true","false","false","true","""event"",""trial"",""time""
""fullscreenenter"",""5"",""11497""
","
","
","""event"",""trial"",""time""
""fullscreenenter"",""5"",""11497""
","
","794.8999996185303","","48","","","3000","1","","","images/redplanet1.jpg","images/alien2","images/alien1","images/rocket2","images/alien2","images/t.png","2","real","true","2","common","1","2022-05-07 15:14:31.192"
"two-step-fixation","194","554668","0.0-76.0-2.19","1756","1667","25","Female","true","false","false","true","""event"",""trial"",""time""
""fullscreenenter"",""5"",""11497""
","
","
","""event"",""trial"",""time""
""fullscreenenter"",""5"",""11497""
","
","","images/earth.jpg","","","","","","","","","","","","","","fixation","","","","","",""
"d3-animate-choice","195","558582","0.0-76.0-0.20","1756","1667","25","Female","true","false","false","true","""event"",""trial"",""time""
""fullscreenenter"",""5"",""11497""
","
","
","""event"",""trial"",""time""
""fullscreenenter"",""5"",""11497""
","
","1906.8999996185303","","48","","","3000","1","","","images/earth.jpg","images/rocket2","images/rocket1","null","images/rocket2","","1","real","null","2","","",""
"d3-animate-choice","196","562205","0.0-76.0-1.20","1756","1667","25","Female","true","false","false","true","""event"",""trial"",""time""
""fullscreenenter"",""5"",""11497""
","
","
","""event"",""trial"",""time""
""fullscreenenter"",""5"",""11497""
","
","1615.7999992370605","","48","","","3000","1","","","images/purpleplanet.jpg","images/alien4","images/alien3","images/rocket2","images/alien4","images/t.png","2","real","false","2","rare","1","2022-05-07 15:14:39.735"
"two-step-fixation","197","563213","0.0-76.0-2.20","1756","1667","25","Female","true","false","false","true","""event"",""trial"",""time""
""fullscreenenter"",""5"",""11497""
","
","
","""event"",""trial"",""time""
""fullscreenenter"",""5"",""11497""
","
","","images/earth.jpg","","","","","","","","","","","","","","fixation","","","","","",""
"d3-animate-choice","198","565830","0.0-76.0-0.21","1756","1667","25","Female","true","false","false","true","""event"",""trial"",""time""
""fullscreenenter"",""5"",""11497""
","
","
","""event"",""trial"",""time""
""fullscreenenter"",""5"",""11497""
","
","606.6000003814697","","48","","","3000","1","","","images/earth.jpg","images/rocket2","images/rocket1","null","images/rocket2","","1","real","null","2","","",""
"d3-animate-choice","199","569122","0.0-76.0-1.21","1756","1667","25","Female","true","false","false","true","""event"",""trial"",""time""
""fullscreenenter"",""5"",""11497""
","
","
","""event"",""trial"",""time""
""fullscreenenter"",""5"",""11497""
","
","1282.6999998092651","","48","","","3000","1","3002","48","images/redplanet1.jpg","images/alien2","images/alien1","images/rocket2","images/alien2","images/t.png","2","real","true","2","common","1","2022-05-07 15:14:46.652"
"two-step-fixation","200","570130","0.0-76.0-2.21","1756","1667","25","Female","true","false","false","true","""event"",""trial"",""time""
""fullscreenenter"",""5"",""11497""
","
","
","""event"",""trial"",""time""
""fullscreenenter"",""5"",""11497""
","
","","images/earth.jpg","","","","","","","","","","","","","","fixation","","","","","",""
"d3-animate-choice","201","572939","0.0-76.0-0.22","1756","1667","25","Female","true","false","false","true","""event"",""trial"",""time""
""fullscreenenter"",""5"",""11497""
","
","
","""event"",""trial"",""time""
""fullscreenenter"",""5"",""11497""
","
","802.6000003814697","","48","","","3000","1","","","images/earth.jpg","images/rocket2","images/rocket1","null","images/rocket2","","1","real","null","2","","",""
"d3-animate-choice","202","576425","0.0-76.0-1.22","1756","1667","25","Female","true","false","false","true","""event"",""trial"",""time""
""fullscreenenter"",""5"",""11497""
","
","
","""event"",""trial"",""time""
""fullscreenenter"",""5"",""11497""
","
","1477.6000003814697","","48","","","3000","1","","","images/redplanet1.jpg","images/alien2","images/alien1","images/rocket2","images/alien2","images/nothing.png","2","real","true","2","common","0","2022-05-07 15:14:53.955"
"two-step-fixation","203","577431","0.0-76.0-2.22","1756","1667","25","Female","true","false","false","true","""event"",""trial"",""time""
""fullscreenenter"",""5"",""11497""
","
","
","""event"",""trial"",""time""
""fullscreenenter"",""5"",""11497""
","
","","images/earth.jpg","","","","","","","","","","","","","","fixation","","","","","",""
"d3-animate-choice","204","579967","0.0-76.0-0.23","1756","1667","25","Female","true","false","false","true","""event"",""trial"",""time""
""fullscreenenter"",""5"",""11497""
","
","
","""event"",""trial"",""time""
""fullscreenenter"",""5"",""11497""
","
","529.6999998092651","","48","","","3000","1","","","images/earth.jpg","images/rocket2","images/rocket1","null","images/rocket2","","1","real","null","2","","",""
"d3-animate-choice","205","582543","0.0-76.0-1.23","1756","1667","25","Female","true","false","false","true","""event"",""trial"",""time""
""fullscreenenter"",""5"",""11497""
","
","
","""event"",""trial"",""time""
""fullscreenenter"",""5"",""11497""
","
","565","","48","","","3000","1","","","images/redplanet1.jpg","images/alien2","images/alien1","images/rocket2","images/alien2","images/nothing.png","2","real","true","2","common","0","2022-05-07 15:15:00.073"
"two-step-fixation","206","583551","0.0-76.0-2.23","1756","1667","25","Female","true","false","false","true","""event"",""trial"",""time""
""fullscreenenter"",""5"",""11497""
","
","
","""event"",""trial"",""time""
""fullscreenenter"",""5"",""11497""
","
","","images/earth.jpg","","","","","","","","","","","","","","fixation","","","","","",""
"d3-animate-choice","207","585860","0.0-76.0-0.24","1756","1667","25","Female","true","false","false","true","""event"",""trial"",""time""
""fullscreenenter"",""5"",""11497""
","
","
","""event"",""trial"",""time""
""fullscreenenter"",""5"",""11497""
","
","296.79999923706055","","48","","","3000","1","","","images/earth.jpg","images/rocket2","images/rocket1","null","images/rocket2","","1","real","null","2","","",""
"d3-animate-choice","208","588352","0.0-76.0-1.24","1756","1667","25","Female","true","false","false","true","""event"",""trial"",""time""
""fullscreenenter"",""5"",""11497""
","
","
","""event"",""trial"",""time""
""fullscreenenter"",""5"",""11497""
","
","484.3999996185303","","48","","","3000","1","","","images/purpleplanet.jpg","images/alien4","images/alien3","images/rocket2","images/alien4","images/t.png","2","real","false","2","rare","1","2022-05-07 15:15:05.882"
"two-step-fixation","209","589362","0.0-76.0-2.24","1756","1667","25","Female","true","false","false","true","""event"",""trial"",""time""
""fullscreenenter"",""5"",""11497""
","
","
","""event"",""trial"",""time""
""fullscreenenter"",""5"",""11497""
","
","","images/earth.jpg","","","","","","","","","","","","","","fixation","","","","","",""
"d3-animate-choice","210","592789","0.0-76.0-0.25","1756","1667","25","Female","true","false","false","true","""event"",""trial"",""time""
""fullscreenenter"",""5"",""11497""
","
","
","""event"",""trial"",""time""
""fullscreenenter"",""5"",""11497""
","
","1419.4000005722046","","48","","","3000","1","3423.300000190735","48","images/earth.jpg","images/rocket2","images/rocket1","null","images/rocket2","","1","real","null","2","","",""
"d3-animate-choice","211","596798","0.0-76.0-1.25","1756","1667","25","Female","true","false","false","true","""event"",""trial"",""time""
""fullscreenenter"",""5"",""11497""
","
","
","""event"",""trial"",""time""
""fullscreenenter"",""5"",""11497""
","
","2767","","48","","","3000","1","","","images/redplanet1.jpg","images/alien2","images/alien1","images/rocket2","images/alien2","","2","real","true","2","common","0","2022-05-07 15:15:14.328"
"two-step-fixation","212","597802","0.0-76.0-2.25","1756","1667","25","Female","true","false","false","true","""event"",""trial"",""time""
""fullscreenenter"",""5"",""11497""
","
","
","""event"",""trial"",""time""
""fullscreenenter"",""5"",""11497""
","
","","images/earth.jpg","","","","","","","","","","","","","","fixation","","","","","",""
"d3-animate-choice","213","600606","0.0-76.0-0.26","1756","1667","25","Female","true","false","false","true","""event"",""trial"",""time""
""fullscreenenter"",""5"",""11497""
","
","
","""event"",""trial"",""time""
""fullscreenenter"",""5"",""11497""
","
","794.0999994277954","","48","","","3000","1","","","images/earth.jpg","images/rocket2","images/rocket1","null","images/rocket2","","1","real","null","2","","",""
"d3-animate-choice","214","602681","0.0-76.0-1.26","1756","1667","25","Female","true","false","false","true","""event"",""trial"",""time""
""fullscreenenter"",""5"",""11497""
","
","
","""event"",""trial"",""time""
""fullscreenenter"",""5"",""11497""
","
","67.19999980926514","","48","","","3000","1","","","images/redplanet1.jpg","images/alien2","images/alien1","images/rocket2","images/alien2","images/t.png","2","real","true","2","common","1","2022-05-07 15:15:20.211"
"two-step-fixation","215","603690","0.0-76.0-2.26","1756","1667","25","Female","true","false","false","true","""event"",""trial"",""time""
""fullscreenenter"",""5"",""11497""
","
","
","""event"",""trial"",""time""
""fullscreenenter"",""5"",""11497""
","
","","images/earth.jpg","","","","","","","","","","","","","","fixation","","","","","",""
"d3-animate-choice","216","606666","0.0-76.0-0.27","1756","1667","25","Female","true","false","false","true","""event"",""trial"",""time""
""fullscreenenter"",""5"",""11497""
","
","
","""event"",""trial"",""time""
""fullscreenenter"",""5"",""11497""
","
","971","","48","","","3000","1","","","images/earth.jpg","images/rocket2","images/rocket1","null","images/rocket2","","1","real","null","2","","",""
"d3-animate-choice","217","610107","0.0-76.0-1.27","1756","1667","25","Female","true","false","false","true","""event"",""trial"",""time""
""fullscreenenter"",""5"",""11497""
","
","
","""event"",""trial"",""time""
""fullscreenenter"",""5"",""11497""
","
","1435.8000001907349","","48","","","3000","1","","","images/redplanet1.jpg","images/alien2","images/alien1","images/rocket2","images/alien2","images/t.png","2","real","true","2","common","1","2022-05-07 15:15:27.638"
"two-step-fixation","218","611115","0.0-76.0-2.27","1756","1667","25","Female","true","false","false","true","""event"",""trial"",""time""
""fullscreenenter"",""5"",""11497""
","
","
","""event"",""trial"",""time""
""fullscreenenter"",""5"",""11497""
","
","","images/earth.jpg","","","","","","","","","","","","","","fixation","","","","","",""
"d3-animate-choice","219","613632","0.0-76.0-0.28","1756","1667","25","Female","true","false","false","true","""event"",""trial"",""time""
""fullscreenenter"",""5"",""11497""
","
","
","""event"",""trial"",""time""
""fullscreenenter"",""5"",""11497""
","
","512.6999998092651","","48","","","3000","1","","","images/earth.jpg","images/rocket2","images/rocket1","null","images/rocket2","","1","real","null","2","","",""
"d3-animate-choice","220","616748","0.0-76.0-1.28","1756","1667","25","Female","true","false","false","true","""event"",""trial"",""time""
""fullscreenenter"",""5"",""11497""
","
","
","""event"",""trial"",""time""
""fullscreenenter"",""5"",""11497""
","
","1109.0999994277954","","48","","","3000","1","","","images/purpleplanet.jpg","images/alien4","images/alien3","images/rocket2","images/alien4","images/t.png","2","real","false","2","rare","1","2022-05-07 15:15:34.278"
"two-step-fixation","221","617757","0.0-76.0-2.28","1756","1667","25","Female","true","false","false","true","""event"",""trial"",""time""
""fullscreenenter"",""5"",""11497""
","
","
","""event"",""trial"",""time""
""fullscreenenter"",""5"",""11497""
","
","","images/earth.jpg","","","","","","","","","","","","","","fixation","","","","","",""
"d3-animate-choice","222","621011","0.0-76.0-0.29","1756","1667","25","Female","true","false","false","true","""event"",""trial"",""time""
""fullscreenenter"",""5"",""11497""
","
","
","""event"",""trial"",""time""
""fullscreenenter"",""5"",""11497""
","
","1246","","48","","","3000","1","","","images/earth.jpg","images/rocket2","images/rocket1","null","images/rocket2","","1","real","null","2","","",""
"d3-animate-choice","223","623980","0.0-76.0-1.29","1756","1667","25","Female","true","false","false","true","""event"",""trial"",""time""
""fullscreenenter"",""5"",""11497""
","
","
","""event"",""trial"",""time""
""fullscreenenter"",""5"",""11497""
","
","963.5","","48","","","3000","1","","","images/redplanet1.jpg","images/alien2","images/alien1","images/rocket2","images/alien2","images/nothing.png","2","real","true","2","common","0","2022-05-07 15:15:41.510"
"two-step-fixation","224","624991","0.0-76.0-2.29","1756","1667","25","Female","true","false","false","true","""event"",""trial"",""time""
""fullscreenenter"",""5"",""11497""
","
","
","""event"",""trial"",""time""
""fullscreenenter"",""5"",""11497""
","
","","images/earth.jpg","","","","","","","","","","","","","","fixation","","","","","",""
"d3-animate-choice","225","627653","0.0-76.0-0.30","1756","1667","25","Female","true","false","false","true","""event"",""trial"",""time""
""fullscreenenter"",""5"",""11497""
","
","
","""event"",""trial"",""time""
""fullscreenenter"",""5"",""11497""
","
","654.9000005722046","","48","","","3000","1","","","images/earth.jpg","images/rocket2","images/rocket1","null","images/rocket2","","1","real","null","2","","",""
"d3-animate-choice","226","630482","0.0-76.0-1.30","1756","1667","25","Female","true","false","false","true","""event"",""trial"",""time""
""fullscreenenter"",""5"",""11497""
","
","
","""event"",""trial"",""time""
""fullscreenenter"",""5"",""11497""
","
","824.3999996185303","","48","","","3000","1","","","images/purpleplanet.jpg","images/alien4","images/alien3","images/rocket2","images/alien4","images/nothing.png","2","real","false","2","rare","0","2022-05-07 15:15:48.012"
"two-step-fixation","227","631491","0.0-76.0-2.30","1756","1667","25","Female","true","false","false","true","""event"",""trial"",""time""
""fullscreenenter"",""5"",""11497""
","
","
","""event"",""trial"",""time""
""fullscreenenter"",""5"",""11497""
","
","","images/earth.jpg","","","","","","","","","","","","","","fixation","","","","","",""
"d3-animate-choice","228","633789","0.0-76.0-0.31","1756","1667","25","Female","true","false","false","true","""event"",""trial"",""time""
""fullscreenenter"",""5"",""11497""
","
","
","""event"",""trial"",""time""
""fullscreenenter"",""5"",""11497""
","
","291.5999994277954","","48","","","3000","1","","","images/earth.jpg","images/rocket2","images/rocket1","null","images/rocket2","","1","real","null","2","","",""
"d3-animate-choice","229","636870","0.0-76.0-1.31","1756","1667","25","Female","true","false","false","true","""event"",""trial"",""time""
""fullscreenenter"",""5"",""11497""
","
","
","""event"",""trial"",""time""
""fullscreenenter"",""5"",""11497""
","
","1071.8000001907349","","48","","","3000","1","","","images/purpleplanet.jpg","images/alien4","images/alien3","images/rocket2","images/alien4","images/nothing.png","2","real","false","2","rare","0","2022-05-07 15:15:54.400"
"two-step-fixation","230","637877","0.0-76.0-2.31","1756","1667","25","Female","true","false","false","true","""event"",""trial"",""time""
""fullscreenenter"",""5"",""11497""
","
","
","""event"",""trial"",""time""
""fullscreenenter"",""5"",""11497""
","
","","images/earth.jpg","","","","","","","","","","","","","","fixation","","","","","",""
"d3-animate-choice","231","641129","0.0-76.0-0.32","1756","1667","25","Female","true","false","false","true","""event"",""trial"",""time""
""fullscreenenter"",""5"",""11497""
","
","
","""event"",""trial"",""time""
""fullscreenenter"",""5"",""11497""
","
","1245.2999992370605","","48","","","3000","1","","","images/earth.jpg","images/rocket2","images/rocket1","null","images/rocket2","","1","real","null","2","","",""
"d3-animate-choice","232","643609","0.0-76.0-1.32","1756","1667","25","Female","true","false","false","true","""event"",""trial"",""time""
""fullscreenenter"",""5"",""11497""
","
","
","""event"",""trial"",""time""
""fullscreenenter"",""5"",""11497""
","
","474.6000003814697","","48","","","3000","1","2182.300000190735","48","images/purpleplanet.jpg","images/alien4","images/alien3","images/rocket2","images/alien4","images/t.png","2","real","false","2","rare","1","2022-05-07 15:16:01.139"
"two-step-fixation","233","644612","0.0-76.0-2.32","1756","1667","25","Female","true","false","false","true","""event"",""trial"",""time""
""fullscreenenter"",""5"",""11497""
","
","
","""event"",""trial"",""time""
""fullscreenenter"",""5"",""11497""
","
","","images/earth.jpg","","","","","","","","","","","","","","fixation","","","","","",""
"d3-animate-choice","234","646927","0.0-76.0-0.33","1756","1667","25","Female","true","false","false","true","""event"",""trial"",""time""
""fullscreenenter"",""5"",""11497""
","
","
","""event"",""trial"",""time""
""fullscreenenter"",""5"",""11497""
","
","306.29999923706055","","48","","","3000","1","","","images/earth.jpg","images/rocket2","images/rocket1","null","images/rocket2","","1","real","null","2","","",""
"d3-animate-choice","235","649368","0.0-76.0-1.33","1756","1667","25","Female","true","false","false","true","""event"",""trial"",""time""
""fullscreenenter"",""5"",""11497""
","
","
","""event"",""trial"",""time""
""fullscreenenter"",""5"",""11497""
","
","433.30000019073486","","48","","","3000","1","","","images/redplanet1.jpg","images/alien2","images/alien1","images/rocket2","images/alien2","images/nothing.png","2","real","true","2","common","0","2022-05-07 15:16:06.898"
"two-step-fixation","236","650373","0.0-76.0-2.33","1756","1667","25","Female","true","false","false","true","""event"",""trial"",""time""
""fullscreenenter"",""5"",""11497""
","
","
","""event"",""trial"",""time""
""fullscreenenter"",""5"",""11497""
","
","","images/earth.jpg","","","","","","","","","","","","","","fixation","","","","","",""
"d3-animate-choice","237","652768","0.0-76.0-0.34","1756","1667","25","Female","true","false","false","true","""event"",""trial"",""time""
""fullscreenenter"",""5"",""11497""
","
","
","""event"",""trial"",""time""
""fullscreenenter"",""5"",""11497""
","
","386","","48","","","3000","1","","","images/earth.jpg","images/rocket2","images/rocket1","null","images/rocket2","","1","real","null","2","","",""
"d3-animate-choice","238","656695","0.0-76.0-1.34","1756","1667","25","Female","true","false","false","true","""event"",""trial"",""time""
""fullscreenenter"",""5"",""11497""
","
","
","""event"",""trial"",""time""
""fullscreenenter"",""5"",""11497""
","
","1917.6999998092651","","48","","","3000","1","","","images/redplanet1.jpg","images/alien2","images/alien1","images/rocket2","images/alien2","images/t.png","2","real","true","2","common","1","2022-05-07 15:16:14.225"
"two-step-fixation","239","657705","0.0-76.0-2.34","1756","1667","25","Female","true","false","false","true","""event"",""trial"",""time""
""fullscreenenter"",""5"",""11497""
","
","
","""event"",""trial"",""time""
""fullscreenenter"",""5"",""11497""
","
","","images/earth.jpg","","","","","","","","","","","","","","fixation","","","","","",""
"d3-animate-choice","240","660738","0.0-76.0-0.35","1756","1667","25","Female","true","false","false","true","""event"",""trial"",""time""
""fullscreenenter"",""5"",""11497""
","
","
","""event"",""trial"",""time""
""fullscreenenter"",""5"",""11497""
","
","1027.8999996185303","","48","","","3000","1","","","images/earth.jpg","images/rocket2","images/rocket1","null","images/rocket2","","1","real","null","2","","",""
"d3-animate-choice","241","663917","0.0-76.0-1.35","1756","1667","25","Female","true","false","false","true","""event"",""trial"",""time""
""fullscreenenter"",""5"",""11497""
","
","
","""event"",""trial"",""time""
""fullscreenenter"",""5"",""11497""
","
","1174.6999998092651","","48","","","3000","1","","","images/redplanet1.jpg","images/alien2","images/alien1","images/rocket2","images/alien2","images/t.png","2","real","true","2","common","1","2022-05-07 15:16:21.447"
"two-step-fixation","242","664923","0.0-76.0-2.35","1756","1667","25","Female","true","false","false","true","""event"",""trial"",""time""
""fullscreenenter"",""5"",""11497""
","
","
","""event"",""trial"",""time""
""fullscreenenter"",""5"",""11497""
","
","","images/earth.jpg","","","","","","","","","","","","","","fixation","","","","","",""
"d3-animate-choice","243","668069","0.0-76.0-0.36","1756","1667","25","Female","true","false","false","true","""event"",""trial"",""time""
""fullscreenenter"",""5"",""11497""
","
","
","""event"",""trial"",""time""
""fullscreenenter"",""5"",""11497""
","
","1140.7000007629395","","48","","","3000","1","","","images/earth.jpg","images/rocket2","images/rocket1","null","images/rocket2","","1","real","null","2","","",""
"d3-animate-choice","244","671257","0.0-76.0-1.36","1756","1667","25","Female","true","false","false","true","""event"",""trial"",""time""
""fullscreenenter"",""5"",""11497""
","
","
","""event"",""trial"",""time""
""fullscreenenter"",""5"",""11497""
","
","1181.8999996185303","","48","","","3000","1","","","images/redplanet1.jpg","images/alien2","images/alien1","images/rocket2","images/alien2","images/t.png","2","real","true","2","common","1","2022-05-07 15:16:28.787"
