"trial_type","trial_index","time_elapsed","internal_node_id","participant_id","subject_id","age","gender","rocket_sides","red_planet_first_rocket","red_display_order","purple_display_order","interactions","blur_events","focus_events","fullscreenenter_events","fullscreenexit_events","rt","stimulus","key_press","button_pressed","success","duration","valid_pressed","rts","keys","planet_text","right_text","left_text","center_text","chosen_text","reward_text","trial_stage","practice_trial","transition_type","choice","transition","reward","timestamp"
"pavlovia","0","3","0.0-0.0","1443","4971","16","Male","true","true","false","true","
","
","
","
","
","","","","","","","","","","","","","","","","","","","","","",""
"html-keyboard-response","1","1672","0.0-1.0","1443","4971","16","Male","true","true","false","true","
","
","
","
","
","1667.5","Welcome! Press the space bar to begin.","32","","","","","","","","","","","","","","","","","","",""
"audio-keyboard-response","2","4294","0.0-2.0","1443","4971","16","Male","true","true","false","true","
","
","
","
","
","2618","audio/beep_loop.wav","32","","","","","","","","","","","","","","","","","","",""
"audio-button-response","3","8210","0.0-3.0","1443","4971","16","Male","true","true","false","true","
","
","
","
","
","NaN","audio/fish.mp3","","1","","","","","","","","","","","","","","","","","",""
"audio-button-response","4","10990","0.0-4.0","1443","4971","16","Male","true","true","false","true","""event"",""trial"",""time""
""fullscreenenter"",""5"",""15212""
","
","
","""event"",""trial"",""time""
""fullscreenenter"",""5"",""15212""
","
","NaN","audio/tiger.mp3","","4","","","","","","","","","","","","","","","","","",""
"fullscreen","5","16200","0.0-5.0","1443","4971","16","Male","true","true","false","true","""event"",""trial"",""time""
""fullscreenenter"",""5"",""15212""
","
","
","""event"",""trial"",""time""
""fullscreenenter"",""5"",""15212""
","
","","","","","true","","","","","","","","","","","","","","","","",""
"d3-instructions","6","22884","0.0-6.0","1443","4971","16","Male","true","true","false","true","""event"",""trial"",""time""
""fullscreenenter"",""5"",""15212""
","
","
","""event"",""trial"",""time""
""fullscreenenter"",""5"",""15212""
","
","","","","","","","","","","","","","","","","","","","","","",""
"d3-instructions","7","28933","0.0-7.0","1443","4971","16","Male","true","true","false","true","""event"",""trial"",""time""
""fullscreenenter"",""5"",""15212""
","
","
","""event"",""trial"",""time""
""fullscreenenter"",""5"",""15212""
","
","","","","","","","","","","","","","","","","","","","","","",""
"d3-instructions","8","34129","0.0-8.0","1443","4971","16","Male","true","true","false","true","""event"",""trial"",""time""
""fullscreenenter"",""5"",""15212""
","
","
","""event"",""trial"",""time""
""fullscreenenter"",""5"",""15212""
","
","","","","","","","","","","","","","","","","","","","","","",""
"d3-instructions","9","42294","0.0-9.0","1443","4971","16","Male","true","true","false","true","""event"",""trial"",""time""
""fullscreenenter"",""5"",""15212""
","
","
","""event"",""trial"",""time""
""fullscreenenter"",""5"",""15212""
","
","","","","","","","","","","","","","","","","","","","","","",""
"d3-instructions","10","54168","0.0-10.0","1443","4971","16","Male","true","true","false","true","""event"",""trial"",""time""
""fullscreenenter"",""5"",""15212""
","
","
","""event"",""trial"",""time""
""fullscreenenter"",""5"",""15212""
","
","","","","","","","","","","","","","","","","","","","","","",""
"d3-animate-choice","11","56831","0.0-11.0","1443","4971","16","Male","true","true","false","true","""event"",""trial"",""time""
""fullscreenenter"",""5"",""15212""
","
","
","""event"",""trial"",""time""
""fullscreenenter"",""5"",""15212""
","
","654","","49","","","3000","1","","","images/tutgreenplanet.jpg","images/tutalien1","images/tutalien2","null","images/tutalien2","","NA","practice","null","","","",""
"d3-animate-choice","12","59294","0.0-12.0","1443","4971","16","Male","true","true","false","true","""event"",""trial"",""time""
""fullscreenenter"",""5"",""15212""
","
","
","""event"",""trial"",""time""
""fullscreenenter"",""5"",""15212""
","
","456.69999998807907","","48","","","3000","1","","","images/tutgreenplanet.jpg","images/tutalien1","images/tutalien2","null","images/tutalien1","","NA","practice","null","","","",""
"d3-animate-choice","13","62703","0.0-13.0","1443","4971","16","Male","true","true","false","true","""event"",""trial"",""time""
""fullscreenenter"",""5"",""15212""
","
","
","""event"",""trial"",""time""
""fullscreenenter"",""5"",""15212""
","
","1403.9000000059605","","49","","","3000","1","","","images/tutgreenplanet.jpg","images/tutalien1","images/tutalien2","null","images/tutalien2","","NA","practice","null","","","",""
"d3-animate-choice","14","65271","0.0-14.0","1443","4971","16","Male","true","true","false","true","""event"",""trial"",""time""
""fullscreenenter"",""5"",""15212""
","
","
","""event"",""trial"",""time""
""fullscreenenter"",""5"",""15212""
","
","561.8999999761581","","48","","","3000","1","","","images/tutgreenplanet.jpg","images/tutalien1","images/tutalien2","null","images/tutalien1","","NA","practice","null","","","",""
"d3-instructions","15","68727","0.0-15.0","1443","4971","16","Male","true","true","false","true","""event"",""trial"",""time""
""fullscreenenter"",""5"",""15212""
","
","
","""event"",""trial"",""time""
""fullscreenenter"",""5"",""15212""
","
","","","","","","","","","","","","","","","","","","","","","",""
"d3-instructions","16","72302","0.0-16.0","1443","4971","16","Male","true","true","false","true","""event"",""trial"",""time""
""fullscreenenter"",""5"",""15212""
","
","
","""event"",""trial"",""time""
""fullscreenenter"",""5"",""15212""
","
","","","","","","","","","","","","","","","","","","","","","",""
"d3-instructions","17","80038","0.0-17.0","1443","4971","16","Male","true","true","false","true","""event"",""trial"",""time""
""fullscreenenter"",""5"",""15212""
","
","
","""event"",""trial"",""time""
""fullscreenenter"",""5"",""15212""
","
","","","","","","","","","","","","","","","","","","","","","",""
"d3-instructions","18","89187","0.0-18.0","1443","4971","16","Male","true","true","false","true","""event"",""trial"",""time""
""fullscreenenter"",""5"",""15212""
","
","
","""event"",""trial"",""time""
""fullscreenenter"",""5"",""15212""
","
","","","","","","","","","","","","","","","","","","","","","",""
"d3-instructions","19","103030","0.0-19.0","1443","4971","16","Male","true","true","false","true","""event"",""trial"",""time""
""fullscreenenter"",""5"",""15212""
","
","
","""event"",""trial"",""time""
""fullscreenenter"",""5"",""15212""
","
","","","","","","","","","","","","","","","","","","","","","",""
"d3-animate-choice","20","106830","0.0-20.0","1443","4971","16","Male","true","true","false","true","""event"",""trial"",""time""
""fullscreenenter"",""5"",""15212""
","
","
","""event"",""trial"",""time""
""fullscreenenter"",""5"",""15212""
","
","1792.8999999761581","","49","","","3000","1","","","images/tutyellowplanet.jpg","null","images/tutalien3","null","images/tutalien3","images/t.png","NA","practice","null","","","",""
"d3-animate-choice","21","109279","0.0-21.0","1443","4971","16","Male","true","true","false","true","""event"",""trial"",""time""
""fullscreenenter"",""5"",""15212""
","
","
","""event"",""trial"",""time""
""fullscreenenter"",""5"",""15212""
","
","442.7999999821186","","49","","","3000","1","","","images/tutyellowplanet.jpg","null","images/tutalien3","null","images/tutalien3","images/t.png","NA","practice","null","","","",""
"d3-animate-choice","22","111643","0.0-22.0","1443","4971","16","Male","true","true","false","true","""event"",""trial"",""time""
""fullscreenenter"",""5"",""15212""
","
","
","""event"",""trial"",""time""
""fullscreenenter"",""5"",""15212""
","
","361.19999998807907","","49","","","3000","1","","","images/tutyellowplanet.jpg","null","images/tutalien3","null","images/tutalien3","images/nothing.png","NA","practice","null","","","",""
"d3-animate-choice","23","114064","0.0-23.0","1443","4971","16","Male","true","true","false","true","""event"",""trial"",""time""
""fullscreenenter"",""5"",""15212""
","
","
","""event"",""trial"",""time""
""fullscreenenter"",""5"",""15212""
","
","417.90000000596046","","49","","","3000","1","","","images/tutyellowplanet.jpg","null","images/tutalien3","null","images/tutalien3","images/t.png","NA","practice","null","","","",""
"d3-animate-choice","24","116634","0.0-24.0","1443","4971","16","Male","true","true","false","true","""event"",""trial"",""time""
""fullscreenenter"",""5"",""15212""
","
","
","""event"",""trial"",""time""
""fullscreenenter"",""5"",""15212""
","
","565.0999999940395","","49","","","3000","1","","","images/tutyellowplanet.jpg","null","images/tutalien3","null","images/tutalien3","images/t.png","NA","practice","null","","","",""
"d3-animate-choice","25","119032","0.0-25.0","1443","4971","16","Male","true","true","false","true","""event"",""trial"",""time""
""fullscreenenter"",""5"",""15212""
","
","
","""event"",""trial"",""time""
""fullscreenenter"",""5"",""15212""
","
","395.09999999403954","","49","","","3000","1","","","images/tutyellowplanet.jpg","null","images/tutalien3","null","images/tutalien3","images/t.png","NA","practice","null","","","",""
"d3-animate-choice","26","121615","0.0-26.0","1443","4971","16","Male","true","true","false","true","""event"",""trial"",""time""
""fullscreenenter"",""5"",""15212""
","
","
","""event"",""trial"",""time""
""fullscreenenter"",""5"",""15212""
","
","576.4000000059605","","49","","","3000","1","","","images/tutyellowplanet.jpg","null","images/tutalien3","null","images/tutalien3","images/t.png","NA","practice","null","","","",""
"d3-animate-choice","27","124216","0.0-27.0","1443","4971","16","Male","true","true","false","true","""event"",""trial"",""time""
""fullscreenenter"",""5"",""15212""
","
","
","""event"",""trial"",""time""
""fullscreenenter"",""5"",""15212""
","
","595.0999999940395","","49","","","3000","1","","","images/tutyellowplanet.jpg","null","images/tutalien3","null","images/tutalien3","images/t.png","NA","practice","null","","","",""
"d3-animate-choice","28","126782","0.0-28.0","1443","4971","16","Male","true","true","false","true","""event"",""trial"",""time""
""fullscreenenter"",""5"",""15212""
","
","
","""event"",""trial"",""time""
""fullscreenenter"",""5"",""15212""
","
","559.5999999940395","","49","","","3000","1","","","images/tutyellowplanet.jpg","null","images/tutalien3","null","images/tutalien3","images/t.png","NA","practice","null","","","",""
"d3-animate-choice","29","129396","0.0-29.0","1443","4971","16","Male","true","true","false","true","""event"",""trial"",""time""
""fullscreenenter"",""5"",""15212""
","
","
","""event"",""trial"",""time""
""fullscreenenter"",""5"",""15212""
","
","608.1999999880791","","49","","","3000","1","","","images/tutyellowplanet.jpg","null","images/tutalien3","null","images/tutalien3","images/t.png","NA","practice","null","","","",""
"d3-instructions","30","132636","0.0-30.0","1443","4971","16","Male","true","true","false","true","""event"",""trial"",""time""
""fullscreenenter"",""5"",""15212""
","
","
","""event"",""trial"",""time""
""fullscreenenter"",""5"",""15212""
","
","","","","","","","","","","","","","","","","","","","","","",""
"d3-instructions","31","139606","0.0-31.0","1443","4971","16","Male","true","true","false","true","""event"",""trial"",""time""
""fullscreenenter"",""5"",""15212""
","
","
","""event"",""trial"",""time""
""fullscreenenter"",""5"",""15212""
","
","","","","","","","","","","","","","","","","","","","","","",""
"d3-instructions","32","144376","0.0-32.0","1443","4971","16","Male","true","true","false","true","""event"",""trial"",""time""
""fullscreenenter"",""5"",""15212""
","
","
","""event"",""trial"",""time""
""fullscreenenter"",""5"",""15212""
","
","","","","","","","","","","","","","","","","","","","","","",""
"d3-instructions","33","148598","0.0-33.0","1443","4971","16","Male","true","true","false","true","""event"",""trial"",""time""
""fullscreenenter"",""5"",""15212""
","
","
","""event"",""trial"",""time""
""fullscreenenter"",""5"",""15212""
","
","","","","","","","","","","","","","","","","","","","","","",""
"d3-animate-choice","34","151129","0.0-34.0","1443","4971","16","Male","true","true","false","true","""event"",""trial"",""time""
""fullscreenenter"",""5"",""15212""
","
","
","""event"",""trial"",""time""
""fullscreenenter"",""5"",""15212""
","
","525.8000000119209","","49","","","3000","1","","","images/tutgreenplanet.jpg","images/tutalien1","images/tutalien2","null","images/tutalien2","images/t.png","NA","practice","null","","","",""
"d3-animate-choice","35","153781","0.0-35.0","1443","4971","16","Male","true","true","false","true","""event"",""trial"",""time""
""fullscreenenter"",""5"",""15212""
","
","
","""event"",""trial"",""time""
""fullscreenenter"",""5"",""15212""
","
","649.5","","49","","","3000","1","","","images/tutgreenplanet.jpg","images/tutalien1","images/tutalien2","null","images/tutalien2","images/t.png","NA","practice","null","","","",""
"d3-animate-choice","36","156162","0.0-36.0","1443","4971","16","Male","true","true","false","true","""event"",""trial"",""time""
""fullscreenenter"",""5"",""15212""
","
","
","""event"",""trial"",""time""
""fullscreenenter"",""5"",""15212""
","
","376.2999999821186","","49","","","3000","1","","","images/tutgreenplanet.jpg","images/tutalien1","images/tutalien2","null","images/tutalien2","images/t.png","NA","practice","null","","","",""
"d3-animate-choice","37","158585","0.0-37.0","1443","4971","16","Male","true","true","false","true","""event"",""trial"",""time""
""fullscreenenter"",""5"",""15212""
","
","
","""event"",""trial"",""time""
""fullscreenenter"",""5"",""15212""
","
","416.2999999821186","","49","","","3000","1","","","images/tutgreenplanet.jpg","images/tutalien1","images/tutalien2","null","images/tutalien2","images/t.png","NA","practice","null","","","",""
"d3-animate-choice","38","160974","0.0-38.0","1443","4971","16","Male","true","true","false","true","""event"",""trial"",""time""
""fullscreenenter"",""5"",""15212""
","
","
","""event"",""trial"",""time""
""fullscreenenter"",""5"",""15212""
","
","382.19999998807907","","49","","","3000","1","","","images/tutgreenplanet.jpg","images/tutalien1","images/tutalien2","null","images/tutalien2","images/t.png","NA","practice","null","","","",""
"d3-animate-choice","39","163374","0.0-39.0","1443","4971","16","Male","true","true","false","true","""event"",""trial"",""time""
""fullscreenenter"",""5"",""15212""
","
","
","""event"",""trial"",""time""
""fullscreenenter"",""5"",""15212""
","
","392.40000000596046","","49","","","3000","1","","","images/tutgreenplanet.jpg","images/tutalien1","images/tutalien2","null","images/tutalien2","images/t.png","NA","practice","null","","","",""
"d3-animate-choice","40","165782","0.0-40.0","1443","4971","16","Male","true","true","false","true","""event"",""trial"",""time""
""fullscreenenter"",""5"",""15212""
","
","
","""event"",""trial"",""time""
""fullscreenenter"",""5"",""15212""
","
","402.80000001192093","","49","","","3000","1","","","images/tutgreenplanet.jpg","images/tutalien1","images/tutalien2","null","images/tutalien2","images/t.png","NA","practice","null","","","",""
"d3-animate-choice","41","168110","0.0-41.0","1443","4971","16","Male","true","true","false","true","""event"",""trial"",""time""
""fullscreenenter"",""5"",""15212""
","
","
","""event"",""trial"",""time""
""fullscreenenter"",""5"",""15212""
","
","324.80000001192093","","49","","","3000","1","","","images/tutgreenplanet.jpg","images/tutalien1","images/tutalien2","null","images/tutalien2","images/t.png","NA","practice","null","","","",""
"d3-animate-choice","42","170503","0.0-42.0","1443","4971","16","Male","true","true","false","true","""event"",""trial"",""time""
""fullscreenenter"",""5"",""15212""
","
","
","""event"",""trial"",""time""
""fullscreenenter"",""5"",""15212""
","
","390.69999998807907","","49","","","3000","1","","","images/tutgreenplanet.jpg","images/tutalien1","images/tutalien2","null","images/tutalien2","images/t.png","NA","practice","null","","","",""
"d3-animate-choice","43","173081","0.0-43.0","1443","4971","16","Male","true","true","false","true","""event"",""trial"",""time""
""fullscreenenter"",""5"",""15212""
","
","
","""event"",""trial"",""time""
""fullscreenenter"",""5"",""15212""
","
","572.9000000059605","","49","","","3000","1","","","images/tutgreenplanet.jpg","images/tutalien1","images/tutalien2","null","images/tutalien2","images/t.png","NA","practice","null","","","",""
"d3-instructions","44","179537","0.0-44.0","1443","4971","16","Male","true","true","false","true","""event"",""trial"",""time""
""fullscreenenter"",""5"",""15212""
","
","
","""event"",""trial"",""time""
""fullscreenenter"",""5"",""15212""
","
","","","","","","","","","","","","","","","","","","","","","",""
"d3-instructions","45","182788","0.0-45.0","1443","4971","16","Male","true","true","false","true","""event"",""trial"",""time""
""fullscreenenter"",""5"",""15212""
","
","
","""event"",""trial"",""time""
""fullscreenenter"",""5"",""15212""
","
","","","","","","","","","","","","","","","","","","","","","",""
"d3-instructions","46","186304","0.0-46.0","1443","4971","16","Male","true","true","false","true","""event"",""trial"",""time""
""fullscreenenter"",""5"",""15212""
","
","
","""event"",""trial"",""time""
""fullscreenenter"",""5"",""15212""
","
","","","","","","","","","","","","","","","","","","","","","",""
"d3-instructions","47","194503","0.0-47.0","1443","4971","16","Male","true","true","false","true","""event"",""trial"",""time""
""fullscreenenter"",""5"",""15212""
","
","
","""event"",""trial"",""time""
""fullscreenenter"",""5"",""15212""
","
","","","","","","","","","","","","","","","","","","","","","",""
"d3-instructions","48","198212","0.0-48.0","1443","4971","16","Male","true","true","false","true","""event"",""trial"",""time""
""fullscreenenter"",""5"",""15212""
","
","
","""event"",""trial"",""time""
""fullscreenenter"",""5"",""15212""
","
","","","","","","","","","","","","","","","","","","","","","",""
"d3-instructions","49","205014","0.0-49.0","1443","4971","16","Male","true","true","false","true","""event"",""trial"",""time""
""fullscreenenter"",""5"",""15212""
","
","
","""event"",""trial"",""time""
""fullscreenenter"",""5"",""15212""
","
","","","","","","","","","","","","","","","","","","","","","",""
"d3-instructions","50","209945","0.0-50.0","1443","4971","16","Male","true","true","false","true","""event"",""trial"",""time""
""fullscreenenter"",""5"",""15212""
","
","
","""event"",""trial"",""time""
""fullscreenenter"",""5"",""15212""
","
","","","","","","","","","","","","","","","","","","","","","",""
"d3-instructions","51","212881","0.0-51.0","1443","4971","16","Male","true","true","false","true","""event"",""trial"",""time""
""fullscreenenter"",""5"",""15212""
","
","
","""event"",""trial"",""time""
""fullscreenenter"",""5"",""15212""
","
","","","","","","","","","","","","","","","","","","","","","",""
"d3-instructions","52","216241","0.0-52.0","1443","4971","16","Male","true","true","false","true","""event"",""trial"",""time""
""fullscreenenter"",""5"",""15212""
","
","
","""event"",""trial"",""time""
""fullscreenenter"",""5"",""15212""
","
","","","","","","","","","","","","","","","","","","","","","",""
"d3-instructions","53","224734","0.0-53.0","1443","4971","16","Male","true","true","false","true","""event"",""trial"",""time""
""fullscreenenter"",""5"",""15212""
","
","
","""event"",""trial"",""time""
""fullscreenenter"",""5"",""15212""
","
","","","","","","","","","","","","","","","","","","","","","",""
"d3-instructions","54","231205","0.0-54.0","1443","4971","16","Male","true","true","false","true","""event"",""trial"",""time""
""fullscreenenter"",""5"",""15212""
","
","
","""event"",""trial"",""time""
""fullscreenenter"",""5"",""15212""
","
","","","","","","","","","","","","","","","","","","","","","",""
"d3-instructions","55","234721","0.0-55.0","1443","4971","16","Male","true","true","false","true","""event"",""trial"",""time""
""fullscreenenter"",""5"",""15212""
","
","
","""event"",""trial"",""time""
""fullscreenenter"",""5"",""15212""
","
","","","","","","","","","","","","","","","","","","","","","",""
"d3-instructions","56","240178","0.0-56.0","1443","4971","16","Male","true","true","false","true","""event"",""trial"",""time""
""fullscreenenter"",""5"",""15212""
","
","
","""event"",""trial"",""time""
""fullscreenenter"",""5"",""15212""
","
","","","","","","","","","","","","","","","","","","","","","",""
"d3-instructions","57","246098","0.0-57.0","1443","4971","16","Male","true","true","false","true","""event"",""trial"",""time""
""fullscreenenter"",""5"",""15212""
","
","
","""event"",""trial"",""time""
""fullscreenenter"",""5"",""15212""
","
","","","","","","","","","","","","","","","","","","","","","",""
"d3-instructions","58","251622","0.0-58.0","1443","4971","16","Male","true","true","false","true","""event"",""trial"",""time""
""fullscreenenter"",""5"",""15212""
","
","
","""event"",""trial"",""time""
""fullscreenenter"",""5"",""15212""
","
","","","","","","","","","","","","","","","","","","","","","",""
"d3-instructions","59","256191","0.0-59.0","1443","4971","16","Male","true","true","false","true","""event"",""trial"",""time""
""fullscreenenter"",""5"",""15212""
","
","
","""event"",""trial"",""time""
""fullscreenenter"",""5"",""15212""
","
","","","","","","","","","","","","","","","","","","","","","",""
"d3-instructions","60","258923","0.0-60.0","1443","4971","16","Male","true","true","false","true","""event"",""trial"",""time""
""fullscreenenter"",""5"",""15212""
","
","
","""event"",""trial"",""time""
""fullscreenenter"",""5"",""15212""
","
","","","","","","","","","","","","","","","","","","","","","",""
"d3-animate-choice","61","261379","0.0-61.0-0.0","1443","4971","16","Male","true","true","false","true","""event"",""trial"",""time""
""fullscreenenter"",""5"",""15212""
","
","
","""event"",""trial"",""time""
""fullscreenenter"",""5"",""15212""
","
","453.80000001192093","","49","","","3000","1","","","images/earth.jpg","images/tutrocket2","images/tutrocket1","null","images/tutrocket1","","1","practice","null","1","","",""
"d3-animate-choice","62","264386","0.0-61.0-1.0","1443","4971","16","Male","true","true","false","true","""event"",""trial"",""time""
""fullscreenenter"",""5"",""15212""
","
","
","""event"",""trial"",""time""
""fullscreenenter"",""5"",""15212""
","
","1003.4000000059605","","48","","","3000","1","","","images/tutgreenplanet.jpg","images/tutalien2","images/tutalien1","images/tutrocket1","images/tutalien2","images/nothing.png","2","practice","true","2","common","0","2022-12-05 20:35:25.498"
"two-step-fixation","63","265390","0.0-61.0-2.0","1443","4971","16","Male","true","true","false","true","""event"",""trial"",""time""
""fullscreenenter"",""5"",""15212""
","
","
","""event"",""trial"",""time""
""fullscreenenter"",""5"",""15212""
","
","","images/earth.jpg","","","","","","","","","","","","","","fixation","","","","","",""
"d3-animate-choice","64","267800","0.0-61.0-0.1","1443","4971","16","Male","true","true","false","true","""event"",""trial"",""time""
""fullscreenenter"",""5"",""15212""
","
","
","""event"",""trial"",""time""
""fullscreenenter"",""5"",""15212""
","
","402.40000000596046","","49","","","3000","1","","","images/earth.jpg","images/tutrocket2","images/tutrocket1","null","images/tutrocket1","","1","practice","null","1","","",""
"d3-animate-choice","65","270587","0.0-61.0-1.1","1443","4971","16","Male","true","true","false","true","""event"",""trial"",""time""
""fullscreenenter"",""5"",""15212""
","
","
","""event"",""trial"",""time""
""fullscreenenter"",""5"",""15212""
","
","781.3000000119209","","48","","","3000","1","","","images/tutgreenplanet.jpg","images/tutalien2","images/tutalien1","images/tutrocket1","images/tutalien2","images/nothing.png","2","practice","true","2","common","0","2022-12-05 20:35:31.699"
"two-step-fixation","66","271593","0.0-61.0-2.1","1443","4971","16","Male","true","true","false","true","""event"",""trial"",""time""
""fullscreenenter"",""5"",""15212""
","
","
","""event"",""trial"",""time""
""fullscreenenter"",""5"",""15212""
","
","","images/earth.jpg","","","","","","","","","","","","","","fixation","","","","","",""
"d3-animate-choice","67","274029","0.0-61.0-0.2","1443","4971","16","Male","true","true","false","true","""event"",""trial"",""time""
""fullscreenenter"",""5"",""15212""
","
","
","""event"",""trial"",""time""
""fullscreenenter"",""5"",""15212""
","
","429.90000000596046","","48","","","3000","1","","","images/earth.jpg","images/tutrocket2","images/tutrocket1","null","images/tutrocket2","","1","practice","null","2","","",""
"d3-animate-choice","68","276698","0.0-61.0-1.2","1443","4971","16","Male","true","true","false","true","""event"",""trial"",""time""
""fullscreenenter"",""5"",""15212""
","
","
","""event"",""trial"",""time""
""fullscreenenter"",""5"",""15212""
","
","666.1999999880791","","49","","","3000","1","","","images/tutgreenplanet.jpg","images/tutalien2","images/tutalien1","images/tutrocket2","images/tutalien1","images/nothing.png","2","practice","false","1","rare","0","2022-12-05 20:35:37.810"
"two-step-fixation","69","277703","0.0-61.0-2.2","1443","4971","16","Male","true","true","false","true","""event"",""trial"",""time""
""fullscreenenter"",""5"",""15212""
","
","
","""event"",""trial"",""time""
""fullscreenenter"",""5"",""15212""
","
","","images/earth.jpg","","","","","","","","","","","","","","fixation","","","","","",""
"d3-animate-choice","70","280082","0.0-61.0-0.3","1443","4971","16","Male","true","true","false","true","""event"",""trial"",""time""
""fullscreenenter"",""5"",""15212""
","
","
","""event"",""trial"",""time""
""fullscreenenter"",""5"",""15212""
","
","373.5","","48","","","3000","1","","","images/earth.jpg","images/tutrocket2","images/tutrocket1","null","images/tutrocket2","","1","practice","null","2","","",""
"d3-animate-choice","71","282538","0.0-61.0-1.3","1443","4971","16","Male","true","true","false","true","""event"",""trial"",""time""
""fullscreenenter"",""5"",""15212""
","
","
","""event"",""trial"",""time""
""fullscreenenter"",""5"",""15212""
","
","450.5","","48","","","3000","1","","","images/tutgreenplanet.jpg","images/tutalien2","images/tutalien1","images/tutrocket2","images/tutalien2","images/t.png","2","practice","false","2","rare","1","2022-12-05 20:35:43.650"
"two-step-fixation","72","283543","0.0-61.0-2.3","1443","4971","16","Male","true","true","false","true","""event"",""trial"",""time""
""fullscreenenter"",""5"",""15212""
","
","
","""event"",""trial"",""time""
""fullscreenenter"",""5"",""15212""
","
","","images/earth.jpg","","","","","","","","","","","","","","fixation","","","","","",""
"d3-animate-choice","73","285958","0.0-61.0-0.4","1443","4971","16","Male","true","true","false","true","""event"",""trial"",""time""
""fullscreenenter"",""5"",""15212""
","
","
","""event"",""trial"",""time""
""fullscreenenter"",""5"",""15212""
","
","410.59999999403954","","48","","","3000","1","","","images/earth.jpg","images/tutrocket2","images/tutrocket1","null","images/tutrocket2","","1","practice","null","2","","",""
"d3-animate-choice","74","288465","0.0-61.0-1.4","1443","4971","16","Male","true","true","false","true","""event"",""trial"",""time""
""fullscreenenter"",""5"",""15212""
","
","
","""event"",""trial"",""time""
""fullscreenenter"",""5"",""15212""
","
","501.90000000596046","","48","","","3000","1","","","images/tutyellowplanet.jpg","images/tutalien4","images/tutalien3","images/tutrocket2","images/tutalien4","images/t.png","2","practice","true","2","common","1","2022-12-05 20:35:49.577"
"two-step-fixation","75","289471","0.0-61.0-2.4","1443","4971","16","Male","true","true","false","true","""event"",""trial"",""time""
""fullscreenenter"",""5"",""15212""
","
","
","""event"",""trial"",""time""
""fullscreenenter"",""5"",""15212""
","
","","images/earth.jpg","","","","","","","","","","","","","","fixation","","","","","",""
"d3-animate-choice","76","291888","0.0-61.0-0.5","1443","4971","16","Male","true","true","false","true","""event"",""trial"",""time""
""fullscreenenter"",""5"",""15212""
","
","
","""event"",""trial"",""time""
""fullscreenenter"",""5"",""15212""
","
","413.19999998807907","","48","","","3000","1","","","images/earth.jpg","images/tutrocket2","images/tutrocket1","null","images/tutrocket2","","1","practice","null","2","","",""
"d3-animate-choice","77","294416","0.0-61.0-1.5","1443","4971","16","Male","true","true","false","true","""event"",""trial"",""time""
""fullscreenenter"",""5"",""15212""
","
","
","""event"",""trial"",""time""
""fullscreenenter"",""5"",""15212""
","
","521.3000000119209","","48","","","3000","1","","","images/tutgreenplanet.jpg","images/tutalien2","images/tutalien1","images/tutrocket2","images/tutalien2","images/nothing.png","2","practice","false","2","rare","0","2022-12-05 20:35:55.528"
"two-step-fixation","78","295423","0.0-61.0-2.5","1443","4971","16","Male","true","true","false","true","""event"",""trial"",""time""
""fullscreenenter"",""5"",""15212""
","
","
","""event"",""trial"",""time""
""fullscreenenter"",""5"",""15212""
","
","","images/earth.jpg","","","","","","","","","","","","","","fixation","","","","","",""
"d3-animate-choice","79","297861","0.0-61.0-0.6","1443","4971","16","Male","true","true","false","true","""event"",""trial"",""time""
""fullscreenenter"",""5"",""15212""
","
","
","""event"",""trial"",""time""
""fullscreenenter"",""5"",""15212""
","
","430.39999997615814","","48","","","3000","1","","","images/earth.jpg","images/tutrocket2","images/tutrocket1","null","images/tutrocket2","","1","practice","null","2","","",""
"d3-animate-choice","80","300663","0.0-61.0-1.6","1443","4971","16","Male","true","true","false","true","""event"",""trial"",""time""
""fullscreenenter"",""5"",""15212""
","
","
","""event"",""trial"",""time""
""fullscreenenter"",""5"",""15212""
","
","799.9000000059605","","48","","","3000","1","","","images/tutyellowplanet.jpg","images/tutalien4","images/tutalien3","images/tutrocket2","images/tutalien4","images/nothing.png","2","practice","true","2","common","0","2022-12-05 20:36:01.776"
"two-step-fixation","81","301668","0.0-61.0-2.6","1443","4971","16","Male","true","true","false","true","""event"",""trial"",""time""
""fullscreenenter"",""5"",""15212""
","
","
","""event"",""trial"",""time""
""fullscreenenter"",""5"",""15212""
","
","","images/earth.jpg","","","","","","","","","","","","","","fixation","","","","","",""
"d3-animate-choice","82","304094","0.0-61.0-0.7","1443","4971","16","Male","true","true","false","true","""event"",""trial"",""time""
""fullscreenenter"",""5"",""15212""
","
","
","""event"",""trial"",""time""
""fullscreenenter"",""5"",""15212""
","
","421.40000000596046","","48","","","3000","1","","","images/earth.jpg","images/tutrocket2","images/tutrocket1","null","images/tutrocket2","","1","practice","null","2","","",""
"d3-animate-choice","83","306731","0.0-61.0-1.7","1443","4971","16","Male","true","true","false","true","""event"",""trial"",""time""
""fullscreenenter"",""5"",""15212""
","
","
","""event"",""trial"",""time""
""fullscreenenter"",""5"",""15212""
","
","634.0999999940395","","49","","","3000","1","","","images/tutyellowplanet.jpg","images/tutalien4","images/tutalien3","images/tutrocket2","images/tutalien3","images/t.png","2","practice","true","1","common","1","2022-12-05 20:36:07.843"
"two-step-fixation","84","307733","0.0-61.0-2.7","1443","4971","16","Male","true","true","false","true","""event"",""trial"",""time""
""fullscreenenter"",""5"",""15212""
","
","
","""event"",""trial"",""time""
""fullscreenenter"",""5"",""15212""
","
","","images/earth.jpg","","","","","","","","","","","","","","fixation","","","","","",""
"d3-animate-choice","85","310610","0.0-61.0-0.8","1443","4971","16","Male","true","true","false","true","""event"",""trial"",""time""
""fullscreenenter"",""5"",""15212""
","
","
","""event"",""trial"",""time""
""fullscreenenter"",""5"",""15212""
","
","873.5999999940395","","49","","","3000","1","","","images/earth.jpg","images/tutrocket2","images/tutrocket1","null","images/tutrocket1","","1","practice","null","1","","",""
"d3-animate-choice","86","313098","0.0-61.0-1.8","1443","4971","16","Male","true","true","false","true","""event"",""trial"",""time""
""fullscreenenter"",""5"",""15212""
","
","
","""event"",""trial"",""time""
""fullscreenenter"",""5"",""15212""
","
","483.69999998807907","","48","","","3000","1","","","images/tutgreenplanet.jpg","images/tutalien2","images/tutalien1","images/tutrocket1","images/tutalien2","images/nothing.png","2","practice","true","2","common","0","2022-12-05 20:36:14.210"
"two-step-fixation","87","314100","0.0-61.0-2.8","1443","4971","16","Male","true","true","false","true","""event"",""trial"",""time""
""fullscreenenter"",""5"",""15212""
","
","
","""event"",""trial"",""time""
""fullscreenenter"",""5"",""15212""
","
","","images/earth.jpg","","","","","","","","","","","","","","fixation","","","","","",""
"d3-animate-choice","88","316794","0.0-61.0-0.9","1443","4971","16","Male","true","true","false","true","""event"",""trial"",""time""
""fullscreenenter"",""5"",""15212""
","
","
","""event"",""trial"",""time""
""fullscreenenter"",""5"",""15212""
","
","691","","49","","","3000","1","","","images/earth.jpg","images/tutrocket2","images/tutrocket1","null","images/tutrocket1","","1","practice","null","1","","",""
"d3-animate-choice","89","320041","0.0-61.0-1.9","1443","4971","16","Male","true","true","false","true","""event"",""trial"",""time""
""fullscreenenter"",""5"",""15212""
","
","
","""event"",""trial"",""time""
""fullscreenenter"",""5"",""15212""
","
","1243.800000011921","","49","","","3000","1","","","images/tutgreenplanet.jpg","images/tutalien2","images/tutalien1","images/tutrocket1","images/tutalien1","images/t.png","2","practice","true","1","common","1","2022-12-05 20:36:21.153"
"two-step-fixation","90","321044","0.0-61.0-2.9","1443","4971","16","Male","true","true","false","true","""event"",""trial"",""time""
""fullscreenenter"",""5"",""15212""
","
","
","""event"",""trial"",""time""
""fullscreenenter"",""5"",""15212""
","
","","images/earth.jpg","","","","","","","","","","","","","","fixation","","","","","",""
"d3-animate-choice","91","323482","0.0-61.0-0.10","1443","4971","16","Male","true","true","false","true","""event"",""trial"",""time""
""fullscreenenter"",""5"",""15212""
","
","
","""event"",""trial"",""time""
""fullscreenenter"",""5"",""15212""
","
","434.09999999403954","","49","","","3000","1","","","images/earth.jpg","images/tutrocket2","images/tutrocket1","null","images/tutrocket1","","1","practice","null","1","","",""
"d3-animate-choice","92","326111","0.0-61.0-1.10","1443","4971","16","Male","true","true","false","true","""event"",""trial"",""time""
""fullscreenenter"",""5"",""15212""
","
","
","""event"",""trial"",""time""
""fullscreenenter"",""5"",""15212""
","
","626","","49","","","3000","1","","","images/tutgreenplanet.jpg","images/tutalien2","images/tutalien1","images/tutrocket1","images/tutalien1","images/t.png","2","practice","true","1","common","1","2022-12-05 20:36:27.223"
"two-step-fixation","93","327113","0.0-61.0-2.10","1443","4971","16","Male","true","true","false","true","""event"",""trial"",""time""
""fullscreenenter"",""5"",""15212""
","
","
","""event"",""trial"",""time""
""fullscreenenter"",""5"",""15212""
","
","","images/earth.jpg","","","","","","","","","","","","","","fixation","","","","","",""
"d3-animate-choice","94","329574","0.0-61.0-0.11","1443","4971","16","Male","true","true","false","true","""event"",""trial"",""time""
""fullscreenenter"",""5"",""15212""
","
","
","""event"",""trial"",""time""
""fullscreenenter"",""5"",""15212""
","
","454.7000000178814","","49","","","3000","1","","","images/earth.jpg","images/tutrocket2","images/tutrocket1","null","images/tutrocket1","","1","practice","null","1","","",""
"d3-animate-choice","95","332517","0.0-61.0-1.11","1443","4971","16","Male","true","true","false","true","""event"",""trial"",""time""
""fullscreenenter"",""5"",""15212""
","
","
","""event"",""trial"",""time""
""fullscreenenter"",""5"",""15212""
","
","941","","48","","","3000","1","","","images/tutyellowplanet.jpg","images/tutalien4","images/tutalien3","images/tutrocket1","images/tutalien4","images/nothing.png","2","practice","false","2","rare","0","2022-12-05 20:36:33.629"
"two-step-fixation","96","333520","0.0-61.0-2.11","1443","4971","16","Male","true","true","false","true","""event"",""trial"",""time""
""fullscreenenter"",""5"",""15212""
","
","
","""event"",""trial"",""time""
""fullscreenenter"",""5"",""15212""
","
","","images/earth.jpg","","","","","","","","","","","","","","fixation","","","","","",""
"d3-animate-choice","97","336069","0.0-61.0-0.12","1443","4971","16","Male","true","true","false","true","""event"",""trial"",""time""
""fullscreenenter"",""5"",""15212""
","
","
","""event"",""trial"",""time""
""fullscreenenter"",""5"",""15212""
","
","545.1999999880791","","49","","","3000","1","","","images/earth.jpg","images/tutrocket2","images/tutrocket1","null","images/tutrocket1","","1","practice","null","1","","",""
"d3-animate-choice","98","338594","0.0-61.0-1.12","1443","4971","16","Male","true","true","false","true","""event"",""trial"",""time""
""fullscreenenter"",""5"",""15212""
","
","
","""event"",""trial"",""time""
""fullscreenenter"",""5"",""15212""
","
","520.4000000059605","","49","","","3000","1","","","images/tutyellowplanet.jpg","images/tutalien4","images/tutalien3","images/tutrocket1","images/tutalien3","images/nothing.png","2","practice","false","1","rare","0","2022-12-05 20:36:39.706"
"two-step-fixation","99","339598","0.0-61.0-2.12","1443","4971","16","Male","true","true","false","true","""event"",""trial"",""time""
""fullscreenenter"",""5"",""15212""
","
","
","""event"",""trial"",""time""
""fullscreenenter"",""5"",""15212""
","
","","images/earth.jpg","","","","","","","","","","","","","","fixation","","","","","",""
"d3-animate-choice","100","342026","0.0-61.0-0.13","1443","4971","16","Male","true","true","false","true","""event"",""trial"",""time""
""fullscreenenter"",""5"",""15212""
","
","
","""event"",""trial"",""time""
""fullscreenenter"",""5"",""15212""
","
","422.39999997615814","","49","","","3000","1","","","images/earth.jpg","images/tutrocket2","images/tutrocket1","null","images/tutrocket1","","1","practice","null","1","","",""
"d3-animate-choice","101","344694","0.0-61.0-1.13","1443","4971","16","Male","true","true","false","true","""event"",""trial"",""time""
""fullscreenenter"",""5"",""15212""
","
","
","""event"",""trial"",""time""
""fullscreenenter"",""5"",""15212""
","
","663.4000000059605","","48","","","3000","1","","","images/tutgreenplanet.jpg","images/tutalien2","images/tutalien1","images/tutrocket1","images/tutalien2","images/nothing.png","2","practice","true","2","common","0","2022-12-05 20:36:45.806"
"two-step-fixation","102","345699","0.0-61.0-2.13","1443","4971","16","Male","true","true","false","true","""event"",""trial"",""time""
""fullscreenenter"",""5"",""15212""
","
","
","""event"",""trial"",""time""
""fullscreenenter"",""5"",""15212""
","
","","images/earth.jpg","","","","","","","","","","","","","","fixation","","","","","",""
"d3-animate-choice","103","348136","0.0-61.0-0.14","1443","4971","16","Male","true","true","false","true","""event"",""trial"",""time""
""fullscreenenter"",""5"",""15212""
","
","
","""event"",""trial"",""time""
""fullscreenenter"",""5"",""15212""
","
","429.89999997615814","","48","","","3000","1","","","images/earth.jpg","images/tutrocket2","images/tutrocket1","null","images/tutrocket2","","1","practice","null","2","","",""
"d3-animate-choice","104","350684","0.0-61.0-1.14","1443","4971","16","Male","true","true","false","true","""event"",""trial"",""time""
""fullscreenenter"",""5"",""15212""
","
","
","""event"",""trial"",""time""
""fullscreenenter"",""5"",""15212""
","
","545.1999999880791","","48","","","3000","1","","","images/tutyellowplanet.jpg","images/tutalien4","images/tutalien3","images/tutrocket2","images/tutalien4","images/t.png","2","practice","true","2","common","1","2022-12-05 20:36:51.796"
"two-step-fixation","105","351687","0.0-61.0-2.14","1443","4971","16","Male","true","true","false","true","""event"",""trial"",""time""
""fullscreenenter"",""5"",""15212""
","
","
","""event"",""trial"",""time""
""fullscreenenter"",""5"",""15212""
","
","","images/earth.jpg","","","","","","","","","","","","","","fixation","","","","","",""
"d3-animate-choice","106","354150","0.0-61.0-0.15","1443","4971","16","Male","true","true","false","true","""event"",""trial"",""time""
""fullscreenenter"",""5"",""15212""
","
","
","""event"",""trial"",""time""
""fullscreenenter"",""5"",""15212""
","
","459.90000000596046","","48","","","3000","1","","","images/earth.jpg","images/tutrocket2","images/tutrocket1","null","images/tutrocket2","","1","practice","null","2","","",""
"d3-animate-choice","107","356926","0.0-61.0-1.15","1443","4971","16","Male","true","true","false","true","""event"",""trial"",""time""
""fullscreenenter"",""5"",""15212""
","
","
","""event"",""trial"",""time""
""fullscreenenter"",""5"",""15212""
","
","773","","48","","","3000","1","","","images/tutgreenplanet.jpg","images/tutalien2","images/tutalien1","images/tutrocket2","images/tutalien2","images/nothing.png","2","practice","false","2","rare","0","2022-12-05 20:36:58.038"
"two-step-fixation","108","357929","0.0-61.0-2.15","1443","4971","16","Male","true","true","false","true","""event"",""trial"",""time""
""fullscreenenter"",""5"",""15212""
","
","
","""event"",""trial"",""time""
""fullscreenenter"",""5"",""15212""
","
","","images/earth.jpg","","","","","","","","","","","","","","fixation","","","","","",""
"d3-animate-choice","109","360365","0.0-61.0-0.16","1443","4971","16","Male","true","true","false","true","""event"",""trial"",""time""
""fullscreenenter"",""5"",""15212""
","
","
","""event"",""trial"",""time""
""fullscreenenter"",""5"",""15212""
","
","430","","48","","","3000","1","","","images/earth.jpg","images/tutrocket2","images/tutrocket1","null","images/tutrocket2","","1","practice","null","2","","",""
"d3-animate-choice","110","363049","0.0-61.0-1.16","1443","4971","16","Male","true","true","false","true","""event"",""trial"",""time""
""fullscreenenter"",""5"",""15212""
","
","
","""event"",""trial"",""time""
""fullscreenenter"",""5"",""15212""
","
","681.5999999940395","","49","","","3000","1","","","images/tutgreenplanet.jpg","images/tutalien2","images/tutalien1","images/tutrocket2","images/tutalien1","images/nothing.png","2","practice","false","1","rare","0","2022-12-05 20:37:04.161"
"two-step-fixation","111","364054","0.0-61.0-2.16","1443","4971","16","Male","true","true","false","true","""event"",""trial"",""time""
""fullscreenenter"",""5"",""15212""
","
","
","""event"",""trial"",""time""
""fullscreenenter"",""5"",""15212""
","
","","images/earth.jpg","","","","","","","","","","","","","","fixation","","","","","",""
"d3-animate-choice","112","366581","0.0-61.0-0.17","1443","4971","16","Male","true","true","false","true","""event"",""trial"",""time""
""fullscreenenter"",""5"",""15212""
","
","
","""event"",""trial"",""time""
""fullscreenenter"",""5"",""15212""
","
","520.9000000059605","","48","","","3000","1","","","images/earth.jpg","images/tutrocket2","images/tutrocket1","null","images/tutrocket2","","1","practice","null","2","","",""
"d3-animate-choice","113","369094","0.0-61.0-1.17","1443","4971","16","Male","true","true","false","true","""event"",""trial"",""time""
""fullscreenenter"",""5"",""15212""
","
","
","""event"",""trial"",""time""
""fullscreenenter"",""5"",""15212""
","
","510.09999999403954","","48","","","3000","1","","","images/tutyellowplanet.jpg","images/tutalien4","images/tutalien3","images/tutrocket2","images/tutalien4","images/t.png","2","practice","true","2","common","1","2022-12-05 20:37:10.206"
"two-step-fixation","114","370096","0.0-61.0-2.17","1443","4971","16","Male","true","true","false","true","""event"",""trial"",""time""
""fullscreenenter"",""5"",""15212""
","
","
","""event"",""trial"",""time""
""fullscreenenter"",""5"",""15212""
","
","","images/earth.jpg","","","","","","","","","","","","","","fixation","","","","","",""
"d3-animate-choice","115","372536","0.0-61.0-0.18","1443","4971","16","Male","true","true","false","true","""event"",""trial"",""time""
""fullscreenenter"",""5"",""15212""
","
","
","""event"",""trial"",""time""
""fullscreenenter"",""5"",""15212""
","
","434.80000001192093","","48","","","3000","1","","","images/earth.jpg","images/tutrocket2","images/tutrocket1","null","images/tutrocket2","","1","practice","null","2","","",""
"d3-animate-choice","116","375073","0.0-61.0-1.18","1443","4971","16","Male","true","true","false","true","""event"",""trial"",""time""
""fullscreenenter"",""5"",""15212""
","
","
","""event"",""trial"",""time""
""fullscreenenter"",""5"",""15212""
","
","532.6000000238419","","48","","","3000","1","","","images/tutyellowplanet.jpg","images/tutalien4","images/tutalien3","images/tutrocket2","images/tutalien4","images/nothing.png","2","practice","true","2","common","0","2022-12-05 20:37:16.185"
"two-step-fixation","117","376077","0.0-61.0-2.18","1443","4971","16","Male","true","true","false","true","""event"",""trial"",""time""
""fullscreenenter"",""5"",""15212""
","
","
","""event"",""trial"",""time""
""fullscreenenter"",""5"",""15212""
","
","","images/earth.jpg","","","","","","","","","","","","","","fixation","","","","","",""
"d3-animate-choice","118","378499","0.0-61.0-0.19","1443","4971","16","Male","true","true","false","true","""event"",""trial"",""time""
""fullscreenenter"",""5"",""15212""
","
","
","""event"",""trial"",""time""
""fullscreenenter"",""5"",""15212""
","
","419.40000000596046","","48","","","3000","1","","","images/earth.jpg","images/tutrocket2","images/tutrocket1","null","images/tutrocket2","","1","practice","null","2","","",""
"d3-animate-choice","119","381216","0.0-61.0-1.19","1443","4971","16","Male","true","true","false","true","""event"",""trial"",""time""
""fullscreenenter"",""5"",""15212""
","
","
","""event"",""trial"",""time""
""fullscreenenter"",""5"",""15212""
","
","715","","49","","","3000","1","","","images/tutgreenplanet.jpg","images/tutalien2","images/tutalien1","images/tutrocket2","images/tutalien1","images/nothing.png","2","practice","false","1","rare","0","2022-12-05 20:37:22.328"
"two-step-fixation","120","382219","0.0-61.0-2.19","1443","4971","16","Male","true","true","false","true","""event"",""trial"",""time""
""fullscreenenter"",""5"",""15212""
","
","
","""event"",""trial"",""time""
""fullscreenenter"",""5"",""15212""
","
","","images/earth.jpg","","","","","","","","","","","","","","fixation","","","","","",""
"d3-instructions","121","385171","0.0-62.0","1443","4971","16","Male","true","true","false","true","""event"",""trial"",""time""
""fullscreenenter"",""5"",""15212""
","
","
","""event"",""trial"",""time""
""fullscreenenter"",""5"",""15212""
","
","","","","","","","","","","","","","","","","","","","","","",""
"audio-keyboard-response","122","387799","0.0-63.0","1443","4971","16","Male","true","true","false","true","""event"",""trial"",""time""
""fullscreenenter"",""5"",""15212""
","
","
","""event"",""trial"",""time""
""fullscreenenter"",""5"",""15212""
","
","2624","audio/instructions/treasure_feedback.wav","32","","","","","","","","","","","","","","","","","","",""
"d3-instructions","123","398153","0.0-64.0","1443","4971","16","Male","true","true","false","true","""event"",""trial"",""time""
""fullscreenenter"",""5"",""15212""
","
","
","""event"",""trial"",""time""
""fullscreenenter"",""5"",""15212""
","
","","","","","","","","","","","","","","","","","","","","","",""
"d3-instructions","124","403513","0.0-65.0","1443","4971","16","Male","true","true","false","true","""event"",""trial"",""time""
""fullscreenenter"",""5"",""15212""
","
","
","""event"",""trial"",""time""
""fullscreenenter"",""5"",""15212""
","
","","","","","","","","","","","","","","","","","","","","","",""
"d3-instructions","125","412550","0.0-66.0","1443","4971","16","Male","true","true","false","true","""event"",""trial"",""time""
""fullscreenenter"",""5"",""15212""
","
","
","""event"",""trial"",""time""
""fullscreenenter"",""5"",""15212""
","
","","","","","","","","","","","","","","","","","","","","","",""
"d3-instructions","126","419227","0.0-67.0","1443","4971","16","Male","true","true","false","true","""event"",""trial"",""time""
""fullscreenenter"",""5"",""15212""
","
","
","""event"",""trial"",""time""
""fullscreenenter"",""5"",""15212""
","
","","","","","","","","","","","","","","","","","","","","","",""
"d3-instructions","127","422718","0.0-68.0","1443","4971","16","Male","true","true","false","true","""event"",""trial"",""time""
""fullscreenenter"",""5"",""15212""
","
","
","""event"",""trial"",""time""
""fullscreenenter"",""5"",""15212""
","
","","","","","","","","","","","","","","","","","","","","","",""
"instructions-quiz","128","428091","0.0-69.0","1443","4971","16","Male","true","true","false","true","""event"",""trial"",""time""
""fullscreenenter"",""5"",""15212""
","
","
","""event"",""trial"",""time""
""fullscreenenter"",""5"",""15212""
","
","5370.899999976158","audio/quiz/Q1_Prompt.wav","","0","","","","","","","","","","","","","","","","","",""
"audio-keyboard-response","129","438352","0.0-70.0","1443","4971","16","Male","true","true","false","true","""event"",""trial"",""time""
""fullscreenenter"",""5"",""15212""
","
","
","""event"",""trial"",""time""
""fullscreenenter"",""5"",""15212""
","
","null","audio/quiz/Q1_Incorrect.wav","null","","","","","","","","","","","","","","","","","","",""
"instructions-quiz","130","444281","0.0-71.0","1443","4971","16","Male","true","true","false","true","""event"",""trial"",""time""
""fullscreenenter"",""5"",""15212""
","
","
","""event"",""trial"",""time""
""fullscreenenter"",""5"",""15212""
","
","5927.5999999940395","audio/quiz/Q2_Prompt.wav","","0","","","","","","","","","","","","","","","","","",""
"audio-keyboard-response","131","457149","0.0-72.0","1443","4971","16","Male","true","true","false","true","""event"",""trial"",""time""
""fullscreenenter"",""5"",""15212""
","
","
","""event"",""trial"",""time""
""fullscreenenter"",""5"",""15212""
","
","null","audio/quiz/Q2_Correct.wav","null","","","","","","","","","","","","","","","","","","",""
"instructions-quiz","132","459954","0.0-73.0","1443","4971","16","Male","true","true","false","true","""event"",""trial"",""time""
""fullscreenenter"",""5"",""15212""
","
","
","""event"",""trial"",""time""
""fullscreenenter"",""5"",""15212""
","
","2802.5","audio/quiz/Q3_Prompt.wav","","1","","","","","","","","","","","","","","","","","",""
"audio-keyboard-response","133","465752","0.0-74.0","1443","4971","16","Male","true","true","false","true","""event"",""trial"",""time""
""fullscreenenter"",""5"",""15212""
","
","
","""event"",""trial"",""time""
""fullscreenenter"",""5"",""15212""
","
","null","audio/quiz/Q3_Correct.wav","null","","","","","","","","","","","","","","","","","","",""
"d3-instructions","134","471260","0.0-75.0","1443","4971","16","Male","true","true","false","true","""event"",""trial"",""time""
""fullscreenenter"",""5"",""15212""
","
","
","""event"",""trial"",""time""
""fullscreenenter"",""5"",""15212""
","
","","","","","","","","","","","","","","","","","","","","","",""
"d3-animate-choice","135","474415","0.0-76.0-0.0","1443","4971","16","Male","true","true","false","true","""event"",""trial"",""time""
""fullscreenenter"",""5"",""15212""
","
","
","""event"",""trial"",""time""
""fullscreenenter"",""5"",""15212""
","
","1146.9000000059605","","48","","","3000","1","","","images/earth.jpg","images/rocket2","images/rocket1","null","images/rocket2","","1","real","null","2","","",""
"d3-animate-choice","136","476965","0.0-76.0-1.0","1443","4971","16","Male","true","true","false","true","""event"",""trial"",""time""
""fullscreenenter"",""5"",""15212""
","
","
","""event"",""trial"",""time""
""fullscreenenter"",""5"",""15212""
","
","547.7000000178814","","48","","","3000","1","","","images/purpleplanet.jpg","images/alien4","images/alien3","images/rocket2","images/alien4","images/t.png","2","real","true","2","common","1","2022-12-05 20:38:58.077"
"two-step-fixation","137","477968","0.0-76.0-2.0","1443","4971","16","Male","true","true","false","true","""event"",""trial"",""time""
""fullscreenenter"",""5"",""15212""
","
","
","""event"",""trial"",""time""
""fullscreenenter"",""5"",""15212""
","
","","images/earth.jpg","","","","","","","","","","","","","","fixation","","","","","",""
"d3-animate-choice","138","480402","0.0-76.0-0.1","1443","4971","16","Male","true","true","false","true","""event"",""trial"",""time""
""fullscreenenter"",""5"",""15212""
","
","
","""event"",""trial"",""time""
""fullscreenenter"",""5"",""15212""
","
","429.2000000178814","","48","","","3000","1","","","images/earth.jpg","images/rocket2","images/rocket1","null","images/rocket2","","1","real","null","2","","",""
"d3-animate-choice","139","482901","0.0-76.0-1.1","1443","4971","16","Male","true","true","false","true","""event"",""trial"",""time""
""fullscreenenter"",""5"",""15212""
","
","
","""event"",""trial"",""time""
""fullscreenenter"",""5"",""15212""
","
","495.09999999403954","","48","","","3000","1","","","images/purpleplanet.jpg","images/alien4","images/alien3","images/rocket2","images/alien4","images/nothing.png","2","real","true","2","common","0","2022-12-05 20:39:04.013"
"two-step-fixation","140","483905","0.0-76.0-2.1","1443","4971","16","Male","true","true","false","true","""event"",""trial"",""time""
""fullscreenenter"",""5"",""15212""
","
","
","""event"",""trial"",""time""
""fullscreenenter"",""5"",""15212""
","
","","images/earth.jpg","","","","","","","","","","","","","","fixation","","","","","",""
"d3-animate-choice","141","486308","0.0-76.0-0.2","1443","4971","16","Male","true","true","false","true","""event"",""trial"",""time""
""fullscreenenter"",""5"",""15212""
","
","
","""event"",""trial"",""time""
""fullscreenenter"",""5"",""15212""
","
","398.19999998807907","","48","","","3000","1","","","images/earth.jpg","images/rocket2","images/rocket1","null","images/rocket2","","1","real","null","2","","",""
"d3-animate-choice","142","488909","0.0-76.0-1.2","1443","4971","16","Male","true","true","false","true","""event"",""trial"",""time""
""fullscreenenter"",""5"",""15212""
","
","
","""event"",""trial"",""time""
""fullscreenenter"",""5"",""15212""
","
","594.3000000119209","","49","","","3000","1","","","images/redplanet1.jpg","images/alien2","images/alien1","images/rocket2","images/alien1","images/t.png","2","real","false","1","rare","1","2022-12-05 20:39:10.021"
"two-step-fixation","143","489913","0.0-76.0-2.2","1443","4971","16","Male","true","true","false","true","""event"",""trial"",""time""
""fullscreenenter"",""5"",""15212""
","
","
","""event"",""trial"",""time""
""fullscreenenter"",""5"",""15212""
","
","","images/earth.jpg","","","","","","","","","","","","","","fixation","","","","","",""
"d3-animate-choice","144","492290","0.0-76.0-0.3","1443","4971","16","Male","true","true","false","true","""event"",""trial"",""time""
""fullscreenenter"",""5"",""15212""
","
","
","""event"",""trial"",""time""
""fullscreenenter"",""5"",""15212""
","
","375","","48","","","3000","1","","","images/earth.jpg","images/rocket2","images/rocket1","null","images/rocket2","","1","real","null","2","","",""
"d3-animate-choice","145","494935","0.0-76.0-1.3","1443","4971","16","Male","true","true","false","true","""event"",""trial"",""time""
""fullscreenenter"",""5"",""15212""
","
","
","""event"",""trial"",""time""
""fullscreenenter"",""5"",""15212""
","
","642.2999999821186","","48","","","3000","1","","","images/purpleplanet.jpg","images/alien4","images/alien3","images/rocket2","images/alien4","images/t.png","2","real","true","2","common","1","2022-12-05 20:39:16.048"
"two-step-fixation","146","495939","0.0-76.0-2.3","1443","4971","16","Male","true","true","false","true","""event"",""trial"",""time""
""fullscreenenter"",""5"",""15212""
","
","
","""event"",""trial"",""time""
""fullscreenenter"",""5"",""15212""
","
","","images/earth.jpg","","","","","","","","","","","","","","fixation","","","","","",""
"d3-animate-choice","147","498352","0.0-76.0-0.4","1443","4971","16","Male","true","true","false","true","""event"",""trial"",""time""
""fullscreenenter"",""5"",""15212""
","
","
","""event"",""trial"",""time""
""fullscreenenter"",""5"",""15212""
","
","408.09999999403954","","48","","","3000","1","","","images/earth.jpg","images/rocket2","images/rocket1","null","images/rocket2","","1","real","null","2","","",""
"d3-animate-choice","148","500935","0.0-76.0-1.4","1443","4971","16","Male","true","true","false","true","""event"",""trial"",""time""
""fullscreenenter"",""5"",""15212""
","
","
","""event"",""trial"",""time""
""fullscreenenter"",""5"",""15212""
","
","579.5999999940395","","48","","","3000","1","","","images/purpleplanet.jpg","images/alien4","images/alien3","images/rocket2","images/alien4","images/t.png","2","real","true","2","common","1","2022-12-05 20:39:22.047"
"two-step-fixation","149","501939","0.0-76.0-2.4","1443","4971","16","Male","true","true","false","true","""event"",""trial"",""time""
""fullscreenenter"",""5"",""15212""
","
","
","""event"",""trial"",""time""
""fullscreenenter"",""5"",""15212""
","
","","images/earth.jpg","","","","","","","","","","","","","","fixation","","","","","",""
"d3-animate-choice","150","504336","0.0-76.0-0.5","1443","4971","16","Male","true","true","false","true","""event"",""trial"",""time""
""fullscreenenter"",""5"",""15212""
","
","
","""event"",""trial"",""time""
""fullscreenenter"",""5"",""15212""
","
","392.80000001192093","","48","","","3000","1","","","images/earth.jpg","images/rocket2","images/rocket1","null","images/rocket2","","1","real","null","2","","",""
"d3-animate-choice","151","506916","0.0-76.0-1.5","1443","4971","16","Male","true","true","false","true","""event"",""trial"",""time""
""fullscreenenter"",""5"",""15212""
","
","
","""event"",""trial"",""time""
""fullscreenenter"",""5"",""15212""
","
","574.6999999880791","","48","","","3000","1","","","images/purpleplanet.jpg","images/alien4","images/alien3","images/rocket2","images/alien4","images/nothing.png","2","real","true","2","common","0","2022-12-05 20:39:28.028"
"two-step-fixation","152","507923","0.0-76.0-2.5","1443","4971","16","Male","true","true","false","true","""event"",""trial"",""time""
""fullscreenenter"",""5"",""15212""
","
","
","""event"",""trial"",""time""
""fullscreenenter"",""5"",""15212""
","
","","images/earth.jpg","","","","","","","","","","","","","","fixation","","","","","",""
"d3-animate-choice","153","510355","0.0-76.0-0.6","1443","4971","16","Male","true","true","false","true","""event"",""trial"",""time""
""fullscreenenter"",""5"",""15212""
","
","
","""event"",""trial"",""time""
""fullscreenenter"",""5"",""15212""
","
","428.19999998807907","","48","","","3000","1","","","images/earth.jpg","images/rocket2","images/rocket1","null","images/rocket2","","1","real","null","2","","",""
"d3-animate-choice","154","512965","0.0-76.0-1.6","1443","4971","16","Male","true","true","false","true","""event"",""trial"",""time""
""fullscreenenter"",""5"",""15212""
","
","
","""event"",""trial"",""time""
""fullscreenenter"",""5"",""15212""
","
","607.9000000059605","","49","","","3000","1","","","images/redplanet1.jpg","images/alien2","images/alien1","images/rocket2","images/alien1","images/nothing.png","2","real","false","1","rare","0","2022-12-05 20:39:34.077"
"two-step-fixation","155","513968","0.0-76.0-2.6","1443","4971","16","Male","true","true","false","true","""event"",""trial"",""time""
""fullscreenenter"",""5"",""15212""
","
","
","""event"",""trial"",""time""
""fullscreenenter"",""5"",""15212""
","
","","images/earth.jpg","","","","","","","","","","","","","","fixation","","","","","",""
"d3-animate-choice","156","516455","0.0-76.0-0.7","1443","4971","16","Male","true","true","false","true","""event"",""trial"",""time""
""fullscreenenter"",""5"",""15212""
","
","
","""event"",""trial"",""time""
""fullscreenenter"",""5"",""15212""
","
","483.5","","48","","","3000","1","","","images/earth.jpg","images/rocket2","images/rocket1","null","images/rocket2","","1","real","null","2","","",""
"d3-animate-choice","157","518919","0.0-76.0-1.7","1443","4971","16","Male","true","true","false","true","""event"",""trial"",""time""
""fullscreenenter"",""5"",""15212""
","
","
","""event"",""trial"",""time""
""fullscreenenter"",""5"",""15212""
","
","460.80000001192093","","48","","","3000","1","","","images/purpleplanet.jpg","images/alien4","images/alien3","images/rocket2","images/alien4","images/t.png","2","real","true","2","common","1","2022-12-05 20:39:40.031"
"two-step-fixation","158","519926","0.0-76.0-2.7","1443","4971","16","Male","true","true","false","true","""event"",""trial"",""time""
""fullscreenenter"",""5"",""15212""
","
","
","""event"",""trial"",""time""
""fullscreenenter"",""5"",""15212""
","
","","images/earth.jpg","","","","","","","","","","","","","","fixation","","","","","",""
"d3-animate-choice","159","522301","0.0-76.0-0.8","1443","4971","16","Male","true","true","false","true","""event"",""trial"",""time""
""fullscreenenter"",""5"",""15212""
","
","
","""event"",""trial"",""time""
""fullscreenenter"",""5"",""15212""
","
","369.89999997615814","","48","","","3000","1","","","images/earth.jpg","images/rocket2","images/rocket1","null","images/rocket2","","1","real","null","2","","",""
"d3-animate-choice","160","524704","0.0-76.0-1.8","1443","4971","16","Male","true","true","false","true","""event"",""trial"",""time""
""fullscreenenter"",""5"",""15212""
","
","
","""event"",""trial"",""time""
""fullscreenenter"",""5"",""15212""
","
","397.39999997615814","","48","","","3000","1","","","images/purpleplanet.jpg","images/alien4","images/alien3","images/rocket2","images/alien4","images/t.png","2","real","true","2","common","1","2022-12-05 20:39:45.816"
"two-step-fixation","161","525708","0.0-76.0-2.8","1443","4971","16","Male","true","true","false","true","""event"",""trial"",""time""
""fullscreenenter"",""5"",""15212""
","
","
","""event"",""trial"",""time""
""fullscreenenter"",""5"",""15212""
","
","","images/earth.jpg","","","","","","","","","","","","","","fixation","","","","","",""
"d3-animate-choice","162","528939","0.0-76.0-0.9","1443","4971","16","Male","true","true","false","true","""event"",""trial"",""time""
""fullscreenenter"",""5"",""15212""
","
","
","""event"",""trial"",""time""
""fullscreenenter"",""5"",""15212""
","
","1227.7000000178814","","48","","","3000","1","","","images/earth.jpg","images/rocket2","images/rocket1","null","images/rocket2","","1","real","null","2","","",""
"d3-animate-choice","163","531466","0.0-76.0-1.9","1443","4971","16","Male","true","true","false","true","""event"",""trial"",""time""
""fullscreenenter"",""5"",""15212""
","
","
","""event"",""trial"",""time""
""fullscreenenter"",""5"",""15212""
","
","524.9000000059605","","48","","","3000","1","","","images/purpleplanet.jpg","images/alien4","images/alien3","images/rocket2","images/alien4","images/t.png","2","real","true","2","common","1","2022-12-05 20:39:52.579"
"two-step-fixation","164","532470","0.0-76.0-2.9","1443","4971","16","Male","true","true","false","true","""event"",""trial"",""time""
""fullscreenenter"",""5"",""15212""
","
","
","""event"",""trial"",""time""
""fullscreenenter"",""5"",""15212""
","
","","images/earth.jpg","","","","","","","","","","","","","","fixation","","","","","",""
"d3-animate-choice","165","534875","0.0-76.0-0.10","1443","4971","16","Male","true","true","false","true","""event"",""trial"",""time""
""fullscreenenter"",""5"",""15212""
","
","
","""event"",""trial"",""time""
""fullscreenenter"",""5"",""15212""
","
","397.69999998807907","","48","","","3000","1","","","images/earth.jpg","images/rocket2","images/rocket1","null","images/rocket2","","1","real","null","2","","",""
"d3-animate-choice","166","537367","0.0-76.0-1.10","1443","4971","16","Male","true","true","false","true","""event"",""trial"",""time""
""fullscreenenter"",""5"",""15212""
","
","
","""event"",""trial"",""time""
""fullscreenenter"",""5"",""15212""
","
","486.59999999403954","","48","","","3000","1","","","images/purpleplanet.jpg","images/alien4","images/alien3","images/rocket2","images/alien4","images/t.png","2","real","true","2","common","1","2022-12-05 20:39:58.479"
"two-step-fixation","167","538371","0.0-76.0-2.10","1443","4971","16","Male","true","true","false","true","""event"",""trial"",""time""
""fullscreenenter"",""5"",""15212""
","
","
","""event"",""trial"",""time""
""fullscreenenter"",""5"",""15212""
","
","","images/earth.jpg","","","","","","","","","","","","","","fixation","","","","","",""
"d3-animate-choice","168","540790","0.0-76.0-0.11","1443","4971","16","Male","true","true","false","true","""event"",""trial"",""time""
""fullscreenenter"",""5"",""15212""
","
","
","""event"",""trial"",""time""
""fullscreenenter"",""5"",""15212""
","
","411","","48","","","3000","1","","","images/earth.jpg","images/rocket2","images/rocket1","null","images/rocket2","","1","real","null","2","","",""
"d3-animate-choice","169","543382","0.0-76.0-1.11","1443","4971","16","Male","true","true","false","true","""event"",""trial"",""time""
""fullscreenenter"",""5"",""15212""
","
","
","""event"",""trial"",""time""
""fullscreenenter"",""5"",""15212""
","
","590.0999999940395","","48","","","3000","1","","","images/purpleplanet.jpg","images/alien4","images/alien3","images/rocket2","images/alien4","images/t.png","2","real","true","2","common","1","2022-12-05 20:40:04.494"
"two-step-fixation","170","544386","0.0-76.0-2.11","1443","4971","16","Male","true","true","false","true","""event"",""trial"",""time""
""fullscreenenter"",""5"",""15212""
","
","
","""event"",""trial"",""time""
""fullscreenenter"",""5"",""15212""
","
","","images/earth.jpg","","","","","","","","","","","","","","fixation","","","","","",""
"d3-animate-choice","171","546781","0.0-76.0-0.12","1443","4971","16","Male","true","true","false","true","""event"",""trial"",""time""
""fullscreenenter"",""5"",""15212""
","
","
","""event"",""trial"",""time""
""fullscreenenter"",""5"",""15212""
","
","389.09999999403954","","48","","","3000","1","","","images/earth.jpg","images/rocket2","images/rocket1","null","images/rocket2","","1","real","null","2","","",""
"d3-animate-choice","172","549215","0.0-76.0-1.12","1443","4971","16","Male","true","true","false","true","""event"",""trial"",""time""
""fullscreenenter"",""5"",""15212""
","
","
","""event"",""trial"",""time""
""fullscreenenter"",""5"",""15212""
","
","431.09999999403954","","48","","","3000","1","","","images/purpleplanet.jpg","images/alien4","images/alien3","images/rocket2","images/alien4","images/nothing.png","2","real","true","2","common","0","2022-12-05 20:40:10.327"
"two-step-fixation","173","550217","0.0-76.0-2.12","1443","4971","16","Male","true","true","false","true","""event"",""trial"",""time""
""fullscreenenter"",""5"",""15212""
","
","
","""event"",""trial"",""time""
""fullscreenenter"",""5"",""15212""
","
","","images/earth.jpg","","","","","","","","","","","","","","fixation","","","","","",""
"d3-animate-choice","174","552599","0.0-76.0-0.13","1443","4971","16","Male","true","true","false","true","""event"",""trial"",""time""
""fullscreenenter"",""5"",""15212""
","
","
","""event"",""trial"",""time""
""fullscreenenter"",""5"",""15212""
","
","378","","48","","","3000","1","","","images/earth.jpg","images/rocket2","images/rocket1","null","images/rocket2","","1","real","null","2","","",""
"d3-animate-choice","175","554983","0.0-76.0-1.13","1443","4971","16","Male","true","true","false","true","""event"",""trial"",""time""
""fullscreenenter"",""5"",""15212""
","
","
","""event"",""trial"",""time""
""fullscreenenter"",""5"",""15212""
","
","380.5","","49","","","3000","1","","","images/purpleplanet.jpg","images/alien4","images/alien3","images/rocket2","images/alien3","images/nothing.png","2","real","true","1","common","0","2022-12-05 20:40:16.095"
"two-step-fixation","176","555987","0.0-76.0-2.13","1443","4971","16","Male","true","true","false","true","""event"",""trial"",""time""
""fullscreenenter"",""5"",""15212""
","
","
","""event"",""trial"",""time""
""fullscreenenter"",""5"",""15212""
","
","","images/earth.jpg","","","","","","","","","","","","","","fixation","","","","","",""
"d3-animate-choice","177","558415","0.0-76.0-0.14","1443","4971","16","Male","true","true","false","true","""event"",""trial"",""time""
""fullscreenenter"",""5"",""15212""
","
","
","""event"",""trial"",""time""
""fullscreenenter"",""5"",""15212""
","
","419.5","","48","","","3000","1","","","images/earth.jpg","images/rocket2","images/rocket1","null","images/rocket2","","1","real","null","2","","",""
"d3-animate-choice","178","561588","0.0-76.0-1.14","1443","4971","16","Male","true","true","false","true","""event"",""trial"",""time""
""fullscreenenter"",""5"",""15212""
","
","
","""event"",""trial"",""time""
""fullscreenenter"",""5"",""15212""
","
","1170.1000000238419","","48","","","3000","1","","","images/purpleplanet.jpg","images/alien4","images/alien3","images/rocket2","images/alien4","images/t.png","2","real","true","2","common","1","2022-12-05 20:40:22.700"
"two-step-fixation","179","562590","0.0-76.0-2.14","1443","4971","16","Male","true","true","false","true","""event"",""trial"",""time""
""fullscreenenter"",""5"",""15212""
","
","
","""event"",""trial"",""time""
""fullscreenenter"",""5"",""15212""
","
","","images/earth.jpg","","","","","","","","","","","","","","fixation","","","","","",""
"d3-animate-choice","180","565020","0.0-76.0-0.15","1443","4971","16","Male","true","true","false","true","""event"",""trial"",""time""
""fullscreenenter"",""5"",""15212""
","
","
","""event"",""trial"",""time""
""fullscreenenter"",""5"",""15212""
","
","426.7999999821186","","48","","","3000","1","","","images/earth.jpg","images/rocket2","images/rocket1","null","images/rocket2","","1","real","null","2","","",""
"d3-animate-choice","181","567475","0.0-76.0-1.15","1443","4971","16","Male","true","true","false","true","""event"",""trial"",""time""
""fullscreenenter"",""5"",""15212""
","
","
","""event"",""trial"",""time""
""fullscreenenter"",""5"",""15212""
","
","452.7999999821186","","48","","","3000","1","","","images/purpleplanet.jpg","images/alien4","images/alien3","images/rocket2","images/alien4","images/t.png","2","real","true","2","common","1","2022-12-05 20:40:28.587"
"two-step-fixation","182","568477","0.0-76.0-2.15","1443","4971","16","Male","true","true","false","true","""event"",""trial"",""time""
""fullscreenenter"",""5"",""15212""
","
","
","""event"",""trial"",""time""
""fullscreenenter"",""5"",""15212""
","
","","images/earth.jpg","","","","","","","","","","","","","","fixation","","","","","",""
"d3-animate-choice","183","570883","0.0-76.0-0.16","1443","4971","16","Male","true","true","false","true","""event"",""trial"",""time""
""fullscreenenter"",""5"",""15212""
","
","
","""event"",""trial"",""time""
""fullscreenenter"",""5"",""15212""
","
","399.40000000596046","","48","","","3000","1","","","images/earth.jpg","images/rocket2","images/rocket1","null","images/rocket2","","1","real","null","2","","",""
"d3-animate-choice","184","573614","0.0-76.0-1.16","1443","4971","16","Male","true","true","false","true","""event"",""trial"",""time""
""fullscreenenter"",""5"",""15212""
","
","
","""event"",""trial"",""time""
""fullscreenenter"",""5"",""15212""
","
","727.3999999761581","","48","","","3000","1","","","images/purpleplanet.jpg","images/alien4","images/alien3","images/rocket2","images/alien4","images/t.png","2","real","true","2","common","1","2022-12-05 20:40:34.726"
"two-step-fixation","185","574618","0.0-76.0-2.16","1443","4971","16","Male","true","true","false","true","""event"",""trial"",""time""
""fullscreenenter"",""5"",""15212""
","
","
","""event"",""trial"",""time""
""fullscreenenter"",""5"",""15212""
","
","","images/earth.jpg","","","","","","","","","","","","","","fixation","","","","","",""
"d3-animate-choice","186","576998","0.0-76.0-0.17","1443","4971","16","Male","true","true","false","true","""event"",""trial"",""time""
""fullscreenenter"",""5"",""15212""
","
","
","""event"",""trial"",""time""
""fullscreenenter"",""5"",""15212""
","
","373.80000001192093","","48","","","3000","1","","","images/earth.jpg","images/rocket2","images/rocket1","null","images/rocket2","","1","real","null","2","","",""
"d3-animate-choice","187","579503","0.0-76.0-1.17","1443","4971","16","Male","true","true","false","true","""event"",""trial"",""time""
""fullscreenenter"",""5"",""15212""
","
","
","""event"",""trial"",""time""
""fullscreenenter"",""5"",""15212""
","
","502.2999999821186","","48","","","3000","1","","","images/purpleplanet.jpg","images/alien4","images/alien3","images/rocket2","images/alien4","images/nothing.png","2","real","true","2","common","0","2022-12-05 20:40:40.615"
"two-step-fixation","188","580505","0.0-76.0-2.17","1443","4971","16","Male","true","true","false","true","""event"",""trial"",""time""
""fullscreenenter"",""5"",""15212""
","
","
","""event"",""trial"",""time""
""fullscreenenter"",""5"",""15212""
","
","","images/earth.jpg","","","","","","","","","","","","","","fixation","","","","","",""
"d3-animate-choice","189","582891","0.0-76.0-0.18","1443","4971","16","Male","true","true","false","true","""event"",""trial"",""time""
""fullscreenenter"",""5"",""15212""
","
","
","""event"",""trial"",""time""
""fullscreenenter"",""5"",""15212""
","
","382.09999999403954","","48","","","3000","1","","","images/earth.jpg","images/rocket2","images/rocket1","null","images/rocket2","","1","real","null","2","","",""
"d3-animate-choice","190","585502","0.0-76.0-1.18","1443","4971","16","Male","true","true","false","true","""event"",""trial"",""time""
""fullscreenenter"",""5"",""15212""
","
","
","""event"",""trial"",""time""
""fullscreenenter"",""5"",""15212""
","
","608.6999999880791","","48","","","3000","1","","","images/redplanet1.jpg","images/alien2","images/alien1","images/rocket2","images/alien2","images/t.png","2","real","false","2","rare","1","2022-12-05 20:40:46.614"
"two-step-fixation","191","586505","0.0-76.0-2.18","1443","4971","16","Male","true","true","false","true","""event"",""trial"",""time""
""fullscreenenter"",""5"",""15212""
","
","
","""event"",""trial"",""time""
""fullscreenenter"",""5"",""15212""
","
","","images/earth.jpg","","","","","","","","","","","","","","fixation","","","","","",""
"d3-animate-choice","192","588910","0.0-76.0-0.19","1443","4971","16","Male","true","true","false","true","""event"",""trial"",""time""
""fullscreenenter"",""5"",""15212""
","
","
","""event"",""trial"",""time""
""fullscreenenter"",""5"",""15212""
","
","401.09999999403954","","48","","","3000","1","","","images/earth.jpg","images/rocket2","images/rocket1","null","images/rocket2","","1","real","null","2","","",""
"d3-animate-choice","193","591312","0.0-76.0-1.19","1443","4971","16","Male","true","true","false","true","""event"",""trial"",""time""
""fullscreenenter"",""5"",""15212""
","
","
","""event"",""trial"",""time""
""fullscreenenter"",""5"",""15212""
","
","400.2000000178814","","48","","","3000","1","","","images/purpleplanet.jpg","images/alien4","images/alien3","images/rocket2","images/alien4","images/t.png","2","real","true","2","common","1","2022-12-05 20:40:52.425"
"two-step-fixation","194","592316","0.0-76.0-2.19","1443","4971","16","Male","true","true","false","true","""event"",""trial"",""time""
""fullscreenenter"",""5"",""15212""
","
","
","""event"",""trial"",""time""
""fullscreenenter"",""5"",""15212""
","
","","images/earth.jpg","","","","","","","","","","","","","","fixation","","","","","",""
"d3-animate-choice","195","594722","0.0-76.0-0.20","1443","4971","16","Male","true","true","false","true","""event"",""trial"",""time""
""fullscreenenter"",""5"",""15212""
","
","
","""event"",""trial"",""time""
""fullscreenenter"",""5"",""15212""
","
","398.40000000596046","","48","","","3000","1","","","images/earth.jpg","images/rocket2","images/rocket1","null","images/rocket2","","1","real","null","2","","",""
"d3-animate-choice","196","597153","0.0-76.0-1.20","1443","4971","16","Male","true","true","false","true","""event"",""trial"",""time""
""fullscreenenter"",""5"",""15212""
","
","
","""event"",""trial"",""time""
""fullscreenenter"",""5"",""15212""
","
","428.5","","48","","","3000","1","","","images/purpleplanet.jpg","images/alien4","images/alien3","images/rocket2","images/alien4","images/nothing.png","2","real","true","2","common","0","2022-12-05 20:40:58.265"
"two-step-fixation","197","598155","0.0-76.0-2.20","1443","4971","16","Male","true","true","false","true","""event"",""trial"",""time""
""fullscreenenter"",""5"",""15212""
","
","
","""event"",""trial"",""time""
""fullscreenenter"",""5"",""15212""
","
","","images/earth.jpg","","","","","","","","","","","","","","fixation","","","","","",""
"d3-animate-choice","198","601271","0.0-76.0-0.21","1443","4971","16","Male","true","true","false","true","""event"",""trial"",""time""
""fullscreenenter"",""5"",""15212""
","
","
","""event"",""trial"",""time""
""fullscreenenter"",""5"",""15212""
","
","1110.7000000178814","","48","","","3000","1","","","images/earth.jpg","images/rocket2","images/rocket1","null","images/rocket2","","1","real","null","2","","",""
"d3-animate-choice","199","603892","0.0-76.0-1.21","1443","4971","16","Male","true","true","false","true","""event"",""trial"",""time""
""fullscreenenter"",""5"",""15212""
","
","
","""event"",""trial"",""time""
""fullscreenenter"",""5"",""15212""
","
","616.0999999940395","","48","","","3000","1","","","images/purpleplanet.jpg","images/alien4","images/alien3","images/rocket2","images/alien4","images/t.png","2","real","true","2","common","1","2022-12-05 20:41:05.004"
"two-step-fixation","200","604894","0.0-76.0-2.21","1443","4971","16","Male","true","true","false","true","""event"",""trial"",""time""
""fullscreenenter"",""5"",""15212""
","
","
","""event"",""trial"",""time""
""fullscreenenter"",""5"",""15212""
","
","","images/earth.jpg","","","","","","","","","","","","","","fixation","","","","","",""
"d3-animate-choice","201","607275","0.0-76.0-0.22","1443","4971","16","Male","true","true","false","true","""event"",""trial"",""time""
""fullscreenenter"",""5"",""15212""
","
","
","""event"",""trial"",""time""
""fullscreenenter"",""5"",""15212""
","
","377.5","","48","","","3000","1","","","images/earth.jpg","images/rocket2","images/rocket1","null","images/rocket2","","1","real","null","2","","",""
"d3-animate-choice","202","609764","0.0-76.0-1.22","1443","4971","16","Male","true","true","false","true","""event"",""trial"",""time""
""fullscreenenter"",""5"",""15212""
","
","
","""event"",""trial"",""time""
""fullscreenenter"",""5"",""15212""
","
","486.69999998807907","","48","","","3000","1","","","images/purpleplanet.jpg","images/alien4","images/alien3","images/rocket2","images/alien4","images/nothing.png","2","real","true","2","common","0","2022-12-05 20:41:10.876"
"two-step-fixation","203","610766","0.0-76.0-2.22","1443","4971","16","Male","true","true","false","true","""event"",""trial"",""time""
""fullscreenenter"",""5"",""15212""
","
","
","""event"",""trial"",""time""
""fullscreenenter"",""5"",""15212""
","
","","images/earth.jpg","","","","","","","","","","","","","","fixation","","","","","",""
"d3-animate-choice","204","613128","0.0-76.0-0.23","1443","4971","16","Male","true","true","false","true","""event"",""trial"",""time""
""fullscreenenter"",""5"",""15212""
","
","
","""event"",""trial"",""time""
""fullscreenenter"",""5"",""15212""
","
","356.39999997615814","","48","","","3000","1","","","images/earth.jpg","images/rocket2","images/rocket1","null","images/rocket2","","1","real","null","2","","",""
"d3-animate-choice","205","615620","0.0-76.0-1.23","1443","4971","16","Male","true","true","false","true","""event"",""trial"",""time""
""fullscreenenter"",""5"",""15212""
","
","
","""event"",""trial"",""time""
""fullscreenenter"",""5"",""15212""
","
","488.80000001192093","","48","","","3000","1","","","images/purpleplanet.jpg","images/alien4","images/alien3","images/rocket2","images/alien4","images/nothing.png","2","real","true","2","common","0","2022-12-05 20:41:16.732"
"two-step-fixation","206","616627","0.0-76.0-2.23","1443","4971","16","Male","true","true","false","true","""event"",""trial"",""time""
""fullscreenenter"",""5"",""15212""
","
","
","""event"",""trial"",""time""
""fullscreenenter"",""5"",""15212""
","
","","images/earth.jpg","","","","","","","","","","","","","","fixation","","","","","",""
"d3-animate-choice","207","619002","0.0-76.0-0.24","1443","4971","16","Male","true","true","false","true","""event"",""trial"",""time""
""fullscreenenter"",""5"",""15212""
","
","
","""event"",""trial"",""time""
""fullscreenenter"",""5"",""15212""
","
","371.80000001192093","","48","","","3000","1","","","images/earth.jpg","images/rocket2","images/rocket1","null","images/rocket2","","1","real","null","2","","",""
"d3-animate-choice","208","621718","0.0-76.0-1.24","1443","4971","16","Male","true","true","false","true","""event"",""trial"",""time""
""fullscreenenter"",""5"",""15212""
","
","
","""event"",""trial"",""time""
""fullscreenenter"",""5"",""15212""
","
","712.3000000119209","","48","","","3000","1","","","images/redplanet1.jpg","images/alien2","images/alien1","images/rocket2","images/alien2","images/t.png","2","real","false","2","rare","1","2022-12-05 20:41:22.830"
"two-step-fixation","209","622721","0.0-76.0-2.24","1443","4971","16","Male","true","true","false","true","""event"",""trial"",""time""
""fullscreenenter"",""5"",""15212""
","
","
","""event"",""trial"",""time""
""fullscreenenter"",""5"",""15212""
","
","","images/earth.jpg","","","","","","","","","","","","","","fixation","","","","","",""
"d3-animate-choice","210","625139","0.0-76.0-0.25","1443","4971","16","Male","true","true","false","true","""event"",""trial"",""time""
""fullscreenenter"",""5"",""15212""
","
","
","""event"",""trial"",""time""
""fullscreenenter"",""5"",""15212""
","
","413","","48","","","3000","1","","","images/earth.jpg","images/rocket2","images/rocket1","null","images/rocket2","","1","real","null","2","","",""
"d3-animate-choice","211","627749","0.0-76.0-1.25","1443","4971","16","Male","true","true","false","true","""event"",""trial"",""time""
""fullscreenenter"",""5"",""15212""
","
","
","""event"",""trial"",""time""
""fullscreenenter"",""5"",""15212""
","
","605","","48","","","3000","1","","","images/purpleplanet.jpg","images/alien4","images/alien3","images/rocket2","images/alien4","images/t.png","2","real","true","2","common","1","2022-12-05 20:41:28.861"
"two-step-fixation","212","628755","0.0-76.0-2.25","1443","4971","16","Male","true","true","false","true","""event"",""trial"",""time""
""fullscreenenter"",""5"",""15212""
","
","
","""event"",""trial"",""time""
""fullscreenenter"",""5"",""15212""
","
","","images/earth.jpg","","","","","","","","","","","","","","fixation","","","","","",""
"d3-animate-choice","213","631173","0.0-76.0-0.26","1443","4971","16","Male","true","true","false","true","""event"",""trial"",""time""
""fullscreenenter"",""5"",""15212""
","
","
","""event"",""trial"",""time""
""fullscreenenter"",""5"",""15212""
","
","414.2000000178814","","48","","","3000","1","","","images/earth.jpg","images/rocket2","images/rocket1","null","images/rocket2","","1","real","null","2","","",""
"d3-animate-choice","214","633711","0.0-76.0-1.26","1443","4971","16","Male","true","true","false","true","""event"",""trial"",""time""
""fullscreenenter"",""5"",""15212""
","
","
","""event"",""trial"",""time""
""fullscreenenter"",""5"",""15212""
","
","534.1999999880791","","48","","","3000","1","","","images/purpleplanet.jpg","images/alien4","images/alien3","images/rocket2","images/alien4","images/nothing.png","2","real","true","2","common","0","2022-12-05 20:41:34.824"
"two-step-fixation","215","634716","0.0-76.0-2.26","1443","4971","16","Male","true","true","false","true","""event"",""trial"",""time""
""fullscreenenter"",""5"",""15212""
","
","
","""event"",""trial"",""time""
""fullscreenenter"",""5"",""15212""
","
","","images/earth.jpg","","","","","","","","","","","","","","fixation","","","","","",""
"d3-animate-choice","216","637085","0.0-76.0-0.27","1443","4971","16","Male","true","true","false","true","""event"",""trial"",""time""
""fullscreenenter"",""5"",""15212""
","
","
","""event"",""trial"",""time""
""fullscreenenter"",""5"",""15212""
","
","366.5","","48","","","3000","1","","","images/earth.jpg","images/rocket2","images/rocket1","null","images/rocket2","","1","real","null","2","","",""
"d3-animate-choice","217","639614","0.0-76.0-1.27","1443","4971","16","Male","true","true","false","true","""event"",""trial"",""time""
""fullscreenenter"",""5"",""15212""
","
","
","""event"",""trial"",""time""
""fullscreenenter"",""5"",""15212""
","
","526.2000000178814","","48","","","3000","1","","","images/redplanet1.jpg","images/alien2","images/alien1","images/rocket2","images/alien2","images/t.png","2","real","false","2","rare","1","2022-12-05 20:41:40.726"
"two-step-fixation","218","640618","0.0-76.0-2.27","1443","4971","16","Male","true","true","false","true","""event"",""trial"",""time""
""fullscreenenter"",""5"",""15212""
","
","
","""event"",""trial"",""time""
""fullscreenenter"",""5"",""15212""
","
","","images/earth.jpg","","","","","","","","","","","","","","fixation","","","","","",""
"d3-animate-choice","219","643007","0.0-76.0-0.28","1443","4971","16","Male","true","true","false","true","""event"",""trial"",""time""
""fullscreenenter"",""5"",""15212""
","
","
","""event"",""trial"",""time""
""fullscreenenter"",""5"",""15212""
","
","386.10000002384186","","48","","","3000","1","","","images/earth.jpg","images/rocket2","images/rocket1","null","images/rocket2","","1","real","null","2","","",""
"d3-animate-choice","220","645520","0.0-76.0-1.28","1443","4971","16","Male","true","true","false","true","""event"",""trial"",""time""
""fullscreenenter"",""5"",""15212""
","
","
","""event"",""trial"",""time""
""fullscreenenter"",""5"",""15212""
","
","509.69999998807907","","48","","","3000","1","","","images/purpleplanet.jpg","images/alien4","images/alien3","images/rocket2","images/alien4","images/nothing.png","2","real","true","2","common","0","2022-12-05 20:41:46.632"
"two-step-fixation","221","646524","0.0-76.0-2.28","1443","4971","16","Male","true","true","false","true","""event"",""trial"",""time""
""fullscreenenter"",""5"",""15212""
","
","
","""event"",""trial"",""time""
""fullscreenenter"",""5"",""15212""
","
","","images/earth.jpg","","","","","","","","","","","","","","fixation","","","","","",""
"d3-animate-choice","222","648959","0.0-76.0-0.29","1443","4971","16","Male","true","true","false","true","""event"",""trial"",""time""
""fullscreenenter"",""5"",""15212""
","
","
","""event"",""trial"",""time""
""fullscreenenter"",""5"",""15212""
","
","432.09999999403954","","48","","","3000","1","","","images/earth.jpg","images/rocket2","images/rocket1","null","images/rocket2","","1","real","null","2","","",""
"d3-animate-choice","223","651582","0.0-76.0-1.29","1443","4971","16","Male","true","true","false","true","""event"",""trial"",""time""
""fullscreenenter"",""5"",""15212""
","
","
","""event"",""trial"",""time""
""fullscreenenter"",""5"",""15212""
","
","619.6000000238419","","48","","","3000","1","","","images/purpleplanet.jpg","images/alien4","images/alien3","images/rocket2","images/alien4","images/t.png","2","real","true","2","common","1","2022-12-05 20:41:52.695"
"two-step-fixation","224","652585","0.0-76.0-2.29","1443","4971","16","Male","true","true","false","true","""event"",""trial"",""time""
""fullscreenenter"",""5"",""15212""
","
","
","""event"",""trial"",""time""
""fullscreenenter"",""5"",""15212""
","
","","images/earth.jpg","","","","","","","","","","","","","","fixation","","","","","",""
"d3-animate-choice","225","654988","0.0-76.0-0.30","1443","4971","16","Male","true","true","false","true","""event"",""trial"",""time""
""fullscreenenter"",""5"",""15212""
","
","
","""event"",""trial"",""time""
""fullscreenenter"",""5"",""15212""
","
","400.30000001192093","","48","","","3000","1","","","images/earth.jpg","images/rocket2","images/rocket1","null","images/rocket2","","1","real","null","2","","",""
"d3-animate-choice","226","657640","0.0-76.0-1.30","1443","4971","16","Male","true","true","false","true","""event"",""trial"",""time""
""fullscreenenter"",""5"",""15212""
","
","
","""event"",""trial"",""time""
""fullscreenenter"",""5"",""15212""
","
","645.5","","48","","","3000","1","","","images/purpleplanet.jpg","images/alien4","images/alien3","images/rocket2","images/alien4","images/t.png","2","real","true","2","common","1","2022-12-05 20:41:58.752"
"two-step-fixation","227","658644","0.0-76.0-2.30","1443","4971","16","Male","true","true","false","true","""event"",""trial"",""time""
""fullscreenenter"",""5"",""15212""
","
","
","""event"",""trial"",""time""
""fullscreenenter"",""5"",""15212""
","
","","images/earth.jpg","","","","","","","","","","","","","","fixation","","","","","",""
"d3-animate-choice","228","661032","0.0-76.0-0.31","1443","4971","16","Male","true","true","false","true","""event"",""trial"",""time""
""fullscreenenter"",""5"",""15212""
","
","
","""event"",""trial"",""time""
""fullscreenenter"",""5"",""15212""
","
","380","","48","","","3000","1","","","images/earth.jpg","images/rocket2","images/rocket1","null","images/rocket2","","1","real","null","2","","",""
"d3-animate-choice","229","663481","0.0-76.0-1.31","1443","4971","16","Male","true","true","false","true","""event"",""trial"",""time""
""fullscreenenter"",""5"",""15212""
","
","
","""event"",""trial"",""time""
""fullscreenenter"",""5"",""15212""
","
","445.39999997615814","","48","","","3000","1","","","images/purpleplanet.jpg","images/alien4","images/alien3","images/rocket2","images/alien4","images/t.png","2","real","true","2","common","1","2022-12-05 20:42:04.593"
"two-step-fixation","230","664485","0.0-76.0-2.31","1443","4971","16","Male","true","true","false","true","""event"",""trial"",""time""
""fullscreenenter"",""5"",""15212""
","
","
","""event"",""trial"",""time""
""fullscreenenter"",""5"",""15212""
","
","","images/earth.jpg","","","","","","","","","","","","","","fixation","","","","","",""
"d3-animate-choice","231","666891","0.0-76.0-0.32","1443","4971","16","Male","true","true","false","true","""event"",""trial"",""time""
""fullscreenenter"",""5"",""15212""
","
","
","""event"",""trial"",""time""
""fullscreenenter"",""5"",""15212""
","
","400.90000000596046","","48","","","3000","1","","","images/earth.jpg","images/rocket2","images/rocket1","null","images/rocket2","","1","real","null","2","","",""
"d3-animate-choice","232","669456","0.0-76.0-1.32","1443","4971","16","Male","true","true","false","true","""event"",""trial"",""time""
""fullscreenenter"",""5"",""15212""
","
","
","""event"",""trial"",""time""
""fullscreenenter"",""5"",""15212""
","
","562.5","","48","","","3000","1","","","images/purpleplanet.jpg","images/alien4","images/alien3","images/rocket2","images/alien4","images/nothing.png","2","real","true","2","common","0","2022-12-05 20:42:10.568"
"two-step-fixation","233","670459","0.0-76.0-2.32","1443","4971","16","Male","true","true","false","true","""event"",""trial"",""time""
""fullscreenenter"",""5"",""15212""
","
","
","""event"",""trial"",""time""
""fullscreenenter"",""5"",""15212""
","
","","images/earth.jpg","","","","","","","","","","","","","","fixation","","","","","",""
"d3-animate-choice","234","672876","0.0-76.0-0.33","1443","4971","16","Male","true","true","false","true","""event"",""trial"",""time""
""fullscreenenter"",""5"",""15212""
","
","
","""event"",""trial"",""time""
""fullscreenenter"",""5"",""15212""
","
","414.7999999821186","","48","","","3000","1","","","images/earth.jpg","images/rocket2","images/rocket1","null","images/rocket2","","1","real","null","2","","",""
"d3-animate-choice","235","675273","0.0-76.0-1.33","1443","4971","16","Male","true","true","false","true","""event"",""trial"",""time""
""fullscreenenter"",""5"",""15212""
","
","
","""event"",""trial"",""time""
""fullscreenenter"",""5"",""15212""
","
","390","","48","","","3000","1","","","images/purpleplanet.jpg","images/alien4","images/alien3","images/rocket2","images/alien4","images/t.png","2","real","true","2","common","1","2022-12-05 20:42:16.385"
"two-step-fixation","236","676276","0.0-76.0-2.33","1443","4971","16","Male","true","true","false","true","""event"",""trial"",""time""
""fullscreenenter"",""5"",""15212""
","
","
","""event"",""trial"",""time""
""fullscreenenter"",""5"",""15212""
","
","","images/earth.jpg","","","","","","","","","","","","","","fixation","","","","","",""
"d3-animate-choice","237","678788","0.0-76.0-0.34","1443","4971","16","Male","true","true","false","true","""event"",""trial"",""time""
""fullscreenenter"",""5"",""15212""
","
","
","""event"",""trial"",""time""
""fullscreenenter"",""5"",""15212""
","
","509.09999999403954","","48","","","3000","1","","","images/earth.jpg","images/rocket2","images/rocket1","null","images/rocket2","","1","real","null","2","","",""
"d3-animate-choice","238","681269","0.0-76.0-1.34","1443","4971","16","Male","true","true","false","true","""event"",""trial"",""time""
""fullscreenenter"",""5"",""15212""
","
","
","""event"",""trial"",""time""
""fullscreenenter"",""5"",""15212""
","
","477.80000001192093","","48","","","3000","1","","","images/redplanet1.jpg","images/alien2","images/alien1","images/rocket2","images/alien2","images/t.png","2","real","false","2","rare","1","2022-12-05 20:42:22.381"
"two-step-fixation","239","682272","0.0-76.0-2.34","1443","4971","16","Male","true","true","false","true","""event"",""trial"",""time""
""fullscreenenter"",""5"",""15212""
","
","
","""event"",""trial"",""time""
""fullscreenenter"",""5"",""15212""
","
","","images/earth.jpg","","","","","","","","","","","","","","fixation","","","","","",""
"d3-animate-choice","240","684678","0.0-76.0-0.35","1443","4971","16","Male","true","true","false","true","""event"",""trial"",""time""
""fullscreenenter"",""5"",""15212""
","
","
","""event"",""trial"",""time""
""fullscreenenter"",""5"",""15212""
","
","403.59999999403954","","48","","","3000","1","","","images/earth.jpg","images/rocket2","images/rocket1","null","images/rocket2","","1","real","null","2","","",""
"d3-animate-choice","241","687148","0.0-76.0-1.35","1443","4971","16","Male","true","true","false","true","""event"",""trial"",""time""
""fullscreenenter"",""5"",""15212""
","
","
","""event"",""trial"",""time""
""fullscreenenter"",""5"",""15212""
","
","467","","48","","","3000","1","","","images/redplanet1.jpg","images/alien2","images/alien1","images/rocket2","images/alien2","images/t.png","2","real","false","2","rare","1","2022-12-05 20:42:28.260"
"two-step-fixation","242","688150","0.0-76.0-2.35","1443","4971","16","Male","true","true","false","true","""event"",""trial"",""time""
""fullscreenenter"",""5"",""15212""
","
","
","""event"",""trial"",""time""
""fullscreenenter"",""5"",""15212""
","
","","images/earth.jpg","","","","","","","","","","","","","","fixation","","","","","",""
"d3-animate-choice","243","690584","0.0-76.0-0.36","1443","4971","16","Male","true","true","false","true","""event"",""trial"",""time""
""fullscreenenter"",""5"",""15212""
","
","
","""event"",""trial"",""time""
""fullscreenenter"",""5"",""15212""
","
","430.09999999403954","","48","","","3000","1","","","images/earth.jpg","images/rocket2","images/rocket1","null","images/rocket2","","1","real","null","2","","",""
"d3-animate-choice","244","693317","0.0-76.0-1.36","1443","4971","16","Male","true","true","false","true","""event"",""trial"",""time""
""fullscreenenter"",""5"",""15212""
","
","
","""event"",""trial"",""time""
""fullscreenenter"",""5"",""15212""
","
","728","","48","","","3000","1","","","images/purpleplanet.jpg","images/alien4","images/alien3","images/rocket2","images/alien4","images/t.png","2","real","true","2","common","1","2022-12-05 20:42:34.430"
"two-step-fixation","245","694321","0.0-76.0-2.36","1443","4971","16","Male","true","true","false","true","""event"",""trial"",""time""
""fullscreenenter"",""5"",""15212""
","
","
","""event"",""trial"",""time""
""fullscreenenter"",""5"",""15212""
","
","","images/earth.jpg","","","","","","","","","","","","","","fixation","","","","","",""
"d3-animate-choice","246","696703","0.0-76.0-0.37","1443","4971","16","Male","true","true","false","true","""event"",""trial"",""time""
""fullscreenenter"",""5"",""15212""
","
","
","""event"",""trial"",""time""
""fullscreenenter"",""5"",""15212""
","
","379.30000001192093","","48","","","3000","1","","","images/earth.jpg","images/rocket2","images/rocket1","null","images/rocket2","","1","real","null","2","","",""
"d3-animate-choice","247","699163","0.0-76.0-1.37","1443","4971","16","Male","true","true","false","true","""event"",""trial"",""time""
""fullscreenenter"",""5"",""15212""
","
","
","""event"",""trial"",""time""
""fullscreenenter"",""5"",""15212""
