"trial_type","trial_index","time_elapsed","internal_node_id","participant_id","subject_id","age","gender","rocket_sides","red_planet_first_rocket","red_display_order","purple_display_order","interactions","blur_events","focus_events","fullscreenenter_events","fullscreenexit_events","rt","stimulus","key_press","button_pressed","success","duration","valid_pressed","rts","keys","planet_text","right_text","left_text","center_text","chosen_text","reward_text","trial_stage","practice_trial","transition_type","choice","transition","reward","timestamp"
"pavlovia","0","4","0.0-0.0","2952","5491","9","Male","false","true","false","true","
","
","
","
","
","","","","","","","","","","","","","","","","","","","","","",""
"html-keyboard-response","1","1864","0.0-1.0","2952","5491","9","Male","false","true","false","true","
","
","
","
","
","1859.0999999996275","Welcome! Press the space bar to begin.","32","","","","","","","","","","","","","","","","","","",""
"audio-keyboard-response","2","2701","0.0-2.0","2952","5491","9","Male","false","true","false","true","
","
","
","
","
","576","audio/beep_loop.wav","32","","","","","","","","","","","","","","","","","","",""
"audio-button-response","3","11686","0.0-3.0","2952","5491","9","Male","false","true","false","true","
","
","
","
","
","NaN","audio/fish.mp3","","1","","","","","","","","","","","","","","","","","",""
"audio-button-response","4","15787","0.0-4.0","2952","5491","9","Male","false","true","false","true","""event"",""trial"",""time""
""fullscreenenter"",""5"",""20474""
","
","
","""event"",""trial"",""time""
""fullscreenenter"",""5"",""20474""
","
","NaN","audio/tiger.mp3","","4","","","","","","","","","","","","","","","","","",""
"fullscreen","5","21462","0.0-5.0","2952","5491","9","Male","false","true","false","true","""event"",""trial"",""time""
""fullscreenenter"",""5"",""20474""
","
","
","""event"",""trial"",""time""
""fullscreenenter"",""5"",""20474""
","
","","","","","true","","","","","","","","","","","","","","","","",""
"d3-instructions","6","30482","0.0-6.0","2952","5491","9","Male","false","true","false","true","""event"",""trial"",""time""
""fullscreenenter"",""5"",""20474""
","
","
","""event"",""trial"",""time""
""fullscreenenter"",""5"",""20474""
","
","","","","","","","","","","","","","","","","","","","","","",""
"d3-instructions","7","35745","0.0-7.0","2952","5491","9","Male","false","true","false","true","""event"",""trial"",""time""
""fullscreenenter"",""5"",""20474""
","
","
","""event"",""trial"",""time""
""fullscreenenter"",""5"",""20474""
","
","","","","","","","","","","","","","","","","","","","","","",""
"d3-instructions","8","38218","0.0-8.0","2952","5491","9","Male","false","true","false","true","""event"",""trial"",""time""
""fullscreenenter"",""5"",""20474""
","
","
","""event"",""trial"",""time""
""fullscreenenter"",""5"",""20474""
","
","","","","","","","","","","","","","","","","","","","","","",""
"d3-instructions","9","40160","0.0-9.0","2952","5491","9","Male","false","true","false","true","""event"",""trial"",""time""
""fullscreenenter"",""5"",""20474""
","
","
","""event"",""trial"",""time""
""fullscreenenter"",""5"",""20474""
","
","","","","","","","","","","","","","","","","","","","","","",""
"d3-instructions","10","41347","0.0-10.0","2952","5491","9","Male","false","true","false","true","""event"",""trial"",""time""
""fullscreenenter"",""5"",""20474""
","
","
","""event"",""trial"",""time""
""fullscreenenter"",""5"",""20474""
","
","","","","","","","","","","","","","","","","","","","","","",""
"d3-animate-choice","11","46716","0.0-11.0","2952","5491","9","Male","false","true","false","true","""event"",""trial"",""time""
""fullscreenenter"",""5"",""20474""
","
","
","""event"",""trial"",""time""
""fullscreenenter"",""5"",""20474""
","
","3356","","49","","","3000","1","","","images/tutgreenplanet.jpg","images/tutalien1","images/tutalien2","null","images/tutalien2","","NA","practice","null","","","",""
"d3-animate-choice","12","51349","0.0-12.0","2952","5491","9","Male","false","true","false","true","""event"",""trial"",""time""
""fullscreenenter"",""5"",""20474""
","
","
","""event"",""trial"",""time""
""fullscreenenter"",""5"",""20474""
","
","2626.0999999996275","","48","","","3000","1","","","images/tutgreenplanet.jpg","images/tutalien1","images/tutalien2","null","images/tutalien1","","NA","practice","null","","","",""
"d3-animate-choice","13","55226","0.0-13.0","2952","5491","9","Male","false","true","false","true","""event"",""trial"",""time""
""fullscreenenter"",""5"",""20474""
","
","
","""event"",""trial"",""time""
""fullscreenenter"",""5"",""20474""
","
","1864.5999999996275","","49","","","3000","1","3404.5","48","images/tutgreenplanet.jpg","images/tutalien1","images/tutalien2","null","images/tutalien2","","NA","practice","null","","","",""
"d3-animate-choice","14","57635","0.0-14.0","2952","5491","9","Male","false","true","false","true","""event"",""trial"",""time""
""fullscreenenter"",""5"",""20474""
","
","
","""event"",""trial"",""time""
""fullscreenenter"",""5"",""20474""
","
","393.29999999981374","","48","","","3000","1","","","images/tutgreenplanet.jpg","images/tutalien1","images/tutalien2","null","images/tutalien1","","NA","practice","null","","","",""
"d3-instructions","15","63081","0.0-15.0","2952","5491","9","Male","false","true","false","true","""event"",""trial"",""time""
""fullscreenenter"",""5"",""20474""
","
","
","""event"",""trial"",""time""
""fullscreenenter"",""5"",""20474""
","
","","","","","","","","","","","","","","","","","","","","","",""
"d3-instructions","16","66678","0.0-16.0","2952","5491","9","Male","false","true","false","true","""event"",""trial"",""time""
""fullscreenenter"",""5"",""20474""
","
","
","""event"",""trial"",""time""
""fullscreenenter"",""5"",""20474""
","
","","","","","","","","","","","","","","","","","","","","","",""
"d3-instructions","17","68627","0.0-17.0","2952","5491","9","Male","false","true","false","true","""event"",""trial"",""time""
""fullscreenenter"",""5"",""20474""
","
","
","""event"",""trial"",""time""
""fullscreenenter"",""5"",""20474""
","
","","","","","","","","","","","","","","","","","","","","","",""
"d3-instructions","18","73563","0.0-18.0","2952","5491","9","Male","false","true","false","true","""event"",""trial"",""time""
""fullscreenenter"",""5"",""20474""
","
","
","""event"",""trial"",""time""
""fullscreenenter"",""5"",""20474""
","
","","","","","","","","","","","","","","","","","","","","","",""
"d3-instructions","19","79074","0.0-19.0","2952","5491","9","Male","false","true","false","true","""event"",""trial"",""time""
""fullscreenenter"",""5"",""20474""
","
","
","""event"",""trial"",""time""
""fullscreenenter"",""5"",""20474""
","
","","","","","","","","","","","","","","","","","","","","","",""
"d3-animate-choice","20","85019","0.0-20.0","2952","5491","9","Male","false","true","false","true","""event"",""trial"",""time""
""fullscreenenter"",""5"",""20474""
","
","
","""event"",""trial"",""time""
""fullscreenenter"",""5"",""20474""
","
","3936.100000000559","","49","","","3000","1","","","images/tutyellowplanet.jpg","null","images/tutalien3","null","images/tutalien3","images/t.png","NA","practice","null","","","",""
"d3-animate-choice","21","87840","0.0-21.0","2952","5491","9","Male","false","true","false","true","""event"",""trial"",""time""
""fullscreenenter"",""5"",""20474""
","
","
","""event"",""trial"",""time""
""fullscreenenter"",""5"",""20474""
","
","810.0999999996275","","49","","","3000","1","2361.7000000001863","49","images/tutyellowplanet.jpg","null","images/tutalien3","null","images/tutalien3","images/t.png","NA","practice","null","","","",""
"d3-animate-choice","22","90123","0.0-22.0","2952","5491","9","Male","false","true","false","true","""event"",""trial"",""time""
""fullscreenenter"",""5"",""20474""
","
","
","""event"",""trial"",""time""
""fullscreenenter"",""5"",""20474""
","
","270.20000000018626","","49","","","3000","1","446.79999999981374,1979.7999999998137","49,49","images/tutyellowplanet.jpg","null","images/tutalien3","null","images/tutalien3","images/nothing.png","NA","practice","null","","","",""
"d3-animate-choice","23","92565","0.0-23.0","2952","5491","9","Male","false","true","false","true","""event"",""trial"",""time""
""fullscreenenter"",""5"",""20474""
","
","
","""event"",""trial"",""time""
""fullscreenenter"",""5"",""20474""
","
","439.09999999962747","","49","","","3000","1","652.5,784.5999999996275,1949.3999999994412,2210.5999999996275,2430.0999999996275","49,49,49,49,49","images/tutyellowplanet.jpg","null","images/tutalien3","null","images/tutalien3","images/nothing.png","NA","practice","null","","","",""
"d3-animate-choice","24","94664","0.0-24.0","2952","5491","9","Male","false","true","false","true","""event"",""trial"",""time""
""fullscreenenter"",""5"",""20474""
","
","
","""event"",""trial"",""time""
""fullscreenenter"",""5"",""20474""
","
","91.59999999962747","","49","","","3000","1","316.79999999981374,735.7999999998137,1755.2000000001863,1961.4000000003725","49,49,49,49","images/tutyellowplanet.jpg","null","images/tutalien3","null","images/tutalien3","images/nothing.png","NA","practice","null","","","",""
"d3-animate-choice","25","96728","0.0-25.0","2952","5491","9","Male","false","true","false","true","""event"",""trial"",""time""
""fullscreenenter"",""5"",""20474""
","
","
","""event"",""trial"",""time""
""fullscreenenter"",""5"",""20474""
","
","52.5","","49","","","3000","1","323.79999999981374,473.79999999981374,623.5999999996275,777.7999999998137,1596.5,1757.5,1914.8999999994412,2062.899999999441","49,49,49,49,49,49,49,49","images/tutyellowplanet.jpg","null","images/tutalien3","null","images/tutalien3","images/nothing.png","NA","practice","null","","","",""
"d3-animate-choice","26","98965","0.0-26.0","2952","5491","9","Male","false","true","false","true","""event"",""trial"",""time""
""fullscreenenter"",""5"",""20474""
","
","
","""event"",""trial"",""time""
""fullscreenenter"",""5"",""20474""
","
","233.1000000005588","","49","","","3000","1","364.80000000074506,517.1000000005588,649.1000000005588,799.3000000007451,1862.300000000745,2014.800000000745,2172.4000000003725","49,49,49,49,49,49,49","images/tutyellowplanet.jpg","null","images/tutalien3","null","images/tutalien3","images/nothing.png","NA","practice","null","","","",""
"d3-animate-choice","27","101063","0.0-27.0","2952","5491","9","Male","false","true","false","true","""event"",""trial"",""time""
""fullscreenenter"",""5"",""20474""
","
","
","""event"",""trial"",""time""
""fullscreenenter"",""5"",""20474""
","
","81.3999999994412","","49","","","3000","1","234.70000000018626,356.8999999994412,516.8999999994412,660.7000000001863,954,1110.7000000001863,1234.8999999994412,1390,1508.8999999994412,1664.8999999994412,1801.7999999998137,1938.5","49,49,49,49,49,49,49,49,49,49,49,49","images/tutyellowplanet.jpg","null","images/tutalien3","null","images/tutalien3","images/t.png","NA","practice","null","","","",""
"d3-animate-choice","28","103090","0.0-28.0","2952","5491","9","Male","false","true","false","true","""event"",""trial"",""time""
""fullscreenenter"",""5"",""20474""
","
","
","""event"",""trial"",""time""
""fullscreenenter"",""5"",""20474""
","
","3.7999999998137355","","49","","","3000","1","142.09999999962747,275.79999999981374,423.40000000037253,561.2000000001863,709.2000000001863,850.2000000001863,1001.9000000003725,1149.2999999998137,1279.0999999996275,1426.2000000001863,1581.2000000001863,1749.5","49,49,49,49,49,49,49,49,49,49,49,49","images/tutyellowplanet.jpg","null","images/tutalien3","null","images/tutalien3","images/t.png","NA","practice","null","","","",""
"d3-animate-choice","29","105118","0.0-29.0","2952","5491","9","Male","false","true","false","true","""event"",""trial"",""time""
""fullscreenenter"",""5"",""20474""
","
","
","""event"",""trial"",""time""
""fullscreenenter"",""5"",""20474""
","
","22.800000000745058","","49","","","3000","1","171.20000000018626,325.70000000018626,479.20000000018626,623.9000000003725,785.4000000003725,939.1000000005588,1079.2000000001863,1213.4000000003725,1389.6000000005588,1557.7000000001863,1662.6000000005588,1857,2009.300000000745","49,49,49,49,49,49,49,49,49,49,49,49,49","images/tutyellowplanet.jpg","null","images/tutalien3","null","images/tutalien3","images/t.png","NA","practice","null","","","",""
"d3-instructions","30","111117","0.0-30.0","2952","5491","9","Male","false","true","false","true","""event"",""trial"",""time""
""fullscreenenter"",""5"",""20474""
","
","
","""event"",""trial"",""time""
""fullscreenenter"",""5"",""20474""
","
","","","","","","","","","","","","","","","","","","","","","",""
"d3-instructions","31","113336","0.0-31.0","2952","5491","9","Male","false","true","false","true","""event"",""trial"",""time""
""fullscreenenter"",""5"",""20474""
","
","
","""event"",""trial"",""time""
""fullscreenenter"",""5"",""20474""
","
","","","","","","","","","","","","","","","","","","","","","",""
"d3-instructions","32","119815","0.0-32.0","2952","5491","9","Male","false","true","false","true","""event"",""trial"",""time""
""fullscreenenter"",""5"",""20474""
","
","
","""event"",""trial"",""time""
""fullscreenenter"",""5"",""20474""
","
","","","","","","","","","","","","","","","","","","","","","",""
"d3-instructions","33","121348","0.0-33.0","2952","5491","9","Male","false","true","false","true","""event"",""trial"",""time""
""fullscreenenter"",""5"",""20474""
","
","
","""event"",""trial"",""time""
""fullscreenenter"",""5"",""20474""
","
","","","","","","","","","","","","","","","","","","","","","",""
"d3-animate-choice","34","125417","0.0-34.0","2952","5491","9","Male","false","true","false","true","""event"",""trial"",""time""
""fullscreenenter"",""5"",""20474""
","
","
","""event"",""trial"",""time""
""fullscreenenter"",""5"",""20474""
","
","2060.4000000003725","","48","","","3000","1","","","images/tutgreenplanet.jpg","images/tutalien1","images/tutalien2","null","images/tutalien1","images/nothing.png","NA","practice","null","","","",""
"d3-animate-choice","35","128030","0.0-35.0","2952","5491","9","Male","false","true","false","true","""event"",""trial"",""time""
""fullscreenenter"",""5"",""20474""
","
","
","""event"",""trial"",""time""
""fullscreenenter"",""5"",""20474""
","
","597.2999999998137","","49","","","3000","1","","","images/tutgreenplanet.jpg","images/tutalien1","images/tutalien2","null","images/tutalien2","images/nothing.png","NA","practice","null","","","",""
"d3-animate-choice","36","130441","0.0-36.0","2952","5491","9","Male","false","true","false","true","""event"",""trial"",""time""
""fullscreenenter"",""5"",""20474""
","
","
","""event"",""trial"",""time""
""fullscreenenter"",""5"",""20474""
","
","404.5","","49","","","3000","1","","","images/tutgreenplanet.jpg","images/tutalien1","images/tutalien2","null","images/tutalien2","images/t.png","NA","practice","null","","","",""
"d3-animate-choice","37","133841","0.0-37.0","2952","5491","9","Male","false","true","false","true","""event"",""trial"",""time""
""fullscreenenter"",""5"",""20474""
","
","
","""event"",""trial"",""time""
""fullscreenenter"",""5"",""20474""
","
","1392","","48","","","3000","1","","","images/tutgreenplanet.jpg","images/tutalien1","images/tutalien2","null","images/tutalien1","images/nothing.png","NA","practice","null","","","",""
"d3-animate-choice","38","136204","0.0-38.0","2952","5491","9","Male","false","true","false","true","""event"",""trial"",""time""
""fullscreenenter"",""5"",""20474""
","
","
","""event"",""trial"",""time""
""fullscreenenter"",""5"",""20474""
","
","359.09999999962747","","49","","","3000","1","2120.5","49","images/tutgreenplanet.jpg","images/tutalien1","images/tutalien2","null","images/tutalien2","images/t.png","NA","practice","null","","","",""
"d3-animate-choice","39","138518","0.0-39.0","2952","5491","9","Male","false","true","false","true","""event"",""trial"",""time""
""fullscreenenter"",""5"",""20474""
","
","
","""event"",""trial"",""time""
""fullscreenenter"",""5"",""20474""
","
","310.20000000018626","","49","","","3000","1","","","images/tutgreenplanet.jpg","images/tutalien1","images/tutalien2","null","images/tutalien2","images/t.png","NA","practice","null","","","",""
"d3-animate-choice","40","140830","0.0-40.0","2952","5491","9","Male","false","true","false","true","""event"",""trial"",""time""
""fullscreenenter"",""5"",""20474""
","
","
","""event"",""trial"",""time""
""fullscreenenter"",""5"",""20474""
","
","307.70000000018626","","49","","","3000","1","","","images/tutgreenplanet.jpg","images/tutalien1","images/tutalien2","null","images/tutalien2","images/t.png","NA","practice","null","","","",""
"d3-animate-choice","41","142857","0.0-41.0","2952","5491","9","Male","false","true","false","true","""event"",""trial"",""time""
""fullscreenenter"",""5"",""20474""
","
","
","""event"",""trial"",""time""
""fullscreenenter"",""5"",""20474""
","
","8.200000000186265","","49","","","3000","1","1560.2999999998137,1940.2999999998137","49,49","images/tutgreenplanet.jpg","images/tutalien1","images/tutalien2","null","images/tutalien2","images/t.png","NA","practice","null","","","",""
"d3-animate-choice","42","145045","0.0-42.0","2952","5491","9","Male","false","true","false","true","""event"",""trial"",""time""
""fullscreenenter"",""5"",""20474""
","
","
","""event"",""trial"",""time""
""fullscreenenter"",""5"",""20474""
","
","175.79999999981374","","49","","","3000","1","1716.7000000001863,1901.2999999998137","49,49","images/tutgreenplanet.jpg","images/tutalien1","images/tutalien2","null","images/tutalien2","images/t.png","NA","practice","null","","","",""
"d3-animate-choice","43","147099","0.0-43.0","2952","5491","9","Male","false","true","false","true","""event"",""trial"",""time""
""fullscreenenter"",""5"",""20474""
","
","
","""event"",""trial"",""time""
""fullscreenenter"",""5"",""20474""
","
","44.700000000186265","","49","","","3000","1","298.5,508.5,1553.7999999998137,1778.7999999998137,1977.0999999996275","49,49,49,49,49","images/tutgreenplanet.jpg","images/tutalien1","images/tutalien2","null","images/tutalien2","images/t.png","NA","practice","null","","","",""
"d3-instructions","44","150086","0.0-44.0","2952","5491","9","Male","false","true","false","true","""event"",""trial"",""time""
""fullscreenenter"",""5"",""20474""
","
","
","""event"",""trial"",""time""
""fullscreenenter"",""5"",""20474""
","
","","","","","","","","","","","","","","","","","","","","","",""
"d3-instructions","45","153665","0.0-45.0","2952","5491","9","Male","false","true","false","true","""event"",""trial"",""time""
""fullscreenenter"",""5"",""20474""
","
","
","""event"",""trial"",""time""
""fullscreenenter"",""5"",""20474""
","
","","","","","","","","","","","","","","","","","","","","","",""
"d3-instructions","46","155438","0.0-46.0","2952","5491","9","Male","false","true","false","true","""event"",""trial"",""time""
""fullscreenenter"",""5"",""20474""
","
","
","""event"",""trial"",""time""
""fullscreenenter"",""5"",""20474""
","
","","","","","","","","","","","","","","","","","","","","","",""
"d3-instructions","47","160613","0.0-47.0","2952","5491","9","Male","false","true","false","true","""event"",""trial"",""time""
""fullscreenenter"",""5"",""20474""
","
","
","""event"",""trial"",""time""
""fullscreenenter"",""5"",""20474""
","
","","","","","","","","","","","","","","","","","","","","","",""
"d3-instructions","48","162455","0.0-48.0","2952","5491","9","Male","false","true","false","true","""event"",""trial"",""time""
""fullscreenenter"",""5"",""20474""
","
","
","""event"",""trial"",""time""
""fullscreenenter"",""5"",""20474""
","
","","","","","","","","","","","","","","","","","","","","","",""
"d3-instructions","49","163730","0.0-49.0","2952","5491","9","Male","false","true","false","true","""event"",""trial"",""time""
""fullscreenenter"",""5"",""20474""
","
","
","""event"",""trial"",""time""
""fullscreenenter"",""5"",""20474""
","
","","","","","","","","","","","","","","","","","","","","","",""
"d3-instructions","50","165145","0.0-50.0","2952","5491","9","Male","false","true","false","true","""event"",""trial"",""time""
""fullscreenenter"",""5"",""20474""
","
","
","""event"",""trial"",""time""
""fullscreenenter"",""5"",""20474""
","
","","","","","","","","","","","","","","","","","","","","","",""
"d3-instructions","51","166985","0.0-51.0","2952","5491","9","Male","false","true","false","true","""event"",""trial"",""time""
""fullscreenenter"",""5"",""20474""
","
","
","""event"",""trial"",""time""
""fullscreenenter"",""5"",""20474""
","
","","","","","","","","","","","","","","","","","","","","","",""
"d3-instructions","52","168615","0.0-52.0","2952","5491","9","Male","false","true","false","true","""event"",""trial"",""time""
""fullscreenenter"",""5"",""20474""
","
","
","""event"",""trial"",""time""
""fullscreenenter"",""5"",""20474""
","
","","","","","","","","","","","","","","","","","","","","","",""
"d3-instructions","53","182096","0.0-53.0","2952","5491","9","Male","false","true","false","true","""event"",""trial"",""time""
""fullscreenenter"",""5"",""20474""
","
","
","""event"",""trial"",""time""
""fullscreenenter"",""5"",""20474""
","
","","","","","","","","","","","","","","","","","","","","","",""
"d3-instructions","54","186362","0.0-54.0","2952","5491","9","Male","false","true","false","true","""event"",""trial"",""time""
""fullscreenenter"",""5"",""20474""
","
","
","""event"",""trial"",""time""
""fullscreenenter"",""5"",""20474""
","
","","","","","","","","","","","","","","","","","","","","","",""
"d3-instructions","55","191774","0.0-55.0","2952","5491","9","Male","false","true","false","true","""event"",""trial"",""time""
""fullscreenenter"",""5"",""20474""
","
","
","""event"",""trial"",""time""
""fullscreenenter"",""5"",""20474""
","
","","","","","","","","","","","","","","","","","","","","","",""
"d3-instructions","56","194301","0.0-56.0","2952","5491","9","Male","false","true","false","true","""event"",""trial"",""time""
""fullscreenenter"",""5"",""20474""
","
","
","""event"",""trial"",""time""
""fullscreenenter"",""5"",""20474""
","
","","","","","","","","","","","","","","","","","","","","","",""
"d3-instructions","57","196544","0.0-57.0","2952","5491","9","Male","false","true","false","true","""event"",""trial"",""time""
""fullscreenenter"",""5"",""20474""
","
","
","""event"",""trial"",""time""
""fullscreenenter"",""5"",""20474""
","
","","","","","","","","","","","","","","","","","","","","","",""
"d3-instructions","58","202252","0.0-58.0","2952","5491","9","Male","false","true","false","true","""event"",""trial"",""time""
""fullscreenenter"",""5"",""20474""
","
","
","""event"",""trial"",""time""
""fullscreenenter"",""5"",""20474""
","
","","","","","","","","","","","","","","","","","","","","","",""
"d3-instructions","59","216714","0.0-59.0","2952","5491","9","Male","false","true","false","true","""event"",""trial"",""time""
""fullscreenenter"",""5"",""20474""
","
","
","""event"",""trial"",""time""
""fullscreenenter"",""5"",""20474""
","
","","","","","","","","","","","","","","","","","","","","","",""
"d3-instructions","60","225317","0.0-60.0","2952","5491","9","Male","false","true","false","true","""event"",""trial"",""time""
""fullscreenenter"",""5"",""20474""
","
","
","""event"",""trial"",""time""
""fullscreenenter"",""5"",""20474""
","
","","","","","","","","","","","","","","","","","","","","","",""
"d3-animate-choice","61","228144","0.0-61.0-0.0","2952","5491","9","Male","false","true","false","true","""event"",""trial"",""time""
""fullscreenenter"",""5"",""20474""
","
","
","""event"",""trial"",""time""
""fullscreenenter"",""5"",""20474""
","
","819.7999999998137","","48","","","3000","1","","","images/earth.jpg","images/tutrocket1","images/tutrocket2","null","images/tutrocket1","","1","practice","null","2","","",""
"d3-animate-choice","62","231409","0.0-61.0-1.0","2952","5491","9","Male","false","true","false","true","""event"",""trial"",""time""
""fullscreenenter"",""5"",""20474""
","
","
","""event"",""trial"",""time""
""fullscreenenter"",""5"",""20474""
","
","1255.8999999994412","","49","","","3000","1","","","images/tutyellowplanet.jpg","images/tutalien4","images/tutalien3","images/tutrocket1","images/tutalien3","images/t.png","2","practice","false","1","rare","1","2022-12-26 05:51:40.182"
"two-step-fixation","63","232417","0.0-61.0-2.0","2952","5491","9","Male","false","true","false","true","""event"",""trial"",""time""
""fullscreenenter"",""5"",""20474""
","
","
","""event"",""trial"",""time""
""fullscreenenter"",""5"",""20474""
","
","","images/earth.jpg","","","","","","","","","","","","","","fixation","","","","","",""
"d3-animate-choice","64","235367","0.0-61.0-0.1","2952","5491","9","Male","false","true","false","true","""event"",""trial"",""time""
""fullscreenenter"",""5"",""20474""
","
","
","""event"",""trial"",""time""
""fullscreenenter"",""5"",""20474""
","
","933.5999999996275","","48","","","3000","1","","","images/earth.jpg","images/tutrocket1","images/tutrocket2","null","images/tutrocket1","","1","practice","null","2","","",""
"d3-animate-choice","65","238742","0.0-61.0-1.1","2952","5491","9","Male","false","true","false","true","""event"",""trial"",""time""
""fullscreenenter"",""5"",""20474""
","
","
","""event"",""trial"",""time""
""fullscreenenter"",""5"",""20474""
","
","1359.2000000001863","","48","","","3000","1","","","images/tutgreenplanet.jpg","images/tutalien2","images/tutalien1","images/tutrocket1","images/tutalien2","images/t.png","2","practice","true","2","common","1","2022-12-26 05:51:47.515"
"two-step-fixation","66","239755","0.0-61.0-2.1","2952","5491","9","Male","false","true","false","true","""event"",""trial"",""time""
""fullscreenenter"",""5"",""20474""
","
","
","""event"",""trial"",""time""
""fullscreenenter"",""5"",""20474""
","
","","images/earth.jpg","","","","","","","","","","","","","","fixation","","","","","",""
"d3-animate-choice","67","242210","0.0-61.0-0.2","2952","5491","9","Male","false","true","false","true","""event"",""trial"",""time""
""fullscreenenter"",""5"",""20474""
","
","
","""event"",""trial"",""time""
""fullscreenenter"",""5"",""20474""
","
","443.1000000005588","","48","","","3000","1","","","images/earth.jpg","images/tutrocket1","images/tutrocket2","null","images/tutrocket1","","1","practice","null","2","","",""
"d3-animate-choice","68","244813","0.0-61.0-1.2","2952","5491","9","Male","false","true","false","true","""event"",""trial"",""time""
""fullscreenenter"",""5"",""20474""
","
","
","""event"",""trial"",""time""
""fullscreenenter"",""5"",""20474""
","
","589.4000000003725","","49","","","3000","1","","","images/tutgreenplanet.jpg","images/tutalien2","images/tutalien1","images/tutrocket1","images/tutalien1","images/nothing.png","2","practice","true","1","common","0","2022-12-26 05:51:53.587"
"two-step-fixation","69","245822","0.0-61.0-2.2","2952","5491","9","Male","false","true","false","true","""event"",""trial"",""time""
""fullscreenenter"",""5"",""20474""
","
","
","""event"",""trial"",""time""
""fullscreenenter"",""5"",""20474""
","
","","images/earth.jpg","","","","","","","","","","","","","","fixation","","","","","",""
"d3-animate-choice","70","248195","0.0-61.0-0.3","2952","5491","9","Male","false","true","false","true","""event"",""trial"",""time""
""fullscreenenter"",""5"",""20474""
","
","
","""event"",""trial"",""time""
""fullscreenenter"",""5"",""20474""
","
","364","","48","","","3000","1","","","images/earth.jpg","images/tutrocket1","images/tutrocket2","null","images/tutrocket1","","1","practice","null","2","","",""
"d3-animate-choice","71","251430","0.0-61.0-1.3","2952","5491","9","Male","false","true","false","true","""event"",""trial"",""time""
""fullscreenenter"",""5"",""20474""
","
","
","""event"",""trial"",""time""
""fullscreenenter"",""5"",""20474""
","
","1223.1000000005588","","48","","","3000","1","","","images/tutyellowplanet.jpg","images/tutalien4","images/tutalien3","images/tutrocket1","images/tutalien4","images/nothing.png","2","practice","false","2","rare","0","2022-12-26 05:52:00.203"
"two-step-fixation","72","252446","0.0-61.0-2.3","2952","5491","9","Male","false","true","false","true","""event"",""trial"",""time""
""fullscreenenter"",""5"",""20474""
","
","
","""event"",""trial"",""time""
""fullscreenenter"",""5"",""20474""
","
","","images/earth.jpg","","","","","","","","","","","","","","fixation","","","","","",""
"d3-animate-choice","73","254846","0.0-61.0-0.4","2952","5491","9","Male","false","true","false","true","""event"",""trial"",""time""
""fullscreenenter"",""5"",""20474""
","
","
","""event"",""trial"",""time""
""fullscreenenter"",""5"",""20474""
","
","390.90000000037253","","48","","","3000","1","","","images/earth.jpg","images/tutrocket1","images/tutrocket2","null","images/tutrocket1","","1","practice","null","2","","",""
"d3-animate-choice","74","258201","0.0-61.0-1.4","2952","5491","9","Male","false","true","false","true","""event"",""trial"",""time""
""fullscreenenter"",""5"",""20474""
","
","
","""event"",""trial"",""time""
""fullscreenenter"",""5"",""20474""
","
","1346.7000000001863","","48","","","3000","1","","","images/tutgreenplanet.jpg","images/tutalien2","images/tutalien1","images/tutrocket1","images/tutalien2","images/nothing.png","2","practice","true","2","common","0","2022-12-26 05:52:06.974"
"two-step-fixation","75","259209","0.0-61.0-2.4","2952","5491","9","Male","false","true","false","true","""event"",""trial"",""time""
""fullscreenenter"",""5"",""20474""
","
","
","""event"",""trial"",""time""
""fullscreenenter"",""5"",""20474""
","
","","images/earth.jpg","","","","","","","","","","","","","","fixation","","","","","",""
"d3-animate-choice","76","261954","0.0-61.0-0.5","2952","5491","9","Male","false","true","false","true","""event"",""trial"",""time""
""fullscreenenter"",""5"",""20474""
","
","
","""event"",""trial"",""time""
""fullscreenenter"",""5"",""20474""
","
","737.2000000001863","","48","","","3000","1","","","images/earth.jpg","images/tutrocket1","images/tutrocket2","null","images/tutrocket1","","1","practice","null","2","","",""
"d3-animate-choice","77","265812","0.0-61.0-1.5","2952","5491","9","Male","false","true","false","true","""event"",""trial"",""time""
""fullscreenenter"",""5"",""20474""
","
","
","""event"",""trial"",""time""
""fullscreenenter"",""5"",""20474""
","
","1850.1000000005588","","49","","","3000","1","","","images/tutgreenplanet.jpg","images/tutalien2","images/tutalien1","images/tutrocket1","images/tutalien1","images/nothing.png","2","practice","true","1","common","0","2022-12-26 05:52:14.585"
"two-step-fixation","78","266817","0.0-61.0-2.5","2952","5491","9","Male","false","true","false","true","""event"",""trial"",""time""
""fullscreenenter"",""5"",""20474""
","
","
","""event"",""trial"",""time""
""fullscreenenter"",""5"",""20474""
","
","","images/earth.jpg","","","","","","","","","","","","","","fixation","","","","","",""
"d3-animate-choice","79","269435","0.0-61.0-0.6","2952","5491","9","Male","false","true","false","true","""event"",""trial"",""time""
""fullscreenenter"",""5"",""20474""
","
","
","""event"",""trial"",""time""
""fullscreenenter"",""5"",""20474""
","
","609.7999999998137","","49","","","3000","1","","","images/earth.jpg","images/tutrocket1","images/tutrocket2","null","images/tutrocket2","","1","practice","null","1","","",""
"d3-animate-choice","80","271963","0.0-61.0-1.6","2952","5491","9","Male","false","true","false","true","""event"",""trial"",""time""
""fullscreenenter"",""5"",""20474""
","
","
","""event"",""trial"",""time""
""fullscreenenter"",""5"",""20474""
","
","521","","48","","","3000","1","","","images/tutyellowplanet.jpg","images/tutalien4","images/tutalien3","images/tutrocket2","images/tutalien4","images/t.png","2","practice","true","2","common","1","2022-12-26 05:52:20.736"
"two-step-fixation","81","272970","0.0-61.0-2.6","2952","5491","9","Male","false","true","false","true","""event"",""trial"",""time""
""fullscreenenter"",""5"",""20474""
","
","
","""event"",""trial"",""time""
""fullscreenenter"",""5"",""20474""
","
","","images/earth.jpg","","","","","","","","","","","","","","fixation","","","","","",""
"d3-animate-choice","82","275403","0.0-61.0-0.7","2952","5491","9","Male","false","true","false","true","""event"",""trial"",""time""
""fullscreenenter"",""5"",""20474""
","
","
","""event"",""trial"",""time""
""fullscreenenter"",""5"",""20474""
","
","423.30000000074506","","49","","","3000","1","","","images/earth.jpg","images/tutrocket1","images/tutrocket2","null","images/tutrocket2","","1","practice","null","1","","",""
"d3-animate-choice","83","277936","0.0-61.0-1.7","2952","5491","9","Male","false","true","false","true","""event"",""trial"",""time""
""fullscreenenter"",""5"",""20474""
","
","
","""event"",""trial"",""time""
""fullscreenenter"",""5"",""20474""
","
","517.5","","48","","","3000","1","","","images/tutyellowplanet.jpg","images/tutalien4","images/tutalien3","images/tutrocket2","images/tutalien4","images/nothing.png","2","practice","true","2","common","0","2022-12-26 05:52:26.709"
"two-step-fixation","84","278941","0.0-61.0-2.7","2952","5491","9","Male","false","true","false","true","""event"",""trial"",""time""
""fullscreenenter"",""5"",""20474""
","
","
","""event"",""trial"",""time""
""fullscreenenter"",""5"",""20474""
","
","","images/earth.jpg","","","","","","","","","","","","","","fixation","","","","","",""
"d3-animate-choice","85","281252","0.0-61.0-0.8","2952","5491","9","Male","false","true","false","true","""event"",""trial"",""time""
""fullscreenenter"",""5"",""20474""
","
","
","""event"",""trial"",""time""
""fullscreenenter"",""5"",""20474""
","
","302.20000000018626","","49","","","3000","1","","","images/earth.jpg","images/tutrocket1","images/tutrocket2","null","images/tutrocket2","","1","practice","null","1","","",""
"d3-animate-choice","86","284204","0.0-61.0-1.8","2952","5491","9","Male","false","true","false","true","""event"",""trial"",""time""
""fullscreenenter"",""5"",""20474""
","
","
","""event"",""trial"",""time""
""fullscreenenter"",""5"",""20474""
","
","943.5999999996275","","49","","","3000","1","","","images/tutyellowplanet.jpg","images/tutalien4","images/tutalien3","images/tutrocket2","images/tutalien3","images/t.png","2","practice","true","1","common","1","2022-12-26 05:52:32.978"
"two-step-fixation","87","285213","0.0-61.0-2.8","2952","5491","9","Male","false","true","false","true","""event"",""trial"",""time""
""fullscreenenter"",""5"",""20474""
","
","
","""event"",""trial"",""time""
""fullscreenenter"",""5"",""20474""
","
","","images/earth.jpg","","","","","","","","","","","","","","fixation","","","","","",""
"d3-animate-choice","88","287546","0.0-61.0-0.9","2952","5491","9","Male","false","true","false","true","""event"",""trial"",""time""
""fullscreenenter"",""5"",""20474""
","
","
","""event"",""trial"",""time""
""fullscreenenter"",""5"",""20474""
","
","324.70000000018626","","49","","","3000","1","","","images/earth.jpg","images/tutrocket1","images/tutrocket2","null","images/tutrocket2","","1","practice","null","1","","",""
"d3-animate-choice","89","290009","0.0-61.0-1.9","2952","5491","9","Male","false","true","false","true","""event"",""trial"",""time""
""fullscreenenter"",""5"",""20474""
","
","
","""event"",""trial"",""time""
""fullscreenenter"",""5"",""20474""
","
","458.40000000037253","","49","","","3000","1","","","images/tutgreenplanet.jpg","images/tutalien2","images/tutalien1","images/tutrocket2","images/tutalien1","images/t.png","2","practice","false","1","rare","1","2022-12-26 05:52:38.782"
"two-step-fixation","90","291019","0.0-61.0-2.9","2952","5491","9","Male","false","true","false","true","""event"",""trial"",""time""
""fullscreenenter"",""5"",""20474""
","
","
","""event"",""trial"",""time""
""fullscreenenter"",""5"",""20474""
","
","","images/earth.jpg","","","","","","","","","","","","","","fixation","","","","","",""
"d3-animate-choice","91","293386","0.0-61.0-0.10","2952","5491","9","Male","false","true","false","true","""event"",""trial"",""time""
""fullscreenenter"",""5"",""20474""
","
","
","""event"",""trial"",""time""
""fullscreenenter"",""5"",""20474""
","
","357.3999999994412","","49","","","3000","1","","","images/earth.jpg","images/tutrocket1","images/tutrocket2","null","images/tutrocket2","","1","practice","null","1","","",""
"d3-animate-choice","92","295764","0.0-61.0-1.10","2952","5491","9","Male","false","true","false","true","""event"",""trial"",""time""
""fullscreenenter"",""5"",""20474""
","
","
","""event"",""trial"",""time""
""fullscreenenter"",""5"",""20474""
","
","363.1000000005588","","49","","","3000","1","","","images/tutgreenplanet.jpg","images/tutalien2","images/tutalien1","images/tutrocket2","images/tutalien1","images/t.png","2","practice","false","1","rare","1","2022-12-26 05:52:44.538"
"two-step-fixation","93","296775","0.0-61.0-2.10","2952","5491","9","Male","false","true","false","true","""event"",""trial"",""time""
""fullscreenenter"",""5"",""20474""
","
","
","""event"",""trial"",""time""
""fullscreenenter"",""5"",""20474""
","
","","images/earth.jpg","","","","","","","","","","","","","","fixation","","","","","",""
"d3-animate-choice","94","299079","0.0-61.0-0.11","2952","5491","9","Male","false","true","false","true","""event"",""trial"",""time""
""fullscreenenter"",""5"",""20474""
","
","
","""event"",""trial"",""time""
""fullscreenenter"",""5"",""20474""
","
","290.1000000005588","","49","","","3000","1","550.2000000001863","48","images/earth.jpg","images/tutrocket1","images/tutrocket2","null","images/tutrocket2","","1","practice","null","1","","",""
"d3-animate-choice","95","301719","0.0-61.0-1.11","2952","5491","9","Male","false","true","false","true","""event"",""trial"",""time""
""fullscreenenter"",""5"",""20474""
","
","
","""event"",""trial"",""time""
""fullscreenenter"",""5"",""20474""
","
","625.5","","49","","","3000","1","","","images/tutyellowplanet.jpg","images/tutalien4","images/tutalien3","images/tutrocket2","images/tutalien3","images/nothing.png","2","practice","true","1","common","0","2022-12-26 05:52:50.492"
"two-step-fixation","96","302730","0.0-61.0-2.11","2952","5491","9","Male","false","true","false","true","""event"",""trial"",""time""
""fullscreenenter"",""5"",""20474""
","
","
","""event"",""trial"",""time""
""fullscreenenter"",""5"",""20474""
","
","","images/earth.jpg","","","","","","","","","","","","","","fixation","","","","","",""
"d3-animate-choice","97","305564","0.0-61.0-0.12","2952","5491","9","Male","false","true","false","true","""event"",""trial"",""time""
""fullscreenenter"",""5"",""20474""
","
","
","""event"",""trial"",""time""
""fullscreenenter"",""5"",""20474""
","
","826.5","","49","","","3000","1","","","images/earth.jpg","images/tutrocket1","images/tutrocket2","null","images/tutrocket2","","1","practice","null","1","","",""
"d3-animate-choice","98","307994","0.0-61.0-1.12","2952","5491","9","Male","false","true","false","true","""event"",""trial"",""time""
""fullscreenenter"",""5"",""20474""
","
","
","""event"",""trial"",""time""
""fullscreenenter"",""5"",""20474""
","
","419","","48","","","3000","1","","","images/tutyellowplanet.jpg","images/tutalien4","images/tutalien3","images/tutrocket2","images/tutalien4","images/t.png","2","practice","true","2","common","1","2022-12-26 05:52:56.768"
"two-step-fixation","99","309000","0.0-61.0-2.12","2952","5491","9","Male","false","true","false","true","""event"",""trial"",""time""
""fullscreenenter"",""5"",""20474""
","
","
","""event"",""trial"",""time""
""fullscreenenter"",""5"",""20474""
","
","","images/earth.jpg","","","","","","","","","","","","","","fixation","","","","","",""
"d3-animate-choice","100","311380","0.0-61.0-0.13","2952","5491","9","Male","false","true","false","true","""event"",""trial"",""time""
""fullscreenenter"",""5"",""20474""
","
","
","""event"",""trial"",""time""
""fullscreenenter"",""5"",""20474""
","
","376.5","","49","","","3000","1","","","images/earth.jpg","images/tutrocket1","images/tutrocket2","null","images/tutrocket2","","1","practice","null","1","","",""
"d3-animate-choice","101","314664","0.0-61.0-1.13","2952","5491","9","Male","false","true","false","true","""event"",""trial"",""time""
""fullscreenenter"",""5"",""20474""
","
","
","""event"",""trial"",""time""
""fullscreenenter"",""5"",""20474""
","
","1272.2000000001863","","48","","","3000","1","","","images/tutgreenplanet.jpg","images/tutalien2","images/tutalien1","images/tutrocket2","images/tutalien2","images/nothing.png","2","practice","false","2","rare","0","2022-12-26 05:53:03.437"
"two-step-fixation","102","315672","0.0-61.0-2.13","2952","5491","9","Male","false","true","false","true","""event"",""trial"",""time""
""fullscreenenter"",""5"",""20474""
","
","
","""event"",""trial"",""time""
""fullscreenenter"",""5"",""20474""
","
","","images/earth.jpg","","","","","","","","","","","","","","fixation","","","","","",""
"d3-animate-choice","103","317976","0.0-61.0-0.14","2952","5491","9","Male","false","true","false","true","""event"",""trial"",""time""
""fullscreenenter"",""5"",""20474""
","
","
","""event"",""trial"",""time""
""fullscreenenter"",""5"",""20474""
","
","288.1000000005588","","48","","","3000","1","","","images/earth.jpg","images/tutrocket1","images/tutrocket2","null","images/tutrocket1","","1","practice","null","2","","",""
"d3-animate-choice","104","321159","0.0-61.0-1.14","2952","5491","9","Male","false","true","false","true","""event"",""trial"",""time""
""fullscreenenter"",""5"",""20474""
","
","
","""event"",""trial"",""time""
""fullscreenenter"",""5"",""20474""
","
","1176.0999999996275","","49","","","3000","1","","","images/tutgreenplanet.jpg","images/tutalien2","images/tutalien1","images/tutrocket1","images/tutalien1","images/nothing.png","2","practice","true","1","common","0","2022-12-26 05:53:09.932"
"two-step-fixation","105","322175","0.0-61.0-2.14","2952","5491","9","Male","false","true","false","true","""event"",""trial"",""time""
""fullscreenenter"",""5"",""20474""
","
","
","""event"",""trial"",""time""
""fullscreenenter"",""5"",""20474""
","
","","images/earth.jpg","","","","","","","","","","","","","","fixation","","","","","",""
"d3-animate-choice","106","325447","0.0-61.0-0.15","2952","5491","9","Male","false","true","false","true","""event"",""trial"",""time""
""fullscreenenter"",""5"",""20474""
","
","
","""event"",""trial"",""time""
""fullscreenenter"",""5"",""20474""
","
","1255.5","","49","","","3000","1","","","images/earth.jpg","images/tutrocket1","images/tutrocket2","null","images/tutrocket2","","1","practice","null","1","","",""
"d3-animate-choice","107","328141","0.0-61.0-1.15","2952","5491","9","Male","false","true","false","true","""event"",""trial"",""time""
""fullscreenenter"",""5"",""20474""
","
","
","""event"",""trial"",""time""
""fullscreenenter"",""5"",""20474""
","
","680.5","","48","","","3000","1","","","images/tutyellowplanet.jpg","images/tutalien4","images/tutalien3","images/tutrocket2","images/tutalien4","images/t.png","2","practice","true","2","common","1","2022-12-26 05:53:16.914"
"two-step-fixation","108","329149","0.0-61.0-2.15","2952","5491","9","Male","false","true","false","true","""event"",""trial"",""time""
""fullscreenenter"",""5"",""20474""
","
","
","""event"",""trial"",""time""
""fullscreenenter"",""5"",""20474""
","
","","images/earth.jpg","","","","","","","","","","","","","","fixation","","","","","",""
"d3-animate-choice","109","331721","0.0-61.0-0.16","2952","5491","9","Male","false","true","false","true","""event"",""trial"",""time""
""fullscreenenter"",""5"",""20474""
","
","
","""event"",""trial"",""time""
""fullscreenenter"",""5"",""20474""
","
","561.2000000001863","","49","","","3000","1","","","images/earth.jpg","images/tutrocket1","images/tutrocket2","null","images/tutrocket2","","1","practice","null","1","","",""
"d3-animate-choice","110","334180","0.0-61.0-1.16","2952","5491","9","Male","false","true","false","true","""event"",""trial"",""time""
""fullscreenenter"",""5"",""20474""
","
","
","""event"",""trial"",""time""
""fullscreenenter"",""5"",""20474""
","
","451.5","","48","","","3000","1","","","images/tutyellowplanet.jpg","images/tutalien4","images/tutalien3","images/tutrocket2","images/tutalien4","images/t.png","2","practice","true","2","common","1","2022-12-26 05:53:22.953"
"two-step-fixation","111","335188","0.0-61.0-2.16","2952","5491","9","Male","false","true","false","true","""event"",""trial"",""time""
""fullscreenenter"",""5"",""20474""
","
","
","""event"",""trial"",""time""
""fullscreenenter"",""5"",""20474""
","
","","images/earth.jpg","","","","","","","","","","","","","","fixation","","","","","",""
"d3-animate-choice","112","337622","0.0-61.0-0.17","2952","5491","9","Male","false","true","false","true","""event"",""trial"",""time""
""fullscreenenter"",""5"",""20474""
","
","
","""event"",""trial"",""time""
""fullscreenenter"",""5"",""20474""
","
","422.09999999962747","","49","","","3000","1","","","images/earth.jpg","images/tutrocket1","images/tutrocket2","null","images/tutrocket2","","1","practice","null","1","","",""
"d3-animate-choice","113","341645","0.0-61.0-1.17","2952","5491","9","Male","false","true","false","true","""event"",""trial"",""time""
""fullscreenenter"",""5"",""20474""
","
","
","""event"",""trial"",""time""
""fullscreenenter"",""5"",""20474""
","
","2141.5999999996275","","49","","","3000","1","","","images/tutgreenplanet.jpg","images/tutalien2","images/tutalien1","images/tutrocket2","images/tutalien1","images/nothing.png","2","practice","false","1","rare","0","2022-12-26 05:53:30.418"
"two-step-fixation","114","342653","0.0-61.0-2.17","2952","5491","9","Male","false","true","false","true","""event"",""trial"",""time""
""fullscreenenter"",""5"",""20474""
","
","
","""event"",""trial"",""time""
""fullscreenenter"",""5"",""20474""
","
","","images/earth.jpg","","","","","","","","","","","","","","fixation","","","","","",""
"d3-animate-choice","115","345205","0.0-61.0-0.18","2952","5491","9","Male","false","true","false","true","""event"",""trial"",""time""
""fullscreenenter"",""5"",""20474""
","
","
","""event"",""trial"",""time""
""fullscreenenter"",""5"",""20474""
","
","536.7999999998137","","48","","","3000","1","","","images/earth.jpg","images/tutrocket1","images/tutrocket2","null","images/tutrocket1","","1","practice","null","2","","",""
"d3-animate-choice","116","348108","0.0-61.0-1.18","2952","5491","9","Male","false","true","false","true","""event"",""trial"",""time""
""fullscreenenter"",""5"",""20474""
","
","
","""event"",""trial"",""time""
""fullscreenenter"",""5"",""20474""
","
","895.3999999994412","","48","","","3000","1","","","images/tutyellowplanet.jpg","images/tutalien4","images/tutalien3","images/tutrocket1","images/tutalien4","images/nothing.png","2","practice","false","2","rare","0","2022-12-26 05:53:36.881"
"two-step-fixation","117","349113","0.0-61.0-2.18","2952","5491","9","Male","false","true","false","true","""event"",""trial"",""time""
""fullscreenenter"",""5"",""20474""
","
","
","""event"",""trial"",""time""
""fullscreenenter"",""5"",""20474""
","
","","images/earth.jpg","","","","","","","","","","","","","","fixation","","","","","",""
"d3-animate-choice","118","351656","0.0-61.0-0.19","2952","5491","9","Male","false","true","false","true","""event"",""trial"",""time""
""fullscreenenter"",""5"",""20474""
","
","
","""event"",""trial"",""time""
""fullscreenenter"",""5"",""20474""
","
","535.0999999996275","","49","","","3000","1","","","images/earth.jpg","images/tutrocket1","images/tutrocket2","null","images/tutrocket2","","1","practice","null","1","","",""
"d3-animate-choice","119","355422","0.0-61.0-1.19","2952","5491","9","Male","false","true","false","true","""event"",""trial"",""time""
""fullscreenenter"",""5"",""20474""
","
","
","""event"",""trial"",""time""
""fullscreenenter"",""5"",""20474""
","
","1749.5","","48","","","3000","1","","","images/tutyellowplanet.jpg","images/tutalien4","images/tutalien3","images/tutrocket2","images/tutalien4","images/t.png","2","practice","true","2","common","1","2022-12-26 05:53:44.196"
"two-step-fixation","120","356436","0.0-61.0-2.19","2952","5491","9","Male","false","true","false","true","""event"",""trial"",""time""
""fullscreenenter"",""5"",""20474""
","
","
","""event"",""trial"",""time""
""fullscreenenter"",""5"",""20474""
","
","","images/earth.jpg","","","","","","","","","","","","","","fixation","","","","","",""
"d3-instructions","121","360536","0.0-62.0","2952","5491","9","Male","false","true","false","true","""event"",""trial"",""time""
""fullscreenenter"",""5"",""20474""
","
","
","""event"",""trial"",""time""
""fullscreenenter"",""5"",""20474""
","
","","","","","","","","","","","","","","","","","","","","","",""
"audio-keyboard-response","122","362895","0.0-63.0","2952","5491","9","Male","false","true","false","true","""event"",""trial"",""time""
""fullscreenenter"",""5"",""20474""
","
","
","""event"",""trial"",""time""
""fullscreenenter"",""5"",""20474""
","
","2357","audio/instructions/treasure_feedback.wav","32","","","","","","","","","","","","","","","","","","",""
"d3-instructions","123","365340","0.0-64.0","2952","5491","9","Male","false","true","false","true","""event"",""trial"",""time""
""fullscreenenter"",""5"",""20474""
","
","
","""event"",""trial"",""time""
""fullscreenenter"",""5"",""20474""
","
","","","","","","","","","","","","","","","","","","","","","",""
"d3-instructions","124","369690","0.0-65.0","2952","5491","9","Male","false","true","false","true","""event"",""trial"",""time""
""fullscreenenter"",""5"",""20474""
","
","
","""event"",""trial"",""time""
""fullscreenenter"",""5"",""20474""
","
","","","","","","","","","","","","","","","","","","","","","",""
"d3-instructions","125","371430","0.0-66.0","2952","5491","9","Male","false","true","false","true","""event"",""trial"",""time""
""fullscreenenter"",""5"",""20474""
","
","
","""event"",""trial"",""time""
""fullscreenenter"",""5"",""20474""
","
","","","","","","","","","","","","","","","","","","","","","",""
"d3-instructions","126","373302","0.0-67.0","2952","5491","9","Male","false","true","false","true","""event"",""trial"",""time""
""fullscreenenter"",""5"",""20474""
","
","
","""event"",""trial"",""time""
""fullscreenenter"",""5"",""20474""
","
","","","","","","","","","","","","","","","","","","","","","",""
"d3-instructions","127","376086","0.0-68.0","2952","5491","9","Male","false","true","false","true","""event"",""trial"",""time""
""fullscreenenter"",""5"",""20474""
","
","
","""event"",""trial"",""time""
""fullscreenenter"",""5"",""20474""
","
","","","","","","","","","","","","","","","","","","","","","",""
"instructions-quiz","128","379923","0.0-69.0","2952","5491","9","Male","false","true","false","true","""event"",""trial"",""time""
""fullscreenenter"",""5"",""20474""
","
","
","""event"",""trial"",""time""
""fullscreenenter"",""5"",""20474""
","
","3834.600000000559","audio/quiz/Q1_Prompt.wav","","1","","","","","","","","","","","","","","","","","",""
"audio-keyboard-response","129","383558","0.0-70.0","2952","5491","9","Male","false","true","false","true","""event"",""trial"",""time""
""fullscreenenter"",""5"",""20474""
","
","
","""event"",""trial"",""time""
""fullscreenenter"",""5"",""20474""
","
","3627","audio/quiz/Q1_Correct.wav","32","","","","","","","","","","","","","","","","","","",""
"instructions-quiz","130","387371","0.0-71.0","2952","5491","9","Male","false","true","false","true","""event"",""trial"",""time""
""fullscreenenter"",""5"",""20474""
","
","
","""event"",""trial"",""time""
""fullscreenenter"",""5"",""20474""
","
","3811.5999999996275","audio/quiz/Q2_Prompt.wav","","0","","","","","","","","","","","","","","","","","",""
"audio-keyboard-response","131","389751","0.0-72.0","2952","5491","9","Male","false","true","false","true","""event"",""trial"",""time""
""fullscreenenter"",""5"",""20474""
","
","
","""event"",""trial"",""time""
""fullscreenenter"",""5"",""20474""
","
","2379","audio/quiz/Q2_Correct.wav","32","","","","","","","","","","","","","","","","","","",""
"instructions-quiz","132","393301","0.0-73.0","2952","5491","9","Male","false","true","false","true","""event"",""trial"",""time""
""fullscreenenter"",""5"",""20474""
","
","
","""event"",""trial"",""time""
""fullscreenenter"",""5"",""20474""
","
","3548.2000000001863","audio/quiz/Q3_Prompt.wav","","1","","","","","","","","","","","","","","","","","",""
"audio-keyboard-response","133","393430","0.0-74.0","2952","5491","9","Male","false","true","false","true","""event"",""trial"",""time""
""fullscreenenter"",""5"",""20474""
","
","
","""event"",""trial"",""time""
""fullscreenenter"",""5"",""20474""
","
","128","audio/quiz/Q3_Correct.wav","32","","","","","","","","","","","","","","","","","","",""
"d3-instructions","134","396179","0.0-75.0","2952","5491","9","Male","false","true","false","true","""event"",""trial"",""time""
""fullscreenenter"",""5"",""20474""
","
","
","""event"",""trial"",""time""
""fullscreenenter"",""5"",""20474""
","
","","","","","","","","","","","","","","","","","","","","","",""
"d3-animate-choice","135","399982","0.0-76.0-0.0","2952","5491","9","Male","false","true","false","true","""event"",""trial"",""time""
""fullscreenenter"",""5"",""20474""
","
","
","""event"",""trial"",""time""
""fullscreenenter"",""5"",""20474""
","
","162.90000000037253","","32","","","3000","1","1791.800000000745","49","images/earth.jpg","images/rocket1","images/rocket2","null","images/rocket2","","1","real","null","","","",""
"d3-animate-choice","136","403753","0.0-76.0-1.0","2952","5491","9","Male","false","true","false","true","""event"",""trial"",""time""
""fullscreenenter"",""5"",""20474""
","
","
","""event"",""trial"",""time""
""fullscreenenter"",""5"",""20474""
","
","1761.199999999255","","48","","","3000","1","","","images/purpleplanet.jpg","images/alien4","images/alien3","images/rocket2","images/alien4","images/t.png","2","real","true","2","common","1","2022-12-26 05:54:32.526"
"two-step-fixation","137","404766","0.0-76.0-2.0","2952","5491","9","Male","false","true","false","true","""event"",""trial"",""time""
""fullscreenenter"",""5"",""20474""
","
","
","""event"",""trial"",""time""
""fullscreenenter"",""5"",""20474""
","
","","images/earth.jpg","","","","","","","","","","","","","","fixation","","","","","",""
"d3-animate-choice","138","407143","0.0-76.0-0.1","2952","5491","9","Male","false","true","false","true","""event"",""trial"",""time""
""fullscreenenter"",""5"",""20474""
","
","
","""event"",""trial"",""time""
""fullscreenenter"",""5"",""20474""
","
","370.8999999994412","","49","","","3000","1","","","images/earth.jpg","images/rocket1","images/rocket2","null","images/rocket2","","1","real","null","1","","",""
"d3-animate-choice","139","409743","0.0-76.0-1.1","2952","5491","9","Male","false","true","false","true","""event"",""trial"",""time""
""fullscreenenter"",""5"",""20474""
","
","
","""event"",""trial"",""time""
""fullscreenenter"",""5"",""20474""
","
","584.7999999998137","","48","","","3000","1","","","images/purpleplanet.jpg","images/alien4","images/alien3","images/rocket2","images/alien4","images/nothing.png","2","real","true","2","common","0","2022-12-26 05:54:38.516"
"two-step-fixation","140","410757","0.0-76.0-2.1","2952","5491","9","Male","false","true","false","true","""event"",""trial"",""time""
""fullscreenenter"",""5"",""20474""
","
","
","""event"",""trial"",""time""
""fullscreenenter"",""5"",""20474""
","
","","images/earth.jpg","","","","","","","","","","","","","","fixation","","","","","",""
"d3-animate-choice","141","413073","0.0-76.0-0.2","2952","5491","9","Male","false","true","false","true","""event"",""trial"",""time""
""fullscreenenter"",""5"",""20474""
","
","
","""event"",""trial"",""time""
""fullscreenenter"",""5"",""20474""
","
","297.09999999962747","","49","","","3000","1","","","images/earth.jpg","images/rocket1","images/rocket2","null","images/rocket2","","1","real","null","1","","",""
"d3-animate-choice","142","415638","0.0-76.0-1.2","2952","5491","9","Male","false","true","false","true","""event"",""trial"",""time""
""fullscreenenter"",""5"",""20474""
","
","
","""event"",""trial"",""time""
""fullscreenenter"",""5"",""20474""
","
","555.9000000003725","","49","","","3000","1","","","images/purpleplanet.jpg","images/alien4","images/alien3","images/rocket2","images/alien3","images/nothing.png","2","real","true","1","common","0","2022-12-26 05:54:44.412"
"two-step-fixation","143","416647","0.0-76.0-2.2","2952","5491","9","Male","false","true","false","true","""event"",""trial"",""time""
""fullscreenenter"",""5"",""20474""
","
","
","""event"",""trial"",""time""
""fullscreenenter"",""5"",""20474""
","
","","images/earth.jpg","","","","","","","","","","","","","","fixation","","","","","",""
"d3-animate-choice","144","418937","0.0-76.0-0.3","2952","5491","9","Male","false","true","false","true","""event"",""trial"",""time""
""fullscreenenter"",""5"",""20474""
","
","
","""event"",""trial"",""time""
""fullscreenenter"",""5"",""20474""
","
","279.59999999962747","","48","","","3000","1","","","images/earth.jpg","images/rocket1","images/rocket2","null","images/rocket1","","1","real","null","2","","",""
"d3-animate-choice","145","421844","0.0-76.0-1.3","2952","5491","9","Male","false","true","false","true","""event"",""trial"",""time""
""fullscreenenter"",""5"",""20474""
","
","
","""event"",""trial"",""time""
""fullscreenenter"",""5"",""20474""
","
","897.0999999996275","","49","","","3000","1","","","images/redplanet1.jpg","images/alien2","images/alien1","images/rocket1","images/alien1","images/nothing.png","2","real","true","1","common","0","2022-12-26 05:54:50.617"
"two-step-fixation","146","422855","0.0-76.0-2.3","2952","5491","9","Male","false","true","false","true","""event"",""trial"",""time""
""fullscreenenter"",""5"",""20474""
","
","
","""event"",""trial"",""time""
""fullscreenenter"",""5"",""20474""
","
","","images/earth.jpg","","","","","","","","","","","","","","fixation","","","","","",""
"d3-animate-choice","147","425148","0.0-76.0-0.4","2952","5491","9","Male","false","true","false","true","""event"",""trial"",""time""
""fullscreenenter"",""5"",""20474""
","
","
","""event"",""trial"",""time""
""fullscreenenter"",""5"",""20474""
","
","289.40000000037253","","48","","","3000","1","","","images/earth.jpg","images/rocket1","images/rocket2","null","images/rocket1","","1","real","null","2","","",""
"d3-animate-choice","148","427482","0.0-76.0-1.4","2952","5491","9","Male","false","true","false","true","""event"",""trial"",""time""
""fullscreenenter"",""5"",""20474""
","
","
","""event"",""trial"",""time""
""fullscreenenter"",""5"",""20474""
","
","324.70000000018626","","48","","","3000","1","","","images/redplanet1.jpg","images/alien2","images/alien1","images/rocket1","images/alien2","images/nothing.png","2","real","true","2","common","0","2022-12-26 05:54:56.256"
"two-step-fixation","149","428488","0.0-76.0-2.4","2952","5491","9","Male","false","true","false","true","""event"",""trial"",""time""
""fullscreenenter"",""5"",""20474""
","
","
","""event"",""trial"",""time""
""fullscreenenter"",""5"",""20474""
","
","","images/earth.jpg","","","","","","","","","","","","","","fixation","","","","","",""
"d3-animate-choice","150","430798","0.0-76.0-0.5","2952","5491","9","Male","false","true","false","true","""event"",""trial"",""time""
""fullscreenenter"",""5"",""20474""
","
","
","""event"",""trial"",""time""
""fullscreenenter"",""5"",""20474""
","
","296.69999999925494","","49","","","3000","1","","","images/earth.jpg","images/rocket1","images/rocket2","null","images/rocket2","","1","real","null","1","","",""
"d3-animate-choice","151","434030","0.0-76.0-1.5","2952","5491","9","Male","false","true","false","true","""event"",""trial"",""time""
""fullscreenenter"",""5"",""20474""
","
","
","""event"",""trial"",""time""
""fullscreenenter"",""5"",""20474""
","
","1214.9000000003725","","49","","","3000","1","","","images/redplanet1.jpg","images/alien2","images/alien1","images/rocket2","images/alien1","images/t.png","2","real","false","1","rare","1","2022-12-26 05:55:02.803"
"two-step-fixation","152","435047","0.0-76.0-2.5","2952","5491","9","Male","false","true","false","true","""event"",""trial"",""time""
""fullscreenenter"",""5"",""20474""
","
","
","""event"",""trial"",""time""
""fullscreenenter"",""5"",""20474""
","
","","images/earth.jpg","","","","","","","","","","","","","","fixation","","","","","",""
"d3-animate-choice","153","437438","0.0-76.0-0.6","2952","5491","9","Male","false","true","false","true","""event"",""trial"",""time""
""fullscreenenter"",""5"",""20474""
","
","
","""event"",""trial"",""time""
""fullscreenenter"",""5"",""20474""
","
","380.20000000018626","","49","","","3000","1","","","images/earth.jpg","images/rocket1","images/rocket2","null","images/rocket2","","1","real","null","1","","",""
"d3-animate-choice","154","441046","0.0-76.0-1.6","2952","5491","9","Male","false","true","false","true","""event"",""trial"",""time""
""fullscreenenter"",""5"",""20474""
","
","
","""event"",""trial"",""time""
""fullscreenenter"",""5"",""20474""
","
","1595","","48","","","3000","1","","","images/purpleplanet.jpg","images/alien4","images/alien3","images/rocket2","images/alien4","images/t.png","2","real","true","2","common","1","2022-12-26 05:55:09.819"
"two-step-fixation","155","442062","0.0-76.0-2.6","2952","5491","9","Male","false","true","false","true","""event"",""trial"",""time""
""fullscreenenter"",""5"",""20474""
","
","
","""event"",""trial"",""time""
""fullscreenenter"",""5"",""20474""
","
","","images/earth.jpg","","","","","","","","","","","","","","fixation","","","","","",""
"d3-animate-choice","156","444418","0.0-76.0-0.7","2952","5491","9","Male","false","true","false","true","""event"",""trial"",""time""
""fullscreenenter"",""5"",""20474""
","
","
","""event"",""trial"",""time""
""fullscreenenter"",""5"",""20474""
","
","347.79999999981374","","49","","","3000","1","","","images/earth.jpg","images/rocket1","images/rocket2","null","images/rocket2","","1","real","null","1","","",""
"d3-animate-choice","157","448068","0.0-76.0-1.7","2952","5491","9","Male","false","true","false","true","""event"",""trial"",""time""
""fullscreenenter"",""5"",""20474""
","
","
","""event"",""trial"",""time""
""fullscreenenter"",""5"",""20474""
","
","1641","","49","","","3000","1","","","images/redplanet1.jpg","images/alien2","images/alien1","images/rocket2","images/alien1","images/nothing.png","2","real","false","1","rare","0","2022-12-26 05:55:16.841"
"two-step-fixation","158","449076","0.0-76.0-2.7","2952","5491","9","Male","false","true","false","true","""event"",""trial"",""time""
""fullscreenenter"",""5"",""20474""
","
","
","""event"",""trial"",""time""
""fullscreenenter"",""5"",""20474""
","
","","images/earth.jpg","","","","","","","","","","","","","","fixation","","","","","",""
"d3-animate-choice","159","451395","0.0-76.0-0.8","2952","5491","9","Male","false","true","false","true","""event"",""trial"",""time""
""fullscreenenter"",""5"",""20474""
","
","
","""event"",""trial"",""time""
""fullscreenenter"",""5"",""20474""
","
","306.40000000037253","","48","","","3000","1","","","images/earth.jpg","images/rocket1","images/rocket2","null","images/rocket1","","1","real","null","2","","",""
"d3-animate-choice","160","454667","0.0-76.0-1.8","2952","5491","9","Male","false","true","false","true","""event"",""trial"",""time""
""fullscreenenter"",""5"",""20474""
","
","
","""event"",""trial"",""time""
""fullscreenenter"",""5"",""20474""
","
","1264.7999999998137","","48","","","3000","1","","","images/redplanet1.jpg","images/alien2","images/alien1","images/rocket1","images/alien2","images/t.png","2","real","true","2","common","1","2022-12-26 05:55:23.440"
"two-step-fixation","161","455677","0.0-76.0-2.8","2952","5491","9","Male","false","true","false","true","""event"",""trial"",""time""
""fullscreenenter"",""5"",""20474""
","
","
","""event"",""trial"",""time""
""fullscreenenter"",""5"",""20474""
","
","","images/earth.jpg","","","","","","","","","","","","","","fixation","","","","","",""
"d3-animate-choice","162","458681","0.0-76.0-0.9","2952","5491","9","Male","false","true","false","true","""event"",""trial"",""time""
""fullscreenenter"",""5"",""20474""
","
","
","""event"",""trial"",""time""
""fullscreenenter"",""5"",""20474""
","
","998.9000000003725","","48","","","3000","1","","","images/earth.jpg","images/rocket1","images/rocket2","null","images/rocket1","","1","real","null","2","","",""
"d3-animate-choice","163","461350","0.0-76.0-1.9","2952","5491","9","Male","false","true","false","true","""event"",""trial"",""time""
""fullscreenenter"",""5"",""20474""
","
","
","""event"",""trial"",""time""
""fullscreenenter"",""5"",""20474""
","
","655.0999999996275","","48","","","3000","1","","","images/redplanet1.jpg","images/alien2","images/alien1","images/rocket1","images/alien2","images/t.png","2","real","true","2","common","1","2022-12-26 05:55:30.123"
"two-step-fixation","164","462366","0.0-76.0-2.9","2952","5491","9","Male","false","true","false","true","""event"",""trial"",""time""
""fullscreenenter"",""5"",""20474""
","
","
","""event"",""trial"",""time""
""fullscreenenter"",""5"",""20474""
","
","","images/earth.jpg","","","","","","","","","","","","","","fixation","","","","","",""
"d3-animate-choice","165","464679","0.0-76.0-0.10","2952","5491","9","Male","false","true","false","true","""event"",""trial"",""time""
""fullscreenenter"",""5"",""20474""
","
","
","""event"",""trial"",""time""
""fullscreenenter"",""5"",""20474""
","
","297.40000000037253","","48","","","3000","1","","","images/earth.jpg","images/rocket1","images/rocket2","null","images/rocket1","","1","real","null","2","","",""
"d3-animate-choice","166","467346","0.0-76.0-1.10","2952","5491","9","Male","false","true","false","true","""event"",""trial"",""time""
""fullscreenenter"",""5"",""20474""
","
","
","""event"",""trial"",""time""
""fullscreenenter"",""5"",""20474""
","
","661.2000000001863","","48","","","3000","1","","","images/redplanet1.jpg","images/alien2","images/alien1","images/rocket1","images/alien2","images/nothing.png","2","real","true","2","common","0","2022-12-26 05:55:36.119"
"two-step-fixation","167","468354","0.0-76.0-2.10","2952","5491","9","Male","false","true","false","true","""event"",""trial"",""time""
""fullscreenenter"",""5"",""20474""
","
","
","""event"",""trial"",""time""
""fullscreenenter"",""5"",""20474""
","
","","images/earth.jpg","","","","","","","","","","","","","","fixation","","","","","",""
"d3-animate-choice","168","470750","0.0-76.0-0.11","2952","5491","9","Male","false","true","false","true","""event"",""trial"",""time""
""fullscreenenter"",""5"",""20474""
","
","
","""event"",""trial"",""time""
""fullscreenenter"",""5"",""20474""
","
","383.20000000018626","","49","","","3000","1","","","images/earth.jpg","images/rocket1","images/rocket2","null","images/rocket2","","1","real","null","1","","",""
"d3-animate-choice","169","473684","0.0-76.0-1.11","2952","5491","9","Male","false","true","false","true","""event"",""trial"",""time""
""fullscreenenter"",""5"",""20474""
","
","
","""event"",""trial"",""time""
""fullscreenenter"",""5"",""20474""
","
","924.1000000005588","","48","","","3000","1","","","images/purpleplanet.jpg","images/alien4","images/alien3","images/rocket2","images/alien4","images/t.png","2","real","true","2","common","1","2022-12-26 05:55:42.457"
"two-step-fixation","170","474687","0.0-76.0-2.11","2952","5491","9","Male","false","true","false","true","""event"",""trial"",""time""
""fullscreenenter"",""5"",""20474""
","
","
","""event"",""trial"",""time""
""fullscreenenter"",""5"",""20474""
","
","","images/earth.jpg","","","","","","","","","","","","","","fixation","","","","","",""
"d3-animate-choice","171","477013","0.0-76.0-0.12","2952","5491","9","Male","false","true","false","true","""event"",""trial"",""time""
""fullscreenenter"",""5"",""20474""
","
","
","""event"",""trial"",""time""
""fullscreenenter"",""5"",""20474""
","
","312.6000000005588","","49","","","3000","1","","","images/earth.jpg","images/rocket1","images/rocket2","null","images/rocket2","","1","real","null","1","","",""
"d3-animate-choice","172","479562","0.0-76.0-1.12","2952","5491","9","Male","false","true","false","true","""event"",""trial"",""time""
""fullscreenenter"",""5"",""20474""
","
","
","""event"",""trial"",""time""
""fullscreenenter"",""5"",""20474""
","
","540.0999999996275","","48","","","3000","1","","","images/purpleplanet.jpg","images/alien4","images/alien3","images/rocket2","images/alien4","images/nothing.png","2","real","true","2","common","0","2022-12-26 05:55:48.335"
"two-step-fixation","173","480571","0.0-76.0-2.12","2952","5491","9","Male","false","true","false","true","""event"",""trial"",""time""
""fullscreenenter"",""5"",""20474""
","
","
","""event"",""trial"",""time""
""fullscreenenter"",""5"",""20474""
","
","","images/earth.jpg","","","","","","","","","","","","","","fixation","","","","","",""
"d3-animate-choice","174","483504","0.0-76.0-0.13","2952","5491","9","Male","false","true","false","true","""event"",""trial"",""time""
""fullscreenenter"",""5"",""20474""
","
","
","""event"",""trial"",""time""
""fullscreenenter"",""5"",""20474""
","
","923.2000000001863","","49","","","3000","1","","","images/earth.jpg","images/rocket1","images/rocket2","null","images/rocket2","","1","real","null","1","","",""
"d3-animate-choice","175","487318","0.0-76.0-1.13","2952","5491","9","Male","false","true","false","true","""event"",""trial"",""time""
""fullscreenenter"",""5"",""20474""
","
","
","""event"",""trial"",""time""
""fullscreenenter"",""5"",""20474""
","
","1801.7000000001863","","48","","","3000","1","","","images/redplanet1.jpg","images/alien2","images/alien1","images/rocket2","images/alien2","images/t.png","2","real","false","2","rare","1","2022-12-26 05:55:56.091"
"two-step-fixation","176","488334","0.0-76.0-2.13","2952","5491","9","Male","false","true","false","true","""event"",""trial"",""time""
""fullscreenenter"",""5"",""20474""
","
","
","""event"",""trial"",""time""
""fullscreenenter"",""5"",""20474""
","
","","images/earth.jpg","","","","","","","","","","","","","","fixation","","","","","",""
"d3-animate-choice","177","491082","0.0-76.0-0.14","2952","5491","9","Male","false","true","false","true","""event"",""trial"",""time""
""fullscreenenter"",""5"",""20474""
","
","
","""event"",""trial"",""time""
""fullscreenenter"",""5"",""20474""
","
","739.5","","49","","","3000","1","","","images/earth.jpg","images/rocket1","images/rocket2","null","images/rocket2","","1","real","null","1","","",""
"d3-animate-choice","178","494116","0.0-76.0-1.14","2952","5491","9","Male","false","true","false","true","""event"",""trial"",""time""
""fullscreenenter"",""5"",""20474""
","
","
","""event"",""trial"",""time""
""fullscreenenter"",""5"",""20474""
","
","1023.2999999998137","","48","","","3000","1","","","images/purpleplanet.jpg","images/alien4","images/alien3","images/rocket2","images/alien4","images/nothing.png","2","real","true","2","common","0","2022-12-26 05:56:02.889"
"two-step-fixation","179","495124","0.0-76.0-2.14","2952","5491","9","Male","false","true","false","true","""event"",""trial"",""time""
""fullscreenenter"",""5"",""20474""
","
","
","""event"",""trial"",""time""
""fullscreenenter"",""5"",""20474""
","
","","images/earth.jpg","","","","","","","","","","","","","","fixation","","","","","",""
"d3-animate-choice","180","497552","0.0-76.0-0.15","2952","5491","9","Male","false","true","false","true","""event"",""trial"",""time""
""fullscreenenter"",""5"",""20474""
","
","
","""event"",""trial"",""time""
""fullscreenenter"",""5"",""20474""
","
","420.5","","48","","","3000","1","","","images/earth.jpg","images/rocket1","images/rocket2","null","images/rocket1","","1","real","null","2","","",""
"d3-animate-choice","181","500517","0.0-76.0-1.15","2952","5491","9","Male","false","true","false","true","""event"",""trial"",""time""
""fullscreenenter"",""5"",""20474""
","
","
","""event"",""trial"",""time""
""fullscreenenter"",""5"",""20474""
","
","961.7999999998137","","48","","","3000","1","","","images/redplanet1.jpg","images/alien2","images/alien1","images/rocket1","images/alien2","images/t.png","2","real","true","2","common","1","2022-12-26 05:56:09.290"
"two-step-fixation","182","501519","0.0-76.0-2.15","2952","5491","9","Male","false","true","false","true","""event"",""trial"",""time""
""fullscreenenter"",""5"",""20474""
","
","
","""event"",""trial"",""time""
""fullscreenenter"",""5"",""20474""
","
","","images/earth.jpg","","","","","","","","","","","","","","fixation","","","","","",""
"d3-animate-choice","183","504104","0.0-76.0-0.16","2952","5491","9","Male","false","true","false","true","""event"",""trial"",""time""
""fullscreenenter"",""5"",""20474""
","
","
","""event"",""trial"",""time""
""fullscreenenter"",""5"",""20474""
","
","574.9000000003725","","48","","","3000","1","","","images/earth.jpg","images/rocket1","images/rocket2","null","images/rocket1","","1","real","null","2","","",""
"d3-animate-choice","184","507014","0.0-76.0-1.16","2952","5491","9","Male","false","true","false","true","""event"",""trial"",""time""
""fullscreenenter"",""5"",""20474""
","
","
","""event"",""trial"",""time""
""fullscreenenter"",""5"",""20474""
","
","897.9000000003725","","48","","","3000","1","","","images/redplanet1.jpg","images/alien2","images/alien1","images/rocket1","images/alien2","images/t.png","2","real","true","2","common","1","2022-12-26 05:56:15.788"
"two-step-fixation","185","508019","0.0-76.0-2.16","2952","5491","9","Male","false","true","false","true","""event"",""trial"",""time""
""fullscreenenter"",""5"",""20474""
","
","
","""event"",""trial"",""time""
""fullscreenenter"",""5"",""20474""
","
","","images/earth.jpg","","","","","","","","","","","","","","fixation","","","","","",""
"d3-animate-choice","186","510762","0.0-76.0-0.17","2952","5491","9","Male","false","true","false","true","""event"",""trial"",""time""
""fullscreenenter"",""5"",""20474""
","
","
","""event"",""trial"",""time""
""fullscreenenter"",""5"",""20474""
","
","732.5","","49","","","3000","1","","","images/earth.jpg","images/rocket1","images/rocket2","null","images/rocket2","","1","real","null","1","","",""
"d3-animate-choice","187","514313","0.0-76.0-1.17","2952","5491","9","Male","false","true","false","true","""event"",""trial"",""time""
""fullscreenenter"",""5"",""20474""
","
","
","""event"",""trial"",""time""
""fullscreenenter"",""5"",""20474""
","
","1548.2999999998137","","49","","","3000","1","","","images/purpleplanet.jpg","images/alien4","images/alien3","images/rocket2","images/alien3","images/nothing.png","2","real","true","1","common","0","2022-12-26 05:56:23.086"
"two-step-fixation","188","515321","0.0-76.0-2.17","2952","5491","9","Male","false","true","false","true","""event"",""trial"",""time""
""fullscreenenter"",""5"",""20474""
","
","
","""event"",""trial"",""time""
""fullscreenenter"",""5"",""20474""
","
","","images/earth.jpg","","","","","","","","","","","","","","fixation","","","","","",""
"d3-animate-choice","189","517712","0.0-76.0-0.18","2952","5491","9","Male","false","true","false","true","""event"",""trial"",""time""
""fullscreenenter"",""5"",""20474""
","
","
","""event"",""trial"",""time""
""fullscreenenter"",""5"",""20474""
","
","386.5","","48","","","3000","1","","","images/earth.jpg","images/rocket1","images/rocket2","null","images/rocket1","","1","real","null","2","","",""
"d3-animate-choice","190","520845","0.0-76.0-1.18","2952","5491","9","Male","false","true","false","true","""event"",""trial"",""time""
""fullscreenenter"",""5"",""20474""
","
","
","""event"",""trial"",""time""
""fullscreenenter"",""5"",""20474""
","
","1123.9000000003725","","48","","","3000","1","","","images/redplanet1.jpg","images/alien2","images/alien1","images/rocket1","images/alien2","images/t.png","2","real","true","2","common","1","2022-12-26 05:56:29.618"
"two-step-fixation","191","521849","0.0-76.0-2.18","2952","5491","9","Male","false","true","false","true","""event"",""trial"",""time""
""fullscreenenter"",""5"",""20474""
","
","
","""event"",""trial"",""time""
""fullscreenenter"",""5"",""20474""
","
","","images/earth.jpg","","","","","","","","","","","","","","fixation","","","","","",""
"d3-animate-choice","192","524413","0.0-76.0-0.19","2952","5491","9","Male","false","true","false","true","""event"",""trial"",""time""
""fullscreenenter"",""5"",""20474""
","
","
","""event"",""trial"",""time""
""fullscreenenter"",""5"",""20474""
","
","547.7000000001863","","48","","","3000","1","","","images/earth.jpg","images/rocket1","images/rocket2","null","images/rocket1","","1","real","null","2","","",""
"d3-animate-choice","193","526856","0.0-76.0-1.19","2952","5491","9","Male","false","true","false","true","""event"",""trial"",""time""
""fullscreenenter"",""5"",""20474""
","
","
","""event"",""trial"",""time""
""fullscreenenter"",""5"",""20474""
","
","435.5","","48","","","3000","1","","","images/redplanet1.jpg","images/alien2","images/alien1","images/rocket1","images/alien2","images/t.png","2","real","true","2","common","1","2022-12-26 05:56:35.629"
"two-step-fixation","194","527868","0.0-76.0-2.19","2952","5491","9","Male","false","true","false","true","""event"",""trial"",""time""
""fullscreenenter"",""5"",""20474""
","
","
","""event"",""trial"",""time""
""fullscreenenter"",""5"",""20474""
","
","","images/earth.jpg","","","","","","","","","","","","","","fixation","","","","","",""
"d3-animate-choice","195","529927","0.0-76.0-0.20","2952","5491","9","Male","false","true","false","true","""event"",""trial"",""time""
""fullscreenenter"",""5"",""20474""
","
","
","""event"",""trial"",""time""
""fullscreenenter"",""5"",""20474""
","
","52.59999999962747","","48","","","3000","1","","","images/earth.jpg","images/rocket1","images/rocket2","null","images/rocket1","","1","real","null","2","","",""
"d3-animate-choice","196","532586","0.0-76.0-1.20","2952","5491","9","Male","false","true","false","true","""event"",""trial"",""time""
""fullscreenenter"",""5"",""20474""
","
","
","""event"",""trial"",""time""
""fullscreenenter"",""5"",""20474""
","
","651.5","","48","","","3000","1","","","images/redplanet1.jpg","images/alien2","images/alien1","images/rocket1","images/alien2","images/t.png","2","real","true","2","common","1","2022-12-26 05:56:41.359"
"two-step-fixation","197","533595","0.0-76.0-2.20","2952","5491","9","Male","false","true","false","true","""event"",""trial"",""time""
""fullscreenenter"",""5"",""20474""
","
","
","""event"",""trial"",""time""
""fullscreenenter"",""5"",""20474""
","
","","images/earth.jpg","","","","","","","","","","","","","","fixation","","","","","",""
"d3-animate-choice","198","535973","0.0-76.0-0.21","2952","5491","9","Male","false","true","false","true","""event"",""trial"",""time""
""fullscreenenter"",""5"",""20474""
","
","
","""event"",""trial"",""time""
""fullscreenenter"",""5"",""20474""
","
","368.20000000018626","","48","","","3000","1","","","images/earth.jpg","images/rocket1","images/rocket2","null","images/rocket1","","1","real","null","2","","",""
"d3-animate-choice","199","539990","0.0-76.0-1.21","2952","5491","9","Male","false","true","false","true","""event"",""trial"",""time""
""fullscreenenter"",""5"",""20474""
","
","
","""event"",""trial"",""time""
""fullscreenenter"",""5"",""20474""
","
","2018.2999999998137","","49","","","3000","1","","","images/purpleplanet.jpg","images/alien4","images/alien3","images/rocket1","images/alien3","images/t.png","2","real","false","1","rare","1","2022-12-26 05:56:48.763"
"two-step-fixation","200","541006","0.0-76.0-2.21","2952","5491","9","Male","false","true","false","true","""event"",""trial"",""time""
""fullscreenenter"",""5"",""20474""
","
","
","""event"",""trial"",""time""
""fullscreenenter"",""5"",""20474""
","
","","images/earth.jpg","","","","","","","","","","","","","","fixation","","","","","",""
"d3-animate-choice","201","543773","0.0-76.0-0.22","2952","5491","9","Male","false","true","false","true","""event"",""trial"",""time""
""fullscreenenter"",""5"",""20474""
","
","
","""event"",""trial"",""time""
""fullscreenenter"",""5"",""20474""
","
","763.8999999994412","","48","","","3000","1","","","images/earth.jpg","images/rocket1","images/rocket2","null","images/rocket1","","1","real","null","2","","",""
"d3-animate-choice","202","547086","0.0-76.0-1.22","2952","5491","9","Male","false","true","false","true","""event"",""trial"",""time""
""fullscreenenter"",""5"",""20474""
","
","
","""event"",""trial"",""time""
""fullscreenenter"",""5"",""20474""
","
","1308","","48","","","3000","1","","","images/redplanet1.jpg","images/alien2","images/alien1","images/rocket1","images/alien2","images/t.png","2","real","true","2","common","1","2022-12-26 05:56:55.860"
"two-step-fixation","203","548093","0.0-76.0-2.22","2952","5491","9","Male","false","true","false","true","""event"",""trial"",""time""
""fullscreenenter"",""5"",""20474""
","
","
","""event"",""trial"",""time""
""fullscreenenter"",""5"",""20474""
","
","","images/earth.jpg","","","","","","","","","","","","","","fixation","","","","","",""
"d3-animate-choice","204","550460","0.0-76.0-0.23","2952","5491","9","Male","false","true","false","true","""event"",""trial"",""time""
""fullscreenenter"",""5"",""20474""
","
","
","""event"",""trial"",""time""
""fullscreenenter"",""5"",""20474""
","
","359","","48","","","3000","1","","","images/earth.jpg","images/rocket1","images/rocket2","null","images/rocket1","","1","real","null","2","","",""
"d3-animate-choice","205","553532","0.0-76.0-1.23","2952","5491","9","Male","false","true","false","true","""event"",""trial"",""time""
""fullscreenenter"",""5"",""20474""
","
","
","""event"",""trial"",""time""
""fullscreenenter"",""5"",""20474""
","
","1066.5","","48","","","3000","1","","","images/redplanet1.jpg","images/alien2","images/alien1","images/rocket1","images/alien2","images/nothing.png","2","real","true","2","common","0","2022-12-26 05:57:02.305"
"two-step-fixation","206","554536","0.0-76.0-2.23","2952","5491","9","Male","false","true","false","true","""event"",""trial"",""time""
""fullscreenenter"",""5"",""20474""
","
","
","""event"",""trial"",""time""
""fullscreenenter"",""5"",""20474""
","
","","images/earth.jpg","","","","","","","","","","","","","","fixation","","","","","",""
"d3-animate-choice","207","556579","0.0-76.0-0.24","2952","5491","9","Male","false","true","false","true","""event"",""trial"",""time""
""fullscreenenter"",""5"",""20474""
","
","
","""event"",""trial"",""time""
""fullscreenenter"",""5"",""20474""
","
","33.5","","49","","","3000","1","","","images/earth.jpg","images/rocket1","images/rocket2","null","images/rocket2","","1","real","null","1","","",""
"d3-animate-choice","208","560061","0.0-76.0-1.24","2952","5491","9","Male","false","true","false","true","""event"",""trial"",""time""
""fullscreenenter"",""5"",""20474""
","
","
","""event"",""trial"",""time""
""fullscreenenter"",""5"",""20474""
","
","1473.6000000005588","","49","","","3000","1","","","images/purpleplanet.jpg","images/alien4","images/alien3","images/rocket2","images/alien3","images/t.png","2","real","true","1","common","1","2022-12-26 05:57:08.834"
"two-step-fixation","209","561069","0.0-76.0-2.24","2952","5491","9","Male","false","true","false","true","""event"",""trial"",""time""
""fullscreenenter"",""5"",""20474""
","
","
","""event"",""trial"",""time""
""fullscreenenter"",""5"",""20474""
","
","","images/earth.jpg","","","","","","","","","","","","","","fixation","","","","","",""
"d3-animate-choice","210","563384","0.0-76.0-0.25","2952","5491","9","Male","false","true","false","true","""event"",""trial"",""time""
""fullscreenenter"",""5"",""20474""
","
","
","""event"",""trial"",""time""
""fullscreenenter"",""5"",""20474""
","
","306.79999999981374","","49","","","3000","1","","","images/earth.jpg","images/rocket1","images/rocket2","null","images/rocket2","","1","real","null","1","","",""
"d3-animate-choice","211","566407","0.0-76.0-1.25","2952","5491","9","Male","false","true","false","true","""event"",""trial"",""time""
""fullscreenenter"",""5"",""20474""
","
","
","""event"",""trial"",""time""
""fullscreenenter"",""5"",""20474""
","
","1012.2000000001863","","48","","","3000","1","","","images/redplanet1.jpg","images/alien2","images/alien1","images/rocket2","images/alien2","images/t.png","2","real","false","2","rare","1","2022-12-26 05:57:15.180"
"two-step-fixation","212","567412","0.0-76.0-2.25","2952","5491","9","Male","false","true","false","true","""event"",""trial"",""time""
""fullscreenenter"",""5"",""20474""
","
","
","""event"",""trial"",""time""
""fullscreenenter"",""5"",""20474""
","
","","images/earth.jpg","","","","","","","","","","","","","","fixation","","","","","",""
"d3-animate-choice","213","569831","0.0-76.0-0.26","2952","5491","9","Male","false","true","false","true","""event"",""trial"",""time""
""fullscreenenter"",""5"",""20474""
","
","
","""event"",""trial"",""time""
""fullscreenenter"",""5"",""20474""
","
","412.90000000037253","","48","","","3000","1","","","images/earth.jpg","images/rocket1","images/rocket2","null","images/rocket1","","1","real","null","2","","",""
"d3-animate-choice","214","572629","0.0-76.0-1.26","2952","5491","9","Male","false","true","false","true","""event"",""trial"",""time""
""fullscreenenter"",""5"",""20474""
","
","
","""event"",""trial"",""time""
""fullscreenenter"",""5"",""20474""
","
","783.3999999994412","","48","","","3000","1","","","images/redplanet1.jpg","images/alien2","images/alien1","images/rocket1","images/alien2","images/nothing.png","2","real","true","2","common","0","2022-12-26 05:57:21.403"
"two-step-fixation","215","573641","0.0-76.0-2.26","2952","5491","9","Male","false","true","false","true","""event"",""trial"",""time""
""fullscreenenter"",""5"",""20474""
","
","
","""event"",""trial"",""time""
""fullscreenenter"",""5"",""20474""
","
","","images/earth.jpg","","","","","","","","","","","","","","fixation","","","","","",""
"d3-animate-choice","216","575825","0.0-76.0-0.27","2952","5491","9","Male","false","true","false","true","""event"",""trial"",""time""
""fullscreenenter"",""5"",""20474""
","
","
","""event"",""trial"",""time""
""fullscreenenter"",""5"",""20474""
","
","179.79999999981374","","49","","","3000","1","","","images/earth.jpg","images/rocket1","images/rocket2","null","images/rocket2","","1","real","null","1","","",""
"d3-animate-choice","217","578659","0.0-76.0-1.27","2952","5491","9","Male","false","true","false","true","""event"",""trial"",""time""
""fullscreenenter"",""5"",""20474""
","
","
","""event"",""trial"",""time""
""fullscreenenter"",""5"",""20474""
","
","826.5","","48","","","3000","1","","","images/redplanet1.jpg","images/alien2","images/alien1","images/rocket2","images/alien2","images/t.png","2","real","false","2","rare","1","2022-12-26 05:57:27.432"
"two-step-fixation","218","579667","0.0-76.0-2.27","2952","5491","9","Male","false","true","false","true","""event"",""trial"",""time""
""fullscreenenter"",""5"",""20474""
","
","
","""event"",""trial"",""time""
""fullscreenenter"",""5"",""20474""
","
","","images/earth.jpg","","","","","","","","","","","","","","fixation","","","","","",""
"d3-animate-choice","219","581947","0.0-76.0-0.28","2952","5491","9","Male","false","true","false","true","""event"",""trial"",""time""
""fullscreenenter"",""5"",""20474""
","
","
","""event"",""trial"",""time""
""fullscreenenter"",""5"",""20474""
","
","273","","49","","","3000","1","","","images/earth.jpg","images/rocket1","images/rocket2","null","images/rocket2","","1","real","null","1","","",""
"d3-animate-choice","220","584697","0.0-76.0-1.28","2952","5491","9","Male","false","true","false","true","""event"",""trial"",""time""
""fullscreenenter"",""5"",""20474""
","
","
","""event"",""trial"",""time""
""fullscreenenter"",""5"",""20474""
","
","742.7999999998137","","48","","","3000","1","","","images/redplanet1.jpg","images/alien2","images/alien1","images/rocket2","images/alien2","images/t.png","2","real","false","2","rare","1","2022-12-26 05:57:33.470"
"two-step-fixation","221","585708","0.0-76.0-2.28","2952","5491","9","Male","false","true","false","true","""event"",""trial"",""time""
""fullscreenenter"",""5"",""20474""
","
","
","""event"",""trial"",""time""
""fullscreenenter"",""5"",""20474""
","
","","images/earth.jpg","","","","","","","","","","","","","","fixation","","","","","",""
"d3-animate-choice","222","588062","0.0-76.0-0.29","2952","5491","9","Male","false","true","false","true","""event"",""trial"",""time""
""fullscreenenter"",""5"",""20474""
","
","
","""event"",""trial"",""time""
""fullscreenenter"",""5"",""20474""
","
","339.59999999962747","","48","","","3000","1","","","images/earth.jpg","images/rocket1","images/rocket2","null","images/rocket1","","1","real","null","2","","",""
"d3-animate-choice","223","590652","0.0-76.0-1.29","2952","5491","9","Male","false","true","false","true","""event"",""trial"",""time""
""fullscreenenter"",""5"",""20474""
","
","
","""event"",""trial"",""time""
""fullscreenenter"",""5"",""20474""
","
","580.6000000005588","","48","","","3000","1","","","images/redplanet1.jpg","images/alien2","images/alien1","images/rocket1","images/alien2","images/nothing.png","2","real","true","2","common","0","2022-12-26 05:57:39.425"
"two-step-fixation","224","591656","0.0-76.0-2.29","2952","5491","9","Male","false","true","false","true","""event"",""trial"",""time""
""fullscreenenter"",""5"",""20474""
","
","
","""event"",""trial"",""time""
""fullscreenenter"",""5"",""20474""
","
","","images/earth.jpg","","","","","","","","","","","","","","fixation","","","","","",""
"d3-animate-choice","225","594077","0.0-76.0-0.30","2952","5491","9","Male","false","true","false","true","""event"",""trial"",""time""
""fullscreenenter"",""5"",""20474""
","
","
","""event"",""trial"",""time""
""fullscreenenter"",""5"",""20474""
","
","411.90000000037253","","49","","","3000","1","","","images/earth.jpg","images/rocket1","images/rocket2","null","images/rocket2","","1","real","null","1","","",""
"d3-animate-choice","226","597365","0.0-76.0-1.30","2952","5491","9","Male","false","true","false","true","""event"",""trial"",""time""
""fullscreenenter"",""5"",""20474""
","
","
","""event"",""trial"",""time""
""fullscreenenter"",""5"",""20474""
","
","1283.199999999255","","49","","","3000","1","","","images/purpleplanet.jpg","images/alien4","images/alien3","images/rocket2","images/alien3","images/nothing.png","2","real","true","1","common","0","2022-12-26 05:57:46.138"
"two-step-fixation","227","598372","0.0-76.0-2.30","2952","5491","9","Male","false","true","false","true","""event"",""trial"",""time""
""fullscreenenter"",""5"",""20474""
","
","
","""event"",""trial"",""time""
""fullscreenenter"",""5"",""20474""
","
","","images/earth.jpg","","","","","","","","","","","","","","fixation","","","","","",""
"d3-animate-choice","228","600944","0.0-76.0-0.31","2952","5491","9","Male","false","true","false","true","""event"",""trial"",""time""
""fullscreenenter"",""5"",""20474""
","
","
","""event"",""trial"",""time""
""fullscreenenter"",""5"",""20474""
","
","567.0999999996275","","49","","","3000","1","","","images/earth.jpg","images/rocket1","images/rocket2","null","images/rocket2","","1","real","null","1","","",""
"d3-animate-choice","229","603852","0.0-76.0-1.31","2952","5491","9","Male","false","true","false","true","""event"",""trial"",""time""
""fullscreenenter"",""5"",""20474""
","
","
","""event"",""trial"",""time""
""fullscreenenter"",""5"",""20474""
","
","898.5","","48","","","3000","1","","","images/redplanet1.jpg","images/alien2","images/alien1","images/rocket2","images/alien2","images/t.png","2","real","false","2","rare","1","2022-12-26 05:57:52.625"
"two-step-fixation","230","604860","0.0-76.0-2.31","2952","5491","9","Male","false","true","false","true","""event"",""trial"",""time""
""fullscreenenter"",""5"",""20474""
","
","
","""event"",""trial"",""time""
""fullscreenenter"",""5"",""20474""
","
","","images/earth.jpg","","","","","","","","","","","","","","fixation","","","","","",""
"d3-animate-choice","231","607424","0.0-76.0-0.32","2952","5491","9","Male","false","true","false","true","""event"",""trial"",""time""
""fullscreenenter"",""5"",""20474""
","
","
","""event"",""trial"",""time""
""fullscreenenter"",""5"",""20474""
","
","558","","48","","","3000","1","","","images/earth.jpg","images/rocket1","images/rocket2","null","images/rocket1","","1","real","null","2","","",""
"d3-animate-choice","232","610283","0.0-76.0-1.32","2952","5491","9","Male","false","true","false","true","""event"",""trial"",""time""
""fullscreenenter"",""5"",""20474""
","
","
","""event"",""trial"",""time""
""fullscreenenter"",""5"",""20474""
","
","849.2000000001863","","48","","","3000","1","","","images/redplanet1.jpg","images/alien2","images/alien1","images/rocket1","images/alien2","images/nothing.png","2","real","true","2","common","0","2022-12-26 05:57:59.056"
"two-step-fixation","233","611294","0.0-76.0-2.32","2952","5491","9","Male","false","true","false","true","""event"",""trial"",""time""
""fullscreenenter"",""5"",""20474""
","
","
","""event"",""trial"",""time""
""fullscreenenter"",""5"",""20474""
","
","","images/earth.jpg","","","","","","","","","","","","","","fixation","","","","","",""
"d3-animate-choice","234","613497","0.0-76.0-0.33","2952","5491","9","Male","false","true","false","true","""event"",""trial"",""time""
""fullscreenenter"",""5"",""20474""
","
","
","""event"",""trial"",""time""
""fullscreenenter"",""5"",""20474""
","
","192.3999999994412","","49","","","3000","1","","","images/earth.jpg","images/rocket1","images/rocket2","null","images/rocket2","","1","real","null","1","","",""
"d3-animate-choice","235","616257","0.0-76.0-1.33","2952","5491","9","Male","false","true","false","true","""event"",""trial"",""time""
""fullscreenenter"",""5"",""20474""
","
","
","""event"",""trial"",""time""
""fullscreenenter"",""5"",""20474""
","
","750.2000000001863","","49","","","3000","1","","","images/purpleplanet.jpg","images/alien4","images/alien3","images/rocket2","images/alien3","images/t.png","2","real","true","1","common","1","2022-12-26 05:58:05.030"
"two-step-fixation","236","617268","0.0-76.0-2.33","2952","5491","9","Male","false","true","false","true","""event"",""trial"",""time""
""fullscreenenter"",""5"",""20474""
","
","
","""event"",""trial"",""time""
""fullscreenenter"",""5"",""20474""
","
","","images/earth.jpg","","","","","","","","","","","","","","fixation","","","","","",""
"d3-animate-choice","237","619685","0.0-76.0-0.34","2952","5491","9","Male","false","true","false","true","""event"",""trial"",""time""
""fullscreenenter"",""5"",""20474""
","
","
","""event"",""trial"",""time""
""fullscreenenter"",""5"",""20474""
","
","407.09999999962747","","49","","","3000","1","","","images/earth.jpg","images/rocket1","images/rocket2","null","images/rocket2","","1","real","null","1","","",""
"d3-animate-choice","238","622136","0.0-76.0-1.34","2952","5491","9","Male","false","true","false","true","""event"",""trial"",""time""
""fullscreenenter"",""5"",""20474""
","
","
","""event"",""trial"",""time""
""fullscreenenter"",""5"",""20474""
","
","443.79999999981374","","49","","","3000","1","","","images/purpleplanet.jpg","images/alien4","images/alien3","images/rocket2","images/alien3","images/nothing.png","2","real","true","1","common","0","2022-12-26 05:58:10.909"
"two-step-fixation","239","623143","0.0-76.0-2.34","2952","5491","9","Male","false","true","false","true","""event"",""trial"",""time""
""fullscreenenter"",""5"",""20474""
","
","
","""event"",""trial"",""time""
""fullscreenenter"",""5"",""20474""
","
","","images/earth.jpg","","","","","","","","","","","","","","fixation","","","","","",""
"d3-animate-choice","240","626309","0.0-76.0-0.35","2952","5491","9","Male","false","true","false","true","""event"",""trial"",""time""
""fullscreenenter"",""5"",""20474""
","
","
","""event"",""trial"",""time""
""fullscreenenter"",""5"",""20474""
","
","1157.0999999996275","","49","","","3000","1","","","images/earth.jpg","images/rocket1","images/rocket2","null","images/rocket2","","1","real","null","1","","",""
"d3-animate-choice","241","628777","0.0-76.0-1.35","2952","5491","9","Male","false","true","false","true","""event"",""trial"",""time""
""fullscreenenter"",""5"",""20474""
","
","
","""event"",""trial"",""time""
""fullscreenenter"",""5"",""20474""
","
","457.79999999981374","","48","","","3000","1","","","images/purpleplanet.jpg","images/alien4","images/alien3","images/rocket2","images/alien4","images/t.png","2","real","true","2","common","1","2022-12-26 05:58:17.550"
"two-step-fixation","242","629785","0.0-76.0-2.35","2952","5491","9","Male","false","true","false","true","""event"",""trial"",""time""
""fullscreenenter"",""5"",""20474""
","
","
","""event"",""trial"",""time""
""fullscreenenter"",""5"",""20474""
","
","","images/earth.jpg","","","","","","","","","","","","","","fixation","","","","","",""
"d3-animate-choice","243","632123","0.0-76.0-0.36","2952","5491","9","Male","false","true","false","true","""event"",""trial"",""time""
""fullscreenenter"",""5"",""20474""
","
","
","""event"",""trial"",""time""
""fullscreenenter"",""5"",""20474""
","
","331.20000000018626","","49","","","3000","1","","","images/earth.jpg","images/rocket1","images/rocket2","null","images/rocket2","","1","real","null","1","","",""
