"trial_type","trial_index","time_elapsed","internal_node_id","participant_id","subject_id","age","gender","rocket_sides","red_planet_first_rocket","red_display_order","purple_display_order","interactions","blur_events","focus_events","fullscreenenter_events","fullscreenexit_events","rt","stimulus","key_press","button_pressed","success","duration","valid_pressed","rts","keys","planet_text","right_text","left_text","center_text","chosen_text","reward_text","trial_stage","practice_trial","transition_type","choice","transition","reward","timestamp"
"pavlovia","0","2","0.0-0.0","813","2151","13","Female","true","false","true","true","
","
","
","
","
","","","","","","","","","","","","","","","","","","","","","",""
"html-keyboard-response","1","997","0.0-1.0","813","2151","13","Female","true","false","true","true","
","
","
","
","
","993.7999999970198","Welcome! Press the space bar to begin.","32","","","","","","","","","","","","","","","","","","",""
"audio-keyboard-response","2","4492","0.0-2.0","813","2151","13","Female","true","false","true","true","
","
","
","
","
","3109","audio/beep_loop.wav","32","","","","","","","","","","","","","","","","","","",""
"audio-button-response","3","7042","0.0-3.0","813","2151","13","Female","true","false","true","true","
","
","
","
","
","NaN","audio/fish.mp3","","1","","","","","","","","","","","","","","","","","",""
"audio-button-response","4","9760","0.0-4.0","813","2151","13","Female","true","false","true","true","""event"",""trial"",""time""
""fullscreenenter"",""5"",""12408""
","
","
","""event"",""trial"",""time""
""fullscreenenter"",""5"",""12408""
","
","NaN","audio/tiger.mp3","","4","","","","","","","","","","","","","","","","","",""
"fullscreen","5","13405","0.0-5.0","813","2151","13","Female","true","false","true","true","""event"",""trial"",""time""
""fullscreenenter"",""5"",""12408""
","
","
","""event"",""trial"",""time""
""fullscreenenter"",""5"",""12408""
","
","","","","","true","","","","","","","","","","","","","","","","",""
"d3-instructions","6","28138","0.0-6.0","813","2151","13","Female","true","false","true","true","""event"",""trial"",""time""
""fullscreenenter"",""5"",""12408""
","
","
","""event"",""trial"",""time""
""fullscreenenter"",""5"",""12408""
","
","","","","","","","","","","","","","","","","","","","","","",""
"d3-instructions","7","39459","0.0-7.0","813","2151","13","Female","true","false","true","true","""event"",""trial"",""time""
""fullscreenenter"",""5"",""12408""
","
","
","""event"",""trial"",""time""
""fullscreenenter"",""5"",""12408""
","
","","","","","","","","","","","","","","","","","","","","","",""
"d3-instructions","8","47108","0.0-8.0","813","2151","13","Female","true","false","true","true","""event"",""trial"",""time""
""fullscreenenter"",""5"",""12408""
","
","
","""event"",""trial"",""time""
""fullscreenenter"",""5"",""12408""
","
","","","","","","","","","","","","","","","","","","","","","",""
"d3-instructions","9","58239","0.0-9.0","813","2151","13","Female","true","false","true","true","""event"",""trial"",""time""
""fullscreenenter"",""5"",""12408""
","
","
","""event"",""trial"",""time""
""fullscreenenter"",""5"",""12408""
","
","","","","","","","","","","","","","","","","","","","","","",""
"d3-instructions","10","79117","0.0-10.0","813","2151","13","Female","true","false","true","true","""event"",""trial"",""time""
""fullscreenenter"",""5"",""12408""
","
","
","""event"",""trial"",""time""
""fullscreenenter"",""5"",""12408""
","
","","","","","","","","","","","","","","","","","","","","","",""
"d3-animate-choice","11","85169","0.0-11.0","813","2151","13","Female","true","false","true","true","""event"",""trial"",""time""
""fullscreenenter"",""5"",""12408""
","
","
","""event"",""trial"",""time""
""fullscreenenter"",""5"",""12408""
","
","4031.7000000029802","","48","","","3000","1","","","images/tutgreenplanet.jpg","images/tutalien1","images/tutalien2","null","images/tutalien1","","NA","practice","null","","","",""
"d3-animate-choice","12","88449","0.0-12.0","813","2151","13","Female","true","false","true","true","""event"",""trial"",""time""
""fullscreenenter"",""5"",""12408""
","
","
","""event"",""trial"",""time""
""fullscreenenter"",""5"",""12408""
","
","1268.2999999970198","","49","","","3000","1","","","images/tutgreenplanet.jpg","images/tutalien1","images/tutalien2","null","images/tutalien2","","NA","practice","null","","","",""
"d3-animate-choice","13","90918","0.0-13.0","813","2151","13","Female","true","false","true","true","""event"",""trial"",""time""
""fullscreenenter"",""5"",""12408""
","
","
","""event"",""trial"",""time""
""fullscreenenter"",""5"",""12408""
","
","455.79999999701977","","48","","","3000","1","","","images/tutgreenplanet.jpg","images/tutalien1","images/tutalien2","null","images/tutalien1","","NA","practice","null","","","",""
"d3-animate-choice","14","93318","0.0-14.0","813","2151","13","Female","true","false","true","true","""event"",""trial"",""time""
""fullscreenenter"",""5"",""12408""
","
","
","""event"",""trial"",""time""
""fullscreenenter"",""5"",""12408""
","
","378.90000000596046","","48","","","3000","1","","","images/tutgreenplanet.jpg","images/tutalien1","images/tutalien2","null","images/tutalien1","","NA","practice","null","","","",""
"d3-instructions","15","99408","0.0-15.0","813","2151","13","Female","true","false","true","true","""event"",""trial"",""time""
""fullscreenenter"",""5"",""12408""
","
","
","""event"",""trial"",""time""
""fullscreenenter"",""5"",""12408""
","
","","","","","","","","","","","","","","","","","","","","","",""
"d3-instructions","16","107324","0.0-16.0","813","2151","13","Female","true","false","true","true","""event"",""trial"",""time""
""fullscreenenter"",""5"",""12408""
","
","
","""event"",""trial"",""time""
""fullscreenenter"",""5"",""12408""
","
","","","","","","","","","","","","","","","","","","","","","",""
"d3-instructions","17","116158","0.0-17.0","813","2151","13","Female","true","false","true","true","""event"",""trial"",""time""
""fullscreenenter"",""5"",""12408""
","
","
","""event"",""trial"",""time""
""fullscreenenter"",""5"",""12408""
","
","","","","","","","","","","","","","","","","","","","","","",""
"d3-instructions","18","128832","0.0-18.0","813","2151","13","Female","true","false","true","true","""event"",""trial"",""time""
""fullscreenenter"",""5"",""12408""
","
","
","""event"",""trial"",""time""
""fullscreenenter"",""5"",""12408""
","
","","","","","","","","","","","","","","","","","","","","","",""
"d3-instructions","19","142964","0.0-19.0","813","2151","13","Female","true","false","true","true","""event"",""trial"",""time""
""fullscreenenter"",""5"",""12408""
","
","
","""event"",""trial"",""time""
""fullscreenenter"",""5"",""12408""
","
","","","","","","","","","","","","","","","","","","","","","",""
"d3-animate-choice","20","146005","0.0-20.0","813","2151","13","Female","true","false","true","true","""event"",""trial"",""time""
""fullscreenenter"",""5"",""12408""
","
","
","""event"",""trial"",""time""
""fullscreenenter"",""5"",""12408""
","
","1029.6000000089407","","49","","","3000","1","","","images/tutyellowplanet.jpg","null","images/tutalien3","null","images/tutalien3","images/t.png","NA","practice","null","","","",""
"d3-animate-choice","21","148435","0.0-21.0","813","2151","13","Female","true","false","true","true","""event"",""trial"",""time""
""fullscreenenter"",""5"",""12408""
","
","
","""event"",""trial"",""time""
""fullscreenenter"",""5"",""12408""
","
","420.70000000298023","","49","","","3000","1","","","images/tutyellowplanet.jpg","null","images/tutalien3","null","images/tutalien3","images/t.png","NA","practice","null","","","",""
"d3-animate-choice","22","150705","0.0-22.0","813","2151","13","Female","true","false","true","true","""event"",""trial"",""time""
""fullscreenenter"",""5"",""12408""
","
","
","""event"",""trial"",""time""
""fullscreenenter"",""5"",""12408""
","
","250.09999999403954","","49","","","3000","1","","","images/tutyellowplanet.jpg","null","images/tutalien3","null","images/tutalien3","images/t.png","NA","practice","null","","","",""
"d3-animate-choice","23","153785","0.0-23.0","813","2151","13","Female","true","false","true","true","""event"",""trial"",""time""
""fullscreenenter"",""5"",""12408""
","
","
","""event"",""trial"",""time""
""fullscreenenter"",""5"",""12408""
","
","1058.1000000089407","","49","","","3000","1","","","images/tutyellowplanet.jpg","null","images/tutalien3","null","images/tutalien3","images/t.png","NA","practice","null","","","",""
"d3-animate-choice","24","156285","0.0-24.0","813","2151","13","Female","true","false","true","true","""event"",""trial"",""time""
""fullscreenenter"",""5"",""12408""
","
","
","""event"",""trial"",""time""
""fullscreenenter"",""5"",""12408""
","
","486.70000000298023","","49","","","3000","1","","","images/tutyellowplanet.jpg","null","images/tutalien3","null","images/tutalien3","images/t.png","NA","practice","null","","","",""
"d3-animate-choice","25","158574","0.0-25.0","813","2151","13","Female","true","false","true","true","""event"",""trial"",""time""
""fullscreenenter"",""5"",""12408""
","
","
","""event"",""trial"",""time""
""fullscreenenter"",""5"",""12408""
","
","270.70000000298023","","49","","","3000","1","2270.2999999970198","49","images/tutyellowplanet.jpg","null","images/tutalien3","null","images/tutalien3","images/t.png","NA","practice","null","","","",""
"d3-animate-choice","26","161035","0.0-26.0","813","2151","13","Female","true","false","true","true","""event"",""trial"",""time""
""fullscreenenter"",""5"",""12408""
","
","
","""event"",""trial"",""time""
""fullscreenenter"",""5"",""12408""
","
","445.19999998807907","","49","","","3000","1","","","images/tutyellowplanet.jpg","null","images/tutalien3","null","images/tutalien3","images/t.png","NA","practice","null","","","",""
"d3-animate-choice","27","163305","0.0-27.0","813","2151","13","Female","true","false","true","true","""event"",""trial"",""time""
""fullscreenenter"",""5"",""12408""
","
","
","""event"",""trial"",""time""
""fullscreenenter"",""5"",""12408""
","
","251.79999999701977","","49","","","3000","1","","","images/tutyellowplanet.jpg","null","images/tutalien3","null","images/tutalien3","images/t.png","NA","practice","null","","","",""
"d3-animate-choice","28","165426","0.0-28.0","813","2151","13","Female","true","false","true","true","""event"",""trial"",""time""
""fullscreenenter"",""5"",""12408""
","
","
","""event"",""trial"",""time""
""fullscreenenter"",""5"",""12408""
","
","118.5","","49","","","3000","1","1635.7999999970198","49","images/tutyellowplanet.jpg","null","images/tutalien3","null","images/tutalien3","images/t.png","NA","practice","null","","","",""
"d3-animate-choice","29","167445","0.0-29.0","813","2151","13","Female","true","false","true","true","""event"",""trial"",""time""
""fullscreenenter"",""5"",""12408""
","
","
","""event"",""trial"",""time""
""fullscreenenter"",""5"",""12408""
","
","14.600000008940697","","49","","","3000","1","","","images/tutyellowplanet.jpg","null","images/tutalien3","null","images/tutalien3","images/t.png","NA","practice","null","","","",""
"d3-instructions","30","173704","0.0-30.0","813","2151","13","Female","true","false","true","true","""event"",""trial"",""time""
""fullscreenenter"",""5"",""12408""
","
","
","""event"",""trial"",""time""
""fullscreenenter"",""5"",""12408""
","
","","","","","","","","","","","","","","","","","","","","","",""
"d3-instructions","31","184454","0.0-31.0","813","2151","13","Female","true","false","true","true","""event"",""trial"",""time""
""fullscreenenter"",""5"",""12408""
","
","
","""event"",""trial"",""time""
""fullscreenenter"",""5"",""12408""
","
","","","","","","","","","","","","","","","","","","","","","",""
"d3-instructions","32","191864","0.0-32.0","813","2151","13","Female","true","false","true","true","""event"",""trial"",""time""
""fullscreenenter"",""5"",""12408""
","
","
","""event"",""trial"",""time""
""fullscreenenter"",""5"",""12408""
","
","","","","","","","","","","","","","","","","","","","","","",""
"d3-instructions","33","202585","0.0-33.0","813","2151","13","Female","true","false","true","true","""event"",""trial"",""time""
""fullscreenenter"",""5"",""12408""
","
","
","""event"",""trial"",""time""
""fullscreenenter"",""5"",""12408""
","
","","","","","","","","","","","","","","","","","","","","","",""
"d3-animate-choice","34","205894","0.0-34.0","813","2151","13","Female","true","false","true","true","""event"",""trial"",""time""
""fullscreenenter"",""5"",""12408""
","
","
","""event"",""trial"",""time""
""fullscreenenter"",""5"",""12408""
","
","1289.1000000089407","","48","","","3000","1","","","images/tutgreenplanet.jpg","images/tutalien1","images/tutalien2","null","images/tutalien1","images/nothing.png","NA","practice","null","","","",""
"d3-animate-choice","35","208494","0.0-35.0","813","2151","13","Female","true","false","true","true","""event"",""trial"",""time""
""fullscreenenter"",""5"",""12408""
","
","
","""event"",""trial"",""time""
""fullscreenenter"",""5"",""12408""
","
","592.1999999880791","","49","","","3000","1","","","images/tutgreenplanet.jpg","images/tutalien1","images/tutalien2","null","images/tutalien2","images/t.png","NA","practice","null","","","",""
"d3-animate-choice","36","210765","0.0-36.0","813","2151","13","Female","true","false","true","true","""event"",""trial"",""time""
""fullscreenenter"",""5"",""12408""
","
","
","""event"",""trial"",""time""
""fullscreenenter"",""5"",""12408""
","
","268","","49","","","3000","1","1682.5,2183.7000000029802","49,49","images/tutgreenplanet.jpg","images/tutalien1","images/tutalien2","null","images/tutalien2","images/t.png","NA","practice","null","","","",""
"d3-animate-choice","37","213044","0.0-37.0","813","2151","13","Female","true","false","true","true","""event"",""trial"",""time""
""fullscreenenter"",""5"",""12408""
","
","
","""event"",""trial"",""time""
""fullscreenenter"",""5"",""12408""
","
","268.20000000298023","","49","","","3000","1","","","images/tutgreenplanet.jpg","images/tutalien1","images/tutalien2","null","images/tutalien2","images/t.png","NA","practice","null","","","",""
"d3-animate-choice","38","215177","0.0-38.0","813","2151","13","Female","true","false","true","true","""event"",""trial"",""time""
""fullscreenenter"",""5"",""12408""
","
","
","""event"",""trial"",""time""
""fullscreenenter"",""5"",""12408""
","
","130","","49","","","3000","1","2039.2000000029802","49","images/tutgreenplanet.jpg","images/tutalien1","images/tutalien2","null","images/tutalien2","images/t.png","NA","practice","null","","","",""
"d3-animate-choice","39","217514","0.0-39.0","813","2151","13","Female","true","false","true","true","""event"",""trial"",""time""
""fullscreenenter"",""5"",""12408""
","
","
","""event"",""trial"",""time""
""fullscreenenter"",""5"",""12408""
","
","312.79999999701977","","49","","","3000","1","","","images/tutgreenplanet.jpg","images/tutalien1","images/tutalien2","null","images/tutalien2","images/t.png","NA","practice","null","","","",""
"d3-animate-choice","40","219784","0.0-40.0","813","2151","13","Female","true","false","true","true","""event"",""trial"",""time""
""fullscreenenter"",""5"",""12408""
","
","
","""event"",""trial"",""time""
""fullscreenenter"",""5"",""12408""
","
","256.19999998807907","","49","","","3000","1","","","images/tutgreenplanet.jpg","images/tutalien1","images/tutalien2","null","images/tutalien2","images/t.png","NA","practice","null","","","",""
"d3-animate-choice","41","221974","0.0-41.0","813","2151","13","Female","true","false","true","true","""event"",""trial"",""time""
""fullscreenenter"",""5"",""12408""
","
","
","""event"",""trial"",""time""
""fullscreenenter"",""5"",""12408""
","
","180.29999999701977","","49","","","3000","1","","","images/tutgreenplanet.jpg","images/tutalien1","images/tutalien2","null","images/tutalien2","images/t.png","NA","practice","null","","","",""
"d3-animate-choice","42","224344","0.0-42.0","813","2151","13","Female","true","false","true","true","""event"",""trial"",""time""
""fullscreenenter"",""5"",""12408""
","
","
","""event"",""trial"",""time""
""fullscreenenter"",""5"",""12408""
","
","357","","49","","","3000","1","","","images/tutgreenplanet.jpg","images/tutalien1","images/tutalien2","null","images/tutalien2","images/t.png","NA","practice","null","","","",""
"d3-animate-choice","43","226612","0.0-43.0","813","2151","13","Female","true","false","true","true","""event"",""trial"",""time""
""fullscreenenter"",""5"",""12408""
","
","
","""event"",""trial"",""time""
""fullscreenenter"",""5"",""12408""
","
","264.90000000596046","","49","","","3000","1","","","images/tutgreenplanet.jpg","images/tutalien1","images/tutalien2","null","images/tutalien2","images/t.png","NA","practice","null","","","",""
"d3-instructions","44","239733","0.0-44.0","813","2151","13","Female","true","false","true","true","""event"",""trial"",""time""
""fullscreenenter"",""5"",""12408""
","
","
","""event"",""trial"",""time""
""fullscreenenter"",""5"",""12408""
","
","","","","","","","","","","","","","","","","","","","","","",""
"d3-instructions","45","245945","0.0-45.0","813","2151","13","Female","true","false","true","true","""event"",""trial"",""time""
""fullscreenenter"",""5"",""12408""
","
","
","""event"",""trial"",""time""
""fullscreenenter"",""5"",""12408""
","
","","","","","","","","","","","","","","","","","","","","","",""
"d3-instructions","46","251855","0.0-46.0","813","2151","13","Female","true","false","true","true","""event"",""trial"",""time""
""fullscreenenter"",""5"",""12408""
","
","
","""event"",""trial"",""time""
""fullscreenenter"",""5"",""12408""
","
","","","","","","","","","","","","","","","","","","","","","",""
"d3-instructions","47","268879","0.0-47.0","813","2151","13","Female","true","false","true","true","""event"",""trial"",""time""
""fullscreenenter"",""5"",""12408""
","
","
","""event"",""trial"",""time""
""fullscreenenter"",""5"",""12408""
","
","","","","","","","","","","","","","","","","","","","","","",""
"d3-instructions","48","275705","0.0-48.0","813","2151","13","Female","true","false","true","true","""event"",""trial"",""time""
""fullscreenenter"",""5"",""12408""
","
","
","""event"",""trial"",""time""
""fullscreenenter"",""5"",""12408""
","
","","","","","","","","","","","","","","","","","","","","","",""
"d3-instructions","49","286582","0.0-49.0","813","2151","13","Female","true","false","true","true","""event"",""trial"",""time""
""fullscreenenter"",""5"",""12408""
","
","
","""event"",""trial"",""time""
""fullscreenenter"",""5"",""12408""
","
","","","","","","","","","","","","","","","","","","","","","",""
"d3-instructions","50","294996","0.0-50.0","813","2151","13","Female","true","false","true","true","""event"",""trial"",""time""
""fullscreenenter"",""5"",""12408""
","
","
","""event"",""trial"",""time""
""fullscreenenter"",""5"",""12408""
","
","","","","","","","","","","","","","","","","","","","","","",""
"d3-instructions","51","297776","0.0-51.0","813","2151","13","Female","true","false","true","true","""event"",""trial"",""time""
""fullscreenenter"",""5"",""12408""
","
","
","""event"",""trial"",""time""
""fullscreenenter"",""5"",""12408""
","
","","","","","","","","","","","","","","","","","","","","","",""
"d3-instructions","52","306640","0.0-52.0","813","2151","13","Female","true","false","true","true","""event"",""trial"",""time""
""fullscreenenter"",""5"",""12408""
","
","
","""event"",""trial"",""time""
""fullscreenenter"",""5"",""12408""
","
","","","","","","","","","","","","","","","","","","","","","",""
"d3-instructions","53","318685","0.0-53.0","813","2151","13","Female","true","false","true","true","""event"",""trial"",""time""
""fullscreenenter"",""5"",""12408""
","
","
","""event"",""trial"",""time""
""fullscreenenter"",""5"",""12408""
","
","","","","","","","","","","","","","","","","","","","","","",""
"d3-instructions","54","331006","0.0-54.0","813","2151","13","Female","true","false","true","true","""event"",""trial"",""time""
""fullscreenenter"",""5"",""12408""
","
","
","""event"",""trial"",""time""
""fullscreenenter"",""5"",""12408""
","
","","","","","","","","","","","","","","","","","","","","","",""
"d3-instructions","55","341010","0.0-55.0","813","2151","13","Female","true","false","true","true","""event"",""trial"",""time""
""fullscreenenter"",""5"",""12408""
","
","
","""event"",""trial"",""time""
""fullscreenenter"",""5"",""12408""
","
","","","","","","","","","","","","","","","","","","","","","",""
"d3-instructions","56","349229","0.0-56.0","813","2151","13","Female","true","false","true","true","""event"",""trial"",""time""
""fullscreenenter"",""5"",""12408""
","
","
","""event"",""trial"",""time""
""fullscreenenter"",""5"",""12408""
","
","","","","","","","","","","","","","","","","","","","","","",""
"d3-instructions","57","358880","0.0-57.0","813","2151","13","Female","true","false","true","true","""event"",""trial"",""time""
""fullscreenenter"",""5"",""12408""
","
","
","""event"",""trial"",""time""
""fullscreenenter"",""5"",""12408""
","
","","","","","","","","","","","","","","","","","","","","","",""
"d3-instructions","58","369723","0.0-58.0","813","2151","13","Female","true","false","true","true","""event"",""trial"",""time""
""fullscreenenter"",""5"",""12408""
","
","
","""event"",""trial"",""time""
""fullscreenenter"",""5"",""12408""
","
","","","","","","","","","","","","","","","","","","","","","",""
"d3-instructions","59","375194","0.0-59.0","813","2151","13","Female","true","false","true","true","""event"",""trial"",""time""
""fullscreenenter"",""5"",""12408""
","
","
","""event"",""trial"",""time""
""fullscreenenter"",""5"",""12408""
","
","","","","","","","","","","","","","","","","","","","","","",""
"d3-instructions","60","382353","0.0-60.0","813","2151","13","Female","true","false","true","true","""event"",""trial"",""time""
""fullscreenenter"",""5"",""12408""
","
","
","""event"",""trial"",""time""
""fullscreenenter"",""5"",""12408""
","
","","","","","","","","","","","","","","","","","","","","","",""
"d3-animate-choice","61","385384","0.0-61.0-0.0","813","2151","13","Female","true","false","true","true","""event"",""trial"",""time""
""fullscreenenter"",""5"",""12408""
","
","
","""event"",""trial"",""time""
""fullscreenenter"",""5"",""12408""
","
","1025.2999999970198","","49","","","3000","1","","","images/earth.jpg","images/tutrocket1","images/tutrocket2","null","images/tutrocket2","","1","practice","null","1","","",""
"d3-animate-choice","62","388274","0.0-61.0-1.0","813","2151","13","Female","true","false","true","true","""event"",""trial"",""time""
""fullscreenenter"",""5"",""12408""
","
","
","""event"",""trial"",""time""
""fullscreenenter"",""5"",""12408""
","
","870.7000000029802","","49","","","3000","1","","","images/tutgreenplanet.jpg","images/tutalien2","images/tutalien1","images/tutrocket2","images/tutalien1","images/nothing.png","2","practice","true","1","common","0","2022-07-13 01:38:28.142"
"two-step-fixation","63","389294","0.0-61.0-2.0","813","2151","13","Female","true","false","true","true","""event"",""trial"",""time""
""fullscreenenter"",""5"",""12408""
","
","
","""event"",""trial"",""time""
""fullscreenenter"",""5"",""12408""
","
","","images/earth.jpg","","","","","","","","","","","","","","fixation","","","","","",""
"d3-animate-choice","64","391652","0.0-61.0-0.1","813","2151","13","Female","true","false","true","true","""event"",""trial"",""time""
""fullscreenenter"",""5"",""12408""
","
","
","""event"",""trial"",""time""
""fullscreenenter"",""5"",""12408""
","
","353.8999999910593","","49","","","3000","1","","","images/earth.jpg","images/tutrocket1","images/tutrocket2","null","images/tutrocket2","","1","practice","null","1","","",""
"d3-animate-choice","65","394954","0.0-61.0-1.1","813","2151","13","Female","true","false","true","true","""event"",""trial"",""time""
""fullscreenenter"",""5"",""12408""
","
","
","""event"",""trial"",""time""
""fullscreenenter"",""5"",""12408""
","
","1290.8999999910593","","48","","","3000","1","","","images/tutyellowplanet.jpg","images/tutalien4","images/tutalien3","images/tutrocket2","images/tutalien4","images/nothing.png","2","practice","false","2","rare","0","2022-07-13 01:38:34.822"
"two-step-fixation","66","395974","0.0-61.0-2.1","813","2151","13","Female","true","false","true","true","""event"",""trial"",""time""
""fullscreenenter"",""5"",""12408""
","
","
","""event"",""trial"",""time""
""fullscreenenter"",""5"",""12408""
","
","","images/earth.jpg","","","","","","","","","","","","","","fixation","","","","","",""
"d3-animate-choice","67","398413","0.0-61.0-0.2","813","2151","13","Female","true","false","true","true","""event"",""trial"",""time""
""fullscreenenter"",""5"",""12408""
","
","
","""event"",""trial"",""time""
""fullscreenenter"",""5"",""12408""
","
","434.19999998807907","","49","","","3000","1","","","images/earth.jpg","images/tutrocket1","images/tutrocket2","null","images/tutrocket2","","1","practice","null","1","","",""
"d3-animate-choice","68","401580","0.0-61.0-1.2","813","2151","13","Female","true","false","true","true","""event"",""trial"",""time""
""fullscreenenter"",""5"",""12408""
","
","
","""event"",""trial"",""time""
""fullscreenenter"",""5"",""12408""
","
","1164.7000000029802","","48","","","3000","1","","","images/tutgreenplanet.jpg","images/tutalien2","images/tutalien1","images/tutrocket2","images/tutalien2","images/t.png","2","practice","true","2","common","1","2022-07-13 01:38:41.448"
"two-step-fixation","69","402585","0.0-61.0-2.2","813","2151","13","Female","true","false","true","true","""event"",""trial"",""time""
""fullscreenenter"",""5"",""12408""
","
","
","""event"",""trial"",""time""
""fullscreenenter"",""5"",""12408""
","
","","images/earth.jpg","","","","","","","","","","","","","","fixation","","","","","",""
"d3-animate-choice","70","405095","0.0-61.0-0.3","813","2151","13","Female","true","false","true","true","""event"",""trial"",""time""
""fullscreenenter"",""5"",""12408""
","
","
","""event"",""trial"",""time""
""fullscreenenter"",""5"",""12408""
","
","505.09999999403954","","49","","","3000","1","","","images/earth.jpg","images/tutrocket1","images/tutrocket2","null","images/tutrocket2","","1","practice","null","1","","",""
"d3-animate-choice","71","407774","0.0-61.0-1.3","813","2151","13","Female","true","false","true","true","""event"",""trial"",""time""
""fullscreenenter"",""5"",""12408""
","
","
","""event"",""trial"",""time""
""fullscreenenter"",""5"",""12408""
","
","666","","48","","","3000","1","","","images/tutgreenplanet.jpg","images/tutalien2","images/tutalien1","images/tutrocket2","images/tutalien2","images/nothing.png","2","practice","true","2","common","0","2022-07-13 01:38:47.642"
"two-step-fixation","72","408794","0.0-61.0-2.3","813","2151","13","Female","true","false","true","true","""event"",""trial"",""time""
""fullscreenenter"",""5"",""12408""
","
","
","""event"",""trial"",""time""
""fullscreenenter"",""5"",""12408""
","
","","images/earth.jpg","","","","","","","","","","","","","","fixation","","","","","",""
"d3-animate-choice","73","411111","0.0-61.0-0.4","813","2151","13","Female","true","false","true","true","""event"",""trial"",""time""
""fullscreenenter"",""5"",""12408""
","
","
","""event"",""trial"",""time""
""fullscreenenter"",""5"",""12408""
","
","313","","48","","","3000","1","","","images/earth.jpg","images/tutrocket1","images/tutrocket2","null","images/tutrocket1","","1","practice","null","2","","",""
"d3-animate-choice","74","413679","0.0-61.0-1.4","813","2151","13","Female","true","false","true","true","""event"",""trial"",""time""
""fullscreenenter"",""5"",""12408""
","
","
","""event"",""trial"",""time""
""fullscreenenter"",""5"",""12408""
","
","565.2000000029802","","49","","","3000","1","","","images/tutyellowplanet.jpg","images/tutalien4","images/tutalien3","images/tutrocket1","images/tutalien3","images/nothing.png","2","practice","true","1","common","0","2022-07-13 01:38:53.547"
"two-step-fixation","75","414683","0.0-61.0-2.4","813","2151","13","Female","true","false","true","true","""event"",""trial"",""time""
""fullscreenenter"",""5"",""12408""
","
","
","""event"",""trial"",""time""
""fullscreenenter"",""5"",""12408""
","
","","images/earth.jpg","","","","","","","","","","","","","","fixation","","","","","",""
"d3-animate-choice","76","417024","0.0-61.0-0.5","813","2151","13","Female","true","false","true","true","""event"",""trial"",""time""
""fullscreenenter"",""5"",""12408""
","
","
","""event"",""trial"",""time""
""fullscreenenter"",""5"",""12408""
","
","337.59999999403954","","49","","","3000","1","","","images/earth.jpg","images/tutrocket1","images/tutrocket2","null","images/tutrocket2","","1","practice","null","1","","",""
"d3-animate-choice","77","419423","0.0-61.0-1.5","813","2151","13","Female","true","false","true","true","""event"",""trial"",""time""
""fullscreenenter"",""5"",""12408""
","
","
","""event"",""trial"",""time""
""fullscreenenter"",""5"",""12408""
","
","396.20000000298023","","48","","","3000","1","","","images/tutgreenplanet.jpg","images/tutalien2","images/tutalien1","images/tutrocket2","images/tutalien2","images/nothing.png","2","practice","true","2","common","0","2022-07-13 01:38:59.291"
"two-step-fixation","78","420428","0.0-61.0-2.5","813","2151","13","Female","true","false","true","true","""event"",""trial"",""time""
""fullscreenenter"",""5"",""12408""
","
","
","""event"",""trial"",""time""
""fullscreenenter"",""5"",""12408""
","
","","images/earth.jpg","","","","","","","","","","","","","","fixation","","","","","",""
"d3-animate-choice","79","422850","0.0-61.0-0.6","813","2151","13","Female","true","false","true","true","""event"",""trial"",""time""
""fullscreenenter"",""5"",""12408""
","
","
","""event"",""trial"",""time""
""fullscreenenter"",""5"",""12408""
","
","418.59999999403954","","49","","","3000","1","1862.4000000059605","49","images/earth.jpg","images/tutrocket1","images/tutrocket2","null","images/tutrocket2","","1","practice","null","1","","",""
"d3-animate-choice","80","425100","0.0-61.0-1.6","813","2151","13","Female","true","false","true","true","""event"",""trial"",""time""
""fullscreenenter"",""5"",""12408""
","
","
","""event"",""trial"",""time""
""fullscreenenter"",""5"",""12408""
","
","247.09999999403954","","49","","","3000","1","","","images/tutgreenplanet.jpg","images/tutalien2","images/tutalien1","images/tutrocket2","images/tutalien1","images/nothing.png","2","practice","true","1","common","0","2022-07-13 01:39:04.969"
"two-step-fixation","81","426103","0.0-61.0-2.6","813","2151","13","Female","true","false","true","true","""event"",""trial"",""time""
""fullscreenenter"",""5"",""12408""
","
","
","""event"",""trial"",""time""
""fullscreenenter"",""5"",""12408""
","
","","images/earth.jpg","","","","","","","","","","","","","","fixation","","","","","",""
"d3-animate-choice","82","428353","0.0-61.0-0.7","813","2151","13","Female","true","false","true","true","""event"",""trial"",""time""
""fullscreenenter"",""5"",""12408""
","
","
","""event"",""trial"",""time""
""fullscreenenter"",""5"",""12408""
","
","246.79999999701977","","48","","","3000","1","","","images/earth.jpg","images/tutrocket1","images/tutrocket2","null","images/tutrocket1","","1","practice","null","2","","",""
"d3-animate-choice","83","430805","0.0-61.0-1.7","813","2151","13","Female","true","false","true","true","""event"",""trial"",""time""
""fullscreenenter"",""5"",""12408""
","
","
","""event"",""trial"",""time""
""fullscreenenter"",""5"",""12408""
","
","448.70000000298023","","48","","","3000","1","","","images/tutgreenplanet.jpg","images/tutalien2","images/tutalien1","images/tutrocket1","images/tutalien2","images/nothing.png","2","practice","false","2","rare","0","2022-07-13 01:39:10.673"
"two-step-fixation","84","431810","0.0-61.0-2.7","813","2151","13","Female","true","false","true","true","""event"",""trial"",""time""
""fullscreenenter"",""5"",""12408""
","
","
","""event"",""trial"",""time""
""fullscreenenter"",""5"",""12408""
","
","","images/earth.jpg","","","","","","","","","","","","","","fixation","","","","","",""
"d3-animate-choice","85","434210","0.0-61.0-0.8","813","2151","13","Female","true","false","true","true","""event"",""trial"",""time""
""fullscreenenter"",""5"",""12408""
","
","
","""event"",""trial"",""time""
""fullscreenenter"",""5"",""12408""
","
","396.40000000596046","","49","","","3000","1","","","images/earth.jpg","images/tutrocket1","images/tutrocket2","null","images/tutrocket2","","1","practice","null","1","","",""
"d3-animate-choice","86","436664","0.0-61.0-1.8","813","2151","13","Female","true","false","true","true","""event"",""trial"",""time""
""fullscreenenter"",""5"",""12408""
","
","
","""event"",""trial"",""time""
""fullscreenenter"",""5"",""12408""
","
","451.09999999403954","","48","","","3000","1","","","images/tutgreenplanet.jpg","images/tutalien2","images/tutalien1","images/tutrocket2","images/tutalien2","images/nothing.png","2","practice","true","2","common","0","2022-07-13 01:39:16.533"
"two-step-fixation","87","437669","0.0-61.0-2.8","813","2151","13","Female","true","false","true","true","""event"",""trial"",""time""
""fullscreenenter"",""5"",""12408""
","
","
","""event"",""trial"",""time""
""fullscreenenter"",""5"",""12408""
","
","","images/earth.jpg","","","","","","","","","","","","","","fixation","","","","","",""
"d3-animate-choice","88","440043","0.0-61.0-0.9","813","2151","13","Female","true","false","true","true","""event"",""trial"",""time""
""fullscreenenter"",""5"",""12408""
","
","
","""event"",""trial"",""time""
""fullscreenenter"",""5"",""12408""
","
","370.5","","49","","","3000","1","","","images/earth.jpg","images/tutrocket1","images/tutrocket2","null","images/tutrocket2","","1","practice","null","1","","",""
"d3-animate-choice","89","442434","0.0-61.0-1.9","813","2151","13","Female","true","false","true","true","""event"",""trial"",""time""
""fullscreenenter"",""5"",""12408""
","
","
","""event"",""trial"",""time""
""fullscreenenter"",""5"",""12408""
","
","388.5","","49","","","3000","1","","","images/tutgreenplanet.jpg","images/tutalien2","images/tutalien1","images/tutrocket2","images/tutalien1","images/t.png","2","practice","true","1","common","1","2022-07-13 01:39:22.302"
"two-step-fixation","90","443438","0.0-61.0-2.9","813","2151","13","Female","true","false","true","true","""event"",""trial"",""time""
""fullscreenenter"",""5"",""12408""
","
","
","""event"",""trial"",""time""
""fullscreenenter"",""5"",""12408""
","
","","images/earth.jpg","","","","","","","","","","","","","","fixation","","","","","",""
"d3-animate-choice","91","445700","0.0-61.0-0.10","813","2151","13","Female","true","false","true","true","""event"",""trial"",""time""
""fullscreenenter"",""5"",""12408""
","
","
","""event"",""trial"",""time""
""fullscreenenter"",""5"",""12408""
","
","258.90000000596046","","49","","","3000","1","","","images/earth.jpg","images/tutrocket1","images/tutrocket2","null","images/tutrocket2","","1","practice","null","1","","",""
"d3-animate-choice","92","448060","0.0-61.0-1.10","813","2151","13","Female","true","false","true","true","""event"",""trial"",""time""
""fullscreenenter"",""5"",""12408""
","
","
","""event"",""trial"",""time""
""fullscreenenter"",""5"",""12408""
","
","356.6000000089407","","49","","","3000","1","","","images/tutyellowplanet.jpg","images/tutalien4","images/tutalien3","images/tutrocket2","images/tutalien3","images/nothing.png","2","practice","false","1","rare","0","2022-07-13 01:39:27.928"
"two-step-fixation","93","449064","0.0-61.0-2.10","813","2151","13","Female","true","false","true","true","""event"",""trial"",""time""
""fullscreenenter"",""5"",""12408""
","
","
","""event"",""trial"",""time""
""fullscreenenter"",""5"",""12408""
","
","","images/earth.jpg","","","","","","","","","","","","","","fixation","","","","","",""
"d3-animate-choice","94","451353","0.0-61.0-0.11","813","2151","13","Female","true","false","true","true","""event"",""trial"",""time""
""fullscreenenter"",""5"",""12408""
","
","
","""event"",""trial"",""time""
""fullscreenenter"",""5"",""12408""
","
","284.79999999701977","","49","","","3000","1","","","images/earth.jpg","images/tutrocket1","images/tutrocket2","null","images/tutrocket2","","1","practice","null","1","","",""
"d3-animate-choice","95","453834","0.0-61.0-1.11","813","2151","13","Female","true","false","true","true","""event"",""trial"",""time""
""fullscreenenter"",""5"",""12408""
","
","
","""event"",""trial"",""time""
""fullscreenenter"",""5"",""12408""
","
","478","","49","","","3000","1","","","images/tutyellowplanet.jpg","images/tutalien4","images/tutalien3","images/tutrocket2","images/tutalien3","images/t.png","2","practice","false","1","rare","1","2022-07-13 01:39:33.703"
"two-step-fixation","96","454839","0.0-61.0-2.11","813","2151","13","Female","true","false","true","true","""event"",""trial"",""time""
""fullscreenenter"",""5"",""12408""
","
","
","""event"",""trial"",""time""
""fullscreenenter"",""5"",""12408""
","
","","images/earth.jpg","","","","","","","","","","","","","","fixation","","","","","",""
"d3-animate-choice","97","457166","0.0-61.0-0.12","813","2151","13","Female","true","false","true","true","""event"",""trial"",""time""
""fullscreenenter"",""5"",""12408""
","
","
","""event"",""trial"",""time""
""fullscreenenter"",""5"",""12408""
","
","323","","49","","","3000","1","","","images/earth.jpg","images/tutrocket1","images/tutrocket2","null","images/tutrocket2","","1","practice","null","1","","",""
"d3-animate-choice","98","459985","0.0-61.0-1.12","813","2151","13","Female","true","false","true","true","""event"",""trial"",""time""
""fullscreenenter"",""5"",""12408""
","
","
","""event"",""trial"",""time""
""fullscreenenter"",""5"",""12408""
","
","816.9000000059605","","48","","","3000","1","","","images/tutyellowplanet.jpg","images/tutalien4","images/tutalien3","images/tutrocket2","images/tutalien4","images/t.png","2","practice","false","2","rare","1","2022-07-13 01:39:39.853"
"two-step-fixation","99","460988","0.0-61.0-2.12","813","2151","13","Female","true","false","true","true","""event"",""trial"",""time""
""fullscreenenter"",""5"",""12408""
","
","
","""event"",""trial"",""time""
""fullscreenenter"",""5"",""12408""
","
","","images/earth.jpg","","","","","","","","","","","","","","fixation","","","","","",""
"d3-animate-choice","100","463319","0.0-61.0-0.13","813","2151","13","Female","true","false","true","true","""event"",""trial"",""time""
""fullscreenenter"",""5"",""12408""
","
","
","""event"",""trial"",""time""
""fullscreenenter"",""5"",""12408""
","
","327","","49","","","3000","1","","","images/earth.jpg","images/tutrocket1","images/tutrocket2","null","images/tutrocket2","","1","practice","null","1","","",""
"d3-animate-choice","101","466049","0.0-61.0-1.13","813","2151","13","Female","true","false","true","true","""event"",""trial"",""time""
""fullscreenenter"",""5"",""12408""
","
","
","""event"",""trial"",""time""
""fullscreenenter"",""5"",""12408""
","
","726.4000000059605","","48","","","3000","1","","","images/tutyellowplanet.jpg","images/tutalien4","images/tutalien3","images/tutrocket2","images/tutalien4","images/t.png","2","practice","false","2","rare","1","2022-07-13 01:39:45.917"
"two-step-fixation","102","467055","0.0-61.0-2.13","813","2151","13","Female","true","false","true","true","""event"",""trial"",""time""
""fullscreenenter"",""5"",""12408""
","
","
","""event"",""trial"",""time""
""fullscreenenter"",""5"",""12408""
","
","","images/earth.jpg","","","","","","","","","","","","","","fixation","","","","","",""
"d3-animate-choice","103","469347","0.0-61.0-0.14","813","2151","13","Female","true","false","true","true","""event"",""trial"",""time""
""fullscreenenter"",""5"",""12408""
","
","
","""event"",""trial"",""time""
""fullscreenenter"",""5"",""12408""
","
","288.90000000596046","","49","","","3000","1","","","images/earth.jpg","images/tutrocket1","images/tutrocket2","null","images/tutrocket2","","1","practice","null","1","","",""
"d3-animate-choice","104","472412","0.0-61.0-1.14","813","2151","13","Female","true","false","true","true","""event"",""trial"",""time""
""fullscreenenter"",""5"",""12408""
","
","
","""event"",""trial"",""time""
""fullscreenenter"",""5"",""12408""
","
","1063.3999999910593","","49","","","3000","1","","","images/tutgreenplanet.jpg","images/tutalien2","images/tutalien1","images/tutrocket2","images/tutalien1","images/t.png","2","practice","true","1","common","1","2022-07-13 01:39:52.280"
"two-step-fixation","105","473416","0.0-61.0-2.14","813","2151","13","Female","true","false","true","true","""event"",""trial"",""time""
""fullscreenenter"",""5"",""12408""
","
","
","""event"",""trial"",""time""
""fullscreenenter"",""5"",""12408""
","
","","images/earth.jpg","","","","","","","","","","","","","","fixation","","","","","",""
"d3-animate-choice","106","475923","0.0-61.0-0.15","813","2151","13","Female","true","false","true","true","""event"",""trial"",""time""
""fullscreenenter"",""5"",""12408""
","
","
","""event"",""trial"",""time""
""fullscreenenter"",""5"",""12408""
","
","502.90000000596046","","48","","","3000","1","","","images/earth.jpg","images/tutrocket1","images/tutrocket2","null","images/tutrocket1","","1","practice","null","2","","",""
"d3-animate-choice","107","478778","0.0-61.0-1.15","813","2151","13","Female","true","false","true","true","""event"",""trial"",""time""
""fullscreenenter"",""5"",""12408""
","
","
","""event"",""trial"",""time""
""fullscreenenter"",""5"",""12408""
","
","851.3999999910593","","48","","","3000","1","","","images/tutyellowplanet.jpg","images/tutalien4","images/tutalien3","images/tutrocket1","images/tutalien4","images/t.png","2","practice","true","2","common","1","2022-07-13 01:39:58.646"
"two-step-fixation","108","479781","0.0-61.0-2.15","813","2151","13","Female","true","false","true","true","""event"",""trial"",""time""
""fullscreenenter"",""5"",""12408""
","
","
","""event"",""trial"",""time""
""fullscreenenter"",""5"",""12408""
","
","","images/earth.jpg","","","","","","","","","","","","","","fixation","","","","","",""
"d3-animate-choice","109","482151","0.0-61.0-0.16","813","2151","13","Female","true","false","true","true","""event"",""trial"",""time""
""fullscreenenter"",""5"",""12408""
","
","
","""event"",""trial"",""time""
""fullscreenenter"",""5"",""12408""
","
","367","","49","","","3000","1","","","images/earth.jpg","images/tutrocket1","images/tutrocket2","null","images/tutrocket2","","1","practice","null","1","","",""
"d3-animate-choice","110","484935","0.0-61.0-1.16","813","2151","13","Female","true","false","true","true","""event"",""trial"",""time""
""fullscreenenter"",""5"",""12408""
","
","
","""event"",""trial"",""time""
""fullscreenenter"",""5"",""12408""
","
","779.6999999880791","","49","","","3000","1","","","images/tutgreenplanet.jpg","images/tutalien2","images/tutalien1","images/tutrocket2","images/tutalien1","images/t.png","2","practice","true","1","common","1","2022-07-13 01:40:04.803"
"two-step-fixation","111","485938","0.0-61.0-2.16","813","2151","13","Female","true","false","true","true","""event"",""trial"",""time""
""fullscreenenter"",""5"",""12408""
","
","
","""event"",""trial"",""time""
""fullscreenenter"",""5"",""12408""
","
","","images/earth.jpg","","","","","","","","","","","","","","fixation","","","","","",""
"d3-animate-choice","112","488281","0.0-61.0-0.17","813","2151","13","Female","true","false","true","true","""event"",""trial"",""time""
""fullscreenenter"",""5"",""12408""
","
","
","""event"",""trial"",""time""
""fullscreenenter"",""5"",""12408""
","
","339.09999999403954","","48","","","3000","1","","","images/earth.jpg","images/tutrocket1","images/tutrocket2","null","images/tutrocket1","","1","practice","null","2","","",""
"d3-animate-choice","113","490889","0.0-61.0-1.17","813","2151","13","Female","true","false","true","true","""event"",""trial"",""time""
""fullscreenenter"",""5"",""12408""
","
","
","""event"",""trial"",""time""
""fullscreenenter"",""5"",""12408""
","
","604.2000000029802","","48","","","3000","1","","","images/tutyellowplanet.jpg","images/tutalien4","images/tutalien3","images/tutrocket1","images/tutalien4","images/nothing.png","2","practice","true","2","common","0","2022-07-13 01:40:10.757"
"two-step-fixation","114","491893","0.0-61.0-2.17","813","2151","13","Female","true","false","true","true","""event"",""trial"",""time""
""fullscreenenter"",""5"",""12408""
","
","
","""event"",""trial"",""time""
""fullscreenenter"",""5"",""12408""
","
","","images/earth.jpg","","","","","","","","","","","","","","fixation","","","","","",""
"d3-animate-choice","115","494291","0.0-61.0-0.18","813","2151","13","Female","true","false","true","true","""event"",""trial"",""time""
""fullscreenenter"",""5"",""12408""
","
","
","""event"",""trial"",""time""
""fullscreenenter"",""5"",""12408""
","
","393.79999999701977","","49","","","3000","1","","","images/earth.jpg","images/tutrocket1","images/tutrocket2","null","images/tutrocket2","","1","practice","null","1","","",""
"d3-animate-choice","116","496574","0.0-61.0-1.18","813","2151","13","Female","true","false","true","true","""event"",""trial"",""time""
""fullscreenenter"",""5"",""12408""
","
","
","""event"",""trial"",""time""
""fullscreenenter"",""5"",""12408""
","
","280.20000000298023","","49","","","3000","1","","","images/tutgreenplanet.jpg","images/tutalien2","images/tutalien1","images/tutrocket2","images/tutalien1","images/nothing.png","2","practice","true","1","common","0","2022-07-13 01:40:16.442"
"two-step-fixation","117","497578","0.0-61.0-2.18","813","2151","13","Female","true","false","true","true","""event"",""trial"",""time""
""fullscreenenter"",""5"",""12408""
","
","
","""event"",""trial"",""time""
""fullscreenenter"",""5"",""12408""
","
","","images/earth.jpg","","","","","","","","","","","","","","fixation","","","","","",""
"d3-animate-choice","118","499873","0.0-61.0-0.19","813","2151","13","Female","true","false","true","true","""event"",""trial"",""time""
""fullscreenenter"",""5"",""12408""
","
","
","""event"",""trial"",""time""
""fullscreenenter"",""5"",""12408""
","
","291","","49","","","3000","1","","","images/earth.jpg","images/tutrocket1","images/tutrocket2","null","images/tutrocket2","","1","practice","null","1","","",""
"d3-animate-choice","119","502461","0.0-61.0-1.19","813","2151","13","Female","true","false","true","true","""event"",""trial"",""time""
""fullscreenenter"",""5"",""12408""
","
","
","""event"",""trial"",""time""
""fullscreenenter"",""5"",""12408""
","
","584.7999999970198","","48","","","3000","1","","","images/tutyellowplanet.jpg","images/tutalien4","images/tutalien3","images/tutrocket2","images/tutalien4","images/nothing.png","2","practice","false","2","rare","0","2022-07-13 01:40:22.329"
"two-step-fixation","120","503465","0.0-61.0-2.19","813","2151","13","Female","true","false","true","true","""event"",""trial"",""time""
""fullscreenenter"",""5"",""12408""
","
","
","""event"",""trial"",""time""
""fullscreenenter"",""5"",""12408""
","
","","images/earth.jpg","","","","","","","","","","","","","","fixation","","","","","",""
"d3-instructions","121","508506","0.0-62.0","813","2151","13","Female","true","false","true","true","""event"",""trial"",""time""
""fullscreenenter"",""5"",""12408""
","
","
","""event"",""trial"",""time""
""fullscreenenter"",""5"",""12408""
","
","","","","","","","","","","","","","","","","","","","","","",""
"audio-keyboard-response","122","511809","0.0-63.0","813","2151","13","Female","true","false","true","true","""event"",""trial"",""time""
""fullscreenenter"",""5"",""12408""
","
","
","""event"",""trial"",""time""
""fullscreenenter"",""5"",""12408""
","
","3301","audio/instructions/treasure_feedback.wav","32","","","","","","","","","","","","","","","","","","",""
"d3-instructions","123","530582","0.0-64.0","813","2151","13","Female","true","false","true","true","""event"",""trial"",""time""
""fullscreenenter"",""5"",""12408""
","
","
","""event"",""trial"",""time""
""fullscreenenter"",""5"",""12408""
","
","","","","","","","","","","","","","","","","","","","","","",""
"d3-instructions","124","544590","0.0-65.0","813","2151","13","Female","true","false","true","true","""event"",""trial"",""time""
""fullscreenenter"",""5"",""12408""
","
","
","""event"",""trial"",""time""
""fullscreenenter"",""5"",""12408""
","
","","","","","","","","","","","","","","","","","","","","","",""
"d3-instructions","125","568788","0.0-66.0","813","2151","13","Female","true","false","true","true","""event"",""trial"",""time""
""fullscreenenter"",""5"",""12408""
","
","
","""event"",""trial"",""time""
""fullscreenenter"",""5"",""12408""
","
","","","","","","","","","","","","","","","","","","","","","",""
"d3-instructions","126","584563","0.0-67.0","813","2151","13","Female","true","false","true","true","""event"",""trial"",""time""
""fullscreenenter"",""5"",""12408""
","
","
","""event"",""trial"",""time""
""fullscreenenter"",""5"",""12408""
","
","","","","","","","","","","","","","","","","","","","","","",""
"d3-instructions","127","588042","0.0-68.0","813","2151","13","Female","true","false","true","true","""event"",""trial"",""time""
""fullscreenenter"",""5"",""12408""
","
","
","""event"",""trial"",""time""
""fullscreenenter"",""5"",""12408""
","
","","","","","","","","","","","","","","","","","","","","","",""
"instructions-quiz","128","591976","0.0-69.0","813","2151","13","Female","true","false","true","true","""event"",""trial"",""time""
""fullscreenenter"",""5"",""12408""
","
","
","""event"",""trial"",""time""
""fullscreenenter"",""5"",""12408""
","
","3930.8999999910593","audio/quiz/Q1_Prompt.wav","","1","","","","","","","","","","","","","","","","","",""
"audio-keyboard-response","129","600950","0.0-70.0","813","2151","13","Female","true","false","true","true","""event"",""trial"",""time""
""fullscreenenter"",""5"",""12408""
","
","
","""event"",""trial"",""time""
""fullscreenenter"",""5"",""12408""
","
","8971","audio/quiz/Q1_Correct.wav","32","","","","","","","","","","","","","","","","","","",""
"instructions-quiz","130","605878","0.0-71.0","813","2151","13","Female","true","false","true","true","""event"",""trial"",""time""
""fullscreenenter"",""5"",""12408""
","
","
","""event"",""trial"",""time""
""fullscreenenter"",""5"",""12408""
","
","4926.70000000298","audio/quiz/Q2_Prompt.wav","","0","","","","","","","","","","","","","","","","","",""
"audio-keyboard-response","131","610883","0.0-72.0","813","2151","13","Female","true","false","true","true","""event"",""trial"",""time""
""fullscreenenter"",""5"",""12408""
","
","
","""event"",""trial"",""time""
""fullscreenenter"",""5"",""12408""
","
","5000","audio/quiz/Q2_Correct.wav","32","","","","","","","","","","","","","","","","","","",""
"instructions-quiz","132","612928","0.0-73.0","813","2151","13","Female","true","false","true","true","""event"",""trial"",""time""
""fullscreenenter"",""5"",""12408""
","
","
","""event"",""trial"",""time""
""fullscreenenter"",""5"",""12408""
","
","2044.0999999940395","audio/quiz/Q3_Prompt.wav","","1","","","","","","","","","","","","","","","","","",""
"audio-keyboard-response","133","613727","0.0-74.0","813","2151","13","Female","true","false","true","true","""event"",""trial"",""time""
""fullscreenenter"",""5"",""12408""
","
","
","""event"",""trial"",""time""
""fullscreenenter"",""5"",""12408""
","
","800","audio/quiz/Q3_Correct.wav","32","","","","","","","","","","","","","","","","","","",""
"d3-instructions","134","627007","0.0-75.0","813","2151","13","Female","true","false","true","true","""event"",""trial"",""time""
""fullscreenenter"",""5"",""12408""
","
","
","""event"",""trial"",""time""
""fullscreenenter"",""5"",""12408""
","
","","","","","","","","","","","","","","","","","","","","","",""
"d3-animate-choice","135","630045","0.0-76.0-0.0","813","2151","13","Female","true","false","true","true","""event"",""trial"",""time""
""fullscreenenter"",""5"",""12408""
","
","
","""event"",""trial"",""time""
""fullscreenenter"",""5"",""12408""
","
","1028.5","","49","","","3000","1","","","images/earth.jpg","images/rocket2","images/rocket1","null","images/rocket1","","1","real","null","1","","",""
"d3-animate-choice","136","632937","0.0-76.0-1.0","813","2151","13","Female","true","false","true","true","""event"",""trial"",""time""
""fullscreenenter"",""5"",""12408""
","
","
","""event"",""trial"",""time""
""fullscreenenter"",""5"",""12408""
","
","885.5999999940395","","49","","","3000","1","","","images/redplanet1.jpg","images/alien2","images/alien1","images/rocket1","images/alien1","images/nothing.png","2","real","false","1","rare","0","2022-07-13 01:42:32.805"
"two-step-fixation","137","633941","0.0-76.0-2.0","813","2151","13","Female","true","false","true","true","""event"",""trial"",""time""
""fullscreenenter"",""5"",""12408""
","
","
","""event"",""trial"",""time""
""fullscreenenter"",""5"",""12408""
","
","","images/earth.jpg","","","","","","","","","","","","","","fixation","","","","","",""
"d3-animate-choice","138","636321","0.0-76.0-0.1","813","2151","13","Female","true","false","true","true","""event"",""trial"",""time""
""fullscreenenter"",""5"",""12408""
","
","
","""event"",""trial"",""time""
""fullscreenenter"",""5"",""12408""
","
","376.1000000089407","","49","","","3000","1","","","images/earth.jpg","images/rocket2","images/rocket1","null","images/rocket1","","1","real","null","1","","",""
"d3-animate-choice","139","639694","0.0-76.0-1.1","813","2151","13","Female","true","false","true","true","""event"",""trial"",""time""
""fullscreenenter"",""5"",""12408""
","
","
","""event"",""trial"",""time""
""fullscreenenter"",""5"",""12408""
","
","1369.5999999940395","","49","","","3000","1","","","images/purpleplanet.jpg","images/alien4","images/alien3","images/rocket1","images/alien3","images/nothing.png","2","real","true","1","common","0","2022-07-13 01:42:39.562"
"two-step-fixation","140","640699","0.0-76.0-2.1","813","2151","13","Female","true","false","true","true","""event"",""trial"",""time""
""fullscreenenter"",""5"",""12408""
","
","
","""event"",""trial"",""time""
""fullscreenenter"",""5"",""12408""
","
","","images/earth.jpg","","","","","","","","","","","","","","fixation","","","","","",""
"d3-animate-choice","141","642947","0.0-76.0-0.2","813","2151","13","Female","true","false","true","true","""event"",""trial"",""time""
""fullscreenenter"",""5"",""12408""
","
","
","""event"",""trial"",""time""
""fullscreenenter"",""5"",""12408""
","
","244.29999999701977","","49","","","3000","1","","","images/earth.jpg","images/rocket2","images/rocket1","null","images/rocket1","","1","real","null","1","","",""
"d3-animate-choice","142","645605","0.0-76.0-1.2","813","2151","13","Female","true","false","true","true","""event"",""trial"",""time""
""fullscreenenter"",""5"",""12408""
","
","
","""event"",""trial"",""time""
""fullscreenenter"",""5"",""12408""
","
","645.7000000029802","","48","","","3000","1","","","images/purpleplanet.jpg","images/alien4","images/alien3","images/rocket1","images/alien4","images/t.png","2","real","true","2","common","1","2022-07-13 01:42:45.474"
"two-step-fixation","143","646610","0.0-76.0-2.2","813","2151","13","Female","true","false","true","true","""event"",""trial"",""time""
""fullscreenenter"",""5"",""12408""
","
","
","""event"",""trial"",""time""
""fullscreenenter"",""5"",""12408""
","
","","images/earth.jpg","","","","","","","","","","","","","","fixation","","","","","",""
"d3-animate-choice","144","649047","0.0-76.0-0.3","813","2151","13","Female","true","false","true","true","""event"",""trial"",""time""
""fullscreenenter"",""5"",""12408""
","
","
","""event"",""trial"",""time""
""fullscreenenter"",""5"",""12408""
","
","433.29999999701977","","49","","","3000","1","","","images/earth.jpg","images/rocket2","images/rocket1","null","images/rocket1","","1","real","null","1","","",""
"d3-animate-choice","145","651438","0.0-76.0-1.3","813","2151","13","Female","true","false","true","true","""event"",""trial"",""time""
""fullscreenenter"",""5"",""12408""
","
","
","""event"",""trial"",""time""
""fullscreenenter"",""5"",""12408""
","
","387","","48","","","3000","1","","","images/purpleplanet.jpg","images/alien4","images/alien3","images/rocket1","images/alien4","images/t.png","2","real","true","2","common","1","2022-07-13 01:42:51.306"
"two-step-fixation","146","652442","0.0-76.0-2.3","813","2151","13","Female","true","false","true","true","""event"",""trial"",""time""
""fullscreenenter"",""5"",""12408""
","
","
","""event"",""trial"",""time""
""fullscreenenter"",""5"",""12408""
","
","","images/earth.jpg","","","","","","","","","","","","","","fixation","","","","","",""
"d3-animate-choice","147","654809","0.0-76.0-0.4","813","2151","13","Female","true","false","true","true","""event"",""trial"",""time""
""fullscreenenter"",""5"",""12408""
","
","
","""event"",""trial"",""time""
""fullscreenenter"",""5"",""12408""
","
","364","","49","","","3000","1","","","images/earth.jpg","images/rocket2","images/rocket1","null","images/rocket1","","1","real","null","1","","",""
"d3-animate-choice","148","657255","0.0-76.0-1.4","813","2151","13","Female","true","false","true","true","""event"",""trial"",""time""
""fullscreenenter"",""5"",""12408""
","
","
","""event"",""trial"",""time""
""fullscreenenter"",""5"",""12408""
","
","442.20000000298023","","48","","","3000","1","","","images/purpleplanet.jpg","images/alien4","images/alien3","images/rocket1","images/alien4","images/t.png","2","real","true","2","common","1","2022-07-13 01:42:57.123"
"two-step-fixation","149","658259","0.0-76.0-2.4","813","2151","13","Female","true","false","true","true","""event"",""trial"",""time""
""fullscreenenter"",""5"",""12408""
","
","
","""event"",""trial"",""time""
""fullscreenenter"",""5"",""12408""
","
","","images/earth.jpg","","","","","","","","","","","","","","fixation","","","","","",""
"d3-animate-choice","150","660622","0.0-76.0-0.5","813","2151","13","Female","true","false","true","true","""event"",""trial"",""time""
""fullscreenenter"",""5"",""12408""
","
","
","""event"",""trial"",""time""
""fullscreenenter"",""5"",""12408""
","
","359.5","","49","","","3000","1","","","images/earth.jpg","images/rocket2","images/rocket1","null","images/rocket1","","1","real","null","1","","",""
"d3-animate-choice","151","663080","0.0-76.0-1.5","813","2151","13","Female","true","false","true","true","""event"",""trial"",""time""
""fullscreenenter"",""5"",""12408""
","
","
","""event"",""trial"",""time""
""fullscreenenter"",""5"",""12408""
","
","453.79999999701977","","48","","","3000","1","","","images/purpleplanet.jpg","images/alien4","images/alien3","images/rocket1","images/alien4","images/t.png","2","real","true","2","common","1","2022-07-13 01:43:02.948"
"two-step-fixation","152","664083","0.0-76.0-2.5","813","2151","13","Female","true","false","true","true","""event"",""trial"",""time""
""fullscreenenter"",""5"",""12408""
","
","
","""event"",""trial"",""time""
""fullscreenenter"",""5"",""12408""
","
","","images/earth.jpg","","","","","","","","","","","","","","fixation","","","","","",""
"d3-animate-choice","153","666465","0.0-76.0-0.6","813","2151","13","Female","true","false","true","true","""event"",""trial"",""time""
""fullscreenenter"",""5"",""12408""
","
","
","""event"",""trial"",""time""
""fullscreenenter"",""5"",""12408""
","
","377.70000000298023","","49","","","3000","1","","","images/earth.jpg","images/rocket2","images/rocket1","null","images/rocket1","","1","real","null","1","","",""
"d3-animate-choice","154","669417","0.0-76.0-1.6","813","2151","13","Female","true","false","true","true","""event"",""trial"",""time""
""fullscreenenter"",""5"",""12408""
","
","
","""event"",""trial"",""time""
""fullscreenenter"",""5"",""12408""
","
","949.5","","48","","","3000","1","","","images/redplanet1.jpg","images/alien2","images/alien1","images/rocket1","images/alien2","images/t.png","2","real","false","2","rare","1","2022-07-13 01:43:09.285"
"two-step-fixation","155","670422","0.0-76.0-2.6","813","2151","13","Female","true","false","true","true","""event"",""trial"",""time""
""fullscreenenter"",""5"",""12408""
","
","
","""event"",""trial"",""time""
""fullscreenenter"",""5"",""12408""
","
","","images/earth.jpg","","","","","","","","","","","","","","fixation","","","","","",""
"d3-animate-choice","156","672703","0.0-76.0-0.7","813","2151","13","Female","true","false","true","true","""event"",""trial"",""time""
""fullscreenenter"",""5"",""12408""
","
","
","""event"",""trial"",""time""
""fullscreenenter"",""5"",""12408""
","
","276.8999999910593","","49","","","3000","1","","","images/earth.jpg","images/rocket2","images/rocket1","null","images/rocket1","","1","real","null","1","","",""
"d3-animate-choice","157","675030","0.0-76.0-1.7","813","2151","13","Female","true","false","true","true","""event"",""trial"",""time""
""fullscreenenter"",""5"",""12408""
","
","
","""event"",""trial"",""time""
""fullscreenenter"",""5"",""12408""
","
","324.09999999403954","","48","","","3000","1","","","images/purpleplanet.jpg","images/alien4","images/alien3","images/rocket1","images/alien4","images/t.png","2","real","true","2","common","1","2022-07-13 01:43:14.898"
"two-step-fixation","158","676035","0.0-76.0-2.7","813","2151","13","Female","true","false","true","true","""event"",""trial"",""time""
""fullscreenenter"",""5"",""12408""
","
","
","""event"",""trial"",""time""
""fullscreenenter"",""5"",""12408""
","
","","images/earth.jpg","","","","","","","","","","","","","","fixation","","","","","",""
"d3-animate-choice","159","678415","0.0-76.0-0.8","813","2151","13","Female","true","false","true","true","""event"",""trial"",""time""
""fullscreenenter"",""5"",""12408""
","
","
","""event"",""trial"",""time""
""fullscreenenter"",""5"",""12408""
","
","376.69999998807907","","49","","","3000","1","","","images/earth.jpg","images/rocket2","images/rocket1","null","images/rocket1","","1","real","null","1","","",""
"d3-animate-choice","160","680906","0.0-76.0-1.8","813","2151","13","Female","true","false","true","true","""event"",""trial"",""time""
""fullscreenenter"",""5"",""12408""
","
","
","""event"",""trial"",""time""
""fullscreenenter"",""5"",""12408""
","
","486.90000000596046","","48","","","3000","1","","","images/purpleplanet.jpg","images/alien4","images/alien3","images/rocket1","images/alien4","images/t.png","2","real","true","2","common","1","2022-07-13 01:43:20.774"
"two-step-fixation","161","681911","0.0-76.0-2.8","813","2151","13","Female","true","false","true","true","""event"",""trial"",""time""
""fullscreenenter"",""5"",""12408""
","
","
","""event"",""trial"",""time""
""fullscreenenter"",""5"",""12408""
","
","","images/earth.jpg","","","","","","","","","","","","","","fixation","","","","","",""
"d3-animate-choice","162","684283","0.0-76.0-0.9","813","2151","13","Female","true","false","true","true","""event"",""trial"",""time""
""fullscreenenter"",""5"",""12408""
","
","
","""event"",""trial"",""time""
""fullscreenenter"",""5"",""12408""
","
","368","","49","","","3000","1","","","images/earth.jpg","images/rocket2","images/rocket1","null","images/rocket1","","1","real","null","1","","",""
"d3-animate-choice","163","686736","0.0-76.0-1.9","813","2151","13","Female","true","false","true","true","""event"",""trial"",""time""
""fullscreenenter"",""5"",""12408""
","
","
","""event"",""trial"",""time""
""fullscreenenter"",""5"",""12408""
","
","449","","48","","","3000","1","","","images/purpleplanet.jpg","images/alien4","images/alien3","images/rocket1","images/alien4","images/t.png","2","real","true","2","common","1","2022-07-13 01:43:26.604"
"two-step-fixation","164","687740","0.0-76.0-2.9","813","2151","13","Female","true","false","true","true","""event"",""trial"",""time""
""fullscreenenter"",""5"",""12408""
","
","
","""event"",""trial"",""time""
""fullscreenenter"",""5"",""12408""
","
","","images/earth.jpg","","","","","","","","","","","","","","fixation","","","","","",""
"d3-animate-choice","165","690289","0.0-76.0-0.10","813","2151","13","Female","true","false","true","true","""event"",""trial"",""time""
""fullscreenenter"",""5"",""12408""
","
","
","""event"",""trial"",""time""
""fullscreenenter"",""5"",""12408""
","
","543.5","","49","","","3000","1","","","images/earth.jpg","images/rocket2","images/rocket1","null","images/rocket1","","1","real","null","1","","",""
"d3-animate-choice","166","692756","0.0-76.0-1.10","813","2151","13","Female","true","false","true","true","""event"",""trial"",""time""
""fullscreenenter"",""5"",""12408""
","
","
","""event"",""trial"",""time""
""fullscreenenter"",""5"",""12408""
","
","463.59999999403954","","48","","","3000","1","","","images/purpleplanet.jpg","images/alien4","images/alien3","images/rocket1","images/alien4","images/t.png","2","real","true","2","common","1","2022-07-13 01:43:32.624"
"two-step-fixation","167","693761","0.0-76.0-2.10","813","2151","13","Female","true","false","true","true","""event"",""trial"",""time""
""fullscreenenter"",""5"",""12408""
","
","
","""event"",""trial"",""time""
""fullscreenenter"",""5"",""12408""
","
","","images/earth.jpg","","","","","","","","","","","","","","fixation","","","","","",""
"d3-animate-choice","168","696146","0.0-76.0-0.11","813","2151","13","Female","true","false","true","true","""event"",""trial"",""time""
""fullscreenenter"",""5"",""12408""
","
","
","""event"",""trial"",""time""
""fullscreenenter"",""5"",""12408""
","
","380.3999999910593","","49","","","3000","1","","","images/earth.jpg","images/rocket2","images/rocket1","null","images/rocket1","","1","real","null","1","","",""
"d3-animate-choice","169","698495","0.0-76.0-1.11","813","2151","13","Female","true","false","true","true","""event"",""trial"",""time""
""fullscreenenter"",""5"",""12408""
","
","
","""event"",""trial"",""time""
""fullscreenenter"",""5"",""12408""
","
","345.30000001192093","","48","","","3000","1","","","images/purpleplanet.jpg","images/alien4","images/alien3","images/rocket1","images/alien4","images/t.png","2","real","true","2","common","1","2022-07-13 01:43:38.363"
"two-step-fixation","170","699499","0.0-76.0-2.11","813","2151","13","Female","true","false","true","true","""event"",""trial"",""time""
""fullscreenenter"",""5"",""12408""
","
","
","""event"",""trial"",""time""
""fullscreenenter"",""5"",""12408""
","
","","images/earth.jpg","","","","","","","","","","","","","","fixation","","","","","",""
"d3-animate-choice","171","701798","0.0-76.0-0.12","813","2151","13","Female","true","false","true","true","""event"",""trial"",""time""
""fullscreenenter"",""5"",""12408""
","
","
","""event"",""trial"",""time""
""fullscreenenter"",""5"",""12408""
","
","294.90000000596046","","49","","","3000","1","","","images/earth.jpg","images/rocket2","images/rocket1","null","images/rocket1","","1","real","null","1","","",""
"d3-animate-choice","172","704306","0.0-76.0-1.12","813","2151","13","Female","true","false","true","true","""event"",""trial"",""time""
""fullscreenenter"",""5"",""12408""
","
","
","""event"",""trial"",""time""
""fullscreenenter"",""5"",""12408""
","
","505.1000000089407","","48","","","3000","1","","","images/purpleplanet.jpg","images/alien4","images/alien3","images/rocket1","images/alien4","images/t.png","2","real","true","2","common","1","2022-07-13 01:43:44.174"
"two-step-fixation","173","705310","0.0-76.0-2.12","813","2151","13","Female","true","false","true","true","""event"",""trial"",""time""
""fullscreenenter"",""5"",""12408""
","
","
","""event"",""trial"",""time""
""fullscreenenter"",""5"",""12408""
","
","","images/earth.jpg","","","","","","","","","","","","","","fixation","","","","","",""
"d3-animate-choice","174","708022","0.0-76.0-0.13","813","2151","13","Female","true","false","true","true","""event"",""trial"",""time""
""fullscreenenter"",""5"",""12408""
","
","
","""event"",""trial"",""time""
""fullscreenenter"",""5"",""12408""
","
","707.7000000029802","","49","","","3000","1","","","images/earth.jpg","images/rocket2","images/rocket1","null","images/rocket1","","1","real","null","1","","",""
"d3-animate-choice","175","710635","0.0-76.0-1.13","813","2151","13","Female","true","false","true","true","""event"",""trial"",""time""
""fullscreenenter"",""5"",""12408""
","
","
","""event"",""trial"",""time""
""fullscreenenter"",""5"",""12408""
","
","608.5","","48","","","3000","1","","","images/purpleplanet.jpg","images/alien4","images/alien3","images/rocket1","images/alien4","images/t.png","2","real","true","2","common","1","2022-07-13 01:43:50.503"
"two-step-fixation","176","711639","0.0-76.0-2.13","813","2151","13","Female","true","false","true","true","""event"",""trial"",""time""
""fullscreenenter"",""5"",""12408""
","
","
","""event"",""trial"",""time""
""fullscreenenter"",""5"",""12408""
","
","","images/earth.jpg","","","","","","","","","","","","","","fixation","","","","","",""
"d3-animate-choice","177","713964","0.0-76.0-0.14","813","2151","13","Female","true","false","true","true","""event"",""trial"",""time""
""fullscreenenter"",""5"",""12408""
","
","
","""event"",""trial"",""time""
""fullscreenenter"",""5"",""12408""
","
","322.29999999701977","","49","","","3000","1","","","images/earth.jpg","images/rocket2","images/rocket1","null","images/rocket1","","1","real","null","1","","",""
"d3-animate-choice","178","716949","0.0-76.0-1.14","813","2151","13","Female","true","false","true","true","""event"",""trial"",""time""
""fullscreenenter"",""5"",""12408""
","
","
","""event"",""trial"",""time""
""fullscreenenter"",""5"",""12408""
","
","982","","48","","","3000","1","","","images/redplanet1.jpg","images/alien2","images/alien1","images/rocket1","images/alien2","images/t.png","2","real","false","2","rare","1","2022-07-13 01:43:56.818"
"two-step-fixation","179","717954","0.0-76.0-2.14","813","2151","13","Female","true","false","true","true","""event"",""trial"",""time""
""fullscreenenter"",""5"",""12408""
","
","
","""event"",""trial"",""time""
""fullscreenenter"",""5"",""12408""
","
","","images/earth.jpg","","","","","","","","","","","","","","fixation","","","","","",""
"d3-animate-choice","180","720378","0.0-76.0-0.15","813","2151","13","Female","true","false","true","true","""event"",""trial"",""time""
""fullscreenenter"",""5"",""12408""
","
","
","""event"",""trial"",""time""
""fullscreenenter"",""5"",""12408""
","
","420.1000000089407","","49","","","3000","1","1357.5","49","images/earth.jpg","images/rocket2","images/rocket1","null","images/rocket1","","1","real","null","1","","",""
"d3-animate-choice","181","722830","0.0-76.0-1.15","813","2151","13","Female","true","false","true","true","""event"",""trial"",""time""
""fullscreenenter"",""5"",""12408""
","
","
","""event"",""trial"",""time""
""fullscreenenter"",""5"",""12408""
","
","449.29999999701977","","48","","","3000","1","","","images/redplanet1.jpg","images/alien2","images/alien1","images/rocket1","images/alien2","images/t.png","2","real","false","2","rare","1","2022-07-13 01:44:02.698"
"two-step-fixation","182","723833","0.0-76.0-2.15","813","2151","13","Female","true","false","true","true","""event"",""trial"",""time""
""fullscreenenter"",""5"",""12408""
","
","
","""event"",""trial"",""time""
""fullscreenenter"",""5"",""12408""
","
","","images/earth.jpg","","","","","","","","","","","","","","fixation","","","","","",""
"d3-animate-choice","183","726296","0.0-76.0-0.16","813","2151","13","Female","true","false","true","true","""event"",""trial"",""time""
""fullscreenenter"",""5"",""12408""
","
","
","""event"",""trial"",""time""
""fullscreenenter"",""5"",""12408""
","
","459.20000000298023","","49","","","3000","1","","","images/earth.jpg","images/rocket2","images/rocket1","null","images/rocket1","","1","real","null","1","","",""
"d3-animate-choice","184","728979","0.0-76.0-1.16","813","2151","13","Female","true","false","true","true","""event"",""trial"",""time""
""fullscreenenter"",""5"",""12408""
","
","
","""event"",""trial"",""time""
""fullscreenenter"",""5"",""12408""
","
","678.7000000029802","","48","","","3000","1","","","images/redplanet1.jpg","images/alien2","images/alien1","images/rocket1","images/alien2","images/nothing.png","2","real","false","2","rare","0","2022-07-13 01:44:08.847"
"two-step-fixation","185","729983","0.0-76.0-2.16","813","2151","13","Female","true","false","true","true","""event"",""trial"",""time""
""fullscreenenter"",""5"",""12408""
","
","
","""event"",""trial"",""time""
""fullscreenenter"",""5"",""12408""
","
","","images/earth.jpg","","","","","","","","","","","","","","fixation","","","","","",""
"d3-animate-choice","186","732296","0.0-76.0-0.17","813","2151","13","Female","true","false","true","true","""event"",""trial"",""time""
""fullscreenenter"",""5"",""12408""
","
","
","""event"",""trial"",""time""
""fullscreenenter"",""5"",""12408""
","
","310.5","","49","","","3000","1","","","images/earth.jpg","images/rocket2","images/rocket1","null","images/rocket1","","1","real","null","1","","",""
"d3-animate-choice","187","734930","0.0-76.0-1.17","813","2151","13","Female","true","false","true","true","""event"",""trial"",""time""
""fullscreenenter"",""5"",""12408""
","
","
","""event"",""trial"",""time""
""fullscreenenter"",""5"",""12408""
","
","630.8999999910593","","48","","","3000","1","","","images/redplanet1.jpg","images/alien2","images/alien1","images/rocket1","images/alien2","images/nothing.png","2","real","false","2","rare","0","2022-07-13 01:44:14.798"
"two-step-fixation","188","735934","0.0-76.0-2.17","813","2151","13","Female","true","false","true","true","""event"",""trial"",""time""
""fullscreenenter"",""5"",""12408""
","
","
","""event"",""trial"",""time""
""fullscreenenter"",""5"",""12408""
","
","","images/earth.jpg","","","","","","","","","","","","","","fixation","","","","","",""
"d3-animate-choice","189","738263","0.0-76.0-0.18","813","2151","13","Female","true","false","true","true","""event"",""trial"",""time""
""fullscreenenter"",""5"",""12408""
","
","
","""event"",""trial"",""time""
""fullscreenenter"",""5"",""12408""
","
","324.90000000596046","","49","","","3000","1","","","images/earth.jpg","images/rocket2","images/rocket1","null","images/rocket1","","1","real","null","1","","",""
"d3-animate-choice","190","740819","0.0-76.0-1.18","813","2151","13","Female","true","false","true","true","""event"",""trial"",""time""
""fullscreenenter"",""5"",""12408""
","
","
","""event"",""trial"",""time""
""fullscreenenter"",""5"",""12408""
","
","551.2000000029802","","48","","","3000","1","","","images/purpleplanet.jpg","images/alien4","images/alien3","images/rocket1","images/alien4","images/t.png","2","real","true","2","common","1","2022-07-13 01:44:20.687"
"two-step-fixation","191","741822","0.0-76.0-2.18","813","2151","13","Female","true","false","true","true","""event"",""trial"",""time""
""fullscreenenter"",""5"",""12408""
","
","
","""event"",""trial"",""time""
""fullscreenenter"",""5"",""12408""
","
","","images/earth.jpg","","","","","","","","","","","","","","fixation","","","","","",""
"d3-animate-choice","192","744177","0.0-76.0-0.19","813","2151","13","Female","true","false","true","true","""event"",""trial"",""time""
""fullscreenenter"",""5"",""12408""
","
","
","""event"",""trial"",""time""
""fullscreenenter"",""5"",""12408""
","
","351.70000000298023","","49","","","3000","1","","","images/earth.jpg","images/rocket2","images/rocket1","null","images/rocket1","","1","real","null","1","","",""
"d3-animate-choice","193","746730","0.0-76.0-1.19","813","2151","13","Female","true","false","true","true","""event"",""trial"",""time""
""fullscreenenter"",""5"",""12408""
","
","
","""event"",""trial"",""time""
""fullscreenenter"",""5"",""12408""
","
","549.7999999970198","","49","","","3000","1","","","images/redplanet1.jpg","images/alien2","images/alien1","images/rocket1","images/alien1","images/t.png","2","real","false","1","rare","1","2022-07-13 01:44:26.599"
"two-step-fixation","194","747733","0.0-76.0-2.19","813","2151","13","Female","true","false","true","true","""event"",""trial"",""time""
""fullscreenenter"",""5"",""12408""
","
","
","""event"",""trial"",""time""
""fullscreenenter"",""5"",""12408""
","
","","images/earth.jpg","","","","","","","","","","","","","","fixation","","","","","",""
"d3-animate-choice","195","750064","0.0-76.0-0.20","813","2151","13","Female","true","false","true","true","""event"",""trial"",""time""
""fullscreenenter"",""5"",""12408""
","
","
","""event"",""trial"",""time""
""fullscreenenter"",""5"",""12408""
","
","328.20000000298023","","49","","","3000","1","","","images/earth.jpg","images/rocket2","images/rocket1","null","images/rocket1","","1","real","null","1","","",""
"d3-animate-choice","196","752648","0.0-76.0-1.20","813","2151","13","Female","true","false","true","true","""event"",""trial"",""time""
""fullscreenenter"",""5"",""12408""
","
","
","""event"",""trial"",""time""
""fullscreenenter"",""5"",""12408""
","
","581.7000000029802","","48","","","3000","1","","","images/purpleplanet.jpg","images/alien4","images/alien3","images/rocket1","images/alien4","images/t.png","2","real","true","2","common","1","2022-07-13 01:44:32.516"
"two-step-fixation","197","753652","0.0-76.0-2.20","813","2151","13","Female","true","false","true","true","""event"",""trial"",""time""
""fullscreenenter"",""5"",""12408""
","
","
","""event"",""trial"",""time""
""fullscreenenter"",""5"",""12408""
","
","","images/earth.jpg","","","","","","","","","","","","","","fixation","","","","","",""
"d3-animate-choice","198","755945","0.0-76.0-0.21","813","2151","13","Female","true","false","true","true","""event"",""trial"",""time""
""fullscreenenter"",""5"",""12408""
","
","
","""event"",""trial"",""time""
""fullscreenenter"",""5"",""12408""
","
","288.70000000298023","","49","","","3000","1","","","images/earth.jpg","images/rocket2","images/rocket1","null","images/rocket1","","1","real","null","1","","",""
"d3-animate-choice","199","758712","0.0-76.0-1.21","813","2151","13","Female","true","false","true","true","""event"",""trial"",""time""
""fullscreenenter"",""5"",""12408""
","
","
","""event"",""trial"",""time""
""fullscreenenter"",""5"",""12408""
","
","764.2000000029802","","48","","","3000","1","","","images/purpleplanet.jpg","images/alien4","images/alien3","images/rocket1","images/alien4","images/nothing.png","2","real","true","2","common","0","2022-07-13 01:44:38.581"
"two-step-fixation","200","759717","0.0-76.0-2.21","813","2151","13","Female","true","false","true","true","""event"",""trial"",""time""
""fullscreenenter"",""5"",""12408""
","
","
","""event"",""trial"",""time""
""fullscreenenter"",""5"",""12408""
","
","","images/earth.jpg","","","","","","","","","","","","","","fixation","","","","","",""
"d3-animate-choice","201","762009","0.0-76.0-0.22","813","2151","13","Female","true","false","true","true","""event"",""trial"",""time""
""fullscreenenter"",""5"",""12408""
","
","
","""event"",""trial"",""time""
""fullscreenenter"",""5"",""12408""
","
","287.8999999910593","","49","","","3000","1","","","images/earth.jpg","images/rocket2","images/rocket1","null","images/rocket1","","1","real","null","1","","",""
"d3-animate-choice","202","764497","0.0-76.0-1.22","813","2151","13","Female","true","false","true","true","""event"",""trial"",""time""
""fullscreenenter"",""5"",""12408""
","
","
","""event"",""trial"",""time""
""fullscreenenter"",""5"",""12408""
","
","485.3999999910593","","48","","","3000","1","","","images/purpleplanet.jpg","images/alien4","images/alien3","images/rocket1","images/alien4","images/t.png","2","real","true","2","common","1","2022-07-13 01:44:44.365"
"two-step-fixation","203","765501","0.0-76.0-2.22","813","2151","13","Female","true","false","true","true","""event"",""trial"",""time""
""fullscreenenter"",""5"",""12408""
","
","
","""event"",""trial"",""time""
""fullscreenenter"",""5"",""12408""
","
","","images/earth.jpg","","","","","","","","","","","","","","fixation","","","","","",""
"d3-animate-choice","204","767949","0.0-76.0-0.23","813","2151","13","Female","true","false","true","true","""event"",""trial"",""time""
""fullscreenenter"",""5"",""12408""
","
","
","""event"",""trial"",""time""
""fullscreenenter"",""5"",""12408""
","
","444.5","","49","","","3000","1","","","images/earth.jpg","images/rocket2","images/rocket1","null","images/rocket1","","1","real","null","1","","",""
"d3-animate-choice","205","770386","0.0-76.0-1.23","813","2151","13","Female","true","false","true","true","""event"",""trial"",""time""
""fullscreenenter"",""5"",""12408""
","
","
","""event"",""trial"",""time""
""fullscreenenter"",""5"",""12408""
","
","433.70000000298023","","48","","","3000","1","","","images/purpleplanet.jpg","images/alien4","images/alien3","images/rocket1","images/alien4","images/t.png","2","real","true","2","common","1","2022-07-13 01:44:50.254"
"two-step-fixation","206","771389","0.0-76.0-2.23","813","2151","13","Female","true","false","true","true","""event"",""trial"",""time""
""fullscreenenter"",""5"",""12408""
","
","
","""event"",""trial"",""time""
""fullscreenenter"",""5"",""12408""
","
","","images/earth.jpg","","","","","","","","","","","","","","fixation","","","","","",""
"d3-animate-choice","207","773430","0.0-76.0-0.24","813","2151","13","Female","true","false","true","true","""event"",""trial"",""time""
""fullscreenenter"",""5"",""12408""
","
","
","""event"",""trial"",""time""
""fullscreenenter"",""5"",""12408""
","
","36.5","","49","","","3000","1","","","images/earth.jpg","images/rocket2","images/rocket1","null","images/rocket1","","1","real","null","1","","",""
"d3-animate-choice","208","776064","0.0-76.0-1.24","813","2151","13","Female","true","false","true","true","""event"",""trial"",""time""
""fullscreenenter"",""5"",""12408""
","
","
","""event"",""trial"",""time""
""fullscreenenter"",""5"",""12408""
","
","630.1999999880791","","48","","","3000","1","","","images/purpleplanet.jpg","images/alien4","images/alien3","images/rocket1","images/alien4","images/t.png","2","real","true","2","common","1","2022-07-13 01:44:55.932"
"two-step-fixation","209","777069","0.0-76.0-2.24","813","2151","13","Female","true","false","true","true","""event"",""trial"",""time""
""fullscreenenter"",""5"",""12408""
","
","
","""event"",""trial"",""time""
""fullscreenenter"",""5"",""12408""
","
","","images/earth.jpg","","","","","","","","","","","","","","fixation","","","","","",""
"d3-animate-choice","210","779489","0.0-76.0-0.25","813","2151","13","Female","true","false","true","true","""event"",""trial"",""time""
""fullscreenenter"",""5"",""12408""
","
","
","""event"",""trial"",""time""
""fullscreenenter"",""5"",""12408""
","
","417.59999999403954","","49","","","3000","1","","","images/earth.jpg","images/rocket2","images/rocket1","null","images/rocket1","","1","real","null","1","","",""
"d3-animate-choice","211","782564","0.0-76.0-1.25","813","2151","13","Female","true","false","true","true","""event"",""trial"",""time""
""fullscreenenter"",""5"",""12408""
","
","
","""event"",""trial"",""time""
""fullscreenenter"",""5"",""12408""
","
","1073","","49","","","3000","1","","","images/redplanet1.jpg","images/alien2","images/alien1","images/rocket1","images/alien1","images/t.png","2","real","false","1","rare","1","2022-07-13 01:45:02.432"
"two-step-fixation","212","783568","0.0-76.0-2.25","813","2151","13","Female","true","false","true","true","""event"",""trial"",""time""
""fullscreenenter"",""5"",""12408""
","
","
","""event"",""trial"",""time""
""fullscreenenter"",""5"",""12408""
","
","","images/earth.jpg","","","","","","","","","","","","","","fixation","","","","","",""
"d3-animate-choice","213","785869","0.0-76.0-0.26","813","2151","13","Female","true","false","true","true","""event"",""trial"",""time""
""fullscreenenter"",""5"",""12408""
","
","
","""event"",""trial"",""time""
""fullscreenenter"",""5"",""12408""
","
","297.70000000298023","","49","","","3000","1","","","images/earth.jpg","images/rocket2","images/rocket1","null","images/rocket1","","1","real","null","1","","",""
"d3-animate-choice","214","788605","0.0-76.0-1.26","813","2151","13","Female","true","false","true","true","""event"",""trial"",""time""
""fullscreenenter"",""5"",""12408""
","
","
","""event"",""trial"",""time""
""fullscreenenter"",""5"",""12408""
","
","734.2000000029802","","48","","","3000","1","","","images/purpleplanet.jpg","images/alien4","images/alien3","images/rocket1","images/alien4","images/nothing.png","2","real","true","2","common","0","2022-07-13 01:45:08.474"
"two-step-fixation","215","789609","0.0-76.0-2.26","813","2151","13","Female","true","false","true","true","""event"",""trial"",""time""
""fullscreenenter"",""5"",""12408""
","
","
","""event"",""trial"",""time""
""fullscreenenter"",""5"",""12408""
","
","","images/earth.jpg","","","","","","","","","","","","","","fixation","","","","","",""
"d3-animate-choice","216","792035","0.0-76.0-0.27","813","2151","13","Female","true","false","true","true","""event"",""trial"",""time""
""fullscreenenter"",""5"",""12408""
","
","
","""event"",""trial"",""time""
""fullscreenenter"",""5"",""12408""
","
","423.79999999701977","","49","","","3000","1","","","images/earth.jpg","images/rocket2","images/rocket1","null","images/rocket1","","1","real","null","1","","",""
"d3-animate-choice","217","794817","0.0-76.0-1.27","813","2151","13","Female","true","false","true","true","""event"",""trial"",""time""
""fullscreenenter"",""5"",""12408""
","
","
","""event"",""trial"",""time""
""fullscreenenter"",""5"",""12408""
","
","778.9000000059605","","49","","","3000","1","","","images/redplanet1.jpg","images/alien2","images/alien1","images/rocket1","images/alien1","images/nothing.png","2","real","false","1","rare","0","2022-07-13 01:45:14.685"
"two-step-fixation","218","795821","0.0-76.0-2.27","813","2151","13","Female","true","false","true","true","""event"",""trial"",""time""
""fullscreenenter"",""5"",""12408""
","
","
","""event"",""trial"",""time""
""fullscreenenter"",""5"",""12408""
","
","","images/earth.jpg","","","","","","","","","","","","","","fixation","","","","","",""
"d3-animate-choice","219","798132","0.0-76.0-0.28","813","2151","13","Female","true","false","true","true","""event"",""trial"",""time""
""fullscreenenter"",""5"",""12408""
","
","
","""event"",""trial"",""time""
""fullscreenenter"",""5"",""12408""
","
","305.6000000089407","","49","","","3000","1","","","images/earth.jpg","images/rocket2","images/rocket1","null","images/rocket1","","1","real","null","1","","",""
"d3-animate-choice","220","800639","0.0-76.0-1.28","813","2151","13","Female","true","false","true","true","""event"",""trial"",""time""
""fullscreenenter"",""5"",""12408""
","
","
","""event"",""trial"",""time""
""fullscreenenter"",""5"",""12408""
","
","503","","49","","","3000","1","","","images/purpleplanet.jpg","images/alien4","images/alien3","images/rocket1","images/alien3","images/t.png","2","real","true","1","common","1","2022-07-13 01:45:20.507"
"two-step-fixation","221","801643","0.0-76.0-2.28","813","2151","13","Female","true","false","true","true","""event"",""trial"",""time""
""fullscreenenter"",""5"",""12408""
","
","
","""event"",""trial"",""time""
""fullscreenenter"",""5"",""12408""
","
","","images/earth.jpg","","","","","","","","","","","","","","fixation","","","","","",""
"d3-animate-choice","222","804018","0.0-76.0-0.29","813","2151","13","Female","true","false","true","true","""event"",""trial"",""time""
""fullscreenenter"",""5"",""12408""
","
","
","""event"",""trial"",""time""
""fullscreenenter"",""5"",""12408""
","
","372.40000000596046","","49","","","3000","1","","","images/earth.jpg","images/rocket2","images/rocket1","null","images/rocket1","","1","real","null","1","","",""
"d3-animate-choice","223","806515","0.0-76.0-1.29","813","2151","13","Female","true","false","true","true","""event"",""trial"",""time""
""fullscreenenter"",""5"",""12408""
","
","
","""event"",""trial"",""time""
""fullscreenenter"",""5"",""12408""
","
","494.09999999403954","","49","","","3000","1","","","images/purpleplanet.jpg","images/alien4","images/alien3","images/rocket1","images/alien3","images/nothing.png","2","real","true","1","common","0","2022-07-13 01:45:26.383"
"two-step-fixation","224","807519","0.0-76.0-2.29","813","2151","13","Female","true","false","true","true","""event"",""trial"",""time""
""fullscreenenter"",""5"",""12408""
","
","
","""event"",""trial"",""time""
""fullscreenenter"",""5"",""12408""
","
","","images/earth.jpg","","","","","","","","","","","","","","fixation","","","","","",""
"d3-animate-choice","225","809985","0.0-76.0-0.30","813","2151","13","Female","true","false","true","true","""event"",""trial"",""time""
""fullscreenenter"",""5"",""12408""
","
","
","""event"",""trial"",""time""
""fullscreenenter"",""5"",""12408""
","
","461","","49","","","3000","1","","","images/earth.jpg","images/rocket2","images/rocket1","null","images/rocket1","","1","real","null","1","","",""
"d3-animate-choice","226","812791","0.0-76.0-1.30","813","2151","13","Female","true","false","true","true","""event"",""trial"",""time""
""fullscreenenter"",""5"",""12408""
","
","
","""event"",""trial"",""time""
""fullscreenenter"",""5"",""12408""
","
","802.7000000029802","","49","","","3000","1","","","images/redplanet1.jpg","images/alien2","images/alien1","images/rocket1","images/alien1","images/nothing.png","2","real","false","1","rare","0","2022-07-13 01:45:32.659"
"two-step-fixation","227","813795","0.0-76.0-2.30","813","2151","13","Female","true","false","true","true","""event"",""trial"",""time""
""fullscreenenter"",""5"",""12408""
","
","
","""event"",""trial"",""time""
""fullscreenenter"",""5"",""12408""
","
","","images/earth.jpg","","","","","","","","","","","","","","fixation","","","","","",""
"d3-animate-choice","228","816189","0.0-76.0-0.31","813","2151","13","Female","true","false","true","true","""event"",""trial"",""time""
""fullscreenenter"",""5"",""12408""
","
","
","""event"",""trial"",""time""
""fullscreenenter"",""5"",""12408""
","
","390.5","","49","","","3000","1","","","images/earth.jpg","images/rocket2","images/rocket1","null","images/rocket1","","1","real","null","1","","",""
"d3-animate-choice","229","819174","0.0-76.0-1.31","813","2151","13","Female","true","false","true","true","""event"",""trial"",""time""
""fullscreenenter"",""5"",""12408""
","
","
","""event"",""trial"",""time""
""fullscreenenter"",""5"",""12408""
","
","982.0999999940395","","49","","","3000","1","","","images/purpleplanet.jpg","images/alien4","images/alien3","images/rocket1","images/alien3","images/nothing.png","2","real","true","1","common","0","2022-07-13 01:45:39.042"
"two-step-fixation","230","820177","0.0-76.0-2.31","813","2151","13","Female","true","false","true","true","""event"",""trial"",""time""
""fullscreenenter"",""5"",""12408""
","
","
","""event"",""trial"",""time""
""fullscreenenter"",""5"",""12408""
","
","","images/earth.jpg","","","","","","","","","","","","","","fixation","","","","","",""
"d3-animate-choice","231","822475","0.0-76.0-0.32","813","2151","13","Female","true","false","true","true","""event"",""trial"",""time""
""fullscreenenter"",""5"",""12408""
","
","
","""event"",""trial"",""time""
""fullscreenenter"",""5"",""12408""
","
","292.70000000298023","","49","","","3000","1","","","images/earth.jpg","images/rocket2","images/rocket1","null","images/rocket1","","1","real","null","1","","",""
"d3-animate-choice","232","825002","0.0-76.0-1.32","813","2151","13","Female","true","false","true","true","""event"",""trial"",""time""
""fullscreenenter"",""5"",""12408""
","
","
","""event"",""trial"",""time""
""fullscreenenter"",""5"",""12408""
","
","525.5","","48","","","3000","1","","","images/redplanet1.jpg","images/alien2","images/alien1","images/rocket1","images/alien2","images/nothing.png","2","real","false","2","rare","0","2022-07-13 01:45:44.870"
"two-step-fixation","233","826005","0.0-76.0-2.32","813","2151","13","Female","true","false","true","true","""event"",""trial"",""time""
""fullscreenenter"",""5"",""12408""
","
","
","""event"",""trial"",""time""
""fullscreenenter"",""5"",""12408""
","
","","images/earth.jpg","","","","","","","","","","","","","","fixation","","","","","",""
"d3-animate-choice","234","828495","0.0-76.0-0.33","813","2151","13","Female","true","false","true","true","""event"",""trial"",""time""
""fullscreenenter"",""5"",""12408""
","
","
","""event"",""trial"",""time""
""fullscreenenter"",""5"",""12408""
","
","485.59999999403954","","49","","","3000","1","","","images/earth.jpg","images/rocket2","images/rocket1","null","images/rocket1","","1","real","null","1","","",""
"d3-animate-choice","235","830890","0.0-76.0-1.33","813","2151","13","Female","true","false","true","true","""event"",""trial"",""time""
""fullscreenenter"",""5"",""12408""
","
","
","""event"",""trial"",""time""
""fullscreenenter"",""5"",""12408""
","
","391.30000001192093","","48","","","3000","1","","","images/purpleplanet.jpg","images/alien4","images/alien3","images/rocket1","images/alien4","images/t.png","2","real","true","2","common","1","2022-07-13 01:45:50.758"
"two-step-fixation","236","831893","0.0-76.0-2.33","813","2151","13","Female","true","false","true","true","""event"",""trial"",""time""
""fullscreenenter"",""5"",""12408""
","
","
","""event"",""trial"",""time""
""fullscreenenter"",""5"",""12408""
","
","","images/earth.jpg","","","","","","","","","","","","","","fixation","","","","","",""
"d3-animate-choice","237","834224","0.0-76.0-0.34","813","2151","13","Female","true","false","true","true","""event"",""trial"",""time""
""fullscreenenter"",""5"",""12408""
","
","
","""event"",""trial"",""time""
""fullscreenenter"",""5"",""12408""
","
","328.20000000298023","","49","","","3000","1","","","images/earth.jpg","images/rocket2","images/rocket1","null","images/rocket1","","1","real","null","1","","",""
"d3-animate-choice","238","837300","0.0-76.0-1.34","813","2151","13","Female","true","false","true","true","""event"",""trial"",""time""
""fullscreenenter"",""5"",""12408""
","
","
","""event"",""trial"",""time""
""fullscreenenter"",""5"",""12408""
","
","1072.2999999970198","","48","","","3000","1","","","images/redplanet1.jpg","images/alien2","images/alien1","images/rocket1","images/alien2","images/t.png","2","real","false","2","rare","1","2022-07-13 01:45:57.168"
"two-step-fixation","239","838303","0.0-76.0-2.34","813","2151","13","Female","true","false","true","true","""event"",""trial"",""time""
""fullscreenenter"",""5"",""12408""
","
","
","""event"",""trial"",""time""
""fullscreenenter"",""5"",""12408""
","
","","images/earth.jpg","","","","","","","","","","","","","","fixation","","","","","",""
"d3-animate-choice","240","840733","0.0-76.0-0.35","813","2151","13","Female","true","false","true","true","""event"",""trial"",""time""
""fullscreenenter"",""5"",""12408""
","
","
","""event"",""trial"",""time""
""fullscreenenter"",""5"",""12408""
","
","426.59999999403954","","49","","","3000","1","","","images/earth.jpg","images/rocket2","images/rocket1","null","images/rocket1","","1","real","null","1","","",""
"d3-animate-choice","241","843105","0.0-76.0-1.35","813","2151","13","Female","true","false","true","true","""event"",""trial"",""time""
""fullscreenenter"",""5"",""12408""
","
","
","""event"",""trial"",""time""
""fullscreenenter"",""5"",""12408""
","
","368.19999998807907","","48","","","3000","1","","","images/purpleplanet.jpg","images/alien4","images/alien3","images/rocket1","images/alien4","images/t.png","2","real","true","2","common","1","2022-07-13 01:46:02.973"
"two-step-fixation","242","844108","0.0-76.0-2.35","813","2151","13","Female","true","false","true","true","""event"",""trial"",""time""
""fullscreenenter"",""5"",""12408""
","
","
","""event"",""trial"",""time""
""fullscreenenter"",""5"",""12408""
","
","","images/earth.jpg","","","","","","","","","","","","","","fixation","","","","","",""
"d3-animate-choice","243","846475","0.0-76.0-0.36","813","2151","13","Female","true","false","true","true","""event"",""trial"",""time""
""fullscreenenter"",""5"",""12408""
","
","
","""event"",""trial"",""time""
""fullscreenenter"",""5"",""12408""
","
","362.30000001192093","","49","","","3000","1","","","images/earth.jpg","images/rocket2","images/rocket1","null","images/rocket1","","1","real","null","1","","",""
"d3-animate-choice","244","849072","0.0-76.0-1.36","813","2151","13","Female","true","false","true","true","""event"",""trial"",""time""
""fullscreenenter"",""5"",""12408""
","
","
","""event"",""trial"",""time""
""fullscreenenter"",""5"",""12408""
","
","593.8999999910593","","48","","","3000","1","","","images/redplanet1.jpg","images/alien2","images/alien1","images/rocket1","images/alien2","images/t.png","2","real","false","2","rare","1","2022-07-13 01:46:08.940"
"two-step-fixation","245","850074","0.0-76.0-2.36","813","2151","13","Female","true","false","true","true","""event"",""trial"",""time""
""fullscreenenter"",""5"",""12408""
","
","
","""event"",""trial"",""time""
""fullscreenenter"",""5"",""12408""
","
","","images/earth.jpg","","","","","","","","","","","","","","fixation","","","","","",""
"d3-animate-choice","246","852390","0.0-76.0-0.37","813","2151","13","Female","true","false","true","true","""event"",""trial"",""time""
""fullscreenenter"",""5"",""12408""
","
","
","""event"",""trial"",""time""
""fullscreenenter"",""5"",""12408""
","
