"trial_type","trial_index","time_elapsed","internal_node_id","participant_id","subject_id","age","gender","rocket_sides","red_planet_first_rocket","red_display_order","purple_display_order","interactions","blur_events","focus_events","fullscreenenter_events","fullscreenexit_events","rt","stimulus","key_press","button_pressed","success","duration","valid_pressed","rts","keys","planet_text","right_text","left_text","center_text","chosen_text","reward_text","trial_stage","practice_trial","transition_type","choice","transition","reward","timestamp"
"pavlovia","0","4","0.0-0.0","3454","5951","15","Male","false","false","false","true","
","
","
","
","
","","","","","","","","","","","","","","","","","","","","","",""
"html-keyboard-response","1","2265","0.0-1.0","3454","5951","15","Male","false","false","false","true","
","
","
","
","
","2260.100000023842","Welcome! Press the space bar to begin.","32","","","","","","","","","","","","","","","","","","",""
"audio-keyboard-response","2","7470","0.0-2.0","3454","5951","15","Male","false","false","false","true","
","
","
","
","
","3960","audio/beep_loop.wav","175","","","","","","","","","","","","","","","","","","",""
"audio-button-response","3","11372","0.0-3.0","3454","5951","15","Male","false","false","false","true","
","
","
","
","
","NaN","audio/fish.mp3","","1","","","","","","","","","","","","","","","","","",""
"audio-button-response","4","14402","0.0-4.0","3454","5951","15","Male","false","false","false","true","""event"",""trial"",""time""
""fullscreenenter"",""5"",""17975""
","
","
","""event"",""trial"",""time""
""fullscreenenter"",""5"",""17975""
","
","NaN","audio/tiger.mp3","","4","","","","","","","","","","","","","","","","","",""
"fullscreen","5","18949","0.0-5.0","3454","5951","15","Male","false","false","false","true","""event"",""trial"",""time""
""fullscreenenter"",""5"",""17975""
","
","
","""event"",""trial"",""time""
""fullscreenenter"",""5"",""17975""
","
","","","","","true","","","","","","","","","","","","","","","","",""
"d3-instructions","6","29500","0.0-6.0","3454","5951","15","Male","false","false","false","true","""event"",""trial"",""time""
""fullscreenenter"",""5"",""17975""
","
","
","""event"",""trial"",""time""
""fullscreenenter"",""5"",""17975""
","
","","","","","","","","","","","","","","","","","","","","","",""
"d3-instructions","7","37163","0.0-7.0","3454","5951","15","Male","false","false","false","true","""event"",""trial"",""time""
""fullscreenenter"",""5"",""17975""
","
","
","""event"",""trial"",""time""
""fullscreenenter"",""5"",""17975""
","
","","","","","","","","","","","","","","","","","","","","","",""
"d3-instructions","8","43111","0.0-8.0","3454","5951","15","Male","false","false","false","true","""event"",""trial"",""time""
""fullscreenenter"",""5"",""17975""
","
","
","""event"",""trial"",""time""
""fullscreenenter"",""5"",""17975""
","
","","","","","","","","","","","","","","","","","","","","","",""
"d3-instructions","9","53287","0.0-9.0","3454","5951","15","Male","false","false","false","true","""event"",""trial"",""time""
""fullscreenenter"",""5"",""17975""
","
","
","""event"",""trial"",""time""
""fullscreenenter"",""5"",""17975""
","
","","","","","","","","","","","","","","","","","","","","","",""
"d3-instructions","10","62902","0.0-10.0","3454","5951","15","Male","false","false","false","true","""event"",""trial"",""time""
""fullscreenenter"",""5"",""17975""
","
","
","""event"",""trial"",""time""
""fullscreenenter"",""5"",""17975""
","
","","","","","","","","","","","","","","","","","","","","","",""
"d3-animate-choice","11","67550","0.0-11.0","3454","5951","15","Male","false","false","false","true","""event"",""trial"",""time""
""fullscreenenter"",""5"",""17975""
","
","
","""event"",""trial"",""time""
""fullscreenenter"",""5"",""17975""
","
","2632.2000000476837","","49","","","3000","1","4383","48","images/tutgreenplanet.jpg","images/tutalien1","images/tutalien2","null","images/tutalien2","","NA","practice","null","","","",""
"d3-animate-choice","12","70399","0.0-12.0","3454","5951","15","Male","false","false","false","true","""event"",""trial"",""time""
""fullscreenenter"",""5"",""17975""
","
","
","""event"",""trial"",""time""
""fullscreenenter"",""5"",""17975""
","
","838","","48","","","3000","1","","","images/tutgreenplanet.jpg","images/tutalien1","images/tutalien2","null","images/tutalien1","","NA","practice","null","","","",""
"d3-animate-choice","13","73340","0.0-13.0","3454","5951","15","Male","false","false","false","true","""event"",""trial"",""time""
""fullscreenenter"",""5"",""17975""
","
","
","""event"",""trial"",""time""
""fullscreenenter"",""5"",""17975""
","
","922","","48","","","3000","1","","","images/tutgreenplanet.jpg","images/tutalien1","images/tutalien2","null","images/tutalien1","","NA","practice","null","","","",""
"d3-animate-choice","14","75748","0.0-14.0","3454","5951","15","Male","false","false","false","true","""event"",""trial"",""time""
""fullscreenenter"",""5"",""17975""
","
","
","""event"",""trial"",""time""
""fullscreenenter"",""5"",""17975""
","
","394.2000000476837","","49","","","3000","1","","","images/tutgreenplanet.jpg","images/tutalien1","images/tutalien2","null","images/tutalien2","","NA","practice","null","","","",""
"d3-instructions","15","80651","0.0-15.0","3454","5951","15","Male","false","false","false","true","""event"",""trial"",""time""
""fullscreenenter"",""5"",""17975""
","
","
","""event"",""trial"",""time""
""fullscreenenter"",""5"",""17975""
","
","","","","","","","","","","","","","","","","","","","","","",""
"d3-instructions","16","83332","0.0-16.0","3454","5951","15","Male","false","false","false","true","""event"",""trial"",""time""
""fullscreenenter"",""5"",""17975""
","
","
","""event"",""trial"",""time""
""fullscreenenter"",""5"",""17975""
","
","","","","","","","","","","","","","","","","","","","","","",""
"d3-instructions","17","89364","0.0-17.0","3454","5951","15","Male","false","false","false","true","""event"",""trial"",""time""
""fullscreenenter"",""5"",""17975""
","
","
","""event"",""trial"",""time""
""fullscreenenter"",""5"",""17975""
","
","","","","","","","","","","","","","","","","","","","","","",""
"d3-instructions","18","93034","0.0-18.0","3454","5951","15","Male","false","false","false","true","""event"",""trial"",""time""
""fullscreenenter"",""5"",""17975""
","
","
","""event"",""trial"",""time""
""fullscreenenter"",""5"",""17975""
","
","","","","","","","","","","","","","","","","","","","","","",""
"d3-instructions","19","95140","0.0-19.0","3454","5951","15","Male","false","false","false","true","""event"",""trial"",""time""
""fullscreenenter"",""5"",""17975""
","
","
","""event"",""trial"",""time""
""fullscreenenter"",""5"",""17975""
","
","","","","","","","","","","","","","","","","","","","","","",""
"d3-animate-choice","20","98571","0.0-20.0","3454","5951","15","Male","false","false","false","true","""event"",""trial"",""time""
""fullscreenenter"",""5"",""17975""
","
","
","""event"",""trial"",""time""
""fullscreenenter"",""5"",""17975""
","
","1419","","49","","","3000","1","","","images/tutyellowplanet.jpg","null","images/tutalien3","null","images/tutalien3","images/t.png","NA","practice","null","","","",""
"d3-animate-choice","21","101079","0.0-21.0","3454","5951","15","Male","false","false","false","true","""event"",""trial"",""time""
""fullscreenenter"",""5"",""17975""
","
","
","""event"",""trial"",""time""
""fullscreenenter"",""5"",""17975""
","
","486.7000000476837","","49","","","3000","1","2338.100000023842","49","images/tutyellowplanet.jpg","null","images/tutalien3","null","images/tutalien3","images/t.png","NA","practice","null","","","",""
"d3-animate-choice","22","103365","0.0-22.0","3454","5951","15","Male","false","false","false","true","""event"",""trial"",""time""
""fullscreenenter"",""5"",""17975""
","
","
","""event"",""trial"",""time""
""fullscreenenter"",""5"",""17975""
","
","277.7999999523163","","49","","","3000","1","1374.5","49","images/tutyellowplanet.jpg","null","images/tutalien3","null","images/tutalien3","images/t.png","NA","practice","null","","","",""
"d3-animate-choice","23","105677","0.0-23.0","3454","5951","15","Male","false","false","false","true","""event"",""trial"",""time""
""fullscreenenter"",""5"",""17975""
","
","
","""event"",""trial"",""time""
""fullscreenenter"",""5"",""17975""
","
","294.60000002384186","","49","","","3000","1","","","images/tutyellowplanet.jpg","null","images/tutalien3","null","images/tutalien3","images/t.png","NA","practice","null","","","",""
"d3-animate-choice","24","108365","0.0-24.0","3454","5951","15","Male","false","false","false","true","""event"",""trial"",""time""
""fullscreenenter"",""5"",""17975""
","
","
","""event"",""trial"",""time""
""fullscreenenter"",""5"",""17975""
","
","669","","49","","","3000","1","","","images/tutyellowplanet.jpg","null","images/tutalien3","null","images/tutalien3","images/t.png","NA","practice","null","","","",""
"d3-animate-choice","25","111470","0.0-25.0","3454","5951","15","Male","false","false","false","true","""event"",""trial"",""time""
""fullscreenenter"",""5"",""17975""
","
","
","""event"",""trial"",""time""
""fullscreenenter"",""5"",""17975""
","
","1092.3000000715256","","49","","","3000","1","","","images/tutyellowplanet.jpg","null","images/tutalien3","null","images/tutalien3","images/t.png","NA","practice","null","","","",""
"d3-animate-choice","26","115565","0.0-26.0","3454","5951","15","Male","false","false","false","true","""event"",""trial"",""time""
""fullscreenenter"",""5"",""17975""
","
","
","""event"",""trial"",""time""
""fullscreenenter"",""5"",""17975""
","
","2081.2999999523163","","49","","","3000","1","","","images/tutyellowplanet.jpg","null","images/tutalien3","null","images/tutalien3","images/t.png","NA","practice","null","","","",""
"d3-animate-choice","27","117844","0.0-27.0","3454","5951","15","Male","false","false","false","true","""event"",""trial"",""time""
""fullscreenenter"",""5"",""17975""
","
","
","""event"",""trial"",""time""
""fullscreenenter"",""5"",""17975""
","
","258.1999999284744","","49","","","3000","1","2198.1999999284744","49","images/tutyellowplanet.jpg","null","images/tutalien3","null","images/tutalien3","images/t.png","NA","practice","null","","","",""
"d3-animate-choice","28","120517","0.0-28.0","3454","5951","15","Male","false","false","false","true","""event"",""trial"",""time""
""fullscreenenter"",""5"",""17975""
","
","
","""event"",""trial"",""time""
""fullscreenenter"",""5"",""17975""
","
","662.3000000715256","","49","","","3000","1","","","images/tutyellowplanet.jpg","null","images/tutalien3","null","images/tutalien3","images/t.png","NA","practice","null","","","",""
"d3-animate-choice","29","122909","0.0-29.0","3454","5951","15","Male","false","false","false","true","""event"",""trial"",""time""
""fullscreenenter"",""5"",""17975""
","
","
","""event"",""trial"",""time""
""fullscreenenter"",""5"",""17975""
","
","371.10000002384186","","49","","","3000","1","","","images/tutyellowplanet.jpg","null","images/tutalien3","null","images/tutalien3","images/t.png","NA","practice","null","","","",""
"d3-instructions","30","129717","0.0-30.0","3454","5951","15","Male","false","false","false","true","""event"",""trial"",""time""
""fullscreenenter"",""5"",""17975""
","
","
","""event"",""trial"",""time""
""fullscreenenter"",""5"",""17975""
","
","","","","","","","","","","","","","","","","","","","","","",""
"d3-instructions","31","141255","0.0-31.0","3454","5951","15","Male","false","false","false","true","""event"",""trial"",""time""
""fullscreenenter"",""5"",""17975""
","
","
","""event"",""trial"",""time""
""fullscreenenter"",""5"",""17975""
","
","","","","","","","","","","","","","","","","","","","","","",""
"d3-instructions","32","144820","0.0-32.0","3454","5951","15","Male","false","false","false","true","""event"",""trial"",""time""
""fullscreenenter"",""5"",""17975""
","
","
","""event"",""trial"",""time""
""fullscreenenter"",""5"",""17975""
","
","","","","","","","","","","","","","","","","","","","","","",""
"d3-instructions","33","148422","0.0-33.0","3454","5951","15","Male","false","false","false","true","""event"",""trial"",""time""
""fullscreenenter"",""5"",""17975""
","
","
","""event"",""trial"",""time""
""fullscreenenter"",""5"",""17975""
","
","","","","","","","","","","","","","","","","","","","","","",""
"d3-animate-choice","34","151200","0.0-34.0","3454","5951","15","Male","false","false","false","true","""event"",""trial"",""time""
""fullscreenenter"",""5"",""17975""
","
","
","""event"",""trial"",""time""
""fullscreenenter"",""5"",""17975""
","
","764.8999999761581","","49","","","3000","1","","","images/tutgreenplanet.jpg","images/tutalien1","images/tutalien2","null","images/tutalien2","images/t.png","NA","practice","null","","","",""
"d3-animate-choice","35","153729","0.0-35.0","3454","5951","15","Male","false","false","false","true","""event"",""trial"",""time""
""fullscreenenter"",""5"",""17975""
","
","
","""event"",""trial"",""time""
""fullscreenenter"",""5"",""17975""
","
","519.1000000238419","","49","","","3000","1","","","images/tutgreenplanet.jpg","images/tutalien1","images/tutalien2","null","images/tutalien2","images/t.png","NA","practice","null","","","",""
"d3-animate-choice","36","156175","0.0-36.0","3454","5951","15","Male","false","false","false","true","""event"",""trial"",""time""
""fullscreenenter"",""5"",""17975""
","
","
","""event"",""trial"",""time""
""fullscreenenter"",""5"",""17975""
","
","430.2999999523163","","49","","","3000","1","","","images/tutgreenplanet.jpg","images/tutalien1","images/tutalien2","null","images/tutalien2","images/t.png","NA","practice","null","","","",""
"d3-animate-choice","37","158505","0.0-37.0","3454","5951","15","Male","false","false","false","true","""event"",""trial"",""time""
""fullscreenenter"",""5"",""17975""
","
","
","""event"",""trial"",""time""
""fullscreenenter"",""5"",""17975""
","
","317.2000000476837","","49","","","3000","1","","","images/tutgreenplanet.jpg","images/tutalien1","images/tutalien2","null","images/tutalien2","images/t.png","NA","practice","null","","","",""
"d3-animate-choice","38","161129","0.0-38.0","3454","5951","15","Male","false","false","false","true","""event"",""trial"",""time""
""fullscreenenter"",""5"",""17975""
","
","
","""event"",""trial"",""time""
""fullscreenenter"",""5"",""17975""
","
","603.5","","49","","","3000","1","","","images/tutgreenplanet.jpg","images/tutalien1","images/tutalien2","null","images/tutalien2","images/t.png","NA","practice","null","","","",""
"d3-animate-choice","39","163590","0.0-39.0","3454","5951","15","Male","false","false","false","true","""event"",""trial"",""time""
""fullscreenenter"",""5"",""17975""
","
","
","""event"",""trial"",""time""
""fullscreenenter"",""5"",""17975""
","
","441.8000000715256","","48","","","3000","1","","","images/tutgreenplanet.jpg","images/tutalien1","images/tutalien2","null","images/tutalien1","images/nothing.png","NA","practice","null","","","",""
"d3-animate-choice","40","165976","0.0-40.0","3454","5951","15","Male","false","false","false","true","""event"",""trial"",""time""
""fullscreenenter"",""5"",""17975""
","
","
","""event"",""trial"",""time""
""fullscreenenter"",""5"",""17975""
","
","362.6999999284744","","49","","","3000","1","","","images/tutgreenplanet.jpg","images/tutalien1","images/tutalien2","null","images/tutalien2","images/t.png","NA","practice","null","","","",""
"d3-animate-choice","41","169466","0.0-41.0","3454","5951","15","Male","false","false","false","true","""event"",""trial"",""time""
""fullscreenenter"",""5"",""17975""
","
","
","""event"",""trial"",""time""
""fullscreenenter"",""5"",""17975""
","
","1476.1999999284744","","49","","","3000","1","","","images/tutgreenplanet.jpg","images/tutalien1","images/tutalien2","null","images/tutalien2","images/t.png","NA","practice","null","","","",""
"d3-animate-choice","42","172009","0.0-42.0","3454","5951","15","Male","false","false","false","true","""event"",""trial"",""time""
""fullscreenenter"",""5"",""17975""
","
","
","""event"",""trial"",""time""
""fullscreenenter"",""5"",""17975""
","
","516.2999999523163","","49","","","3000","1","","","images/tutgreenplanet.jpg","images/tutalien1","images/tutalien2","null","images/tutalien2","images/t.png","NA","practice","null","","","",""
"d3-animate-choice","43","174345","0.0-43.0","3454","5951","15","Male","false","false","false","true","""event"",""trial"",""time""
""fullscreenenter"",""5"",""17975""
","
","
","""event"",""trial"",""time""
""fullscreenenter"",""5"",""17975""
","
","330","","49","","","3000","1","","","images/tutgreenplanet.jpg","images/tutalien1","images/tutalien2","null","images/tutalien2","images/t.png","NA","practice","null","","","",""
"d3-instructions","44","181834","0.0-44.0","3454","5951","15","Male","false","false","false","true","""event"",""trial"",""time""
""fullscreenenter"",""5"",""17975""
","
","
","""event"",""trial"",""time""
""fullscreenenter"",""5"",""17975""
","
","","","","","","","","","","","","","","","","","","","","","",""
"d3-instructions","45","183751","0.0-45.0","3454","5951","15","Male","false","false","false","true","""event"",""trial"",""time""
""fullscreenenter"",""5"",""17975""
","
","
","""event"",""trial"",""time""
""fullscreenenter"",""5"",""17975""
","
","","","","","","","","","","","","","","","","","","","","","",""
"d3-instructions","46","184751","0.0-46.0","3454","5951","15","Male","false","false","false","true","""event"",""trial"",""time""
""fullscreenenter"",""5"",""17975""
","
","
","""event"",""trial"",""time""
""fullscreenenter"",""5"",""17975""
","
","","","","","","","","","","","","","","","","","","","","","",""
"d3-instructions","47","185997","0.0-47.0","3454","5951","15","Male","false","false","false","true","""event"",""trial"",""time""
""fullscreenenter"",""5"",""17975""
","
","
","""event"",""trial"",""time""
""fullscreenenter"",""5"",""17975""
","
","","","","","","","","","","","","","","","","","","","","","",""
"d3-instructions","48","187227","0.0-48.0","3454","5951","15","Male","false","false","false","true","""event"",""trial"",""time""
""fullscreenenter"",""5"",""17975""
","
","
","""event"",""trial"",""time""
""fullscreenenter"",""5"",""17975""
","
","","","","","","","","","","","","","","","","","","","","","",""
"d3-instructions","49","188187","0.0-49.0","3454","5951","15","Male","false","false","false","true","""event"",""trial"",""time""
""fullscreenenter"",""5"",""17975""
","
","
","""event"",""trial"",""time""
""fullscreenenter"",""5"",""17975""
","
","","","","","","","","","","","","","","","","","","","","","",""
"d3-instructions","50","191407","0.0-50.0","3454","5951","15","Male","false","false","false","true","""event"",""trial"",""time""
""fullscreenenter"",""5"",""17975""
","
","
","""event"",""trial"",""time""
""fullscreenenter"",""5"",""17975""
","
","","","","","","","","","","","","","","","","","","","","","",""
"d3-instructions","51","193061","0.0-51.0","3454","5951","15","Male","false","false","false","true","""event"",""trial"",""time""
""fullscreenenter"",""5"",""17975""
","
","
","""event"",""trial"",""time""
""fullscreenenter"",""5"",""17975""
","
","","","","","","","","","","","","","","","","","","","","","",""
"d3-instructions","52","194434","0.0-52.0","3454","5951","15","Male","false","false","false","true","""event"",""trial"",""time""
""fullscreenenter"",""5"",""17975""
","
","
","""event"",""trial"",""time""
""fullscreenenter"",""5"",""17975""
","
","","","","","","","","","","","","","","","","","","","","","",""
"d3-instructions","53","197989","0.0-53.0","3454","5951","15","Male","false","false","false","true","""event"",""trial"",""time""
""fullscreenenter"",""5"",""17975""
","
","
","""event"",""trial"",""time""
""fullscreenenter"",""5"",""17975""
","
","","","","","","","","","","","","","","","","","","","","","",""
"d3-instructions","54","199288","0.0-54.0","3454","5951","15","Male","false","false","false","true","""event"",""trial"",""time""
""fullscreenenter"",""5"",""17975""
","
","
","""event"",""trial"",""time""
""fullscreenenter"",""5"",""17975""
","
","","","","","","","","","","","","","","","","","","","","","",""
"d3-instructions","55","200259","0.0-55.0","3454","5951","15","Male","false","false","false","true","""event"",""trial"",""time""
""fullscreenenter"",""5"",""17975""
","
","
","""event"",""trial"",""time""
""fullscreenenter"",""5"",""17975""
","
","","","","","","","","","","","","","","","","","","","","","",""
"d3-instructions","56","201616","0.0-56.0","3454","5951","15","Male","false","false","false","true","""event"",""trial"",""time""
""fullscreenenter"",""5"",""17975""
","
","
","""event"",""trial"",""time""
""fullscreenenter"",""5"",""17975""
","
","","","","","","","","","","","","","","","","","","","","","",""
"d3-instructions","57","207976","0.0-57.0","3454","5951","15","Male","false","false","false","true","""event"",""trial"",""time""
""fullscreenenter"",""5"",""17975""
","
","
","""event"",""trial"",""time""
""fullscreenenter"",""5"",""17975""
","
","","","","","","","","","","","","","","","","","","","","","",""
"d3-instructions","58","211990","0.0-58.0","3454","5951","15","Male","false","false","false","true","""event"",""trial"",""time""
""fullscreenenter"",""5"",""17975""
","
","
","""event"",""trial"",""time""
""fullscreenenter"",""5"",""17975""
","
","","","","","","","","","","","","","","","","","","","","","",""
"d3-instructions","59","214126","0.0-59.0","3454","5951","15","Male","false","false","false","true","""event"",""trial"",""time""
""fullscreenenter"",""5"",""17975""
","
","
","""event"",""trial"",""time""
""fullscreenenter"",""5"",""17975""
","
","","","","","","","","","","","","","","","","","","","","","",""
"d3-instructions","60","216658","0.0-60.0","3454","5951","15","Male","false","false","false","true","""event"",""trial"",""time""
""fullscreenenter"",""5"",""17975""
","
","
","""event"",""trial"",""time""
""fullscreenenter"",""5"",""17975""
","
","","","","","","","","","","","","","","","","","","","","","",""
"d3-animate-choice","61","219554","0.0-61.0-0.0","3454","5951","15","Male","false","false","false","true","""event"",""trial"",""time""
""fullscreenenter"",""5"",""17975""
","
","
","""event"",""trial"",""time""
""fullscreenenter"",""5"",""17975""
","
","875.3999999761581","","49","","","3000","1","","","images/earth.jpg","images/tutrocket1","images/tutrocket2","null","images/tutrocket2","","1","practice","null","1","","",""
"d3-animate-choice","62","222572","0.0-61.0-1.0","3454","5951","15","Male","false","false","false","true","""event"",""trial"",""time""
""fullscreenenter"",""5"",""17975""
","
","
","""event"",""trial"",""time""
""fullscreenenter"",""5"",""17975""
","
","1010","","49","","","3000","1","2957.600000023842","48","images/tutgreenplanet.jpg","images/tutalien2","images/tutalien1","images/tutrocket2","images/tutalien1","images/nothing.png","2","practice","true","1","common","0","2023-01-23 23:48:31.934"
"two-step-fixation","63","223584","0.0-61.0-2.0","3454","5951","15","Male","false","false","false","true","""event"",""trial"",""time""
""fullscreenenter"",""5"",""17975""
","
","
","""event"",""trial"",""time""
""fullscreenenter"",""5"",""17975""
","
","","images/earth.jpg","","","","","","","","","","","","","","fixation","","","","","",""
"d3-animate-choice","64","226044","0.0-61.0-0.1","3454","5951","15","Male","false","false","false","true","""event"",""trial"",""time""
""fullscreenenter"",""5"",""17975""
","
","
","""event"",""trial"",""time""
""fullscreenenter"",""5"",""17975""
","
","437.7000000476837","","48","","","3000","1","","","images/earth.jpg","images/tutrocket1","images/tutrocket2","null","images/tutrocket1","","1","practice","null","2","","",""
"d3-animate-choice","65","228797","0.0-61.0-1.1","3454","5951","15","Male","false","false","false","true","""event"",""trial"",""time""
""fullscreenenter"",""5"",""17975""
","
","
","""event"",""trial"",""time""
""fullscreenenter"",""5"",""17975""
","
","744.1999999284744","","49","","","3000","1","","","images/tutyellowplanet.jpg","images/tutalien4","images/tutalien3","images/tutrocket1","images/tutalien3","images/nothing.png","2","practice","true","1","common","0","2023-01-23 23:48:38.158"
"two-step-fixation","66","229804","0.0-61.0-2.1","3454","5951","15","Male","false","false","false","true","""event"",""trial"",""time""
""fullscreenenter"",""5"",""17975""
","
","
","""event"",""trial"",""time""
""fullscreenenter"",""5"",""17975""
","
","","images/earth.jpg","","","","","","","","","","","","","","fixation","","","","","",""
"d3-animate-choice","67","232684","0.0-61.0-0.2","3454","5951","15","Male","false","false","false","true","""event"",""trial"",""time""
""fullscreenenter"",""5"",""17975""
","
","
","""event"",""trial"",""time""
""fullscreenenter"",""5"",""17975""
","
","858.8000000715256","","48","","","3000","1","","","images/earth.jpg","images/tutrocket1","images/tutrocket2","null","images/tutrocket1","","1","practice","null","2","","",""
"d3-animate-choice","68","235484","0.0-61.0-1.2","3454","5951","15","Male","false","false","false","true","""event"",""trial"",""time""
""fullscreenenter"",""5"",""17975""
","
","
","""event"",""trial"",""time""
""fullscreenenter"",""5"",""17975""
","
","789.8000000715256","","48","","","3000","1","","","images/tutgreenplanet.jpg","images/tutalien2","images/tutalien1","images/tutrocket1","images/tutalien2","images/t.png","2","practice","false","2","rare","1","2023-01-23 23:48:44.845"
"two-step-fixation","69","236504","0.0-61.0-2.2","3454","5951","15","Male","false","false","false","true","""event"",""trial"",""time""
""fullscreenenter"",""5"",""17975""
","
","
","""event"",""trial"",""time""
""fullscreenenter"",""5"",""17975""
","
","","images/earth.jpg","","","","","","","","","","","","","","fixation","","","","","",""
"d3-animate-choice","70","239044","0.0-61.0-0.3","3454","5951","15","Male","false","false","false","true","""event"",""trial"",""time""
""fullscreenenter"",""5"",""17975""
","
","
","""event"",""trial"",""time""
""fullscreenenter"",""5"",""17975""
","
","515.6000000238419","","48","","","3000","1","","","images/earth.jpg","images/tutrocket1","images/tutrocket2","null","images/tutrocket1","","1","practice","null","2","","",""
"d3-animate-choice","71","241500","0.0-61.0-1.3","3454","5951","15","Male","false","false","false","true","""event"",""trial"",""time""
""fullscreenenter"",""5"",""17975""
","
","
","""event"",""trial"",""time""
""fullscreenenter"",""5"",""17975""
","
","439.39999997615814","","48","","","3000","1","","","images/tutyellowplanet.jpg","images/tutalien4","images/tutalien3","images/tutrocket1","images/tutalien4","images/nothing.png","2","practice","true","2","common","0","2023-01-23 23:48:50.861"
"two-step-fixation","72","242514","0.0-61.0-2.3","3454","5951","15","Male","false","false","false","true","""event"",""trial"",""time""
""fullscreenenter"",""5"",""17975""
","
","
","""event"",""trial"",""time""
""fullscreenenter"",""5"",""17975""
","
","","images/earth.jpg","","","","","","","","","","","","","","fixation","","","","","",""
"d3-animate-choice","73","244798","0.0-61.0-0.4","3454","5951","15","Male","false","false","false","true","""event"",""trial"",""time""
""fullscreenenter"",""5"",""17975""
","
","
","""event"",""trial"",""time""
""fullscreenenter"",""5"",""17975""
","
","273.10000002384186","","49","","","3000","1","","","images/earth.jpg","images/tutrocket1","images/tutrocket2","null","images/tutrocket2","","1","practice","null","1","","",""
"d3-animate-choice","74","247405","0.0-61.0-1.4","3454","5951","15","Male","false","false","false","true","""event"",""trial"",""time""
""fullscreenenter"",""5"",""17975""
","
","
","""event"",""trial"",""time""
""fullscreenenter"",""5"",""17975""
","
","601.2000000476837","","48","","","3000","1","","","images/tutgreenplanet.jpg","images/tutalien2","images/tutalien1","images/tutrocket2","images/tutalien2","images/nothing.png","2","practice","true","2","common","0","2023-01-23 23:48:56.766"
"two-step-fixation","75","248412","0.0-61.0-2.4","3454","5951","15","Male","false","false","false","true","""event"",""trial"",""time""
""fullscreenenter"",""5"",""17975""
","
","
","""event"",""trial"",""time""
""fullscreenenter"",""5"",""17975""
","
","","images/earth.jpg","","","","","","","","","","","","","","fixation","","","","","",""
"d3-animate-choice","76","250908","0.0-61.0-0.5","3454","5951","15","Male","false","false","false","true","""event"",""trial"",""time""
""fullscreenenter"",""5"",""17975""
","
","
","""event"",""trial"",""time""
""fullscreenenter"",""5"",""17975""
","
","488.7999999523163","","49","","","3000","1","505.7999999523163","48","images/earth.jpg","images/tutrocket1","images/tutrocket2","null","images/tutrocket2","","1","practice","null","1","","",""
"d3-animate-choice","77","253404","0.0-61.0-1.5","3454","5951","15","Male","false","false","false","true","""event"",""trial"",""time""
""fullscreenenter"",""5"",""17975""
","
","
","""event"",""trial"",""time""
""fullscreenenter"",""5"",""17975""
","
","485.5","","49","","","3000","1","","","images/tutgreenplanet.jpg","images/tutalien2","images/tutalien1","images/tutrocket2","images/tutalien1","images/t.png","2","practice","true","1","common","1","2023-01-23 23:49:02.765"
"two-step-fixation","78","254415","0.0-61.0-2.5","3454","5951","15","Male","false","false","false","true","""event"",""trial"",""time""
""fullscreenenter"",""5"",""17975""
","
","
","""event"",""trial"",""time""
""fullscreenenter"",""5"",""17975""
","
","","images/earth.jpg","","","","","","","","","","","","","","fixation","","","","","",""
"d3-animate-choice","79","256765","0.0-61.0-0.6","3454","5951","15","Male","false","false","false","true","""event"",""trial"",""time""
""fullscreenenter"",""5"",""17975""
","
","
","""event"",""trial"",""time""
""fullscreenenter"",""5"",""17975""
","
","345.40000009536743","","49","","","3000","1","","","images/earth.jpg","images/tutrocket1","images/tutrocket2","null","images/tutrocket2","","1","practice","null","1","","",""
"d3-animate-choice","80","260228","0.0-61.0-1.6","3454","5951","15","Male","false","false","false","true","""event"",""trial"",""time""
""fullscreenenter"",""5"",""17975""
","
","
","""event"",""trial"",""time""
""fullscreenenter"",""5"",""17975""
","
","1453.8000000715256","","49","","","3000","1","","","images/tutyellowplanet.jpg","images/tutalien4","images/tutalien3","images/tutrocket2","images/tutalien3","images/nothing.png","2","practice","false","1","rare","0","2023-01-23 23:49:09.589"
"two-step-fixation","81","261241","0.0-61.0-2.6","3454","5951","15","Male","false","false","false","true","""event"",""trial"",""time""
""fullscreenenter"",""5"",""17975""
","
","
","""event"",""trial"",""time""
""fullscreenenter"",""5"",""17975""
","
","","images/earth.jpg","","","","","","","","","","","","","","fixation","","","","","",""
"d3-animate-choice","82","263745","0.0-61.0-0.7","3454","5951","15","Male","false","false","false","true","""event"",""trial"",""time""
""fullscreenenter"",""5"",""17975""
","
","
","""event"",""trial"",""time""
""fullscreenenter"",""5"",""17975""
","
","500.10000002384186","","48","","","3000","1","","","images/earth.jpg","images/tutrocket1","images/tutrocket2","null","images/tutrocket1","","1","practice","null","2","","",""
"d3-animate-choice","83","266713","0.0-61.0-1.7","3454","5951","15","Male","false","false","false","true","""event"",""trial"",""time""
""fullscreenenter"",""5"",""17975""
","
","
","""event"",""trial"",""time""
""fullscreenenter"",""5"",""17975""
","
","956.5","","49","","","3000","1","1257","49","images/tutyellowplanet.jpg","images/tutalien4","images/tutalien3","images/tutrocket1","images/tutalien3","images/nothing.png","2","practice","true","1","common","0","2023-01-23 23:49:16.074"
"two-step-fixation","84","267721","0.0-61.0-2.7","3454","5951","15","Male","false","false","false","true","""event"",""trial"",""time""
""fullscreenenter"",""5"",""17975""
","
","
","""event"",""trial"",""time""
""fullscreenenter"",""5"",""17975""
","
","","images/earth.jpg","","","","","","","","","","","","","","fixation","","","","","",""
"d3-animate-choice","85","269761","0.0-61.0-0.8","3454","5951","15","Male","false","false","false","true","""event"",""trial"",""time""
""fullscreenenter"",""5"",""17975""
","
","
","""event"",""trial"",""time""
""fullscreenenter"",""5"",""17975""
","
","28.699999928474426","","48","","","3000","1","","","images/earth.jpg","images/tutrocket1","images/tutrocket2","null","images/tutrocket1","","1","practice","null","2","","",""
"d3-animate-choice","86","272417","0.0-61.0-1.8","3454","5951","15","Male","false","false","false","true","""event"",""trial"",""time""
""fullscreenenter"",""5"",""17975""
","
","
","""event"",""trial"",""time""
""fullscreenenter"",""5"",""17975""
","
","648.8999999761581","","48","","","3000","1","","","images/tutgreenplanet.jpg","images/tutalien2","images/tutalien1","images/tutrocket1","images/tutalien2","images/t.png","2","practice","false","2","rare","1","2023-01-23 23:49:21.778"
"two-step-fixation","87","273424","0.0-61.0-2.8","3454","5951","15","Male","false","false","false","true","""event"",""trial"",""time""
""fullscreenenter"",""5"",""17975""
","
","
","""event"",""trial"",""time""
""fullscreenenter"",""5"",""17975""
","
","","images/earth.jpg","","","","","","","","","","","","","","fixation","","","","","",""
"d3-animate-choice","88","275969","0.0-61.0-0.9","3454","5951","15","Male","false","false","false","true","""event"",""trial"",""time""
""fullscreenenter"",""5"",""17975""
","
","
","""event"",""trial"",""time""
""fullscreenenter"",""5"",""17975""
","
","534.7000000476837","","48","","","3000","1","","","images/earth.jpg","images/tutrocket1","images/tutrocket2","null","images/tutrocket1","","1","practice","null","2","","",""
"d3-animate-choice","89","278881","0.0-61.0-1.9","3454","5951","15","Male","false","false","false","true","""event"",""trial"",""time""
""fullscreenenter"",""5"",""17975""
","
","
","""event"",""trial"",""time""
""fullscreenenter"",""5"",""17975""
","
","906.1000000238419","","49","","","3000","1","","","images/tutyellowplanet.jpg","images/tutalien4","images/tutalien3","images/tutrocket1","images/tutalien3","images/t.png","2","practice","true","1","common","1","2023-01-23 23:49:28.242"
"two-step-fixation","90","279889","0.0-61.0-2.9","3454","5951","15","Male","false","false","false","true","""event"",""trial"",""time""
""fullscreenenter"",""5"",""17975""
","
","
","""event"",""trial"",""time""
""fullscreenenter"",""5"",""17975""
","
","","images/earth.jpg","","","","","","","","","","","","","","fixation","","","","","",""
"d3-animate-choice","91","282282","0.0-61.0-0.10","3454","5951","15","Male","false","false","false","true","""event"",""trial"",""time""
""fullscreenenter"",""5"",""17975""
","
","
","""event"",""trial"",""time""
""fullscreenenter"",""5"",""17975""
","
","385","","49","","","3000","1","","","images/earth.jpg","images/tutrocket1","images/tutrocket2","null","images/tutrocket2","","1","practice","null","1","","",""
"d3-animate-choice","92","285360","0.0-61.0-1.10","3454","5951","15","Male","false","false","false","true","""event"",""trial"",""time""
""fullscreenenter"",""5"",""17975""
","
","
","""event"",""trial"",""time""
""fullscreenenter"",""5"",""17975""
","
","1069.8000000715256","","49","","","3000","1","","","images/tutgreenplanet.jpg","images/tutalien2","images/tutalien1","images/tutrocket2","images/tutalien1","images/t.png","2","practice","true","1","common","1","2023-01-23 23:49:34.722"
"two-step-fixation","93","286369","0.0-61.0-2.10","3454","5951","15","Male","false","false","false","true","""event"",""trial"",""time""
""fullscreenenter"",""5"",""17975""
","
","
","""event"",""trial"",""time""
""fullscreenenter"",""5"",""17975""
","
","","images/earth.jpg","","","","","","","","","","","","","","fixation","","","","","",""
"d3-animate-choice","94","289505","0.0-61.0-0.11","3454","5951","15","Male","false","false","false","true","""event"",""trial"",""time""
""fullscreenenter"",""5"",""17975""
","
","
","""event"",""trial"",""time""
""fullscreenenter"",""5"",""17975""
","
","1127.2000000476837","","48","","","3000","1","","","images/earth.jpg","images/tutrocket1","images/tutrocket2","null","images/tutrocket1","","1","practice","null","2","","",""
"d3-animate-choice","95","292160","0.0-61.0-1.11","3454","5951","15","Male","false","false","false","true","""event"",""trial"",""time""
""fullscreenenter"",""5"",""17975""
","
","
","""event"",""trial"",""time""
""fullscreenenter"",""5"",""17975""
","
","646.9000000953674","","48","","","3000","1","","","images/tutyellowplanet.jpg","images/tutalien4","images/tutalien3","images/tutrocket1","images/tutalien4","images/t.png","2","practice","true","2","common","1","2023-01-23 23:49:41.521"
"two-step-fixation","96","293168","0.0-61.0-2.11","3454","5951","15","Male","false","false","false","true","""event"",""trial"",""time""
""fullscreenenter"",""5"",""17975""
","
","
","""event"",""trial"",""time""
""fullscreenenter"",""5"",""17975""
","
","","images/earth.jpg","","","","","","","","","","","","","","fixation","","","","","",""
"d3-animate-choice","97","295249","0.0-61.0-0.12","3454","5951","15","Male","false","false","false","true","""event"",""trial"",""time""
""fullscreenenter"",""5"",""17975""
","
","
","""event"",""trial"",""time""
""fullscreenenter"",""5"",""17975""
","
","74.89999997615814","","49","","","3000","1","","","images/earth.jpg","images/tutrocket1","images/tutrocket2","null","images/tutrocket2","","1","practice","null","1","","",""
"d3-animate-choice","98","297705","0.0-61.0-1.12","3454","5951","15","Male","false","false","false","true","""event"",""trial"",""time""
""fullscreenenter"",""5"",""17975""
","
","
","""event"",""trial"",""time""
""fullscreenenter"",""5"",""17975""
","
","449","","48","","","3000","1","","","images/tutgreenplanet.jpg","images/tutalien2","images/tutalien1","images/tutrocket2","images/tutalien2","images/nothing.png","2","practice","true","2","common","0","2023-01-23 23:49:47.066"
"two-step-fixation","99","298712","0.0-61.0-2.12","3454","5951","15","Male","false","false","false","true","""event"",""trial"",""time""
""fullscreenenter"",""5"",""17975""
","
","
","""event"",""trial"",""time""
""fullscreenenter"",""5"",""17975""
","
","","images/earth.jpg","","","","","","","","","","","","","","fixation","","","","","",""
"d3-animate-choice","100","301081","0.0-61.0-0.13","3454","5951","15","Male","false","false","false","true","""event"",""trial"",""time""
""fullscreenenter"",""5"",""17975""
","
","
","""event"",""trial"",""time""
""fullscreenenter"",""5"",""17975""
","
","357.5","","49","","","3000","1","","","images/earth.jpg","images/tutrocket1","images/tutrocket2","null","images/tutrocket2","","1","practice","null","1","","",""
"d3-animate-choice","101","303489","0.0-61.0-1.13","3454","5951","15","Male","false","false","false","true","""event"",""trial"",""time""
""fullscreenenter"",""5"",""17975""
","
","
","""event"",""trial"",""time""
""fullscreenenter"",""5"",""17975""
","
","401.10000002384186","","49","","","3000","1","","","images/tutgreenplanet.jpg","images/tutalien2","images/tutalien1","images/tutrocket2","images/tutalien1","images/nothing.png","2","practice","true","1","common","0","2023-01-23 23:49:52.850"
"two-step-fixation","102","304497","0.0-61.0-2.13","3454","5951","15","Male","false","false","false","true","""event"",""trial"",""time""
""fullscreenenter"",""5"",""17975""
","
","
","""event"",""trial"",""time""
""fullscreenenter"",""5"",""17975""
","
","","images/earth.jpg","","","","","","","","","","","","","","fixation","","","","","",""
"d3-animate-choice","103","306593","0.0-61.0-0.14","3454","5951","15","Male","false","false","false","true","""event"",""trial"",""time""
""fullscreenenter"",""5"",""17975""
","
","
","""event"",""trial"",""time""
""fullscreenenter"",""5"",""17975""
","
","90.69999992847443","","48","","","3000","1","","","images/earth.jpg","images/tutrocket1","images/tutrocket2","null","images/tutrocket1","","1","practice","null","2","","",""
"d3-animate-choice","104","309568","0.0-61.0-1.14","3454","5951","15","Male","false","false","false","true","""event"",""trial"",""time""
""fullscreenenter"",""5"",""17975""
","
","
","""event"",""trial"",""time""
""fullscreenenter"",""5"",""17975""
","
","965.1999999284744","","49","","","3000","1","","","images/tutyellowplanet.jpg","images/tutalien4","images/tutalien3","images/tutrocket1","images/tutalien3","images/t.png","2","practice","true","1","common","1","2023-01-23 23:49:58.929"
"two-step-fixation","105","310572","0.0-61.0-2.14","3454","5951","15","Male","false","false","false","true","""event"",""trial"",""time""
""fullscreenenter"",""5"",""17975""
","
","
","""event"",""trial"",""time""
""fullscreenenter"",""5"",""17975""
","
","","images/earth.jpg","","","","","","","","","","","","","","fixation","","","","","",""
"d3-animate-choice","106","312939","0.0-61.0-0.15","3454","5951","15","Male","false","false","false","true","""event"",""trial"",""time""
""fullscreenenter"",""5"",""17975""
","
","
","""event"",""trial"",""time""
""fullscreenenter"",""5"",""17975""
","
","363.5","","49","","","3000","1","","","images/earth.jpg","images/tutrocket1","images/tutrocket2","null","images/tutrocket2","","1","practice","null","1","","",""
"d3-animate-choice","107","316201","0.0-61.0-1.15","3454","5951","15","Male","false","false","false","true","""event"",""trial"",""time""
""fullscreenenter"",""5"",""17975""
","
","
","""event"",""trial"",""time""
""fullscreenenter"",""5"",""17975""
","
","1254.7000000476837","","49","","","3000","1","","","images/tutyellowplanet.jpg","images/tutalien4","images/tutalien3","images/tutrocket2","images/tutalien3","images/nothing.png","2","practice","false","1","rare","0","2023-01-23 23:50:05.562"
"two-step-fixation","108","317206","0.0-61.0-2.15","3454","5951","15","Male","false","false","false","true","""event"",""trial"",""time""
""fullscreenenter"",""5"",""17975""
","
","
","""event"",""trial"",""time""
""fullscreenenter"",""5"",""17975""
","
","","images/earth.jpg","","","","","","","","","","","","","","fixation","","","","","",""
"d3-animate-choice","109","320048","0.0-61.0-0.16","3454","5951","15","Male","false","false","false","true","""event"",""trial"",""time""
""fullscreenenter"",""5"",""17975""
","
","
","""event"",""trial"",""time""
""fullscreenenter"",""5"",""17975""
","
","838.8999999761581","","48","","","3000","1","","","images/earth.jpg","images/tutrocket1","images/tutrocket2","null","images/tutrocket1","","1","practice","null","2","","",""
"d3-animate-choice","110","322568","0.0-61.0-1.16","3454","5951","15","Male","false","false","false","true","""event"",""trial"",""time""
""fullscreenenter"",""5"",""17975""
","
","
","""event"",""trial"",""time""
""fullscreenenter"",""5"",""17975""
","
","514.8999999761581","","48","","","3000","1","","","images/tutgreenplanet.jpg","images/tutalien2","images/tutalien1","images/tutrocket1","images/tutalien2","images/nothing.png","2","practice","false","2","rare","0","2023-01-23 23:50:11.929"
"two-step-fixation","111","323573","0.0-61.0-2.16","3454","5951","15","Male","false","false","false","true","""event"",""trial"",""time""
""fullscreenenter"",""5"",""17975""
","
","
","""event"",""trial"",""time""
""fullscreenenter"",""5"",""17975""
","
","","images/earth.jpg","","","","","","","","","","","","","","fixation","","","","","",""
"d3-animate-choice","112","326305","0.0-61.0-0.17","3454","5951","15","Male","false","false","false","true","""event"",""trial"",""time""
""fullscreenenter"",""5"",""17975""
","
","
","""event"",""trial"",""time""
""fullscreenenter"",""5"",""17975""
","
","722","","49","","","3000","1","","","images/earth.jpg","images/tutrocket1","images/tutrocket2","null","images/tutrocket2","","1","practice","null","1","","",""
"d3-animate-choice","113","328817","0.0-61.0-1.17","3454","5951","15","Male","false","false","false","true","""event"",""trial"",""time""
""fullscreenenter"",""5"",""17975""
","
","
","""event"",""trial"",""time""
""fullscreenenter"",""5"",""17975""
","
","505.39999997615814","","49","","","3000","1","","","images/tutgreenplanet.jpg","images/tutalien2","images/tutalien1","images/tutrocket2","images/tutalien1","images/nothing.png","2","practice","true","1","common","0","2023-01-23 23:50:18.178"
"two-step-fixation","114","329825","0.0-61.0-2.17","3454","5951","15","Male","false","false","false","true","""event"",""trial"",""time""
""fullscreenenter"",""5"",""17975""
","
","
","""event"",""trial"",""time""
""fullscreenenter"",""5"",""17975""
","
","","images/earth.jpg","","","","","","","","","","","","","","fixation","","","","","",""
"d3-animate-choice","115","332305","0.0-61.0-0.18","3454","5951","15","Male","false","false","false","true","""event"",""trial"",""time""
""fullscreenenter"",""5"",""17975""
","
","
","""event"",""trial"",""time""
""fullscreenenter"",""5"",""17975""
","
","470.89999997615814","","48","","","3000","1","","","images/earth.jpg","images/tutrocket1","images/tutrocket2","null","images/tutrocket1","","1","practice","null","2","","",""
"d3-animate-choice","116","334790","0.0-61.0-1.18","3454","5951","15","Male","false","false","false","true","""event"",""trial"",""time""
""fullscreenenter"",""5"",""17975""
","
","
","""event"",""trial"",""time""
""fullscreenenter"",""5"",""17975""
","
","480.10000002384186","","49","","","3000","1","","","images/tutyellowplanet.jpg","images/tutalien4","images/tutalien3","images/tutrocket1","images/tutalien3","images/nothing.png","2","practice","true","1","common","0","2023-01-23 23:50:24.151"
"two-step-fixation","117","335792","0.0-61.0-2.18","3454","5951","15","Male","false","false","false","true","""event"",""trial"",""time""
""fullscreenenter"",""5"",""17975""
","
","
","""event"",""trial"",""time""
""fullscreenenter"",""5"",""17975""
","
","","images/earth.jpg","","","","","","","","","","","","","","fixation","","","","","",""
"d3-animate-choice","118","338233","0.0-61.0-0.19","3454","5951","15","Male","false","false","false","true","""event"",""trial"",""time""
""fullscreenenter"",""5"",""17975""
","
","
","""event"",""trial"",""time""
""fullscreenenter"",""5"",""17975""
","
","430.39999997615814","","48","","","3000","1","","","images/earth.jpg","images/tutrocket1","images/tutrocket2","null","images/tutrocket1","","1","practice","null","2","","",""
"d3-animate-choice","119","340673","0.0-61.0-1.19","3454","5951","15","Male","false","false","false","true","""event"",""trial"",""time""
""fullscreenenter"",""5"",""17975""
","
","
","""event"",""trial"",""time""
""fullscreenenter"",""5"",""17975""
","
","437.10000002384186","","48","","","3000","1","","","images/tutgreenplanet.jpg","images/tutalien2","images/tutalien1","images/tutrocket1","images/tutalien2","images/t.png","2","practice","false","2","rare","1","2023-01-23 23:50:30.034"
"two-step-fixation","120","341681","0.0-61.0-2.19","3454","5951","15","Male","false","false","false","true","""event"",""trial"",""time""
""fullscreenenter"",""5"",""17975""
","
","
","""event"",""trial"",""time""
""fullscreenenter"",""5"",""17975""
","
","","images/earth.jpg","","","","","","","","","","","","","","fixation","","","","","",""
"d3-instructions","121","345640","0.0-62.0","3454","5951","15","Male","false","false","false","true","""event"",""trial"",""time""
""fullscreenenter"",""5"",""17975""
","
","
","""event"",""trial"",""time""
""fullscreenenter"",""5"",""17975""
","
","","","","","","","","","","","","","","","","","","","","","",""
"audio-keyboard-response","122","348218","0.0-63.0","3454","5951","15","Male","false","false","false","true","""event"",""trial"",""time""
""fullscreenenter"",""5"",""17975""
","
","
","""event"",""trial"",""time""
""fullscreenenter"",""5"",""17975""
","
","2579","audio/instructions/treasure_feedback.wav","32","","","","","","","","","","","","","","","","","","",""
"d3-instructions","123","363575","0.0-64.0","3454","5951","15","Male","false","false","false","true","""event"",""trial"",""time""
""fullscreenenter"",""5"",""17975""
","
","
","""event"",""trial"",""time""
""fullscreenenter"",""5"",""17975""
","
","","","","","","","","","","","","","","","","","","","","","",""
"d3-instructions","124","376470","0.0-65.0","3454","5951","15","Male","false","false","false","true","""event"",""trial"",""time""
""fullscreenenter"",""5"",""17975""
","
","
","""event"",""trial"",""time""
""fullscreenenter"",""5"",""17975""
","
","","","","","","","","","","","","","","","","","","","","","",""
"d3-instructions","125","379346","0.0-66.0","3454","5951","15","Male","false","false","false","true","""event"",""trial"",""time""
""fullscreenenter"",""5"",""17975""
","
","
","""event"",""trial"",""time""
""fullscreenenter"",""5"",""17975""
","
","","","","","","","","","","","","","","","","","","","","","",""
"d3-instructions","126","386969","0.0-67.0","3454","5951","15","Male","false","false","false","true","""event"",""trial"",""time""
""fullscreenenter"",""5"",""17975""
","
","
","""event"",""trial"",""time""
""fullscreenenter"",""5"",""17975""
","
","","","","","","","","","","","","","","","","","","","","","",""
"d3-instructions","127","388964","0.0-68.0","3454","5951","15","Male","false","false","false","true","""event"",""trial"",""time""
""fullscreenenter"",""5"",""17975""
","
","
","""event"",""trial"",""time""
""fullscreenenter"",""5"",""17975""
","
","","","","","","","","","","","","","","","","","","","","","",""
"instructions-quiz","128","391973","0.0-69.0","3454","5951","15","Male","false","false","false","true","""event"",""trial"",""time""
""fullscreenenter"",""5"",""17975""
","
","
","""event"",""trial"",""time""
""fullscreenenter"",""5"",""17975""
","
","3006.399999976158","audio/quiz/Q1_Prompt.wav","","1","","","","","","","","","","","","","","","","","",""
"audio-keyboard-response","129","401144","0.0-70.0","3454","5951","15","Male","false","false","false","true","""event"",""trial"",""time""
""fullscreenenter"",""5"",""17975""
","
","
","""event"",""trial"",""time""
""fullscreenenter"",""5"",""17975""
","
","null","audio/quiz/Q1_Correct.wav","null","","","","","","","","","","","","","","","","","","",""
"instructions-quiz","130","414690","0.0-71.0","3454","5951","15","Male","false","false","false","true","""event"",""trial"",""time""
""fullscreenenter"",""5"",""17975""
","
","
","""event"",""trial"",""time""
""fullscreenenter"",""5"",""17975""
","
","13544.200000047684","audio/quiz/Q2_Prompt.wav","","0","","","","","","","","","","","","","","","","","",""
"audio-keyboard-response","131","427554","0.0-72.0","3454","5951","15","Male","false","false","false","true","""event"",""trial"",""time""
""fullscreenenter"",""5"",""17975""
","
","
","""event"",""trial"",""time""
""fullscreenenter"",""5"",""17975""
","
","null","audio/quiz/Q2_Correct.wav","null","","","","","","","","","","","","","","","","","","",""
"instructions-quiz","132","431233","0.0-73.0","3454","5951","15","Male","false","false","false","true","""event"",""trial"",""time""
""fullscreenenter"",""5"",""17975""
","
","
","""event"",""trial"",""time""
""fullscreenenter"",""5"",""17975""
","
","3676.3000000715256","audio/quiz/Q3_Prompt.wav","","1","","","","","","","","","","","","","","","","","",""
"audio-keyboard-response","133","437033","0.0-74.0","3454","5951","15","Male","false","false","false","true","""event"",""trial"",""time""
""fullscreenenter"",""5"",""17975""
","
","
","""event"",""trial"",""time""
""fullscreenenter"",""5"",""17975""
","
","null","audio/quiz/Q3_Correct.wav","null","","","","","","","","","","","","","","","","","","",""
"d3-instructions","134","444494","0.0-75.0","3454","5951","15","Male","false","false","false","true","""event"",""trial"",""time""
""fullscreenenter"",""5"",""17975""
","
","
","""event"",""trial"",""time""
""fullscreenenter"",""5"",""17975""
","
","","","","","","","","","","","","","","","","","","","","","",""
"pavlovia","135","444499","0.0-76.0","3454","5951","15","Male","false","false","false","true","""event"",""trial"",""time""
""fullscreenenter"",""5"",""17975""
","
","
","""event"",""trial"",""time""
""fullscreenenter"",""5"",""17975""
","
","","","","","","","","","","","","","","","","","","","","","",""
"d3-animate-choice","136","447601","0.0-77.0-0.0","3454","5951","15","Male","false","false","false","true","""event"",""trial"",""time""
""fullscreenenter"",""5"",""17975""
","
","
","""event"",""trial"",""time""
""fullscreenenter"",""5"",""17975""
","
","1092.9000000953674","","49","","","3000","1","","","images/earth.jpg","images/rocket1","images/rocket2","null","images/rocket2","","1","real","null","1","","",""
"d3-animate-choice","137","450273","0.0-77.0-1.0","3454","5951","15","Male","false","false","false","true","""event"",""trial"",""time""
""fullscreenenter"",""5"",""17975""
","
","
","""event"",""trial"",""time""
""fullscreenenter"",""5"",""17975""
","
","667.1000000238419","","48","","","3000","1","1135.1000000238419","48","images/purpleplanet.jpg","images/alien4","images/alien3","images/rocket2","images/alien4","images/t.png","2","real","false","2","rare","1","2023-01-23 23:52:19.635"
"two-step-fixation","138","451282","0.0-77.0-2.0","3454","5951","15","Male","false","false","false","true","""event"",""trial"",""time""
""fullscreenenter"",""5"",""17975""
","
","
","""event"",""trial"",""time""
""fullscreenenter"",""5"",""17975""
","
","","images/earth.jpg","","","","","","","","","","","","","","fixation","","","","","",""
"d3-animate-choice","139","453729","0.0-77.0-0.1","3454","5951","15","Male","false","false","false","true","""event"",""trial"",""time""
""fullscreenenter"",""5"",""17975""
","
","
","""event"",""trial"",""time""
""fullscreenenter"",""5"",""17975""
","
","442.89999997615814","","49","","","3000","1","","","images/earth.jpg","images/rocket1","images/rocket2","null","images/rocket2","","1","real","null","1","","",""
"d3-animate-choice","140","456763","0.0-77.0-1.1","3454","5951","15","Male","false","false","false","true","""event"",""trial"",""time""
""fullscreenenter"",""5"",""17975""
","
","
","""event"",""trial"",""time""
""fullscreenenter"",""5"",""17975""
","
","1020.6000000238419","","49","","","3000","1","","","images/redplanet1.jpg","images/alien2","images/alien1","images/rocket2","images/alien1","images/nothing.png","2","real","true","1","common","0","2023-01-23 23:52:26.124"
"two-step-fixation","141","457769","0.0-77.0-2.1","3454","5951","15","Male","false","false","false","true","""event"",""trial"",""time""
""fullscreenenter"",""5"",""17975""
","
","
","""event"",""trial"",""time""
""fullscreenenter"",""5"",""17975""
","
","","images/earth.jpg","","","","","","","","","","","","","","fixation","","","","","",""
"d3-animate-choice","142","460065","0.0-77.0-0.2","3454","5951","15","Male","false","false","false","true","""event"",""trial"",""time""
""fullscreenenter"",""5"",""17975""
","
","
","""event"",""trial"",""time""
""fullscreenenter"",""5"",""17975""
","
","288.10000002384186","","48","","","3000","1","","","images/earth.jpg","images/rocket1","images/rocket2","null","images/rocket1","","1","real","null","2","","",""
"d3-animate-choice","143","462674","0.0-77.0-1.2","3454","5951","15","Male","false","false","false","true","""event"",""trial"",""time""
""fullscreenenter"",""5"",""17975""
","
","
","""event"",""trial"",""time""
""fullscreenenter"",""5"",""17975""
","
","600.5","","49","","","3000","1","","","images/redplanet1.jpg","images/alien2","images/alien1","images/rocket1","images/alien1","images/nothing.png","2","real","false","1","rare","0","2023-01-23 23:52:32.035"
"two-step-fixation","144","463677","0.0-77.0-2.2","3454","5951","15","Male","false","false","false","true","""event"",""trial"",""time""
""fullscreenenter"",""5"",""17975""
","
","
","""event"",""trial"",""time""
""fullscreenenter"",""5"",""17975""
","
","","images/earth.jpg","","","","","","","","","","","","","","fixation","","","","","",""
"d3-animate-choice","145","465745","0.0-77.0-0.3","3454","5951","15","Male","false","false","false","true","""event"",""trial"",""time""
""fullscreenenter"",""5"",""17975""
","
","
","""event"",""trial"",""time""
""fullscreenenter"",""5"",""17975""
","
","61.299999952316284","","49","","","3000","1","","","images/earth.jpg","images/rocket1","images/rocket2","null","images/rocket2","","1","real","null","1","","",""
"d3-animate-choice","146","468361","0.0-77.0-1.3","3454","5951","15","Male","false","false","false","true","""event"",""trial"",""time""
""fullscreenenter"",""5"",""17975""
","
","
","""event"",""trial"",""time""
""fullscreenenter"",""5"",""17975""
","
","611.2999999523163","","48","","","3000","1","","","images/purpleplanet.jpg","images/alien4","images/alien3","images/rocket2","images/alien4","images/t.png","2","real","false","2","rare","1","2023-01-23 23:52:37.722"
"two-step-fixation","147","469381","0.0-77.0-2.3","3454","5951","15","Male","false","false","false","true","""event"",""trial"",""time""
""fullscreenenter"",""5"",""17975""
","
","
","""event"",""trial"",""time""
""fullscreenenter"",""5"",""17975""
","
","","images/earth.jpg","","","","","","","","","","","","","","fixation","","","","","",""
"d3-animate-choice","148","471817","0.0-77.0-0.4","3454","5951","15","Male","false","false","false","true","""event"",""trial"",""time""
""fullscreenenter"",""5"",""17975""
","
","
","""event"",""trial"",""time""
""fullscreenenter"",""5"",""17975""
","
","427.3000000715256","","49","","","3000","1","","","images/earth.jpg","images/rocket1","images/rocket2","null","images/rocket2","","1","real","null","1","","",""
"d3-animate-choice","149","474817","0.0-77.0-1.4","3454","5951","15","Male","false","false","false","true","""event"",""trial"",""time""
""fullscreenenter"",""5"",""17975""
","
","
","""event"",""trial"",""time""
""fullscreenenter"",""5"",""17975""
","
","994.2999999523163","","48","","","3000","1","","","images/redplanet1.jpg","images/alien2","images/alien1","images/rocket2","images/alien2","images/nothing.png","2","real","true","2","common","0","2023-01-23 23:52:44.178"
"two-step-fixation","150","475825","0.0-77.0-2.4","3454","5951","15","Male","false","false","false","true","""event"",""trial"",""time""
""fullscreenenter"",""5"",""17975""
","
","
","""event"",""trial"",""time""
""fullscreenenter"",""5"",""17975""
","
","","images/earth.jpg","","","","","","","","","","","","","","fixation","","","","","",""
"d3-animate-choice","151","478290","0.0-77.0-0.5","3454","5951","15","Male","false","false","false","true","""event"",""trial"",""time""
""fullscreenenter"",""5"",""17975""
","
","
","""event"",""trial"",""time""
""fullscreenenter"",""5"",""17975""
","
","456.2000000476837","","49","","","3000","1","","","images/earth.jpg","images/rocket1","images/rocket2","null","images/rocket2","","1","real","null","1","","",""
"d3-animate-choice","152","481154","0.0-77.0-1.5","3454","5951","15","Male","false","false","false","true","""event"",""trial"",""time""
""fullscreenenter"",""5"",""17975""
","
","
","""event"",""trial"",""time""
""fullscreenenter"",""5"",""17975""
","
","857.1000000238419","","49","","","3000","1","","","images/redplanet1.jpg","images/alien2","images/alien1","images/rocket2","images/alien1","images/nothing.png","2","real","true","1","common","0","2023-01-23 23:52:50.515"
"two-step-fixation","153","482161","0.0-77.0-2.5","3454","5951","15","Male","false","false","false","true","""event"",""trial"",""time""
""fullscreenenter"",""5"",""17975""
","
","
","""event"",""trial"",""time""
""fullscreenenter"",""5"",""17975""
","
","","images/earth.jpg","","","","","","","","","","","","","","fixation","","","","","",""
"d3-animate-choice","154","484395","0.0-77.0-0.6","3454","5951","15","Male","false","false","false","true","""event"",""trial"",""time""
""fullscreenenter"",""5"",""17975""
","
","
","""event"",""trial"",""time""
""fullscreenenter"",""5"",""17975""
","
","226.90000009536743","","48","","","3000","1","","","images/earth.jpg","images/rocket1","images/rocket2","null","images/rocket1","","1","real","null","2","","",""
"d3-animate-choice","155","487113","0.0-77.0-1.6","3454","5951","15","Male","false","false","false","true","""event"",""trial"",""time""
""fullscreenenter"",""5"",""17975""
","
","
","""event"",""trial"",""time""
""fullscreenenter"",""5"",""17975""
","
","713.7000000476837","","48","","","3000","1","","","images/redplanet1.jpg","images/alien2","images/alien1","images/rocket1","images/alien2","images/t.png","2","real","false","2","rare","1","2023-01-23 23:52:56.474"
"two-step-fixation","156","488121","0.0-77.0-2.6","3454","5951","15","Male","false","false","false","true","""event"",""trial"",""time""
""fullscreenenter"",""5"",""17975""
","
","
","""event"",""trial"",""time""
""fullscreenenter"",""5"",""17975""
","
","","images/earth.jpg","","","","","","","","","","","","","","fixation","","","","","",""
"d3-animate-choice","157","490841","0.0-77.0-0.7","3454","5951","15","Male","false","false","false","true","""event"",""trial"",""time""
""fullscreenenter"",""5"",""17975""
","
","
","""event"",""trial"",""time""
""fullscreenenter"",""5"",""17975""
","
","710.3999999761581","","48","","","3000","1","","","images/earth.jpg","images/rocket1","images/rocket2","null","images/rocket1","","1","real","null","2","","",""
"d3-animate-choice","158","493266","0.0-77.0-1.7","3454","5951","15","Male","false","false","false","true","""event"",""trial"",""time""
""fullscreenenter"",""5"",""17975""
","
","
","""event"",""trial"",""time""
""fullscreenenter"",""5"",""17975""
","
","420","","48","","","3000","1","","","images/purpleplanet.jpg","images/alien4","images/alien3","images/rocket1","images/alien4","images/nothing.png","2","real","true","2","common","0","2023-01-23 23:53:02.627"
"two-step-fixation","159","494273","0.0-77.0-2.7","3454","5951","15","Male","false","false","false","true","""event"",""trial"",""time""
""fullscreenenter"",""5"",""17975""
","
","
","""event"",""trial"",""time""
""fullscreenenter"",""5"",""17975""
","
","","images/earth.jpg","","","","","","","","","","","","","","fixation","","","","","",""
"d3-animate-choice","160","497018","0.0-77.0-0.8","3454","5951","15","Male","false","false","false","true","""event"",""trial"",""time""
""fullscreenenter"",""5"",""17975""
","
","
","""event"",""trial"",""time""
""fullscreenenter"",""5"",""17975""
","
","737.6000000238419","","49","","","3000","1","","","images/earth.jpg","images/rocket1","images/rocket2","null","images/rocket2","","1","real","null","1","","",""
"d3-animate-choice","161","499585","0.0-77.0-1.8","3454","5951","15","Male","false","false","false","true","""event"",""trial"",""time""
""fullscreenenter"",""5"",""17975""
","
","
","""event"",""trial"",""time""
""fullscreenenter"",""5"",""17975""
","
","559.3000000715256","","49","","","3000","1","","","images/redplanet1.jpg","images/alien2","images/alien1","images/rocket2","images/alien1","images/nothing.png","2","real","true","1","common","0","2023-01-23 23:53:08.946"
"two-step-fixation","162","500592","0.0-77.0-2.8","3454","5951","15","Male","false","false","false","true","""event"",""trial"",""time""
""fullscreenenter"",""5"",""17975""
","
","
","""event"",""trial"",""time""
""fullscreenenter"",""5"",""17975""
","
","","images/earth.jpg","","","","","","","","","","","","","","fixation","","","","","",""
"d3-animate-choice","163","503073","0.0-77.0-0.9","3454","5951","15","Male","false","false","false","true","""event"",""trial"",""time""
""fullscreenenter"",""5"",""17975""
","
","
","""event"",""trial"",""time""
""fullscreenenter"",""5"",""17975""
","
","470.7999999523163","","48","","","3000","1","","","images/earth.jpg","images/rocket1","images/rocket2","null","images/rocket1","","1","real","null","2","","",""
"d3-animate-choice","164","505648","0.0-77.0-1.9","3454","5951","15","Male","false","false","false","true","""event"",""trial"",""time""
""fullscreenenter"",""5"",""17975""
","
","
","""event"",""trial"",""time""
""fullscreenenter"",""5"",""17975""
","
","570","","48","","","3000","1","","","images/redplanet1.jpg","images/alien2","images/alien1","images/rocket1","images/alien2","images/t.png","2","real","false","2","rare","1","2023-01-23 23:53:15.009"
"two-step-fixation","165","506656","0.0-77.0-2.9","3454","5951","15","Male","false","false","false","true","""event"",""trial"",""time""
""fullscreenenter"",""5"",""17975""
","
","
","""event"",""trial"",""time""
""fullscreenenter"",""5"",""17975""
","
","","images/earth.jpg","","","","","","","","","","","","","","fixation","","","","","",""
"d3-animate-choice","166","509705","0.0-77.0-0.10","3454","5951","15","Male","false","false","false","true","""event"",""trial"",""time""
""fullscreenenter"",""5"",""17975""
","
","
","""event"",""trial"",""time""
""fullscreenenter"",""5"",""17975""
","
","1040.9000000953674","","49","","","3000","1","","","images/earth.jpg","images/rocket1","images/rocket2","null","images/rocket2","","1","real","null","1","","",""
"d3-animate-choice","167","512161","0.0-77.0-1.10","3454","5951","15","Male","false","false","false","true","""event"",""trial"",""time""
""fullscreenenter"",""5"",""17975""
","
","
","""event"",""trial"",""time""
""fullscreenenter"",""5"",""17975""
","
","453.5","","48","","","3000","1","","","images/purpleplanet.jpg","images/alien4","images/alien3","images/rocket2","images/alien4","images/t.png","2","real","false","2","rare","1","2023-01-23 23:53:21.522"
"two-step-fixation","168","513169","0.0-77.0-2.10","3454","5951","15","Male","false","false","false","true","""event"",""trial"",""time""
""fullscreenenter"",""5"",""17975""
","
","
","""event"",""trial"",""time""
""fullscreenenter"",""5"",""17975""
","
","","images/earth.jpg","","","","","","","","","","","","","","fixation","","","","","",""
"d3-animate-choice","169","515611","0.0-77.0-0.11","3454","5951","15","Male","false","false","false","true","""event"",""trial"",""time""
""fullscreenenter"",""5"",""17975""
","
","
","""event"",""trial"",""time""
""fullscreenenter"",""5"",""17975""
","
","439.5","","48","","","3000","1","","","images/earth.jpg","images/rocket1","images/rocket2","null","images/rocket1","","1","real","null","2","","",""
"d3-animate-choice","170","518176","0.0-77.0-1.11","3454","5951","15","Male","false","false","false","true","""event"",""trial"",""time""
""fullscreenenter"",""5"",""17975""
","
","
","""event"",""trial"",""time""
""fullscreenenter"",""5"",""17975""
","
","558.4000000953674","","48","","","3000","1","","","images/redplanet1.jpg","images/alien2","images/alien1","images/rocket1","images/alien2","images/t.png","2","real","false","2","rare","1","2023-01-23 23:53:27.537"
"two-step-fixation","171","519185","0.0-77.0-2.11","3454","5951","15","Male","false","false","false","true","""event"",""trial"",""time""
""fullscreenenter"",""5"",""17975""
","
","
","""event"",""trial"",""time""
""fullscreenenter"",""5"",""17975""
","
","","images/earth.jpg","","","","","","","","","","","","","","fixation","","","","","",""
"d3-animate-choice","172","521585","0.0-77.0-0.12","3454","5951","15","Male","false","false","false","true","""event"",""trial"",""time""
""fullscreenenter"",""5"",""17975""
","
","
","""event"",""trial"",""time""
""fullscreenenter"",""5"",""17975""
","
","394.60000002384186","","49","","","3000","1","","","images/earth.jpg","images/rocket1","images/rocket2","null","images/rocket2","","1","real","null","1","","",""
"d3-animate-choice","173","524211","0.0-77.0-1.12","3454","5951","15","Male","false","false","false","true","""event"",""trial"",""time""
""fullscreenenter"",""5"",""17975""
","
","
","""event"",""trial"",""time""
""fullscreenenter"",""5"",""17975""
","
","621.7999999523163","","48","","","3000","1","","","images/purpleplanet.jpg","images/alien4","images/alien3","images/rocket2","images/alien4","images/nothing.png","2","real","false","2","rare","0","2023-01-23 23:53:33.572"
"two-step-fixation","174","525217","0.0-77.0-2.12","3454","5951","15","Male","false","false","false","true","""event"",""trial"",""time""
""fullscreenenter"",""5"",""17975""
","
","
","""event"",""trial"",""time""
""fullscreenenter"",""5"",""17975""
","
","","images/earth.jpg","","","","","","","","","","","","","","fixation","","","","","",""
"d3-animate-choice","175","527769","0.0-77.0-0.13","3454","5951","15","Male","false","false","false","true","""event"",""trial"",""time""
""fullscreenenter"",""5"",""17975""
","
","
","""event"",""trial"",""time""
""fullscreenenter"",""5"",""17975""
","
","544.8999999761581","","49","","","3000","1","","","images/earth.jpg","images/rocket1","images/rocket2","null","images/rocket2","","1","real","null","1","","",""
"d3-animate-choice","176","530528","0.0-77.0-1.13","3454","5951","15","Male","false","false","false","true","""event"",""trial"",""time""
""fullscreenenter"",""5"",""17975""
","
","
","""event"",""trial"",""time""
""fullscreenenter"",""5"",""17975""
","
","754.3000000715256","","49","","","3000","1","","","images/redplanet1.jpg","images/alien2","images/alien1","images/rocket2","images/alien1","images/t.png","2","real","true","1","common","1","2023-01-23 23:53:39.889"
"two-step-fixation","177","531538","0.0-77.0-2.13","3454","5951","15","Male","false","false","false","true","""event"",""trial"",""time""
""fullscreenenter"",""5"",""17975""
","
","
","""event"",""trial"",""time""
""fullscreenenter"",""5"",""17975""
","
","","images/earth.jpg","","","","","","","","","","","","","","fixation","","","","","",""
"d3-animate-choice","178","534002","0.0-77.0-0.14","3454","5951","15","Male","false","false","false","true","""event"",""trial"",""time""
""fullscreenenter"",""5"",""17975""
","
","
","""event"",""trial"",""time""
""fullscreenenter"",""5"",""17975""
","
","458.6999999284744","","48","","","3000","1","","","images/earth.jpg","images/rocket1","images/rocket2","null","images/rocket1","","1","real","null","2","","",""
"d3-animate-choice","179","536417","0.0-77.0-1.14","3454","5951","15","Male","false","false","false","true","""event"",""trial"",""time""
""fullscreenenter"",""5"",""17975""
","
","
","""event"",""trial"",""time""
""fullscreenenter"",""5"",""17975""
","
","410.10000002384186","","48","","","3000","1","","","images/purpleplanet.jpg","images/alien4","images/alien3","images/rocket1","images/alien4","images/nothing.png","2","real","true","2","common","0","2023-01-23 23:53:45.778"
"two-step-fixation","180","537424","0.0-77.0-2.14","3454","5951","15","Male","false","false","false","true","""event"",""trial"",""time""
""fullscreenenter"",""5"",""17975""
","
","
","""event"",""trial"",""time""
""fullscreenenter"",""5"",""17975""
","
","","images/earth.jpg","","","","","","","","","","","","","","fixation","","","","","",""
"d3-animate-choice","181","539569","0.0-77.0-0.15","3454","5951","15","Male","false","false","false","true","""event"",""trial"",""time""
""fullscreenenter"",""5"",""17975""
","
","
","""event"",""trial"",""time""
""fullscreenenter"",""5"",""17975""
","
","138.89999997615814","","49","","","3000","1","","","images/earth.jpg","images/rocket1","images/rocket2","null","images/rocket2","","1","real","null","1","","",""
"d3-animate-choice","182","542409","0.0-77.0-1.15","3454","5951","15","Male","false","false","false","true","""event"",""trial"",""time""
""fullscreenenter"",""5"",""17975""
","
","
","""event"",""trial"",""time""
""fullscreenenter"",""5"",""17975""
","
","833.8999999761581","","48","","","3000","1","","","images/redplanet1.jpg","images/alien2","images/alien1","images/rocket2","images/alien2","images/t.png","2","real","true","2","common","1","2023-01-23 23:53:51.770"
"two-step-fixation","183","543417","0.0-77.0-2.15","3454","5951","15","Male","false","false","false","true","""event"",""trial"",""time""
""fullscreenenter"",""5"",""17975""
","
","
","""event"",""trial"",""time""
""fullscreenenter"",""5"",""17975""
","
","","images/earth.jpg","","","","","","","","","","","","","","fixation","","","","","",""
"d3-animate-choice","184","546233","0.0-77.0-0.16","3454","5951","15","Male","false","false","false","true","""event"",""trial"",""time""
""fullscreenenter"",""5"",""17975""
","
","
","""event"",""trial"",""time""
""fullscreenenter"",""5"",""17975""
","
","804.9000000953674","","49","","","3000","1","","","images/earth.jpg","images/rocket1","images/rocket2","null","images/rocket2","","1","real","null","1","","",""
"d3-animate-choice","185","549152","0.0-77.0-1.16","3454","5951","15","Male","false","false","false","true","""event"",""trial"",""time""
""fullscreenenter"",""5"",""17975""
","
","
","""event"",""trial"",""time""
""fullscreenenter"",""5"",""17975""
","
","915.1000000238419","","48","","","3000","1","","","images/purpleplanet.jpg","images/alien4","images/alien3","images/rocket2","images/alien4","images/t.png","2","real","false","2","rare","1","2023-01-23 23:53:58.513"
"two-step-fixation","186","550160","0.0-77.0-2.16","3454","5951","15","Male","false","false","false","true","""event"",""trial"",""time""
""fullscreenenter"",""5"",""17975""
","
","
","""event"",""trial"",""time""
""fullscreenenter"",""5"",""17975""
","
","","images/earth.jpg","","","","","","","","","","","","","","fixation","","","","","",""
"d3-animate-choice","187","552753","0.0-77.0-0.17","3454","5951","15","Male","false","false","false","true","""event"",""trial"",""time""
""fullscreenenter"",""5"",""17975""
","
","
","""event"",""trial"",""time""
""fullscreenenter"",""5"",""17975""
","
","584.1999999284744","","48","","","3000","1","","","images/earth.jpg","images/rocket1","images/rocket2","null","images/rocket1","","1","real","null","2","","",""
"d3-animate-choice","188","555472","0.0-77.0-1.17","3454","5951","15","Male","false","false","false","true","""event"",""trial"",""time""
""fullscreenenter"",""5"",""17975""
","
","
","""event"",""trial"",""time""
""fullscreenenter"",""5"",""17975""
","
","711.8999999761581","","49","","","3000","1","","","images/purpleplanet.jpg","images/alien4","images/alien3","images/rocket1","images/alien3","images/nothing.png","2","real","true","1","common","0","2023-01-23 23:54:04.833"
"two-step-fixation","189","556481","0.0-77.0-2.17","3454","5951","15","Male","false","false","false","true","""event"",""trial"",""time""
""fullscreenenter"",""5"",""17975""
","
","
","""event"",""trial"",""time""
""fullscreenenter"",""5"",""17975""
","
","","images/earth.jpg","","","","","","","","","","","","","","fixation","","","","","",""
"d3-animate-choice","190","559153","0.0-77.0-0.18","3454","5951","15","Male","false","false","false","true","""event"",""trial"",""time""
""fullscreenenter"",""5"",""17975""
","
","
","""event"",""trial"",""time""
""fullscreenenter"",""5"",""17975""
","
","668.6999999284744","","48","","","3000","1","","","images/earth.jpg","images/rocket1","images/rocket2","null","images/rocket1","","1","real","null","2","","",""
"d3-animate-choice","191","561857","0.0-77.0-1.18","3454","5951","15","Male","false","false","false","true","""event"",""trial"",""time""
""fullscreenenter"",""5"",""17975""
","
","
","""event"",""trial"",""time""
""fullscreenenter"",""5"",""17975""
","
","700.8999999761581","","49","","","3000","1","","","images/redplanet1.jpg","images/alien2","images/alien1","images/rocket1","images/alien1","images/t.png","2","real","false","1","rare","1","2023-01-23 23:54:11.218"
"two-step-fixation","192","562862","0.0-77.0-2.18","3454","5951","15","Male","false","false","false","true","""event"",""trial"",""time""
""fullscreenenter"",""5"",""17975""
","
","
","""event"",""trial"",""time""
""fullscreenenter"",""5"",""17975""
","
","","images/earth.jpg","","","","","","","","","","","","","","fixation","","","","","",""
"d3-animate-choice","193","565249","0.0-77.0-0.19","3454","5951","15","Male","false","false","false","true","""event"",""trial"",""time""
""fullscreenenter"",""5"",""17975""
","
","
","""event"",""trial"",""time""
""fullscreenenter"",""5"",""17975""
","
","377.10000002384186","","48","","","3000","1","","","images/earth.jpg","images/rocket1","images/rocket2","null","images/rocket1","","1","real","null","2","","",""
"d3-animate-choice","194","568079","0.0-77.0-1.19","3454","5951","15","Male","false","false","false","true","""event"",""trial"",""time""
""fullscreenenter"",""5"",""17975""
","
","
","""event"",""trial"",""time""
""fullscreenenter"",""5"",""17975""
","
","822.5999999046326","","49","","","3000","1","","","images/redplanet1.jpg","images/alien2","images/alien1","images/rocket1","images/alien1","images/nothing.png","2","real","false","1","rare","0","2023-01-23 23:54:17.440"
"two-step-fixation","195","569088","0.0-77.0-2.19","3454","5951","15","Male","false","false","false","true","""event"",""trial"",""time""
""fullscreenenter"",""5"",""17975""
","
","
","""event"",""trial"",""time""
""fullscreenenter"",""5"",""17975""
","
","","images/earth.jpg","","","","","","","","","","","","","","fixation","","","","","",""
"d3-animate-choice","196","571609","0.0-77.0-0.20","3454","5951","15","Male","false","false","false","true","""event"",""trial"",""time""
""fullscreenenter"",""5"",""17975""
","
","
","""event"",""trial"",""time""
""fullscreenenter"",""5"",""17975""
","
","510.39999997615814","","48","","","3000","1","","","images/earth.jpg","images/rocket1","images/rocket2","null","images/rocket1","","1","real","null","2","","",""
"d3-animate-choice","197","573952","0.0-77.0-1.20","3454","5951","15","Male","false","false","false","true","""event"",""trial"",""time""
""fullscreenenter"",""5"",""17975""
","
","
","""event"",""trial"",""time""
""fullscreenenter"",""5"",""17975""
","
","335.7999999523163","","48","","","3000","1","","","images/purpleplanet.jpg","images/alien4","images/alien3","images/rocket1","images/alien4","images/t.png","2","real","true","2","common","1","2023-01-23 23:54:23.313"
"two-step-fixation","198","574961","0.0-77.0-2.20","3454","5951","15","Male","false","false","false","true","""event"",""trial"",""time""
""fullscreenenter"",""5"",""17975""
","
","
","""event"",""trial"",""time""
""fullscreenenter"",""5"",""17975""
","
","","images/earth.jpg","","","","","","","","","","","","","","fixation","","","","","",""
"d3-animate-choice","199","577312","0.0-77.0-0.21","3454","5951","15","Male","false","false","false","true","""event"",""trial"",""time""
""fullscreenenter"",""5"",""17975""
","
","
","""event"",""trial"",""time""
""fullscreenenter"",""5"",""17975""
","
","344.10000002384186","","49","","","3000","1","","","images/earth.jpg","images/rocket1","images/rocket2","null","images/rocket2","","1","real","null","1","","",""
"d3-animate-choice","200","579944","0.0-77.0-1.21","3454","5951","15","Male","false","false","false","true","""event"",""trial"",""time""
""fullscreenenter"",""5"",""17975""
","
","
","""event"",""trial"",""time""
""fullscreenenter"",""5"",""17975""
","
","624.2999999523163","","48","","","3000","1","","","images/redplanet1.jpg","images/alien2","images/alien1","images/rocket2","images/alien2","images/nothing.png","2","real","true","2","common","0","2023-01-23 23:54:29.306"
"two-step-fixation","201","580952","0.0-77.0-2.21","3454","5951","15","Male","false","false","false","true","""event"",""trial"",""time""
""fullscreenenter"",""5"",""17975""
","
","
","""event"",""trial"",""time""
""fullscreenenter"",""5"",""17975""
","
","","images/earth.jpg","","","","","","","","","","","","","","fixation","","","","","",""
"d3-animate-choice","202","583416","0.0-77.0-0.22","3454","5951","15","Male","false","false","false","true","""event"",""trial"",""time""
""fullscreenenter"",""5"",""17975""
","
","
","""event"",""trial"",""time""
""fullscreenenter"",""5"",""17975""
","
","454.39999997615814","","49","","","3000","1","","","images/earth.jpg","images/rocket1","images/rocket2","null","images/rocket2","","1","real","null","1","","",""
"d3-animate-choice","203","585830","0.0-77.0-1.22","3454","5951","15","Male","false","false","false","true","""event"",""trial"",""time""
""fullscreenenter"",""5"",""17975""
","
","
","""event"",""trial"",""time""
""fullscreenenter"",""5"",""17975""
","
","407.5","","49","","","3000","1","","","images/redplanet1.jpg","images/alien2","images/alien1","images/rocket2","images/alien1","images/t.png","2","real","true","1","common","1","2023-01-23 23:54:35.191"
"two-step-fixation","204","586832","0.0-77.0-2.22","3454","5951","15","Male","false","false","false","true","""event"",""trial"",""time""
""fullscreenenter"",""5"",""17975""
","
","
","""event"",""trial"",""time""
""fullscreenenter"",""5"",""17975""
","
","","images/earth.jpg","","","","","","","","","","","","","","fixation","","","","","",""
"d3-animate-choice","205","589463","0.0-77.0-0.23","3454","5951","15","Male","false","false","false","true","""event"",""trial"",""time""
""fullscreenenter"",""5"",""17975""
","
","
","""event"",""trial"",""time""
""fullscreenenter"",""5"",""17975""
","
","621.5999999046326","","48","","","3000","1","","","images/earth.jpg","images/rocket1","images/rocket2","null","images/rocket1","","1","real","null","2","","",""
"d3-animate-choice","206","592208","0.0-77.0-1.23","3454","5951","15","Male","false","false","false","true","""event"",""trial"",""time""
""fullscreenenter"",""5"",""17975""
","
","
","""event"",""trial"",""time""
""fullscreenenter"",""5"",""17975""
","
","736.5","","48","","","3000","1","","","images/purpleplanet.jpg","images/alien4","images/alien3","images/rocket1","images/alien4","images/nothing.png","2","real","true","2","common","0","2023-01-23 23:54:41.569"
"two-step-fixation","207","593213","0.0-77.0-2.23","3454","5951","15","Male","false","false","false","true","""event"",""trial"",""time""
""fullscreenenter"",""5"",""17975""
","
","
","""event"",""trial"",""time""
""fullscreenenter"",""5"",""17975""
","
","","images/earth.jpg","","","","","","","","","","","","","","fixation","","","","","",""
"d3-animate-choice","208","595505","0.0-77.0-0.24","3454","5951","15","Male","false","false","false","true","""event"",""trial"",""time""
""fullscreenenter"",""5"",""17975""
","
","
","""event"",""trial"",""time""
""fullscreenenter"",""5"",""17975""
","
","284.8000000715256","","49","","","3000","1","","","images/earth.jpg","images/rocket1","images/rocket2","null","images/rocket2","","1","real","null","1","","",""
"d3-animate-choice","209","597888","0.0-77.0-1.24","3454","5951","15","Male","false","false","false","true","""event"",""trial"",""time""
""fullscreenenter"",""5"",""17975""
","
","
","""event"",""trial"",""time""
""fullscreenenter"",""5"",""17975""
","
","375.60000002384186","","49","","","3000","1","451.8000000715256","9","images/redplanet1.jpg","images/alien2","images/alien1","images/rocket2","images/alien1","images/t.png","2","real","true","1","common","1","2023-01-23 23:54:47.249"
"two-step-fixation","210","598896","0.0-77.0-2.24","3454","5951","15","Male","false","false","false","true","""event"",""trial"",""time""
""fullscreenenter"",""5"",""17975""
","
","
","""event"",""trial"",""time""
""fullscreenenter"",""5"",""17975""
","
","","images/earth.jpg","","","","","","","","","","","","","","fixation","","","","","",""
"d3-animate-choice","211","600976","0.0-77.0-0.25","3454","5951","15","Male","false","false","false","true","""event"",""trial"",""time""
""fullscreenenter"",""5"",""17975""
","
","
","""event"",""trial"",""time""
""fullscreenenter"",""5"",""17975""
","
","74.20000004768372","","48","","","3000","1","","","images/earth.jpg","images/rocket1","images/rocket2","null","images/rocket1","","1","real","null","2","","",""
"d3-animate-choice","212","603530","0.0-77.0-1.25","3454","5951","15","Male","false","false","false","true","""event"",""trial"",""time""
""fullscreenenter"",""5"",""17975""
","
","
","""event"",""trial"",""time""
""fullscreenenter"",""5"",""17975""
","
","549.6000000238419","","48","","","3000","1","","","images/purpleplanet.jpg","images/alien4","images/alien3","images/rocket1","images/alien4","images/t.png","2","real","true","2","common","1","2023-01-23 23:54:52.891"
"two-step-fixation","213","604537","0.0-77.0-2.25","3454","5951","15","Male","false","false","false","true","""event"",""trial"",""time""
""fullscreenenter"",""5"",""17975""
","
","
","""event"",""trial"",""time""
""fullscreenenter"",""5"",""17975""
","
","","images/earth.jpg","","","","","","","","","","","","","","fixation","","","","","",""
"d3-animate-choice","214","607002","0.0-77.0-0.26","3454","5951","15","Male","false","false","false","true","""event"",""trial"",""time""
""fullscreenenter"",""5"",""17975""
","
","
","""event"",""trial"",""time""
""fullscreenenter"",""5"",""17975""
","
","459.2999999523163","","49","","","3000","1","637.3999999761581,2220.1999999284744","48,49","images/earth.jpg","images/rocket1","images/rocket2","null","images/rocket2","","1","real","null","1","","",""
"d3-animate-choice","215","609576","0.0-77.0-1.26","3454","5951","15","Male","false","false","false","true","""event"",""trial"",""time""
""fullscreenenter"",""5"",""17975""
","
","
","""event"",""trial"",""time""
""fullscreenenter"",""5"",""17975""
","
","566.1000000238419","","49","","","3000","1","","","images/redplanet1.jpg","images/alien2","images/alien1","images/rocket2","images/alien1","images/nothing.png","2","real","true","1","common","0","2023-01-23 23:54:58.937"
"two-step-fixation","216","610580","0.0-77.0-2.26","3454","5951","15","Male","false","false","false","true","""event"",""trial"",""time""
""fullscreenenter"",""5"",""17975""
","
","
","""event"",""trial"",""time""
""fullscreenenter"",""5"",""17975""
","
","","images/earth.jpg","","","","","","","","","","","","","","fixation","","","","","",""
"d3-animate-choice","217","613185","0.0-77.0-0.27","3454","5951","15","Male","false","false","false","true","""event"",""trial"",""time""
""fullscreenenter"",""5"",""17975""
","
","
","""event"",""trial"",""time""
""fullscreenenter"",""5"",""17975""
","
","600.2000000476837","","48","","","3000","1","809.5","48","images/earth.jpg","images/rocket1","images/rocket2","null","images/rocket1","","1","real","null","2","","",""
"d3-animate-choice","218","615872","0.0-77.0-1.27","3454","5951","15","Male","false","false","false","true","""event"",""trial"",""time""
""fullscreenenter"",""5"",""17975""
","
","
","""event"",""trial"",""time""
""fullscreenenter"",""5"",""17975""
","
","682","","80","","","3000","1","682.2999999523163","48","images/purpleplanet.jpg","images/alien4","images/alien3","images/rocket1","images/alien4","images/nothing.png","2","real","true","","common","0","2023-01-23 23:55:05.233"
"two-step-fixation","219","616880","0.0-77.0-2.27","3454","5951","15","Male","false","false","false","true","""event"",""trial"",""time""
""fullscreenenter"",""5"",""17975""
","
","
","""event"",""trial"",""time""
""fullscreenenter"",""5"",""17975""
","
","","images/earth.jpg","","","","","","","","","","","","","","fixation","","","","","",""
"d3-animate-choice","220","619185","0.0-77.0-0.28","3454","5951","15","Male","false","false","false","true","""event"",""trial"",""time""
""fullscreenenter"",""5"",""17975""
","
","
","""event"",""trial"",""time""
""fullscreenenter"",""5"",""17975""
","
","298.5","","49","","","3000","1","","","images/earth.jpg","images/rocket1","images/rocket2","null","images/rocket2","","1","real","null","1","","",""
"d3-animate-choice","221","621745","0.0-77.0-1.28","3454","5951","15","Male","false","false","false","true","""event"",""trial"",""time""
""fullscreenenter"",""5"",""17975""
","
","
","""event"",""trial"",""time""
""fullscreenenter"",""5"",""17975""
","
","551","","48","","","3000","1","","","images/redplanet1.jpg","images/alien2","images/alien1","images/rocket2","images/alien2","images/nothing.png","2","real","true","2","common","0","2023-01-23 23:55:11.107"
"two-step-fixation","222","622753","0.0-77.0-2.28","3454","5951","15","Male","false","false","false","true","""event"",""trial"",""time""
""fullscreenenter"",""5"",""17975""
","
","
","""event"",""trial"",""time""
""fullscreenenter"",""5"",""17975""
","
","","images/earth.jpg","","","","","","","","","","","","","","fixation","","","","","",""
"d3-animate-choice","223","625073","0.0-77.0-0.29","3454","5951","15","Male","false","false","false","true","""event"",""trial"",""time""
""fullscreenenter"",""5"",""17975""
","
","
","""event"",""trial"",""time""
""fullscreenenter"",""5"",""17975""
","
","315.39999997615814","","49","","","3000","1","","","images/earth.jpg","images/rocket1","images/rocket2","null","images/rocket2","","1","real","null","1","","",""
"d3-animate-choice","224","627904","0.0-77.0-1.29","3454","5951","15","Male","false","false","false","true","""event"",""trial"",""time""
""fullscreenenter"",""5"",""17975""
","
","
","""event"",""trial"",""time""
""fullscreenenter"",""5"",""17975""
","
","823.2000000476837","","48","","","3000","1","","","images/purpleplanet.jpg","images/alien4","images/alien3","images/rocket2","images/alien4","images/t.png","2","real","false","2","rare","1","2023-01-23 23:55:17.266"
"two-step-fixation","225","628913","0.0-77.0-2.29","3454","5951","15","Male","false","false","false","true","""event"",""trial"",""time""
""fullscreenenter"",""5"",""17975""
","
","
","""event"",""trial"",""time""
""fullscreenenter"",""5"",""17975""
","
","","images/earth.jpg","","","","","","","","","","","","","","fixation","","","","","",""
"d3-animate-choice","226","631648","0.0-77.0-0.30","3454","5951","15","Male","false","false","false","true","""event"",""trial"",""time""
""fullscreenenter"",""5"",""17975""
","
","
","""event"",""trial"",""time""
""fullscreenenter"",""5"",""17975""
","
","728.6999999284744","","49","","","3000","1","","","images/earth.jpg","images/rocket1","images/rocket2","null","images/rocket2","","1","real","null","1","","",""
"d3-animate-choice","227","634137","0.0-77.0-1.30","3454","5951","15","Male","false","false","false","true","""event"",""trial"",""time""
""fullscreenenter"",""5"",""17975""
","
","
","""event"",""trial"",""time""
""fullscreenenter"",""5"",""17975""
","
","482","","49","","","3000","1","","","images/redplanet1.jpg","images/alien2","images/alien1","images/rocket2","images/alien1","images/t.png","2","real","true","1","common","1","2023-01-23 23:55:23.498"
"two-step-fixation","228","635145","0.0-77.0-2.30","3454","5951","15","Male","false","false","false","true","""event"",""trial"",""time""
""fullscreenenter"",""5"",""17975""
","
","
","""event"",""trial"",""time""
""fullscreenenter"",""5"",""17975""
","
","","images/earth.jpg","","","","","","","","","","","","","","fixation","","","","","",""
"d3-animate-choice","229","637425","0.0-77.0-0.31","3454","5951","15","Male","false","false","false","true","""event"",""trial"",""time""
""fullscreenenter"",""5"",""17975""
","
","
","""event"",""trial"",""time""
""fullscreenenter"",""5"",""17975""
","
","274.39999997615814","","48","","","3000","1","","","images/earth.jpg","images/rocket1","images/rocket2","null","images/rocket1","","1","real","null","2","","",""
"d3-animate-choice","230","639817","0.0-77.0-1.31","3454","5951","15","Male","false","false","false","true","""event"",""trial"",""time""
""fullscreenenter"",""5"",""17975""
","
","
","""event"",""trial"",""time""
""fullscreenenter"",""5"",""17975""
","
","388.5","","48","","","3000","1","","","images/purpleplanet.jpg","images/alien4","images/alien3","images/rocket1","images/alien4","images/nothing.png","2","real","true","2","common","0","2023-01-23 23:55:29.178"
"two-step-fixation","231","640825","0.0-77.0-2.31","3454","5951","15","Male","false","false","false","true","""event"",""trial"",""time""
""fullscreenenter"",""5"",""17975""
","
","
","""event"",""trial"",""time""
""fullscreenenter"",""5"",""17975""
","
","","images/earth.jpg","","","","","","","","","","","","","","fixation","","","","","",""
"d3-animate-choice","232","643632","0.0-77.0-0.32","3454","5951","15","Male","false","false","false","true","""event"",""trial"",""time""
""fullscreenenter"",""5"",""17975""
","
","
","""event"",""trial"",""time""
""fullscreenenter"",""5"",""17975""
","
","802.7999999523163","","48","","","3000","1","","","images/earth.jpg","images/rocket1","images/rocket2","null","images/rocket1","","1","real","null","2","","",""
"d3-animate-choice","233","646281","0.0-77.0-1.32","3454","5951","15","Male","false","false","false","true","""event"",""trial"",""time""
""fullscreenenter"",""5"",""17975""
","
","
","""event"",""trial"",""time""
""fullscreenenter"",""5"",""17975""
","
","639.8000000715256","","49","","","3000","1","","","images/purpleplanet.jpg","images/alien4","images/alien3","images/rocket1","images/alien3","images/nothing.png","2","real","true","1","common","0","2023-01-23 23:55:35.642"
"two-step-fixation","234","647289","0.0-77.0-2.32","3454","5951","15","Male","false","false","false","true","""event"",""trial"",""time""
""fullscreenenter"",""5"",""17975""
","
","
","""event"",""trial"",""time""
""fullscreenenter"",""5"",""17975""
","
","","images/earth.jpg","","","","","","","","","","","","","","fixation","","","","","",""
"d3-animate-choice","235","649457","0.0-77.0-0.33","3454","5951","15","Male","false","false","false","true","""event"",""trial"",""time""
""fullscreenenter"",""5"",""17975""
","
","
","""event"",""trial"",""time""
""fullscreenenter"",""5"",""17975""
","
","163.79999995231628","","48","","","3000","1","631.2999999523163","49","images/earth.jpg","images/rocket1","images/rocket2","null","images/rocket1","","1","real","null","2","","",""
"d3-animate-choice","236","652457","0.0-77.0-1.33","3454","5951","15","Male","false","false","false","true","""event"",""trial"",""time""
""fullscreenenter"",""5"",""17975""
","
","
","""event"",""trial"",""time""
""fullscreenenter"",""5"",""17975""
","
","991.1999999284744","","48","","","3000","1","","","images/purpleplanet.jpg","images/alien4","images/alien3","images/rocket1","images/alien4","images/nothing.png","2","real","true","2","common","0","2023-01-23 23:55:41.818"
"two-step-fixation","237","653465","0.0-77.0-2.33","3454","5951","15","Male","false","false","false","true","""event"",""trial"",""time""
""fullscreenenter"",""5"",""17975""
","
","
","""event"",""trial"",""time""
""fullscreenenter"",""5"",""17975""
","
","","images/earth.jpg","","","","","","","","","","","","","","fixation","","","","","",""
"d3-animate-choice","238","656272","0.0-77.0-0.34","3454","5951","15","Male","false","false","false","true","""event"",""trial"",""time""
""fullscreenenter"",""5"",""17975""
","
","
","""event"",""trial"",""time""
""fullscreenenter"",""5"",""17975""
","
","799.8999999761581","","48","","","3000","1","","","images/earth.jpg","images/rocket1","images/rocket2","null","images/rocket1","","1","real","null","2","","",""
"d3-animate-choice","239","658799","0.0-77.0-1.34","3454","5951","15","Male","false","false","false","true","""event"",""trial"",""time""
""fullscreenenter"",""5"",""17975""
","
","
","""event"",""trial"",""time""
""fullscreenenter"",""5"",""17975""
","
","522.1000000238419","","48","","","3000","1","","","images/purpleplanet.jpg","images/alien4","images/alien3","images/rocket1","images/alien4","images/t.png","2","real","true","2","common","1","2023-01-23 23:55:48.160"
"two-step-fixation","240","659809","0.0-77.0-2.34","3454","5951","15","Male","false","false","false","true","""event"",""trial"",""time""
""fullscreenenter"",""5"",""17975""
","
","
","""event"",""trial"",""time""
""fullscreenenter"",""5"",""17975""
","
","","images/earth.jpg","","","","","","","","","","","","","","fixation","","","","","",""
"d3-animate-choice","241","662809","0.0-77.0-0.35","3454","5951","15","Male","false","false","false","true","""event"",""trial"",""time""
""fullscreenenter"",""5"",""17975""
","
","
","""event"",""trial"",""time""
""fullscreenenter"",""5"",""17975""
","
","990.9000000953674","","48","","","3000","1","","","images/earth.jpg","images/rocket1","images/rocket2","null","images/rocket1","","1","real","null","2","","",""
"d3-animate-choice","242","665345","0.0-77.0-1.35","3454","5951","15","Male","false","false","false","true","""event"",""trial"",""time""
""fullscreenenter"",""5"",""17975""
","
","
","""event"",""trial"",""time""
""fullscreenenter"",""5"",""17975""
","
","526.3999999761581","","48","","","3000","1","","","images/purpleplanet.jpg","images/alien4","images/alien3","images/rocket1","images/alien4","images/t.png","2","real","true","2","common","1","2023-01-23 23:55:54.707"
"two-step-fixation","243","666354","0.0-77.0-2.35","3454","5951","15","Male","false","false","false","true","""event"",""trial"",""time""
""fullscreenenter"",""5"",""17975""
","
","
","""event"",""trial"",""time""
""fullscreenenter"",""5"",""17975""
","
","","images/earth.jpg","","","","","","","","","","","","","","fixation","","","","","",""
"d3-animate-choice","244","668783","0.0-77.0-0.36","3454","5951","15","Male","false","false","false","true","""event"",""trial"",""time""
""fullscreenenter"",""5"",""17975""
","
","
","""event"",""trial"",""time""
""fullscreenenter"",""5"",""17975""
","
","421.90000009536743","","49","","","3000","1","","","images/earth.jpg","images/rocket1","images/rocket2","null","images/rocket2","","1","real","null","1","","",""
"d3-animate-choice","245","671465","0.0-77.0-1.36","3454","5951","15","Male","false","false","false","true","""event"",""trial"",""time""
""fullscreenenter"",""5"",""17975""
","
","
","""event"",""trial"",""time""
""fullscreenenter"",""5"",""17975""
","
