"trial_type","trial_index","time_elapsed","internal_node_id","participant_id","subject_id","age","gender","rocket_sides","red_planet_first_rocket","red_display_order","purple_display_order","interactions","blur_events","focus_events","fullscreenenter_events","fullscreenexit_events","rt","stimulus","key_press","button_pressed","success","duration","valid_pressed","rts","keys","planet_text","right_text","left_text","center_text","chosen_text","reward_text","trial_stage","practice_trial","transition_type","choice","transition","reward","timestamp"
"pavlovia","0","2","0.0-0.0","3910","7681","18","Male","true","true","true","true","
","
","
","
","
","","","","","","","","","","","","","","","","","","","","","",""
"html-keyboard-response","1","1453","0.0-1.0","3910","7681","18","Male","true","true","true","true","
","
","
","
","
","1451","Welcome! Press the space bar to begin.","32","","","","","","","","","","","","","","","","","","",""
"audio-keyboard-response","2","9770","0.0-2.0","3910","7681","18","Male","true","true","true","true","
","
","
","
","
","8251","audio/beep_loop.wav","32","","","","","","","","","","","","","","","","","","",""
"audio-button-response","3","12425","0.0-3.0","3910","7681","18","Male","true","true","true","true","
","
","
","
","
","NaN","audio/fish.mp3","","1","","","","","","","","","","","","","","","","","",""
"audio-button-response","4","14990","0.0-4.0","3910","7681","18","Male","true","true","true","true","""event"",""trial"",""time""
""fullscreenenter"",""5"",""18661""
","
","
","""event"",""trial"",""time""
""fullscreenenter"",""5"",""18661""
","
","NaN","audio/tiger.mp3","","4","","","","","","","","","","","","","","","","","",""
"fullscreen","5","19669","0.0-5.0","3910","7681","18","Male","true","true","true","true","""event"",""trial"",""time""
""fullscreenenter"",""5"",""18661""
""blur"",""6"",""27610""
""focus"",""6"",""50209""
","""event"",""trial"",""time""
""blur"",""6"",""27610""
","""event"",""trial"",""time""
""focus"",""6"",""50209""
","""event"",""trial"",""time""
""fullscreenenter"",""5"",""18661""
","
","","","","","true","","","","","","","","","","","","","","","","",""
"d3-instructions","6","53738","0.0-6.0","3910","7681","18","Male","true","true","true","true","""event"",""trial"",""time""
""fullscreenenter"",""5"",""18661""
""blur"",""6"",""27610""
""focus"",""6"",""50209""
","""event"",""trial"",""time""
""blur"",""6"",""27610""
","""event"",""trial"",""time""
""focus"",""6"",""50209""
","""event"",""trial"",""time""
""fullscreenenter"",""5"",""18661""
","
","","","","","","","","","","","","","","","","","","","","","",""
"d3-instructions","7","61697","0.0-7.0","3910","7681","18","Male","true","true","true","true","""event"",""trial"",""time""
""fullscreenenter"",""5"",""18661""
""blur"",""6"",""27610""
""focus"",""6"",""50209""
","""event"",""trial"",""time""
""blur"",""6"",""27610""
","""event"",""trial"",""time""
""focus"",""6"",""50209""
","""event"",""trial"",""time""
""fullscreenenter"",""5"",""18661""
","
","","","","","","","","","","","","","","","","","","","","","",""
"d3-instructions","8","68539","0.0-8.0","3910","7681","18","Male","true","true","true","true","""event"",""trial"",""time""
""fullscreenenter"",""5"",""18661""
""blur"",""6"",""27610""
""focus"",""6"",""50209""
","""event"",""trial"",""time""
""blur"",""6"",""27610""
","""event"",""trial"",""time""
""focus"",""6"",""50209""
","""event"",""trial"",""time""
""fullscreenenter"",""5"",""18661""
","
","","","","","","","","","","","","","","","","","","","","","",""
"d3-instructions","9","79381","0.0-9.0","3910","7681","18","Male","true","true","true","true","""event"",""trial"",""time""
""fullscreenenter"",""5"",""18661""
""blur"",""6"",""27610""
""focus"",""6"",""50209""
","""event"",""trial"",""time""
""blur"",""6"",""27610""
","""event"",""trial"",""time""
""focus"",""6"",""50209""
","""event"",""trial"",""time""
""fullscreenenter"",""5"",""18661""
","
","","","","","","","","","","","","","","","","","","","","","",""
"d3-instructions","10","94480","0.0-10.0","3910","7681","18","Male","true","true","true","true","""event"",""trial"",""time""
""fullscreenenter"",""5"",""18661""
""blur"",""6"",""27610""
""focus"",""6"",""50209""
","""event"",""trial"",""time""
""blur"",""6"",""27610""
","""event"",""trial"",""time""
""focus"",""6"",""50209""
","""event"",""trial"",""time""
""fullscreenenter"",""5"",""18661""
","
","","","","","","","","","","","","","","","","","","","","","",""
"d3-animate-choice","11","100509","0.0-11.0","3910","7681","18","Male","true","true","true","true","""event"",""trial"",""time""
""fullscreenenter"",""5"",""18661""
""blur"",""6"",""27610""
""focus"",""6"",""50209""
","""event"",""trial"",""time""
""blur"",""6"",""27610""
","""event"",""trial"",""time""
""focus"",""6"",""50209""
","""event"",""trial"",""time""
""fullscreenenter"",""5"",""18661""
","
","4012.300000011921","","49","","","3000","1","5801","48","images/tutgreenplanet.jpg","images/tutalien1","images/tutalien2","null","images/tutalien2","","NA","practice","null","","","",""
"d3-animate-choice","12","103322","0.0-12.0","3910","7681","18","Male","true","true","true","true","""event"",""trial"",""time""
""fullscreenenter"",""5"",""18661""
""blur"",""6"",""27610""
""focus"",""6"",""50209""
","""event"",""trial"",""time""
""blur"",""6"",""27610""
","""event"",""trial"",""time""
""focus"",""6"",""50209""
","""event"",""trial"",""time""
""fullscreenenter"",""5"",""18661""
","
","804.6999999880791","","48","","","3000","1","","","images/tutgreenplanet.jpg","images/tutalien1","images/tutalien2","null","images/tutalien1","","NA","practice","null","","","",""
"d3-animate-choice","13","107252","0.0-13.0","3910","7681","18","Male","true","true","true","true","""event"",""trial"",""time""
""fullscreenenter"",""5"",""18661""
""blur"",""6"",""27610""
""focus"",""6"",""50209""
","""event"",""trial"",""time""
""blur"",""6"",""27610""
","""event"",""trial"",""time""
""focus"",""6"",""50209""
","""event"",""trial"",""time""
""fullscreenenter"",""5"",""18661""
","
","1914.6000000238419","","49","","","3000","1","","","images/tutgreenplanet.jpg","images/tutalien1","images/tutalien2","null","images/tutalien2","","NA","practice","null","","","",""
"d3-animate-choice","14","109568","0.0-14.0","3910","7681","18","Male","true","true","true","true","""event"",""trial"",""time""
""fullscreenenter"",""5"",""18661""
""blur"",""6"",""27610""
""focus"",""6"",""50209""
","""event"",""trial"",""time""
""blur"",""6"",""27610""
","""event"",""trial"",""time""
""focus"",""6"",""50209""
","""event"",""trial"",""time""
""fullscreenenter"",""5"",""18661""
","
","305.69999998807907","","48","","","3000","1","1990.5","48","images/tutgreenplanet.jpg","images/tutalien1","images/tutalien2","null","images/tutalien1","","NA","practice","null","","","",""
"d3-instructions","15","113601","0.0-15.0","3910","7681","18","Male","true","true","true","true","""event"",""trial"",""time""
""fullscreenenter"",""5"",""18661""
""blur"",""6"",""27610""
""focus"",""6"",""50209""
","""event"",""trial"",""time""
""blur"",""6"",""27610""
","""event"",""trial"",""time""
""focus"",""6"",""50209""
","""event"",""trial"",""time""
""fullscreenenter"",""5"",""18661""
","
","","","","","","","","","","","","","","","","","","","","","",""
"d3-instructions","16","116806","0.0-16.0","3910","7681","18","Male","true","true","true","true","""event"",""trial"",""time""
""fullscreenenter"",""5"",""18661""
""blur"",""6"",""27610""
""focus"",""6"",""50209""
","""event"",""trial"",""time""
""blur"",""6"",""27610""
","""event"",""trial"",""time""
""focus"",""6"",""50209""
","""event"",""trial"",""time""
""fullscreenenter"",""5"",""18661""
","
","","","","","","","","","","","","","","","","","","","","","",""
"d3-instructions","17","121242","0.0-17.0","3910","7681","18","Male","true","true","true","true","""event"",""trial"",""time""
""fullscreenenter"",""5"",""18661""
""blur"",""6"",""27610""
""focus"",""6"",""50209""
","""event"",""trial"",""time""
""blur"",""6"",""27610""
","""event"",""trial"",""time""
""focus"",""6"",""50209""
","""event"",""trial"",""time""
""fullscreenenter"",""5"",""18661""
","
","","","","","","","","","","","","","","","","","","","","","",""
"d3-instructions","18","126455","0.0-18.0","3910","7681","18","Male","true","true","true","true","""event"",""trial"",""time""
""fullscreenenter"",""5"",""18661""
""blur"",""6"",""27610""
""focus"",""6"",""50209""
","""event"",""trial"",""time""
""blur"",""6"",""27610""
","""event"",""trial"",""time""
""focus"",""6"",""50209""
","""event"",""trial"",""time""
""fullscreenenter"",""5"",""18661""
","
","","","","","","","","","","","","","","","","","","","","","",""
"d3-instructions","19","132392","0.0-19.0","3910","7681","18","Male","true","true","true","true","""event"",""trial"",""time""
""fullscreenenter"",""5"",""18661""
""blur"",""6"",""27610""
""focus"",""6"",""50209""
","""event"",""trial"",""time""
""blur"",""6"",""27610""
","""event"",""trial"",""time""
""focus"",""6"",""50209""
","""event"",""trial"",""time""
""fullscreenenter"",""5"",""18661""
","
","","","","","","","","","","","","","","","","","","","","","",""
"d3-animate-choice","20","135360","0.0-20.0","3910","7681","18","Male","true","true","true","true","""event"",""trial"",""time""
""fullscreenenter"",""5"",""18661""
""blur"",""6"",""27610""
""focus"",""6"",""50209""
","""event"",""trial"",""time""
""blur"",""6"",""27610""
","""event"",""trial"",""time""
""focus"",""6"",""50209""
","""event"",""trial"",""time""
""fullscreenenter"",""5"",""18661""
","
","961.6000000238419","","49","","","3000","1","","","images/tutyellowplanet.jpg","null","images/tutalien3","null","images/tutalien3","images/t.png","NA","practice","null","","","",""
"d3-animate-choice","21","137636","0.0-21.0","3910","7681","18","Male","true","true","true","true","""event"",""trial"",""time""
""fullscreenenter"",""5"",""18661""
""blur"",""6"",""27610""
""focus"",""6"",""50209""
","""event"",""trial"",""time""
""blur"",""6"",""27610""
","""event"",""trial"",""time""
""focus"",""6"",""50209""
","""event"",""trial"",""time""
""fullscreenenter"",""5"",""18661""
","
","263.89999997615814","","49","","","3000","1","","","images/tutyellowplanet.jpg","null","images/tutalien3","null","images/tutalien3","images/t.png","NA","practice","null","","","",""
"d3-animate-choice","22","139876","0.0-22.0","3910","7681","18","Male","true","true","true","true","""event"",""trial"",""time""
""fullscreenenter"",""5"",""18661""
""blur"",""6"",""27610""
""focus"",""6"",""50209""
","""event"",""trial"",""time""
""blur"",""6"",""27610""
","""event"",""trial"",""time""
""focus"",""6"",""50209""
","""event"",""trial"",""time""
""fullscreenenter"",""5"",""18661""
","
","225.5999999642372","","49","","","3000","1","","","images/tutyellowplanet.jpg","null","images/tutalien3","null","images/tutalien3","images/t.png","NA","practice","null","","","",""
"d3-animate-choice","23","145732","0.0-23.0","3910","7681","18","Male","true","true","true","true","""event"",""trial"",""time""
""fullscreenenter"",""5"",""18661""
""blur"",""6"",""27610""
""focus"",""6"",""50209""
","""event"",""trial"",""time""
""blur"",""6"",""27610""
","""event"",""trial"",""time""
""focus"",""6"",""50209""
","""event"",""trial"",""time""
""fullscreenenter"",""5"",""18661""
","
","3843.100000023842","","49","","","3000","1","","","images/tutyellowplanet.jpg","null","images/tutalien3","null","images/tutalien3","images/t.png","NA","practice","null","","","",""
"d3-animate-choice","24","148060","0.0-24.0","3910","7681","18","Male","true","true","true","true","""event"",""trial"",""time""
""fullscreenenter"",""5"",""18661""
""blur"",""6"",""27610""
""focus"",""6"",""50209""
","""event"",""trial"",""time""
""blur"",""6"",""27610""
","""event"",""trial"",""time""
""focus"",""6"",""50209""
","""event"",""trial"",""time""
""fullscreenenter"",""5"",""18661""
","
","318.4000000357628","","49","","","3000","1","","","images/tutyellowplanet.jpg","null","images/tutalien3","null","images/tutalien3","images/t.png","NA","practice","null","","","",""
"d3-animate-choice","25","152177","0.0-25.0","3910","7681","18","Male","true","true","true","true","""event"",""trial"",""time""
""fullscreenenter"",""5"",""18661""
""blur"",""6"",""27610""
""focus"",""6"",""50209""
","""event"",""trial"",""time""
""blur"",""6"",""27610""
","""event"",""trial"",""time""
""focus"",""6"",""50209""
","""event"",""trial"",""time""
""fullscreenenter"",""5"",""18661""
","
","2106.100000023842","","49","","","3000","1","","","images/tutyellowplanet.jpg","null","images/tutalien3","null","images/tutalien3","images/t.png","NA","practice","null","","","",""
"d3-animate-choice","26","154561","0.0-26.0","3910","7681","18","Male","true","true","true","true","""event"",""trial"",""time""
""fullscreenenter"",""5"",""18661""
""blur"",""6"",""27610""
""focus"",""6"",""50209""
","""event"",""trial"",""time""
""blur"",""6"",""27610""
","""event"",""trial"",""time""
""focus"",""6"",""50209""
","""event"",""trial"",""time""
""fullscreenenter"",""5"",""18661""
","
","373.39999997615814","","49","","","3000","1","","","images/tutyellowplanet.jpg","null","images/tutalien3","null","images/tutalien3","images/nothing.png","NA","practice","null","","","",""
"d3-animate-choice","27","156840","0.0-27.0","3910","7681","18","Male","true","true","true","true","""event"",""trial"",""time""
""fullscreenenter"",""5"",""18661""
""blur"",""6"",""27610""
""focus"",""6"",""50209""
","""event"",""trial"",""time""
""blur"",""6"",""27610""
","""event"",""trial"",""time""
""focus"",""6"",""50209""
","""event"",""trial"",""time""
""fullscreenenter"",""5"",""18661""
","
","270.80000001192093","","49","","","3000","1","","","images/tutyellowplanet.jpg","null","images/tutalien3","null","images/tutalien3","images/t.png","NA","practice","null","","","",""
"d3-animate-choice","28","159388","0.0-28.0","3910","7681","18","Male","true","true","true","true","""event"",""trial"",""time""
""fullscreenenter"",""5"",""18661""
""blur"",""6"",""27610""
""focus"",""6"",""50209""
","""event"",""trial"",""time""
""blur"",""6"",""27610""
","""event"",""trial"",""time""
""focus"",""6"",""50209""
","""event"",""trial"",""time""
""fullscreenenter"",""5"",""18661""
","
","536.9000000357628","","49","","","3000","1","","","images/tutyellowplanet.jpg","null","images/tutalien3","null","images/tutalien3","images/t.png","NA","practice","null","","","",""
"d3-animate-choice","29","162840","0.0-29.0","3910","7681","18","Male","true","true","true","true","""event"",""trial"",""time""
""fullscreenenter"",""5"",""18661""
""blur"",""6"",""27610""
""focus"",""6"",""50209""
","""event"",""trial"",""time""
""blur"",""6"",""27610""
","""event"",""trial"",""time""
""focus"",""6"",""50209""
","""event"",""trial"",""time""
""fullscreenenter"",""5"",""18661""
","
","1444.4000000357628","","49","","","3000","1","","","images/tutyellowplanet.jpg","null","images/tutalien3","null","images/tutalien3","images/t.png","NA","practice","null","","","",""
"d3-instructions","30","166041","0.0-30.0","3910","7681","18","Male","true","true","true","true","""event"",""trial"",""time""
""fullscreenenter"",""5"",""18661""
""blur"",""6"",""27610""
""focus"",""6"",""50209""
","""event"",""trial"",""time""
""blur"",""6"",""27610""
","""event"",""trial"",""time""
""focus"",""6"",""50209""
","""event"",""trial"",""time""
""fullscreenenter"",""5"",""18661""
","
","","","","","","","","","","","","","","","","","","","","","",""
"d3-instructions","31","170678","0.0-31.0","3910","7681","18","Male","true","true","true","true","""event"",""trial"",""time""
""fullscreenenter"",""5"",""18661""
""blur"",""6"",""27610""
""focus"",""6"",""50209""
","""event"",""trial"",""time""
""blur"",""6"",""27610""
","""event"",""trial"",""time""
""focus"",""6"",""50209""
","""event"",""trial"",""time""
""fullscreenenter"",""5"",""18661""
","
","","","","","","","","","","","","","","","","","","","","","",""
"d3-instructions","32","174130","0.0-32.0","3910","7681","18","Male","true","true","true","true","""event"",""trial"",""time""
""fullscreenenter"",""5"",""18661""
""blur"",""6"",""27610""
""focus"",""6"",""50209""
","""event"",""trial"",""time""
""blur"",""6"",""27610""
","""event"",""trial"",""time""
""focus"",""6"",""50209""
","""event"",""trial"",""time""
""fullscreenenter"",""5"",""18661""
","
","","","","","","","","","","","","","","","","","","","","","",""
"d3-instructions","33","177297","0.0-33.0","3910","7681","18","Male","true","true","true","true","""event"",""trial"",""time""
""fullscreenenter"",""5"",""18661""
""blur"",""6"",""27610""
""focus"",""6"",""50209""
","""event"",""trial"",""time""
""blur"",""6"",""27610""
","""event"",""trial"",""time""
""focus"",""6"",""50209""
","""event"",""trial"",""time""
""fullscreenenter"",""5"",""18661""
","
","","","","","","","","","","","","","","","","","","","","","",""
"d3-animate-choice","34","181219","0.0-34.0","3910","7681","18","Male","true","true","true","true","""event"",""trial"",""time""
""fullscreenenter"",""5"",""18661""
""blur"",""6"",""27610""
""focus"",""6"",""50209""
","""event"",""trial"",""time""
""blur"",""6"",""27610""
","""event"",""trial"",""time""
""focus"",""6"",""50209""
","""event"",""trial"",""time""
""fullscreenenter"",""5"",""18661""
","
","1907","","49","","","3000","1","","","images/tutgreenplanet.jpg","images/tutalien1","images/tutalien2","null","images/tutalien2","images/t.png","NA","practice","null","","","",""
"d3-animate-choice","35","183715","0.0-35.0","3910","7681","18","Male","true","true","true","true","""event"",""trial"",""time""
""fullscreenenter"",""5"",""18661""
""blur"",""6"",""27610""
""focus"",""6"",""50209""
","""event"",""trial"",""time""
""blur"",""6"",""27610""
","""event"",""trial"",""time""
""focus"",""6"",""50209""
","""event"",""trial"",""time""
""fullscreenenter"",""5"",""18661""
","
","482.69999998807907","","49","","","3000","1","","","images/tutgreenplanet.jpg","images/tutalien1","images/tutalien2","null","images/tutalien2","images/t.png","NA","practice","null","","","",""
"d3-animate-choice","36","186051","0.0-36.0","3910","7681","18","Male","true","true","true","true","""event"",""trial"",""time""
""fullscreenenter"",""5"",""18661""
""blur"",""6"",""27610""
""focus"",""6"",""50209""
","""event"",""trial"",""time""
""blur"",""6"",""27610""
","""event"",""trial"",""time""
""focus"",""6"",""50209""
","""event"",""trial"",""time""
""fullscreenenter"",""5"",""18661""
","
","322.7999999523163","","49","","","3000","1","","","images/tutgreenplanet.jpg","images/tutalien1","images/tutalien2","null","images/tutalien2","images/t.png","NA","practice","null","","","",""
"d3-animate-choice","37","188276","0.0-37.0","3910","7681","18","Male","true","true","true","true","""event"",""trial"",""time""
""fullscreenenter"",""5"",""18661""
""blur"",""6"",""27610""
""focus"",""6"",""50209""
","""event"",""trial"",""time""
""blur"",""6"",""27610""
","""event"",""trial"",""time""
""focus"",""6"",""50209""
","""event"",""trial"",""time""
""fullscreenenter"",""5"",""18661""
","
","215.5","","49","","","3000","1","386.5","49","images/tutgreenplanet.jpg","images/tutalien1","images/tutalien2","null","images/tutalien2","images/t.png","NA","practice","null","","","",""
"d3-animate-choice","38","190494","0.0-38.0","3910","7681","18","Male","true","true","true","true","""event"",""trial"",""time""
""fullscreenenter"",""5"",""18661""
""blur"",""6"",""27610""
""focus"",""6"",""50209""
","""event"",""trial"",""time""
""blur"",""6"",""27610""
","""event"",""trial"",""time""
""focus"",""6"",""50209""
","""event"",""trial"",""time""
""fullscreenenter"",""5"",""18661""
","
","214","","49","","","3000","1","","","images/tutgreenplanet.jpg","images/tutalien1","images/tutalien2","null","images/tutalien2","images/t.png","NA","practice","null","","","",""
"d3-animate-choice","39","193162","0.0-39.0","3910","7681","18","Male","true","true","true","true","""event"",""trial"",""time""
""fullscreenenter"",""5"",""18661""
""blur"",""6"",""27610""
""focus"",""6"",""50209""
","""event"",""trial"",""time""
""blur"",""6"",""27610""
","""event"",""trial"",""time""
""focus"",""6"",""50209""
","""event"",""trial"",""time""
""fullscreenenter"",""5"",""18661""
","
","658.4000000357628","","49","","","3000","1","","","images/tutgreenplanet.jpg","images/tutalien1","images/tutalien2","null","images/tutalien2","images/t.png","NA","practice","null","","","",""
"d3-animate-choice","40","195451","0.0-40.0","3910","7681","18","Male","true","true","true","true","""event"",""trial"",""time""
""fullscreenenter"",""5"",""18661""
""blur"",""6"",""27610""
""focus"",""6"",""50209""
","""event"",""trial"",""time""
""blur"",""6"",""27610""
","""event"",""trial"",""time""
""focus"",""6"",""50209""
","""event"",""trial"",""time""
""fullscreenenter"",""5"",""18661""
","
","277.7000000476837","","49","","","3000","1","","","images/tutgreenplanet.jpg","images/tutalien1","images/tutalien2","null","images/tutalien2","images/t.png","NA","practice","null","","","",""
"d3-animate-choice","41","197719","0.0-41.0","3910","7681","18","Male","true","true","true","true","""event"",""trial"",""time""
""fullscreenenter"",""5"",""18661""
""blur"",""6"",""27610""
""focus"",""6"",""50209""
","""event"",""trial"",""time""
""blur"",""6"",""27610""
","""event"",""trial"",""time""
""focus"",""6"",""50209""
","""event"",""trial"",""time""
""fullscreenenter"",""5"",""18661""
","
","259","","49","","","3000","1","","","images/tutgreenplanet.jpg","images/tutalien1","images/tutalien2","null","images/tutalien2","images/t.png","NA","practice","null","","","",""
"d3-animate-choice","42","200003","0.0-42.0","3910","7681","18","Male","true","true","true","true","""event"",""trial"",""time""
""fullscreenenter"",""5"",""18661""
""blur"",""6"",""27610""
""focus"",""6"",""50209""
","""event"",""trial"",""time""
""blur"",""6"",""27610""
","""event"",""trial"",""time""
""focus"",""6"",""50209""
","""event"",""trial"",""time""
""fullscreenenter"",""5"",""18661""
","
","270.19999998807907","","49","","","3000","1","","","images/tutgreenplanet.jpg","images/tutalien1","images/tutalien2","null","images/tutalien2","images/t.png","NA","practice","null","","","",""
"d3-animate-choice","43","202263","0.0-43.0","3910","7681","18","Male","true","true","true","true","""event"",""trial"",""time""
""fullscreenenter"",""5"",""18661""
""blur"",""6"",""27610""
""focus"",""6"",""50209""
","""event"",""trial"",""time""
""blur"",""6"",""27610""
","""event"",""trial"",""time""
""focus"",""6"",""50209""
","""event"",""trial"",""time""
""fullscreenenter"",""5"",""18661""
","
","253.5999999642372","","49","","","3000","1","","","images/tutgreenplanet.jpg","images/tutalien1","images/tutalien2","null","images/tutalien2","images/t.png","NA","practice","null","","","",""
"d3-instructions","44","207972","0.0-44.0","3910","7681","18","Male","true","true","true","true","""event"",""trial"",""time""
""fullscreenenter"",""5"",""18661""
""blur"",""6"",""27610""
""focus"",""6"",""50209""
","""event"",""trial"",""time""
""blur"",""6"",""27610""
","""event"",""trial"",""time""
""focus"",""6"",""50209""
","""event"",""trial"",""time""
""fullscreenenter"",""5"",""18661""
","
","","","","","","","","","","","","","","","","","","","","","",""
"d3-instructions","45","210425","0.0-45.0","3910","7681","18","Male","true","true","true","true","""event"",""trial"",""time""
""fullscreenenter"",""5"",""18661""
""blur"",""6"",""27610""
""focus"",""6"",""50209""
","""event"",""trial"",""time""
""blur"",""6"",""27610""
","""event"",""trial"",""time""
""focus"",""6"",""50209""
","""event"",""trial"",""time""
""fullscreenenter"",""5"",""18661""
","
","","","","","","","","","","","","","","","","","","","","","",""
"d3-instructions","46","212514","0.0-46.0","3910","7681","18","Male","true","true","true","true","""event"",""trial"",""time""
""fullscreenenter"",""5"",""18661""
""blur"",""6"",""27610""
""focus"",""6"",""50209""
","""event"",""trial"",""time""
""blur"",""6"",""27610""
","""event"",""trial"",""time""
""focus"",""6"",""50209""
","""event"",""trial"",""time""
""fullscreenenter"",""5"",""18661""
","
","","","","","","","","","","","","","","","","","","","","","",""
"d3-instructions","47","220711","0.0-47.0","3910","7681","18","Male","true","true","true","true","""event"",""trial"",""time""
""fullscreenenter"",""5"",""18661""
""blur"",""6"",""27610""
""focus"",""6"",""50209""
","""event"",""trial"",""time""
""blur"",""6"",""27610""
","""event"",""trial"",""time""
""focus"",""6"",""50209""
","""event"",""trial"",""time""
""fullscreenenter"",""5"",""18661""
","
","","","","","","","","","","","","","","","","","","","","","",""
"d3-instructions","48","226877","0.0-48.0","3910","7681","18","Male","true","true","true","true","""event"",""trial"",""time""
""fullscreenenter"",""5"",""18661""
""blur"",""6"",""27610""
""focus"",""6"",""50209""
","""event"",""trial"",""time""
""blur"",""6"",""27610""
","""event"",""trial"",""time""
""focus"",""6"",""50209""
","""event"",""trial"",""time""
""fullscreenenter"",""5"",""18661""
","
","","","","","","","","","","","","","","","","","","","","","",""
"d3-instructions","49","231591","0.0-49.0","3910","7681","18","Male","true","true","true","true","""event"",""trial"",""time""
""fullscreenenter"",""5"",""18661""
""blur"",""6"",""27610""
""focus"",""6"",""50209""
","""event"",""trial"",""time""
""blur"",""6"",""27610""
","""event"",""trial"",""time""
""focus"",""6"",""50209""
","""event"",""trial"",""time""
""fullscreenenter"",""5"",""18661""
","
","","","","","","","","","","","","","","","","","","","","","",""
"d3-instructions","50","235917","0.0-50.0","3910","7681","18","Male","true","true","true","true","""event"",""trial"",""time""
""fullscreenenter"",""5"",""18661""
""blur"",""6"",""27610""
""focus"",""6"",""50209""
","""event"",""trial"",""time""
""blur"",""6"",""27610""
","""event"",""trial"",""time""
""focus"",""6"",""50209""
","""event"",""trial"",""time""
""fullscreenenter"",""5"",""18661""
","
","","","","","","","","","","","","","","","","","","","","","",""
"d3-instructions","51","238372","0.0-51.0","3910","7681","18","Male","true","true","true","true","""event"",""trial"",""time""
""fullscreenenter"",""5"",""18661""
""blur"",""6"",""27610""
""focus"",""6"",""50209""
","""event"",""trial"",""time""
""blur"",""6"",""27610""
","""event"",""trial"",""time""
""focus"",""6"",""50209""
","""event"",""trial"",""time""
""fullscreenenter"",""5"",""18661""
","
","","","","","","","","","","","","","","","","","","","","","",""
"d3-instructions","52","240016","0.0-52.0","3910","7681","18","Male","true","true","true","true","""event"",""trial"",""time""
""fullscreenenter"",""5"",""18661""
""blur"",""6"",""27610""
""focus"",""6"",""50209""
","""event"",""trial"",""time""
""blur"",""6"",""27610""
","""event"",""trial"",""time""
""focus"",""6"",""50209""
","""event"",""trial"",""time""
""fullscreenenter"",""5"",""18661""
","
","","","","","","","","","","","","","","","","","","","","","",""
"d3-instructions","53","245589","0.0-53.0","3910","7681","18","Male","true","true","true","true","""event"",""trial"",""time""
""fullscreenenter"",""5"",""18661""
""blur"",""6"",""27610""
""focus"",""6"",""50209""
","""event"",""trial"",""time""
""blur"",""6"",""27610""
","""event"",""trial"",""time""
""focus"",""6"",""50209""
","""event"",""trial"",""time""
""fullscreenenter"",""5"",""18661""
","
","","","","","","","","","","","","","","","","","","","","","",""
"d3-instructions","54","256326","0.0-54.0","3910","7681","18","Male","true","true","true","true","""event"",""trial"",""time""
""fullscreenenter"",""5"",""18661""
""blur"",""6"",""27610""
""focus"",""6"",""50209""
","""event"",""trial"",""time""
""blur"",""6"",""27610""
","""event"",""trial"",""time""
""focus"",""6"",""50209""
","""event"",""trial"",""time""
""fullscreenenter"",""5"",""18661""
","
","","","","","","","","","","","","","","","","","","","","","",""
"d3-instructions","55","261418","0.0-55.0","3910","7681","18","Male","true","true","true","true","""event"",""trial"",""time""
""fullscreenenter"",""5"",""18661""
""blur"",""6"",""27610""
""focus"",""6"",""50209""
","""event"",""trial"",""time""
""blur"",""6"",""27610""
","""event"",""trial"",""time""
""focus"",""6"",""50209""
","""event"",""trial"",""time""
""fullscreenenter"",""5"",""18661""
","
","","","","","","","","","","","","","","","","","","","","","",""
"d3-instructions","56","265864","0.0-56.0","3910","7681","18","Male","true","true","true","true","""event"",""trial"",""time""
""fullscreenenter"",""5"",""18661""
""blur"",""6"",""27610""
""focus"",""6"",""50209""
","""event"",""trial"",""time""
""blur"",""6"",""27610""
","""event"",""trial"",""time""
""focus"",""6"",""50209""
","""event"",""trial"",""time""
""fullscreenenter"",""5"",""18661""
","
","","","","","","","","","","","","","","","","","","","","","",""
"d3-instructions","57","270319","0.0-57.0","3910","7681","18","Male","true","true","true","true","""event"",""trial"",""time""
""fullscreenenter"",""5"",""18661""
""blur"",""6"",""27610""
""focus"",""6"",""50209""
","""event"",""trial"",""time""
""blur"",""6"",""27610""
","""event"",""trial"",""time""
""focus"",""6"",""50209""
","""event"",""trial"",""time""
""fullscreenenter"",""5"",""18661""
","
","","","","","","","","","","","","","","","","","","","","","",""
"d3-instructions","58","274936","0.0-58.0","3910","7681","18","Male","true","true","true","true","""event"",""trial"",""time""
""fullscreenenter"",""5"",""18661""
""blur"",""6"",""27610""
""focus"",""6"",""50209""
","""event"",""trial"",""time""
""blur"",""6"",""27610""
","""event"",""trial"",""time""
""focus"",""6"",""50209""
","""event"",""trial"",""time""
""fullscreenenter"",""5"",""18661""
","
","","","","","","","","","","","","","","","","","","","","","",""
"d3-instructions","59","277343","0.0-59.0","3910","7681","18","Male","true","true","true","true","""event"",""trial"",""time""
""fullscreenenter"",""5"",""18661""
""blur"",""6"",""27610""
""focus"",""6"",""50209""
","""event"",""trial"",""time""
""blur"",""6"",""27610""
","""event"",""trial"",""time""
""focus"",""6"",""50209""
","""event"",""trial"",""time""
""fullscreenenter"",""5"",""18661""
","
","","","","","","","","","","","","","","","","","","","","","",""
"d3-instructions","60","279775","0.0-60.0","3910","7681","18","Male","true","true","true","true","""event"",""trial"",""time""
""fullscreenenter"",""5"",""18661""
""blur"",""6"",""27610""
""focus"",""6"",""50209""
","""event"",""trial"",""time""
""blur"",""6"",""27610""
","""event"",""trial"",""time""
""focus"",""6"",""50209""
","""event"",""trial"",""time""
""fullscreenenter"",""5"",""18661""
","
","","","","","","","","","","","","","","","","","","","","","",""
"d3-animate-choice","61","283586","0.0-61.0-0.0","3910","7681","18","Male","true","true","true","true","""event"",""trial"",""time""
""fullscreenenter"",""5"",""18661""
""blur"",""6"",""27610""
""focus"",""6"",""50209""
","""event"",""trial"",""time""
""blur"",""6"",""27610""
","""event"",""trial"",""time""
""focus"",""6"",""50209""
","""event"",""trial"",""time""
""fullscreenenter"",""5"",""18661""
","
","1794.1000000238419","","49","","","3000","1","","","images/earth.jpg","images/tutrocket2","images/tutrocket1","null","images/tutrocket1","","1","practice","null","1","","",""
"d3-animate-choice","62","287107","0.0-61.0-1.0","3910","7681","18","Male","true","true","true","true","""event"",""trial"",""time""
""fullscreenenter"",""5"",""18661""
""blur"",""6"",""27610""
""focus"",""6"",""50209""
","""event"",""trial"",""time""
""blur"",""6"",""27610""
","""event"",""trial"",""time""
""focus"",""6"",""50209""
","""event"",""trial"",""time""
""fullscreenenter"",""5"",""18661""
","
","1502.6000000238419","","49","","","3000","1","","","images/tutgreenplanet.jpg","images/tutalien2","images/tutalien1","images/tutrocket1","images/tutalien1","images/nothing.png","2","practice","true","1","common","0","2023-03-10 15:10:25.994"
"two-step-fixation","63","288121","0.0-61.0-2.0","3910","7681","18","Male","true","true","true","true","""event"",""trial"",""time""
""fullscreenenter"",""5"",""18661""
""blur"",""6"",""27610""
""focus"",""6"",""50209""
","""event"",""trial"",""time""
""blur"",""6"",""27610""
","""event"",""trial"",""time""
""focus"",""6"",""50209""
","""event"",""trial"",""time""
""fullscreenenter"",""5"",""18661""
","
","","images/earth.jpg","","","","","","","","","","","","","","fixation","","","","","",""
"d3-animate-choice","64","290982","0.0-61.0-0.1","3910","7681","18","Male","true","true","true","true","""event"",""trial"",""time""
""fullscreenenter"",""5"",""18661""
""blur"",""6"",""27610""
""focus"",""6"",""50209""
","""event"",""trial"",""time""
""blur"",""6"",""27610""
","""event"",""trial"",""time""
""focus"",""6"",""50209""
","""event"",""trial"",""time""
""fullscreenenter"",""5"",""18661""
","
","856.6000000238419","","49","","","3000","1","","","images/earth.jpg","images/tutrocket2","images/tutrocket1","null","images/tutrocket1","","1","practice","null","1","","",""
"d3-animate-choice","65","293451","0.0-61.0-1.1","3910","7681","18","Male","true","true","true","true","""event"",""trial"",""time""
""fullscreenenter"",""5"",""18661""
""blur"",""6"",""27610""
""focus"",""6"",""50209""
","""event"",""trial"",""time""
""blur"",""6"",""27610""
","""event"",""trial"",""time""
""focus"",""6"",""50209""
","""event"",""trial"",""time""
""fullscreenenter"",""5"",""18661""
","
","453.39999997615814","","48","","","3000","1","","","images/tutgreenplanet.jpg","images/tutalien2","images/tutalien1","images/tutrocket1","images/tutalien2","images/nothing.png","2","practice","true","2","common","0","2023-03-10 15:10:32.338"
"two-step-fixation","66","294459","0.0-61.0-2.1","3910","7681","18","Male","true","true","true","true","""event"",""trial"",""time""
""fullscreenenter"",""5"",""18661""
""blur"",""6"",""27610""
""focus"",""6"",""50209""
","""event"",""trial"",""time""
""blur"",""6"",""27610""
","""event"",""trial"",""time""
""focus"",""6"",""50209""
","""event"",""trial"",""time""
""fullscreenenter"",""5"",""18661""
","
","","images/earth.jpg","","","","","","","","","","","","","","fixation","","","","","",""
"d3-animate-choice","67","296507","0.0-61.0-0.2","3910","7681","18","Male","true","true","true","true","""event"",""trial"",""time""
""fullscreenenter"",""5"",""18661""
""blur"",""6"",""27610""
""focus"",""6"",""50209""
","""event"",""trial"",""time""
""blur"",""6"",""27610""
","""event"",""trial"",""time""
""focus"",""6"",""50209""
","""event"",""trial"",""time""
""fullscreenenter"",""5"",""18661""
","
","35.19999998807907","","48","","","3000","1","","","images/earth.jpg","images/tutrocket2","images/tutrocket1","null","images/tutrocket2","","1","practice","null","2","","",""
"d3-animate-choice","68","298938","0.0-61.0-1.2","3910","7681","18","Male","true","true","true","true","""event"",""trial"",""time""
""fullscreenenter"",""5"",""18661""
""blur"",""6"",""27610""
""focus"",""6"",""50209""
","""event"",""trial"",""time""
""blur"",""6"",""27610""
","""event"",""trial"",""time""
""focus"",""6"",""50209""
","""event"",""trial"",""time""
""fullscreenenter"",""5"",""18661""
","
","418.89999997615814","","48","","","3000","1","","","images/tutgreenplanet.jpg","images/tutalien2","images/tutalien1","images/tutrocket2","images/tutalien2","images/nothing.png","2","practice","false","2","rare","0","2023-03-10 15:10:37.825"
"two-step-fixation","69","299951","0.0-61.0-2.2","3910","7681","18","Male","true","true","true","true","""event"",""trial"",""time""
""fullscreenenter"",""5"",""18661""
""blur"",""6"",""27610""
""focus"",""6"",""50209""
","""event"",""trial"",""time""
""blur"",""6"",""27610""
","""event"",""trial"",""time""
""focus"",""6"",""50209""
","""event"",""trial"",""time""
""fullscreenenter"",""5"",""18661""
","
","","images/earth.jpg","","","","","","","","","","","","","","fixation","","","","","",""
"d3-animate-choice","70","302320","0.0-61.0-0.3","3910","7681","18","Male","true","true","true","true","""event"",""trial"",""time""
""fullscreenenter"",""5"",""18661""
""blur"",""6"",""27610""
""focus"",""6"",""50209""
","""event"",""trial"",""time""
""blur"",""6"",""27610""
","""event"",""trial"",""time""
""focus"",""6"",""50209""
","""event"",""trial"",""time""
""fullscreenenter"",""5"",""18661""
","
","361.60000002384186","","48","","","3000","1","","","images/earth.jpg","images/tutrocket2","images/tutrocket1","null","images/tutrocket2","","1","practice","null","2","","",""
"d3-animate-choice","71","304702","0.0-61.0-1.3","3910","7681","18","Male","true","true","true","true","""event"",""trial"",""time""
""fullscreenenter"",""5"",""18661""
""blur"",""6"",""27610""
""focus"",""6"",""50209""
","""event"",""trial"",""time""
""blur"",""6"",""27610""
","""event"",""trial"",""time""
""focus"",""6"",""50209""
","""event"",""trial"",""time""
""fullscreenenter"",""5"",""18661""
","
","371.2000000476837","","49","","","3000","1","","","images/tutgreenplanet.jpg","images/tutalien2","images/tutalien1","images/tutrocket2","images/tutalien1","images/t.png","2","practice","false","1","rare","1","2023-03-10 15:10:43.589"
"two-step-fixation","72","305711","0.0-61.0-2.3","3910","7681","18","Male","true","true","true","true","""event"",""trial"",""time""
""fullscreenenter"",""5"",""18661""
""blur"",""6"",""27610""
""focus"",""6"",""50209""
","""event"",""trial"",""time""
""blur"",""6"",""27610""
","""event"",""trial"",""time""
""focus"",""6"",""50209""
","""event"",""trial"",""time""
""fullscreenenter"",""5"",""18661""
","
","","images/earth.jpg","","","","","","","","","","","","","","fixation","","","","","",""
"d3-animate-choice","73","308098","0.0-61.0-0.4","3910","7681","18","Male","true","true","true","true","""event"",""trial"",""time""
""fullscreenenter"",""5"",""18661""
""blur"",""6"",""27610""
""focus"",""6"",""50209""
","""event"",""trial"",""time""
""blur"",""6"",""27610""
","""event"",""trial"",""time""
""focus"",""6"",""50209""
","""event"",""trial"",""time""
""fullscreenenter"",""5"",""18661""
","
","377.9000000357628","","48","","","3000","1","","","images/earth.jpg","images/tutrocket2","images/tutrocket1","null","images/tutrocket2","","1","practice","null","2","","",""
"d3-animate-choice","74","310624","0.0-61.0-1.4","3910","7681","18","Male","true","true","true","true","""event"",""trial"",""time""
""fullscreenenter"",""5"",""18661""
""blur"",""6"",""27610""
""focus"",""6"",""50209""
","""event"",""trial"",""time""
""blur"",""6"",""27610""
","""event"",""trial"",""time""
""focus"",""6"",""50209""
","""event"",""trial"",""time""
""fullscreenenter"",""5"",""18661""
","
","515.3000000119209","","49","","","3000","1","","","images/tutgreenplanet.jpg","images/tutalien2","images/tutalien1","images/tutrocket2","images/tutalien1","images/nothing.png","2","practice","false","1","rare","0","2023-03-10 15:10:49.512"
"two-step-fixation","75","311634","0.0-61.0-2.4","3910","7681","18","Male","true","true","true","true","""event"",""trial"",""time""
""fullscreenenter"",""5"",""18661""
""blur"",""6"",""27610""
""focus"",""6"",""50209""
","""event"",""trial"",""time""
""blur"",""6"",""27610""
","""event"",""trial"",""time""
""focus"",""6"",""50209""
","""event"",""trial"",""time""
""fullscreenenter"",""5"",""18661""
","
","","images/earth.jpg","","","","","","","","","","","","","","fixation","","","","","",""
"d3-animate-choice","76","313990","0.0-61.0-0.5","3910","7681","18","Male","true","true","true","true","""event"",""trial"",""time""
""fullscreenenter"",""5"",""18661""
""blur"",""6"",""27610""
""focus"",""6"",""50209""
","""event"",""trial"",""time""
""blur"",""6"",""27610""
","""event"",""trial"",""time""
""focus"",""6"",""50209""
","""event"",""trial"",""time""
""fullscreenenter"",""5"",""18661""
","
","345.5","","48","","","3000","1","","","images/earth.jpg","images/tutrocket2","images/tutrocket1","null","images/tutrocket2","","1","practice","null","2","","",""
"d3-animate-choice","77","316786","0.0-61.0-1.5","3910","7681","18","Male","true","true","true","true","""event"",""trial"",""time""
""fullscreenenter"",""5"",""18661""
""blur"",""6"",""27610""
""focus"",""6"",""50209""
","""event"",""trial"",""time""
""blur"",""6"",""27610""
","""event"",""trial"",""time""
""focus"",""6"",""50209""
","""event"",""trial"",""time""
""fullscreenenter"",""5"",""18661""
","
","784.5","","49","","","3000","1","","","images/tutyellowplanet.jpg","images/tutalien4","images/tutalien3","images/tutrocket2","images/tutalien3","images/t.png","2","practice","true","1","common","1","2023-03-10 15:10:55.673"
"two-step-fixation","78","317799","0.0-61.0-2.5","3910","7681","18","Male","true","true","true","true","""event"",""trial"",""time""
""fullscreenenter"",""5"",""18661""
""blur"",""6"",""27610""
""focus"",""6"",""50209""
","""event"",""trial"",""time""
""blur"",""6"",""27610""
","""event"",""trial"",""time""
""focus"",""6"",""50209""
","""event"",""trial"",""time""
""fullscreenenter"",""5"",""18661""
","
","","images/earth.jpg","","","","","","","","","","","","","","fixation","","","","","",""
"d3-animate-choice","79","320087","0.0-61.0-0.6","3910","7681","18","Male","true","true","true","true","""event"",""trial"",""time""
""fullscreenenter"",""5"",""18661""
""blur"",""6"",""27610""
""focus"",""6"",""50209""
","""event"",""trial"",""time""
""blur"",""6"",""27610""
","""event"",""trial"",""time""
""focus"",""6"",""50209""
","""event"",""trial"",""time""
""fullscreenenter"",""5"",""18661""
","
","274.39999997615814","","48","","","3000","1","","","images/earth.jpg","images/tutrocket2","images/tutrocket1","null","images/tutrocket2","","1","practice","null","2","","",""
"d3-animate-choice","80","322886","0.0-61.0-1.6","3910","7681","18","Male","true","true","true","true","""event"",""trial"",""time""
""fullscreenenter"",""5"",""18661""
""blur"",""6"",""27610""
""focus"",""6"",""50209""
","""event"",""trial"",""time""
""blur"",""6"",""27610""
","""event"",""trial"",""time""
""focus"",""6"",""50209""
","""event"",""trial"",""time""
""fullscreenenter"",""5"",""18661""
","
","788.0999999642372","","49","","","3000","1","","","images/tutgreenplanet.jpg","images/tutalien2","images/tutalien1","images/tutrocket2","images/tutalien1","images/t.png","2","practice","false","1","rare","1","2023-03-10 15:11:01.773"
"two-step-fixation","81","323895","0.0-61.0-2.6","3910","7681","18","Male","true","true","true","true","""event"",""trial"",""time""
""fullscreenenter"",""5"",""18661""
""blur"",""6"",""27610""
""focus"",""6"",""50209""
","""event"",""trial"",""time""
""blur"",""6"",""27610""
","""event"",""trial"",""time""
""focus"",""6"",""50209""
","""event"",""trial"",""time""
""fullscreenenter"",""5"",""18661""
","
","","images/earth.jpg","","","","","","","","","","","","","","fixation","","","","","",""
"d3-animate-choice","82","326215","0.0-61.0-0.7","3910","7681","18","Male","true","true","true","true","""event"",""trial"",""time""
""fullscreenenter"",""5"",""18661""
""blur"",""6"",""27610""
""focus"",""6"",""50209""
","""event"",""trial"",""time""
""blur"",""6"",""27610""
","""event"",""trial"",""time""
""focus"",""6"",""50209""
","""event"",""trial"",""time""
""fullscreenenter"",""5"",""18661""
","
","313.5999999642372","","48","","","3000","1","","","images/earth.jpg","images/tutrocket2","images/tutrocket1","null","images/tutrocket2","","1","practice","null","2","","",""
"d3-animate-choice","83","328633","0.0-61.0-1.7","3910","7681","18","Male","true","true","true","true","""event"",""trial"",""time""
""fullscreenenter"",""5"",""18661""
""blur"",""6"",""27610""
""focus"",""6"",""50209""
","""event"",""trial"",""time""
""blur"",""6"",""27610""
","""event"",""trial"",""time""
""focus"",""6"",""50209""
","""event"",""trial"",""time""
""fullscreenenter"",""5"",""18661""
","
","405.5","","49","","","3000","1","","","images/tutgreenplanet.jpg","images/tutalien2","images/tutalien1","images/tutrocket2","images/tutalien1","images/nothing.png","2","practice","false","1","rare","0","2023-03-10 15:11:07.520"
"two-step-fixation","84","329639","0.0-61.0-2.7","3910","7681","18","Male","true","true","true","true","""event"",""trial"",""time""
""fullscreenenter"",""5"",""18661""
""blur"",""6"",""27610""
""focus"",""6"",""50209""
","""event"",""trial"",""time""
""blur"",""6"",""27610""
","""event"",""trial"",""time""
""focus"",""6"",""50209""
","""event"",""trial"",""time""
""fullscreenenter"",""5"",""18661""
","
","","images/earth.jpg","","","","","","","","","","","","","","fixation","","","","","",""
"d3-animate-choice","85","331895","0.0-61.0-0.8","3910","7681","18","Male","true","true","true","true","""event"",""trial"",""time""
""fullscreenenter"",""5"",""18661""
""blur"",""6"",""27610""
""focus"",""6"",""50209""
","""event"",""trial"",""time""
""blur"",""6"",""27610""
","""event"",""trial"",""time""
""focus"",""6"",""50209""
","""event"",""trial"",""time""
""fullscreenenter"",""5"",""18661""
","
","246.80000001192093","","49","","","3000","1","","","images/earth.jpg","images/tutrocket2","images/tutrocket1","null","images/tutrocket1","","1","practice","null","1","","",""
"d3-animate-choice","86","334279","0.0-61.0-1.8","3910","7681","18","Male","true","true","true","true","""event"",""trial"",""time""
""fullscreenenter"",""5"",""18661""
""blur"",""6"",""27610""
""focus"",""6"",""50209""
","""event"",""trial"",""time""
""blur"",""6"",""27610""
","""event"",""trial"",""time""
""focus"",""6"",""50209""
","""event"",""trial"",""time""
""fullscreenenter"",""5"",""18661""
","
","371.7999999523163","","49","","","3000","1","","","images/tutyellowplanet.jpg","images/tutalien4","images/tutalien3","images/tutrocket1","images/tutalien3","images/nothing.png","2","practice","false","1","rare","0","2023-03-10 15:11:13.166"
"two-step-fixation","87","335286","0.0-61.0-2.8","3910","7681","18","Male","true","true","true","true","""event"",""trial"",""time""
""fullscreenenter"",""5"",""18661""
""blur"",""6"",""27610""
""focus"",""6"",""50209""
","""event"",""trial"",""time""
""blur"",""6"",""27610""
","""event"",""trial"",""time""
""focus"",""6"",""50209""
","""event"",""trial"",""time""
""fullscreenenter"",""5"",""18661""
","
","","images/earth.jpg","","","","","","","","","","","","","","fixation","","","","","",""
"d3-animate-choice","88","337425","0.0-61.0-0.9","3910","7681","18","Male","true","true","true","true","""event"",""trial"",""time""
""fullscreenenter"",""5"",""18661""
""blur"",""6"",""27610""
""focus"",""6"",""50209""
","""event"",""trial"",""time""
""blur"",""6"",""27610""
","""event"",""trial"",""time""
""focus"",""6"",""50209""
","""event"",""trial"",""time""
""fullscreenenter"",""5"",""18661""
","
","126.60000002384186","","49","","","3000","1","","","images/earth.jpg","images/tutrocket2","images/tutrocket1","null","images/tutrocket1","","1","practice","null","1","","",""
"d3-animate-choice","89","340087","0.0-61.0-1.9","3910","7681","18","Male","true","true","true","true","""event"",""trial"",""time""
""fullscreenenter"",""5"",""18661""
""blur"",""6"",""27610""
""focus"",""6"",""50209""
","""event"",""trial"",""time""
""blur"",""6"",""27610""
","""event"",""trial"",""time""
""focus"",""6"",""50209""
","""event"",""trial"",""time""
""fullscreenenter"",""5"",""18661""
","
","656.0999999642372","","49","","","3000","1","","","images/tutgreenplanet.jpg","images/tutalien2","images/tutalien1","images/tutrocket1","images/tutalien1","images/nothing.png","2","practice","true","1","common","0","2023-03-10 15:11:18.974"
"two-step-fixation","90","341095","0.0-61.0-2.9","3910","7681","18","Male","true","true","true","true","""event"",""trial"",""time""
""fullscreenenter"",""5"",""18661""
""blur"",""6"",""27610""
""focus"",""6"",""50209""
","""event"",""trial"",""time""
""blur"",""6"",""27610""
","""event"",""trial"",""time""
""focus"",""6"",""50209""
","""event"",""trial"",""time""
""fullscreenenter"",""5"",""18661""
","
","","images/earth.jpg","","","","","","","","","","","","","","fixation","","","","","",""
"d3-animate-choice","91","343703","0.0-61.0-0.10","3910","7681","18","Male","true","true","true","true","""event"",""trial"",""time""
""fullscreenenter"",""5"",""18661""
""blur"",""6"",""27610""
""focus"",""6"",""50209""
","""event"",""trial"",""time""
""blur"",""6"",""27610""
","""event"",""trial"",""time""
""focus"",""6"",""50209""
","""event"",""trial"",""time""
""fullscreenenter"",""5"",""18661""
","
","599.1000000238419","","49","","","3000","1","","","images/earth.jpg","images/tutrocket2","images/tutrocket1","null","images/tutrocket1","","1","practice","null","1","","",""
"d3-animate-choice","92","346562","0.0-61.0-1.10","3910","7681","18","Male","true","true","true","true","""event"",""trial"",""time""
""fullscreenenter"",""5"",""18661""
""blur"",""6"",""27610""
""focus"",""6"",""50209""
","""event"",""trial"",""time""
""blur"",""6"",""27610""
","""event"",""trial"",""time""
""focus"",""6"",""50209""
","""event"",""trial"",""time""
""fullscreenenter"",""5"",""18661""
","
","847.9000000357628","","49","","","3000","1","","","images/tutgreenplanet.jpg","images/tutalien2","images/tutalien1","images/tutrocket1","images/tutalien1","images/nothing.png","2","practice","true","1","common","0","2023-03-10 15:11:25.449"
"two-step-fixation","93","347575","0.0-61.0-2.10","3910","7681","18","Male","true","true","true","true","""event"",""trial"",""time""
""fullscreenenter"",""5"",""18661""
""blur"",""6"",""27610""
""focus"",""6"",""50209""
","""event"",""trial"",""time""
""blur"",""6"",""27610""
","""event"",""trial"",""time""
""focus"",""6"",""50209""
","""event"",""trial"",""time""
""fullscreenenter"",""5"",""18661""
","
","","images/earth.jpg","","","","","","","","","","","","","","fixation","","","","","",""
"d3-animate-choice","94","349841","0.0-61.0-0.11","3910","7681","18","Male","true","true","true","true","""event"",""trial"",""time""
""fullscreenenter"",""5"",""18661""
""blur"",""6"",""27610""
""focus"",""6"",""50209""
","""event"",""trial"",""time""
""blur"",""6"",""27610""
","""event"",""trial"",""time""
""focus"",""6"",""50209""
","""event"",""trial"",""time""
""fullscreenenter"",""5"",""18661""
","
","254.39999997615814","","49","","","3000","1","","","images/earth.jpg","images/tutrocket2","images/tutrocket1","null","images/tutrocket1","","1","practice","null","1","","",""
"d3-animate-choice","95","352433","0.0-61.0-1.11","3910","7681","18","Male","true","true","true","true","""event"",""trial"",""time""
""fullscreenenter"",""5"",""18661""
""blur"",""6"",""27610""
""focus"",""6"",""50209""
","""event"",""trial"",""time""
""blur"",""6"",""27610""
","""event"",""trial"",""time""
""focus"",""6"",""50209""
","""event"",""trial"",""time""
""fullscreenenter"",""5"",""18661""
","
","577.3000000119209","","49","","","3000","1","","","images/tutgreenplanet.jpg","images/tutalien2","images/tutalien1","images/tutrocket1","images/tutalien1","images/nothing.png","2","practice","true","1","common","0","2023-03-10 15:11:31.320"
"two-step-fixation","96","353447","0.0-61.0-2.11","3910","7681","18","Male","true","true","true","true","""event"",""trial"",""time""
""fullscreenenter"",""5"",""18661""
""blur"",""6"",""27610""
""focus"",""6"",""50209""
","""event"",""trial"",""time""
""blur"",""6"",""27610""
","""event"",""trial"",""time""
""focus"",""6"",""50209""
","""event"",""trial"",""time""
""fullscreenenter"",""5"",""18661""
","
","","images/earth.jpg","","","","","","","","","","","","","","fixation","","","","","",""
"d3-animate-choice","97","355703","0.0-61.0-0.12","3910","7681","18","Male","true","true","true","true","""event"",""trial"",""time""
""fullscreenenter"",""5"",""18661""
""blur"",""6"",""27610""
""focus"",""6"",""50209""
","""event"",""trial"",""time""
""blur"",""6"",""27610""
","""event"",""trial"",""time""
""focus"",""6"",""50209""
","""event"",""trial"",""time""
""fullscreenenter"",""5"",""18661""
","
","250.60000002384186","","49","","","3000","1","","","images/earth.jpg","images/tutrocket2","images/tutrocket1","null","images/tutrocket1","","1","practice","null","1","","",""
"d3-animate-choice","98","358257","0.0-61.0-1.12","3910","7681","18","Male","true","true","true","true","""event"",""trial"",""time""
""fullscreenenter"",""5"",""18661""
""blur"",""6"",""27610""
""focus"",""6"",""50209""
","""event"",""trial"",""time""
""blur"",""6"",""27610""
","""event"",""trial"",""time""
""focus"",""6"",""50209""
","""event"",""trial"",""time""
""fullscreenenter"",""5"",""18661""
","
","540.8999999761581","","48","","","3000","1","","","images/tutgreenplanet.jpg","images/tutalien2","images/tutalien1","images/tutrocket1","images/tutalien2","images/nothing.png","2","practice","true","2","common","0","2023-03-10 15:11:37.145"
"two-step-fixation","99","359271","0.0-61.0-2.12","3910","7681","18","Male","true","true","true","true","""event"",""trial"",""time""
""fullscreenenter"",""5"",""18661""
""blur"",""6"",""27610""
""focus"",""6"",""50209""
","""event"",""trial"",""time""
""blur"",""6"",""27610""
","""event"",""trial"",""time""
""focus"",""6"",""50209""
","""event"",""trial"",""time""
""fullscreenenter"",""5"",""18661""
","
","","images/earth.jpg","","","","","","","","","","","","","","fixation","","","","","",""
"d3-animate-choice","100","361639","0.0-61.0-0.13","3910","7681","18","Male","true","true","true","true","""event"",""trial"",""time""
""fullscreenenter"",""5"",""18661""
""blur"",""6"",""27610""
""focus"",""6"",""50209""
","""event"",""trial"",""time""
""blur"",""6"",""27610""
","""event"",""trial"",""time""
""focus"",""6"",""50209""
","""event"",""trial"",""time""
""fullscreenenter"",""5"",""18661""
","
","361.60000002384186","","48","","","3000","1","","","images/earth.jpg","images/tutrocket2","images/tutrocket1","null","images/tutrocket2","","1","practice","null","2","","",""
"d3-animate-choice","101","364209","0.0-61.0-1.13","3910","7681","18","Male","true","true","true","true","""event"",""trial"",""time""
""fullscreenenter"",""5"",""18661""
""blur"",""6"",""27610""
""focus"",""6"",""50209""
","""event"",""trial"",""time""
""blur"",""6"",""27610""
","""event"",""trial"",""time""
""focus"",""6"",""50209""
","""event"",""trial"",""time""
""fullscreenenter"",""5"",""18661""
","
","560.5999999642372","","49","","","3000","1","","","images/tutgreenplanet.jpg","images/tutalien2","images/tutalien1","images/tutrocket2","images/tutalien1","images/nothing.png","2","practice","false","1","rare","0","2023-03-10 15:11:43.097"
"two-step-fixation","102","365216","0.0-61.0-2.13","3910","7681","18","Male","true","true","true","true","""event"",""trial"",""time""
""fullscreenenter"",""5"",""18661""
""blur"",""6"",""27610""
""focus"",""6"",""50209""
","""event"",""trial"",""time""
""blur"",""6"",""27610""
","""event"",""trial"",""time""
""focus"",""6"",""50209""
","""event"",""trial"",""time""
""fullscreenenter"",""5"",""18661""
","
","","images/earth.jpg","","","","","","","","","","","","","","fixation","","","","","",""
"d3-animate-choice","103","367574","0.0-61.0-0.14","3910","7681","18","Male","true","true","true","true","""event"",""trial"",""time""
""fullscreenenter"",""5"",""18661""
""blur"",""6"",""27610""
""focus"",""6"",""50209""
","""event"",""trial"",""time""
""blur"",""6"",""27610""
","""event"",""trial"",""time""
""focus"",""6"",""50209""
","""event"",""trial"",""time""
""fullscreenenter"",""5"",""18661""
","
","347.39999997615814","","49","","","3000","1","","","images/earth.jpg","images/tutrocket2","images/tutrocket1","null","images/tutrocket1","","1","practice","null","1","","",""
"d3-animate-choice","104","370400","0.0-61.0-1.14","3910","7681","18","Male","true","true","true","true","""event"",""trial"",""time""
""fullscreenenter"",""5"",""18661""
""blur"",""6"",""27610""
""focus"",""6"",""50209""
","""event"",""trial"",""time""
""blur"",""6"",""27610""
","""event"",""trial"",""time""
""focus"",""6"",""50209""
","""event"",""trial"",""time""
""fullscreenenter"",""5"",""18661""
","
","811.4000000357628","","49","","","3000","1","","","images/tutgreenplanet.jpg","images/tutalien2","images/tutalien1","images/tutrocket1","images/tutalien1","images/nothing.png","2","practice","true","1","common","0","2023-03-10 15:11:49.287"
"two-step-fixation","105","371410","0.0-61.0-2.14","3910","7681","18","Male","true","true","true","true","""event"",""trial"",""time""
""fullscreenenter"",""5"",""18661""
""blur"",""6"",""27610""
""focus"",""6"",""50209""
","""event"",""trial"",""time""
""blur"",""6"",""27610""
","""event"",""trial"",""time""
""focus"",""6"",""50209""
","""event"",""trial"",""time""
""fullscreenenter"",""5"",""18661""
","
","","images/earth.jpg","","","","","","","","","","","","","","fixation","","","","","",""
"d3-animate-choice","106","373638","0.0-61.0-0.15","3910","7681","18","Male","true","true","true","true","""event"",""trial"",""time""
""fullscreenenter"",""5"",""18661""
""blur"",""6"",""27610""
""focus"",""6"",""50209""
","""event"",""trial"",""time""
""blur"",""6"",""27610""
","""event"",""trial"",""time""
""focus"",""6"",""50209""
","""event"",""trial"",""time""
""fullscreenenter"",""5"",""18661""
","
","215.69999998807907","","48","","","3000","1","","","images/earth.jpg","images/tutrocket2","images/tutrocket1","null","images/tutrocket2","","1","practice","null","2","","",""
"d3-animate-choice","107","376455","0.0-61.0-1.15","3910","7681","18","Male","true","true","true","true","""event"",""trial"",""time""
""fullscreenenter"",""5"",""18661""
""blur"",""6"",""27610""
""focus"",""6"",""50209""
","""event"",""trial"",""time""
""blur"",""6"",""27610""
","""event"",""trial"",""time""
""focus"",""6"",""50209""
","""event"",""trial"",""time""
""fullscreenenter"",""5"",""18661""
","
","810.1999999880791","","48","","","3000","1","","","images/tutyellowplanet.jpg","images/tutalien4","images/tutalien3","images/tutrocket2","images/tutalien4","images/nothing.png","2","practice","true","2","common","0","2023-03-10 15:11:55.342"
"two-step-fixation","108","377462","0.0-61.0-2.15","3910","7681","18","Male","true","true","true","true","""event"",""trial"",""time""
""fullscreenenter"",""5"",""18661""
""blur"",""6"",""27610""
""focus"",""6"",""50209""
","""event"",""trial"",""time""
""blur"",""6"",""27610""
","""event"",""trial"",""time""
""focus"",""6"",""50209""
","""event"",""trial"",""time""
""fullscreenenter"",""5"",""18661""
","
","","images/earth.jpg","","","","","","","","","","","","","","fixation","","","","","",""
"d3-animate-choice","109","379806","0.0-61.0-0.16","3910","7681","18","Male","true","true","true","true","""event"",""trial"",""time""
""fullscreenenter"",""5"",""18661""
""blur"",""6"",""27610""
""focus"",""6"",""50209""
","""event"",""trial"",""time""
""blur"",""6"",""27610""
","""event"",""trial"",""time""
""focus"",""6"",""50209""
","""event"",""trial"",""time""
""fullscreenenter"",""5"",""18661""
","
","333.2999999523163","","49","","","3000","1","","","images/earth.jpg","images/tutrocket2","images/tutrocket1","null","images/tutrocket1","","1","practice","null","1","","",""
"d3-animate-choice","110","382198","0.0-61.0-1.16","3910","7681","18","Male","true","true","true","true","""event"",""trial"",""time""
""fullscreenenter"",""5"",""18661""
""blur"",""6"",""27610""
""focus"",""6"",""50209""
","""event"",""trial"",""time""
""blur"",""6"",""27610""
","""event"",""trial"",""time""
""focus"",""6"",""50209""
","""event"",""trial"",""time""
""fullscreenenter"",""5"",""18661""
","
","381.9000000357628","","49","","","3000","1","","","images/tutgreenplanet.jpg","images/tutalien2","images/tutalien1","images/tutrocket1","images/tutalien1","images/t.png","2","practice","true","1","common","1","2023-03-10 15:12:01.085"
"two-step-fixation","111","383206","0.0-61.0-2.16","3910","7681","18","Male","true","true","true","true","""event"",""trial"",""time""
""fullscreenenter"",""5"",""18661""
""blur"",""6"",""27610""
""focus"",""6"",""50209""
","""event"",""trial"",""time""
""blur"",""6"",""27610""
","""event"",""trial"",""time""
""focus"",""6"",""50209""
","""event"",""trial"",""time""
""fullscreenenter"",""5"",""18661""
","
","","images/earth.jpg","","","","","","","","","","","","","","fixation","","","","","",""
"d3-animate-choice","112","385681","0.0-61.0-0.17","3910","7681","18","Male","true","true","true","true","""event"",""trial"",""time""
""fullscreenenter"",""5"",""18661""
""blur"",""6"",""27610""
""focus"",""6"",""50209""
","""event"",""trial"",""time""
""blur"",""6"",""27610""
","""event"",""trial"",""time""
""focus"",""6"",""50209""
","""event"",""trial"",""time""
""fullscreenenter"",""5"",""18661""
","
","459","","48","","","3000","1","","","images/earth.jpg","images/tutrocket2","images/tutrocket1","null","images/tutrocket2","","1","practice","null","2","","",""
"d3-animate-choice","113","388022","0.0-61.0-1.17","3910","7681","18","Male","true","true","true","true","""event"",""trial"",""time""
""fullscreenenter"",""5"",""18661""
""blur"",""6"",""27610""
""focus"",""6"",""50209""
","""event"",""trial"",""time""
""blur"",""6"",""27610""
","""event"",""trial"",""time""
""focus"",""6"",""50209""
","""event"",""trial"",""time""
""fullscreenenter"",""5"",""18661""
","
","335.69999998807907","","49","","","3000","1","","","images/tutyellowplanet.jpg","images/tutalien4","images/tutalien3","images/tutrocket2","images/tutalien3","images/nothing.png","2","practice","true","1","common","0","2023-03-10 15:12:06.909"
"two-step-fixation","114","389030","0.0-61.0-2.17","3910","7681","18","Male","true","true","true","true","""event"",""trial"",""time""
""fullscreenenter"",""5"",""18661""
""blur"",""6"",""27610""
""focus"",""6"",""50209""
","""event"",""trial"",""time""
""blur"",""6"",""27610""
","""event"",""trial"",""time""
""focus"",""6"",""50209""
","""event"",""trial"",""time""
""fullscreenenter"",""5"",""18661""
","
","","images/earth.jpg","","","","","","","","","","","","","","fixation","","","","","",""
"d3-animate-choice","115","391366","0.0-61.0-0.18","3910","7681","18","Male","true","true","true","true","""event"",""trial"",""time""
""fullscreenenter"",""5"",""18661""
""blur"",""6"",""27610""
""focus"",""6"",""50209""
","""event"",""trial"",""time""
""blur"",""6"",""27610""
","""event"",""trial"",""time""
""focus"",""6"",""50209""
","""event"",""trial"",""time""
""fullscreenenter"",""5"",""18661""
","
","322.80000001192093","","49","","","3000","1","","","images/earth.jpg","images/tutrocket2","images/tutrocket1","null","images/tutrocket1","","1","practice","null","1","","",""
"d3-animate-choice","116","393654","0.0-61.0-1.18","3910","7681","18","Male","true","true","true","true","""event"",""trial"",""time""
""fullscreenenter"",""5"",""18661""
""blur"",""6"",""27610""
""focus"",""6"",""50209""
","""event"",""trial"",""time""
""blur"",""6"",""27610""
","""event"",""trial"",""time""
""focus"",""6"",""50209""
","""event"",""trial"",""time""
""fullscreenenter"",""5"",""18661""
","
","279.9000000357628","","49","","","3000","1","","","images/tutgreenplanet.jpg","images/tutalien2","images/tutalien1","images/tutrocket1","images/tutalien1","images/nothing.png","2","practice","true","1","common","0","2023-03-10 15:12:12.541"
"two-step-fixation","117","394661","0.0-61.0-2.18","3910","7681","18","Male","true","true","true","true","""event"",""trial"",""time""
""fullscreenenter"",""5"",""18661""
""blur"",""6"",""27610""
""focus"",""6"",""50209""
","""event"",""trial"",""time""
""blur"",""6"",""27610""
","""event"",""trial"",""time""
""focus"",""6"",""50209""
","""event"",""trial"",""time""
""fullscreenenter"",""5"",""18661""
","
","","images/earth.jpg","","","","","","","","","","","","","","fixation","","","","","",""
"d3-animate-choice","118","397014","0.0-61.0-0.19","3910","7681","18","Male","true","true","true","true","""event"",""trial"",""time""
""fullscreenenter"",""5"",""18661""
""blur"",""6"",""27610""
""focus"",""6"",""50209""
","""event"",""trial"",""time""
""blur"",""6"",""27610""
","""event"",""trial"",""time""
""focus"",""6"",""50209""
","""event"",""trial"",""time""
""fullscreenenter"",""5"",""18661""
","
","343.7999999523163","","49","","","3000","1","","","images/earth.jpg","images/tutrocket2","images/tutrocket1","null","images/tutrocket1","","1","practice","null","1","","",""
"d3-animate-choice","119","399392","0.0-61.0-1.19","3910","7681","18","Male","true","true","true","true","""event"",""trial"",""time""
""fullscreenenter"",""5"",""18661""
""blur"",""6"",""27610""
""focus"",""6"",""50209""
","""event"",""trial"",""time""
""blur"",""6"",""27610""
","""event"",""trial"",""time""
""focus"",""6"",""50209""
","""event"",""trial"",""time""
""fullscreenenter"",""5"",""18661""
","
","363.69999998807907","","49","","","3000","1","","","images/tutgreenplanet.jpg","images/tutalien2","images/tutalien1","images/tutrocket1","images/tutalien1","images/nothing.png","2","practice","true","1","common","0","2023-03-10 15:12:18.279"
"two-step-fixation","120","400396","0.0-61.0-2.19","3910","7681","18","Male","true","true","true","true","""event"",""trial"",""time""
""fullscreenenter"",""5"",""18661""
""blur"",""6"",""27610""
""focus"",""6"",""50209""
","""event"",""trial"",""time""
""blur"",""6"",""27610""
","""event"",""trial"",""time""
""focus"",""6"",""50209""
","""event"",""trial"",""time""
""fullscreenenter"",""5"",""18661""
","
","","images/earth.jpg","","","","","","","","","","","","","","fixation","","","","","",""
"d3-instructions","121","405977","0.0-62.0","3910","7681","18","Male","true","true","true","true","""event"",""trial"",""time""
""fullscreenenter"",""5"",""18661""
""blur"",""6"",""27610""
""focus"",""6"",""50209""
","""event"",""trial"",""time""
""blur"",""6"",""27610""
","""event"",""trial"",""time""
""focus"",""6"",""50209""
","""event"",""trial"",""time""
""fullscreenenter"",""5"",""18661""
","
","","","","","","","","","","","","","","","","","","","","","",""
"audio-keyboard-response","122","408484","0.0-63.0","3910","7681","18","Male","true","true","true","true","""event"",""trial"",""time""
""fullscreenenter"",""5"",""18661""
""blur"",""6"",""27610""
""focus"",""6"",""50209""
","""event"",""trial"",""time""
""blur"",""6"",""27610""
","""event"",""trial"",""time""
""focus"",""6"",""50209""
","""event"",""trial"",""time""
""fullscreenenter"",""5"",""18661""
","
","2501","audio/instructions/treasure_feedback.wav","32","","","","","","","","","","","","","","","","","","",""
"d3-instructions","123","415139","0.0-64.0","3910","7681","18","Male","true","true","true","true","""event"",""trial"",""time""
""fullscreenenter"",""5"",""18661""
""blur"",""6"",""27610""
""focus"",""6"",""50209""
","""event"",""trial"",""time""
""blur"",""6"",""27610""
","""event"",""trial"",""time""
""focus"",""6"",""50209""
","""event"",""trial"",""time""
""fullscreenenter"",""5"",""18661""
","
","","","","","","","","","","","","","","","","","","","","","",""
"d3-instructions","124","419525","0.0-65.0","3910","7681","18","Male","true","true","true","true","""event"",""trial"",""time""
""fullscreenenter"",""5"",""18661""
""blur"",""6"",""27610""
""focus"",""6"",""50209""
","""event"",""trial"",""time""
""blur"",""6"",""27610""
","""event"",""trial"",""time""
""focus"",""6"",""50209""
","""event"",""trial"",""time""
""fullscreenenter"",""5"",""18661""
","
","","","","","","","","","","","","","","","","","","","","","",""
"d3-instructions","125","427850","0.0-66.0","3910","7681","18","Male","true","true","true","true","""event"",""trial"",""time""
""fullscreenenter"",""5"",""18661""
""blur"",""6"",""27610""
""focus"",""6"",""50209""
","""event"",""trial"",""time""
""blur"",""6"",""27610""
","""event"",""trial"",""time""
""focus"",""6"",""50209""
","""event"",""trial"",""time""
""fullscreenenter"",""5"",""18661""
","
","","","","","","","","","","","","","","","","","","","","","",""
"d3-instructions","126","435645","0.0-67.0","3910","7681","18","Male","true","true","true","true","""event"",""trial"",""time""
""fullscreenenter"",""5"",""18661""
""blur"",""6"",""27610""
""focus"",""6"",""50209""
","""event"",""trial"",""time""
""blur"",""6"",""27610""
","""event"",""trial"",""time""
""focus"",""6"",""50209""
","""event"",""trial"",""time""
""fullscreenenter"",""5"",""18661""
","
","","","","","","","","","","","","","","","","","","","","","",""
"d3-instructions","127","438056","0.0-68.0","3910","7681","18","Male","true","true","true","true","""event"",""trial"",""time""
""fullscreenenter"",""5"",""18661""
""blur"",""6"",""27610""
""focus"",""6"",""50209""
","""event"",""trial"",""time""
""blur"",""6"",""27610""
","""event"",""trial"",""time""
""focus"",""6"",""50209""
","""event"",""trial"",""time""
""fullscreenenter"",""5"",""18661""
","
","","","","","","","","","","","","","","","","","","","","","",""
"instructions-quiz","128","441250","0.0-69.0","3910","7681","18","Male","true","true","true","true","""event"",""trial"",""time""
""fullscreenenter"",""5"",""18661""
""blur"",""6"",""27610""
""focus"",""6"",""50209""
","""event"",""trial"",""time""
""blur"",""6"",""27610""
","""event"",""trial"",""time""
""focus"",""6"",""50209""
","""event"",""trial"",""time""
""fullscreenenter"",""5"",""18661""
","
","3187.7999999523163","audio/quiz/Q1_Prompt.wav","","1","","","","","","","","","","","","","","","","","",""
"audio-keyboard-response","129","442855","0.0-70.0","3910","7681","18","Male","true","true","true","true","""event"",""trial"",""time""
""fullscreenenter"",""5"",""18661""
""blur"",""6"",""27610""
""focus"",""6"",""50209""
","""event"",""trial"",""time""
""blur"",""6"",""27610""
","""event"",""trial"",""time""
""focus"",""6"",""50209""
","""event"",""trial"",""time""
""fullscreenenter"",""5"",""18661""
","
","1605","audio/quiz/Q1_Correct.wav","32","","","","","","","","","","","","","","","","","","",""
"instructions-quiz","130","448236","0.0-71.0","3910","7681","18","Male","true","true","true","true","""event"",""trial"",""time""
""fullscreenenter"",""5"",""18661""
""blur"",""6"",""27610""
""focus"",""6"",""50209""
","""event"",""trial"",""time""
""blur"",""6"",""27610""
","""event"",""trial"",""time""
""focus"",""6"",""50209""
","""event"",""trial"",""time""
""fullscreenenter"",""5"",""18661""
","
","5379.5","audio/quiz/Q2_Prompt.wav","","0","","","","","","","","","","","","","","","","","",""
"audio-keyboard-response","131","448959","0.0-72.0","3910","7681","18","Male","true","true","true","true","""event"",""trial"",""time""
""fullscreenenter"",""5"",""18661""
""blur"",""6"",""27610""
""focus"",""6"",""50209""
","""event"",""trial"",""time""
""blur"",""6"",""27610""
","""event"",""trial"",""time""
""focus"",""6"",""50209""
","""event"",""trial"",""time""
""fullscreenenter"",""5"",""18661""
","
","720","audio/quiz/Q2_Correct.wav","32","","","","","","","","","","","","","","","","","","",""
"instructions-quiz","132","451695","0.0-73.0","3910","7681","18","Male","true","true","true","true","""event"",""trial"",""time""
""fullscreenenter"",""5"",""18661""
""blur"",""6"",""27610""
""focus"",""6"",""50209""
","""event"",""trial"",""time""
""blur"",""6"",""27610""
","""event"",""trial"",""time""
""focus"",""6"",""50209""
","""event"",""trial"",""time""
""fullscreenenter"",""5"",""18661""
","
","2734","audio/quiz/Q3_Prompt.wav","","1","","","","","","","","","","","","","","","","","",""
"audio-keyboard-response","133","452547","0.0-74.0","3910","7681","18","Male","true","true","true","true","""event"",""trial"",""time""
""fullscreenenter"",""5"",""18661""
""blur"",""6"",""27610""
""focus"",""6"",""50209""
","""event"",""trial"",""time""
""blur"",""6"",""27610""
","""event"",""trial"",""time""
""focus"",""6"",""50209""
","""event"",""trial"",""time""
""fullscreenenter"",""5"",""18661""
","
","848","audio/quiz/Q3_Correct.wav","32","","","","","","","","","","","","","","","","","","",""
"d3-instructions","134","456857","0.0-75.0","3910","7681","18","Male","true","true","true","true","""event"",""trial"",""time""
""fullscreenenter"",""5"",""18661""
""blur"",""6"",""27610""
""focus"",""6"",""50209""
","""event"",""trial"",""time""
""blur"",""6"",""27610""
","""event"",""trial"",""time""
""focus"",""6"",""50209""
","""event"",""trial"",""time""
""fullscreenenter"",""5"",""18661""
","
","","","","","","","","","","","","","","","","","","","","","",""
"pavlovia","135","456861","0.0-76.0","3910","7681","18","Male","true","true","true","true","""event"",""trial"",""time""
""fullscreenenter"",""5"",""18661""
""blur"",""6"",""27610""
""focus"",""6"",""50209""
","""event"",""trial"",""time""
""blur"",""6"",""27610""
","""event"",""trial"",""time""
""focus"",""6"",""50209""
","""event"",""trial"",""time""
""fullscreenenter"",""5"",""18661""
","
","","","","","","","","","","","","","","","","","","","","","",""
"d3-animate-choice","136","460610","0.0-77.0-0.0","3910","7681","18","Male","true","true","true","true","""event"",""trial"",""time""
""fullscreenenter"",""5"",""18661""
""blur"",""6"",""27610""
""focus"",""6"",""50209""
","""event"",""trial"",""time""
""blur"",""6"",""27610""
","""event"",""trial"",""time""
""focus"",""6"",""50209""
","""event"",""trial"",""time""
""fullscreenenter"",""5"",""18661""
","
","1742.9000000357628","","49","","","3000","1","","","images/earth.jpg","images/rocket2","images/rocket1","null","images/rocket1","","1","real","null","1","","",""
"d3-animate-choice","137","463936","0.0-77.0-1.0","3910","7681","18","Male","true","true","true","true","""event"",""trial"",""time""
""fullscreenenter"",""5"",""18661""
""blur"",""6"",""27610""
""focus"",""6"",""50209""
","""event"",""trial"",""time""
""blur"",""6"",""27610""
","""event"",""trial"",""time""
""focus"",""6"",""50209""
","""event"",""trial"",""time""
""fullscreenenter"",""5"",""18661""
","
","1316.8999999761581","","49","","","3000","1","","","images/redplanet1.jpg","images/alien2","images/alien1","images/rocket1","images/alien1","images/nothing.png","2","real","true","1","common","0","2023-03-10 15:13:22.824"
"two-step-fixation","138","464945","0.0-77.0-2.0","3910","7681","18","Male","true","true","true","true","""event"",""trial"",""time""
""fullscreenenter"",""5"",""18661""
""blur"",""6"",""27610""
""focus"",""6"",""50209""
","""event"",""trial"",""time""
""blur"",""6"",""27610""
","""event"",""trial"",""time""
""focus"",""6"",""50209""
","""event"",""trial"",""time""
""fullscreenenter"",""5"",""18661""
","
","","images/earth.jpg","","","","","","","","","","","","","","fixation","","","","","",""
"d3-animate-choice","139","467345","0.0-77.0-0.1","3910","7681","18","Male","true","true","true","true","""event"",""trial"",""time""
""fullscreenenter"",""5"",""18661""
""blur"",""6"",""27610""
""focus"",""6"",""50209""
","""event"",""trial"",""time""
""blur"",""6"",""27610""
","""event"",""trial"",""time""
""focus"",""6"",""50209""
","""event"",""trial"",""time""
""fullscreenenter"",""5"",""18661""
","
","389.80000001192093","","49","","","3000","1","","","images/earth.jpg","images/rocket2","images/rocket1","null","images/rocket1","","1","real","null","1","","",""
"d3-animate-choice","140","469998","0.0-77.0-1.1","3910","7681","18","Male","true","true","true","true","""event"",""trial"",""time""
""fullscreenenter"",""5"",""18661""
""blur"",""6"",""27610""
""focus"",""6"",""50209""
","""event"",""trial"",""time""
""blur"",""6"",""27610""
","""event"",""trial"",""time""
""focus"",""6"",""50209""
","""event"",""trial"",""time""
""fullscreenenter"",""5"",""18661""
","
","645.8000000119209","","49","","","3000","1","","","images/purpleplanet.jpg","images/alien4","images/alien3","images/rocket1","images/alien3","images/t.png","2","real","false","1","rare","1","2023-03-10 15:13:28.885"
"two-step-fixation","141","471007","0.0-77.0-2.1","3910","7681","18","Male","true","true","true","true","""event"",""trial"",""time""
""fullscreenenter"",""5"",""18661""
""blur"",""6"",""27610""
""focus"",""6"",""50209""
","""event"",""trial"",""time""
""blur"",""6"",""27610""
","""event"",""trial"",""time""
""focus"",""6"",""50209""
","""event"",""trial"",""time""
""fullscreenenter"",""5"",""18661""
","
","","images/earth.jpg","","","","","","","","","","","","","","fixation","","","","","",""
"d3-animate-choice","142","473286","0.0-77.0-0.2","3910","7681","18","Male","true","true","true","true","""event"",""trial"",""time""
""fullscreenenter"",""5"",""18661""
""blur"",""6"",""27610""
""focus"",""6"",""50209""
","""event"",""trial"",""time""
""blur"",""6"",""27610""
","""event"",""trial"",""time""
""focus"",""6"",""50209""
","""event"",""trial"",""time""
""fullscreenenter"",""5"",""18661""
","
","274","","49","","","3000","1","","","images/earth.jpg","images/rocket2","images/rocket1","null","images/rocket1","","1","real","null","1","","",""
"d3-animate-choice","143","476594","0.0-77.0-1.2","3910","7681","18","Male","true","true","true","true","""event"",""trial"",""time""
""fullscreenenter"",""5"",""18661""
""blur"",""6"",""27610""
""focus"",""6"",""50209""
","""event"",""trial"",""time""
""blur"",""6"",""27610""
","""event"",""trial"",""time""
""focus"",""6"",""50209""
","""event"",""trial"",""time""
""fullscreenenter"",""5"",""18661""
","
","1300.800000011921","","48","","","3000","1","","","images/redplanet1.jpg","images/alien2","images/alien1","images/rocket1","images/alien2","images/nothing.png","2","real","true","2","common","0","2023-03-10 15:13:35.481"
"two-step-fixation","144","477609","0.0-77.0-2.2","3910","7681","18","Male","true","true","true","true","""event"",""trial"",""time""
""fullscreenenter"",""5"",""18661""
""blur"",""6"",""27610""
""focus"",""6"",""50209""
","""event"",""trial"",""time""
""blur"",""6"",""27610""
","""event"",""trial"",""time""
""focus"",""6"",""50209""
","""event"",""trial"",""time""
""fullscreenenter"",""5"",""18661""
","
","","images/earth.jpg","","","","","","","","","","","","","","fixation","","","","","",""
"d3-animate-choice","145","480185","0.0-77.0-0.3","3910","7681","18","Male","true","true","true","true","""event"",""trial"",""time""
""fullscreenenter"",""5"",""18661""
""blur"",""6"",""27610""
""focus"",""6"",""50209""
","""event"",""trial"",""time""
""blur"",""6"",""27610""
","""event"",""trial"",""time""
""focus"",""6"",""50209""
","""event"",""trial"",""time""
""fullscreenenter"",""5"",""18661""
","
","564.0999999642372","","49","","","3000","1","","","images/earth.jpg","images/rocket2","images/rocket1","null","images/rocket1","","1","real","null","1","","",""
"d3-animate-choice","146","482826","0.0-77.0-1.3","3910","7681","18","Male","true","true","true","true","""event"",""trial"",""time""
""fullscreenenter"",""5"",""18661""
""blur"",""6"",""27610""
""focus"",""6"",""50209""
","""event"",""trial"",""time""
""blur"",""6"",""27610""
","""event"",""trial"",""time""
""focus"",""6"",""50209""
","""event"",""trial"",""time""
""fullscreenenter"",""5"",""18661""
","
","632.0999999642372","","49","","","3000","1","","","images/purpleplanet.jpg","images/alien4","images/alien3","images/rocket1","images/alien3","images/nothing.png","2","real","false","1","rare","0","2023-03-10 15:13:41.714"
"two-step-fixation","147","483841","0.0-77.0-2.3","3910","7681","18","Male","true","true","true","true","""event"",""trial"",""time""
""fullscreenenter"",""5"",""18661""
""blur"",""6"",""27610""
""focus"",""6"",""50209""
","""event"",""trial"",""time""
""blur"",""6"",""27610""
","""event"",""trial"",""time""
""focus"",""6"",""50209""
","""event"",""trial"",""time""
""fullscreenenter"",""5"",""18661""
","
","","images/earth.jpg","","","","","","","","","","","","","","fixation","","","","","",""
"d3-animate-choice","148","486173","0.0-77.0-0.4","3910","7681","18","Male","true","true","true","true","""event"",""trial"",""time""
""fullscreenenter"",""5"",""18661""
""blur"",""6"",""27610""
""focus"",""6"",""50209""
","""event"",""trial"",""time""
""blur"",""6"",""27610""
","""event"",""trial"",""time""
""focus"",""6"",""50209""
","""event"",""trial"",""time""
""fullscreenenter"",""5"",""18661""
","
","326","","49","","","3000","1","","","images/earth.jpg","images/rocket2","images/rocket1","null","images/rocket1","","1","real","null","1","","",""
"d3-animate-choice","149","489134","0.0-77.0-1.4","3910","7681","18","Male","true","true","true","true","""event"",""trial"",""time""
""fullscreenenter"",""5"",""18661""
""blur"",""6"",""27610""
""focus"",""6"",""50209""
","""event"",""trial"",""time""
""blur"",""6"",""27610""
","""event"",""trial"",""time""
""focus"",""6"",""50209""
","""event"",""trial"",""time""
""fullscreenenter"",""5"",""18661""
","
","947.3999999761581","","48","","","3000","1","","","images/purpleplanet.jpg","images/alien4","images/alien3","images/rocket1","images/alien4","images/t.png","2","real","false","2","rare","1","2023-03-10 15:13:48.021"
"two-step-fixation","150","490140","0.0-77.0-2.4","3910","7681","18","Male","true","true","true","true","""event"",""trial"",""time""
""fullscreenenter"",""5"",""18661""
""blur"",""6"",""27610""
""focus"",""6"",""50209""
","""event"",""trial"",""time""
""blur"",""6"",""27610""
","""event"",""trial"",""time""
""focus"",""6"",""50209""
","""event"",""trial"",""time""
""fullscreenenter"",""5"",""18661""
","
","","images/earth.jpg","","","","","","","","","","","","","","fixation","","","","","",""
"d3-animate-choice","151","492471","0.0-77.0-0.5","3910","7681","18","Male","true","true","true","true","""event"",""trial"",""time""
""fullscreenenter"",""5"",""18661""
""blur"",""6"",""27610""
""focus"",""6"",""50209""
","""event"",""trial"",""time""
""blur"",""6"",""27610""
","""event"",""trial"",""time""
""focus"",""6"",""50209""
","""event"",""trial"",""time""
""fullscreenenter"",""5"",""18661""
","
","316.30000001192093","","49","","","3000","1","","","images/earth.jpg","images/rocket2","images/rocket1","null","images/rocket1","","1","real","null","1","","",""
"d3-animate-choice","152","495201","0.0-77.0-1.5","3910","7681","18","Male","true","true","true","true","""event"",""trial"",""time""
""fullscreenenter"",""5"",""18661""
""blur"",""6"",""27610""
""focus"",""6"",""50209""
","""event"",""trial"",""time""
""blur"",""6"",""27610""
","""event"",""trial"",""time""
""focus"",""6"",""50209""
","""event"",""trial"",""time""
""fullscreenenter"",""5"",""18661""
","
","718.8999999761581","","49","","","3000","1","","","images/redplanet1.jpg","images/alien2","images/alien1","images/rocket1","images/alien1","images/nothing.png","2","real","true","1","common","0","2023-03-10 15:13:54.088"
"two-step-fixation","153","496215","0.0-77.0-2.5","3910","7681","18","Male","true","true","true","true","""event"",""trial"",""time""
""fullscreenenter"",""5"",""18661""
""blur"",""6"",""27610""
""focus"",""6"",""50209""
","""event"",""trial"",""time""
""blur"",""6"",""27610""
","""event"",""trial"",""time""
""focus"",""6"",""50209""
","""event"",""trial"",""time""
""fullscreenenter"",""5"",""18661""
","
","","images/earth.jpg","","","","","","","","","","","","","","fixation","","","","","",""
"d3-animate-choice","154","498486","0.0-77.0-0.6","3910","7681","18","Male","true","true","true","true","""event"",""trial"",""time""
""fullscreenenter"",""5"",""18661""
""blur"",""6"",""27610""
""focus"",""6"",""50209""
","""event"",""trial"",""time""
""blur"",""6"",""27610""
","""event"",""trial"",""time""
""focus"",""6"",""50209""
","""event"",""trial"",""time""
""fullscreenenter"",""5"",""18661""
","
","259.69999998807907","","49","","","3000","1","","","images/earth.jpg","images/rocket2","images/rocket1","null","images/rocket1","","1","real","null","1","","",""
"d3-animate-choice","155","501176","0.0-77.0-1.6","3910","7681","18","Male","true","true","true","true","""event"",""trial"",""time""
""fullscreenenter"",""5"",""18661""
""blur"",""6"",""27610""
""focus"",""6"",""50209""
","""event"",""trial"",""time""
""blur"",""6"",""27610""
","""event"",""trial"",""time""
""focus"",""6"",""50209""
","""event"",""trial"",""time""
""fullscreenenter"",""5"",""18661""
","
","676.3000000119209","","49","","","3000","1","","","images/redplanet1.jpg","images/alien2","images/alien1","images/rocket1","images/alien1","images/nothing.png","2","real","true","1","common","0","2023-03-10 15:14:00.063"
"two-step-fixation","156","502183","0.0-77.0-2.6","3910","7681","18","Male","true","true","true","true","""event"",""trial"",""time""
""fullscreenenter"",""5"",""18661""
""blur"",""6"",""27610""
""focus"",""6"",""50209""
","""event"",""trial"",""time""
""blur"",""6"",""27610""
","""event"",""trial"",""time""
""focus"",""6"",""50209""
","""event"",""trial"",""time""
""fullscreenenter"",""5"",""18661""
","
","","images/earth.jpg","","","","","","","","","","","","","","fixation","","","","","",""
"d3-animate-choice","157","504503","0.0-77.0-0.7","3910","7681","18","Male","true","true","true","true","""event"",""trial"",""time""
""fullscreenenter"",""5"",""18661""
""blur"",""6"",""27610""
""focus"",""6"",""50209""
","""event"",""trial"",""time""
""blur"",""6"",""27610""
","""event"",""trial"",""time""
""focus"",""6"",""50209""
","""event"",""trial"",""time""
""fullscreenenter"",""5"",""18661""
","
","309.5","","48","","","3000","1","","","images/earth.jpg","images/rocket2","images/rocket1","null","images/rocket2","","1","real","null","2","","",""
"d3-animate-choice","158","506897","0.0-77.0-1.7","3910","7681","18","Male","true","true","true","true","""event"",""trial"",""time""
""fullscreenenter"",""5"",""18661""
""blur"",""6"",""27610""
""focus"",""6"",""50209""
","""event"",""trial"",""time""
""blur"",""6"",""27610""
","""event"",""trial"",""time""
""focus"",""6"",""50209""
","""event"",""trial"",""time""
""fullscreenenter"",""5"",""18661""
","
","385.60000002384186","","48","","","3000","1","","","images/purpleplanet.jpg","images/alien4","images/alien3","images/rocket2","images/alien4","images/nothing.png","2","real","true","2","common","0","2023-03-10 15:14:05.784"
"two-step-fixation","159","507910","0.0-77.0-2.7","3910","7681","18","Male","true","true","true","true","""event"",""trial"",""time""
""fullscreenenter"",""5"",""18661""
""blur"",""6"",""27610""
""focus"",""6"",""50209""
","""event"",""trial"",""time""
""blur"",""6"",""27610""
","""event"",""trial"",""time""
""focus"",""6"",""50209""
","""event"",""trial"",""time""
""fullscreenenter"",""5"",""18661""
","
","","images/earth.jpg","","","","","","","","","","","","","","fixation","","","","","",""
"d3-animate-choice","160","510271","0.0-77.0-0.8","3910","7681","18","Male","true","true","true","true","""event"",""trial"",""time""
""fullscreenenter"",""5"",""18661""
""blur"",""6"",""27610""
""focus"",""6"",""50209""
","""event"",""trial"",""time""
""blur"",""6"",""27610""
","""event"",""trial"",""time""
""focus"",""6"",""50209""
","""event"",""trial"",""time""
""fullscreenenter"",""5"",""18661""
","
","352.4000000357628","","48","","","3000","1","","","images/earth.jpg","images/rocket2","images/rocket1","null","images/rocket2","","1","real","null","2","","",""
"d3-animate-choice","161","512703","0.0-77.0-1.8","3910","7681","18","Male","true","true","true","true","""event"",""trial"",""time""
""fullscreenenter"",""5"",""18661""
""blur"",""6"",""27610""
""focus"",""6"",""50209""
","""event"",""trial"",""time""
""blur"",""6"",""27610""
","""event"",""trial"",""time""
""focus"",""6"",""50209""
","""event"",""trial"",""time""
""fullscreenenter"",""5"",""18661""
","
","424.19999998807907","","49","","","3000","1","","","images/purpleplanet.jpg","images/alien4","images/alien3","images/rocket2","images/alien3","images/nothing.png","2","real","true","1","common","0","2023-03-10 15:14:11.590"
"two-step-fixation","162","513709","0.0-77.0-2.8","3910","7681","18","Male","true","true","true","true","""event"",""trial"",""time""
""fullscreenenter"",""5"",""18661""
""blur"",""6"",""27610""
""focus"",""6"",""50209""
","""event"",""trial"",""time""
""blur"",""6"",""27610""
","""event"",""trial"",""time""
""focus"",""6"",""50209""
","""event"",""trial"",""time""
""fullscreenenter"",""5"",""18661""
","
","","images/earth.jpg","","","","","","","","","","","","","","fixation","","","","","",""
"d3-animate-choice","163","516054","0.0-77.0-0.9","3910","7681","18","Male","true","true","true","true","""event"",""trial"",""time""
""fullscreenenter"",""5"",""18661""
""blur"",""6"",""27610""
""focus"",""6"",""50209""
","""event"",""trial"",""time""
""blur"",""6"",""27610""
","""event"",""trial"",""time""
""focus"",""6"",""50209""
","""event"",""trial"",""time""
""fullscreenenter"",""5"",""18661""
","
","336.89999997615814","","48","","","3000","1","","","images/earth.jpg","images/rocket2","images/rocket1","null","images/rocket2","","1","real","null","2","","",""
"d3-animate-choice","164","519054","0.0-77.0-1.9","3910","7681","18","Male","true","true","true","true","""event"",""trial"",""time""
""fullscreenenter"",""5"",""18661""
""blur"",""6"",""27610""
""focus"",""6"",""50209""
","""event"",""trial"",""time""
""blur"",""6"",""27610""
","""event"",""trial"",""time""
""focus"",""6"",""50209""
","""event"",""trial"",""time""
""fullscreenenter"",""5"",""18661""
","
","991.0999999642372","","49","","","3000","1","","","images/redplanet1.jpg","images/alien2","images/alien1","images/rocket2","images/alien1","images/nothing.png","2","real","false","1","rare","0","2023-03-10 15:14:17.941"
"two-step-fixation","165","520059","0.0-77.0-2.9","3910","7681","18","Male","true","true","true","true","""event"",""trial"",""time""
""fullscreenenter"",""5"",""18661""
""blur"",""6"",""27610""
""focus"",""6"",""50209""
","""event"",""trial"",""time""
""blur"",""6"",""27610""
","""event"",""trial"",""time""
""focus"",""6"",""50209""
","""event"",""trial"",""time""
""fullscreenenter"",""5"",""18661""
","
","","images/earth.jpg","","","","","","","","","","","","","","fixation","","","","","",""
"d3-animate-choice","166","522389","0.0-77.0-0.10","3910","7681","18","Male","true","true","true","true","""event"",""trial"",""time""
""fullscreenenter"",""5"",""18661""
""blur"",""6"",""27610""
""focus"",""6"",""50209""
","""event"",""trial"",""time""
""blur"",""6"",""27610""
","""event"",""trial"",""time""
""focus"",""6"",""50209""
","""event"",""trial"",""time""
""fullscreenenter"",""5"",""18661""
","
","316.80000001192093","","48","","","3000","1","","","images/earth.jpg","images/rocket2","images/rocket1","null","images/rocket2","","1","real","null","2","","",""
"d3-animate-choice","167","525061","0.0-77.0-1.10","3910","7681","18","Male","true","true","true","true","""event"",""trial"",""time""
""fullscreenenter"",""5"",""18661""
""blur"",""6"",""27610""
""focus"",""6"",""50209""
","""event"",""trial"",""time""
""blur"",""6"",""27610""
","""event"",""trial"",""time""
""focus"",""6"",""50209""
","""event"",""trial"",""time""
""fullscreenenter"",""5"",""18661""
","
","659.2000000476837","","48","","","3000","1","","","images/redplanet1.jpg","images/alien2","images/alien1","images/rocket2","images/alien2","images/t.png","2","real","false","2","rare","1","2023-03-10 15:14:23.948"
"two-step-fixation","168","526070","0.0-77.0-2.10","3910","7681","18","Male","true","true","true","true","""event"",""trial"",""time""
""fullscreenenter"",""5"",""18661""
""blur"",""6"",""27610""
""focus"",""6"",""50209""
","""event"",""trial"",""time""
""blur"",""6"",""27610""
","""event"",""trial"",""time""
""focus"",""6"",""50209""
","""event"",""trial"",""time""
""fullscreenenter"",""5"",""18661""
","
","","images/earth.jpg","","","","","","","","","","","","","","fixation","","","","","",""
"d3-animate-choice","169","528316","0.0-77.0-0.11","3910","7681","18","Male","true","true","true","true","""event"",""trial"",""time""
""fullscreenenter"",""5"",""18661""
""blur"",""6"",""27610""
""focus"",""6"",""50209""
","""event"",""trial"",""time""
""blur"",""6"",""27610""
","""event"",""trial"",""time""
""focus"",""6"",""50209""
","""event"",""trial"",""time""
""fullscreenenter"",""5"",""18661""
","
","236.60000002384186","","48","","","3000","1","","","images/earth.jpg","images/rocket2","images/rocket1","null","images/rocket2","","1","real","null","2","","",""
"d3-animate-choice","170","531007","0.0-77.0-1.11","3910","7681","18","Male","true","true","true","true","""event"",""trial"",""time""
""fullscreenenter"",""5"",""18661""
""blur"",""6"",""27610""
""focus"",""6"",""50209""
","""event"",""trial"",""time""
""blur"",""6"",""27610""
","""event"",""trial"",""time""
""focus"",""6"",""50209""
","""event"",""trial"",""time""
""fullscreenenter"",""5"",""18661""
","
","680.8999999761581","","49","","","3000","1","","","images/purpleplanet.jpg","images/alien4","images/alien3","images/rocket2","images/alien3","images/t.png","2","real","true","1","common","1","2023-03-10 15:14:29.894"
"two-step-fixation","171","532017","0.0-77.0-2.11","3910","7681","18","Male","true","true","true","true","""event"",""trial"",""time""
""fullscreenenter"",""5"",""18661""
""blur"",""6"",""27610""
""focus"",""6"",""50209""
","""event"",""trial"",""time""
""blur"",""6"",""27610""
","""event"",""trial"",""time""
""focus"",""6"",""50209""
","""event"",""trial"",""time""
""fullscreenenter"",""5"",""18661""
","
","","images/earth.jpg","","","","","","","","","","","","","","fixation","","","","","",""
"d3-animate-choice","172","534409","0.0-77.0-0.12","3910","7681","18","Male","true","true","true","true","""event"",""trial"",""time""
""fullscreenenter"",""5"",""18661""
""blur"",""6"",""27610""
""focus"",""6"",""50209""
","""event"",""trial"",""time""
""blur"",""6"",""27610""
","""event"",""trial"",""time""
""focus"",""6"",""50209""
","""event"",""trial"",""time""
""fullscreenenter"",""5"",""18661""
","
","380.89999997615814","","48","","","3000","1","","","images/earth.jpg","images/rocket2","images/rocket1","null","images/rocket2","","1","real","null","2","","",""
"d3-animate-choice","173","536870","0.0-77.0-1.12","3910","7681","18","Male","true","true","true","true","""event"",""trial"",""time""
""fullscreenenter"",""5"",""18661""
""blur"",""6"",""27610""
""focus"",""6"",""50209""
","""event"",""trial"",""time""
""blur"",""6"",""27610""
","""event"",""trial"",""time""
""focus"",""6"",""50209""
","""event"",""trial"",""time""
""fullscreenenter"",""5"",""18661""
","
","450.10000002384186","","48","","","3000","1","","","images/redplanet1.jpg","images/alien2","images/alien1","images/rocket2","images/alien2","images/t.png","2","real","false","2","rare","1","2023-03-10 15:14:35.758"
"two-step-fixation","174","537878","0.0-77.0-2.12","3910","7681","18","Male","true","true","true","true","""event"",""trial"",""time""
""fullscreenenter"",""5"",""18661""
""blur"",""6"",""27610""
""focus"",""6"",""50209""
","""event"",""trial"",""time""
""blur"",""6"",""27610""
","""event"",""trial"",""time""
""focus"",""6"",""50209""
","""event"",""trial"",""time""
""fullscreenenter"",""5"",""18661""
","
","","images/earth.jpg","","","","","","","","","","","","","","fixation","","","","","",""
"d3-animate-choice","175","540129","0.0-77.0-0.13","3910","7681","18","Male","true","true","true","true","""event"",""trial"",""time""
""fullscreenenter"",""5"",""18661""
""blur"",""6"",""27610""
""focus"",""6"",""50209""
","""event"",""trial"",""time""
""blur"",""6"",""27610""
","""event"",""trial"",""time""
""focus"",""6"",""50209""
","""event"",""trial"",""time""
""fullscreenenter"",""5"",""18661""
","
","236.20000004768372","","48","","","3000","1","","","images/earth.jpg","images/rocket2","images/rocket1","null","images/rocket2","","1","real","null","2","","",""
"d3-animate-choice","176","542593","0.0-77.0-1.13","3910","7681","18","Male","true","true","true","true","""event"",""trial"",""time""
""fullscreenenter"",""5"",""18661""
""blur"",""6"",""27610""
""focus"",""6"",""50209""
","""event"",""trial"",""time""
""blur"",""6"",""27610""
","""event"",""trial"",""time""
""focus"",""6"",""50209""
","""event"",""trial"",""time""
""fullscreenenter"",""5"",""18661""
","
","450.5999999642372","","48","","","3000","1","","","images/redplanet1.jpg","images/alien2","images/alien1","images/rocket2","images/alien2","images/nothing.png","2","real","false","2","rare","0","2023-03-10 15:14:41.480"
"two-step-fixation","177","543606","0.0-77.0-2.13","3910","7681","18","Male","true","true","true","true","""event"",""trial"",""time""
""fullscreenenter"",""5"",""18661""
""blur"",""6"",""27610""
""focus"",""6"",""50209""
","""event"",""trial"",""time""
""blur"",""6"",""27610""
","""event"",""trial"",""time""
""focus"",""6"",""50209""
","""event"",""trial"",""time""
""fullscreenenter"",""5"",""18661""
","
","","images/earth.jpg","","","","","","","","","","","","","","fixation","","","","","",""
"d3-animate-choice","178","545862","0.0-77.0-0.14","3910","7681","18","Male","true","true","true","true","""event"",""trial"",""time""
""fullscreenenter"",""5"",""18661""
""blur"",""6"",""27610""
""focus"",""6"",""50209""
","""event"",""trial"",""time""
""blur"",""6"",""27610""
","""event"",""trial"",""time""
""focus"",""6"",""50209""
","""event"",""trial"",""time""
""fullscreenenter"",""5"",""18661""
","
","245.89999997615814","","48","","","3000","1","","","images/earth.jpg","images/rocket2","images/rocket1","null","images/rocket2","","1","real","null","2","","",""
"d3-animate-choice","179","548543","0.0-77.0-1.14","3910","7681","18","Male","true","true","true","true","""event"",""trial"",""time""
""fullscreenenter"",""5"",""18661""
""blur"",""6"",""27610""
""focus"",""6"",""50209""
","""event"",""trial"",""time""
""blur"",""6"",""27610""
","""event"",""trial"",""time""
""focus"",""6"",""50209""
","""event"",""trial"",""time""
""fullscreenenter"",""5"",""18661""
","
","669","","49","","","3000","1","","","images/purpleplanet.jpg","images/alien4","images/alien3","images/rocket2","images/alien3","images/t.png","2","real","true","1","common","1","2023-03-10 15:14:47.430"
