"trial_type","trial_index","time_elapsed","internal_node_id","participant_id","subject_id","age","gender","rocket_sides","red_planet_first_rocket","red_display_order","purple_display_order","interactions","blur_events","focus_events","fullscreenenter_events","fullscreenexit_events","rt","stimulus","key_press","button_pressed","success","duration","valid_pressed","rts","keys","planet_text","right_text","left_text","center_text","chosen_text","reward_text","trial_stage","practice_trial","transition_type","choice","transition","reward","timestamp"
"pavlovia","0","2","0.0-0.0","3457","5870","9","Female","false","false","false","false","""event"",""trial"",""time""
""blur"",""0"",""0""
""focus"",""1"",""13392""
","""event"",""trial"",""time""
""blur"",""0"",""0""
","""event"",""trial"",""time""
""focus"",""1"",""13392""
","
","
","","","","","","","","","","","","","","","","","","","","","",""
"html-keyboard-response","1","16983","0.0-1.0","3457","5870","9","Female","false","false","false","false","""event"",""trial"",""time""
""blur"",""0"",""0""
""focus"",""1"",""13392""
","""event"",""trial"",""time""
""blur"",""0"",""0""
","""event"",""trial"",""time""
""focus"",""1"",""13392""
","
","
","16979.200000047684","Welcome! Press the space bar to begin.","16","","","","","","","","","","","","","","","","","","",""
"audio-keyboard-response","2","25759","0.0-2.0","3457","5870","9","Female","false","false","false","false","""event"",""trial"",""time""
""blur"",""0"",""0""
""focus"",""1"",""13392""
","""event"",""trial"",""time""
""blur"",""0"",""0""
","""event"",""trial"",""time""
""focus"",""1"",""13392""
","
","
","8680","audio/beep_loop.wav","32","","","","","","","","","","","","","","","","","","",""
"audio-button-response","3","28238","0.0-3.0","3457","5870","9","Female","false","false","false","false","""event"",""trial"",""time""
""blur"",""0"",""0""
""focus"",""1"",""13392""
","""event"",""trial"",""time""
""blur"",""0"",""0""
","""event"",""trial"",""time""
""focus"",""1"",""13392""
","
","
","NaN","audio/fish.mp3","","1","","","","","","","","","","","","","","","","","",""
"audio-button-response","4","31118","0.0-4.0","3457","5870","9","Female","false","false","false","false","""event"",""trial"",""time""
""blur"",""0"",""0""
""focus"",""1"",""13392""
""fullscreenenter"",""5"",""35815""
","""event"",""trial"",""time""
""blur"",""0"",""0""
","""event"",""trial"",""time""
""focus"",""1"",""13392""
","""event"",""trial"",""time""
""fullscreenenter"",""5"",""35815""
","
","NaN","audio/tiger.mp3","","4","","","","","","","","","","","","","","","","","",""
"fullscreen","5","36791","0.0-5.0","3457","5870","9","Female","false","false","false","false","""event"",""trial"",""time""
""blur"",""0"",""0""
""focus"",""1"",""13392""
""fullscreenenter"",""5"",""35815""
""fullscreenexit"",""6"",""38137""
","""event"",""trial"",""time""
""blur"",""0"",""0""
","""event"",""trial"",""time""
""focus"",""1"",""13392""
","""event"",""trial"",""time""
""fullscreenenter"",""5"",""35815""
","""event"",""trial"",""time""
""fullscreenexit"",""6"",""38137""
","","","","","true","","","","","","","","","","","","","","","","",""
"d3-instructions","6","53174","0.0-6.0","3457","5870","9","Female","false","false","false","false","""event"",""trial"",""time""
""blur"",""0"",""0""
""focus"",""1"",""13392""
""fullscreenenter"",""5"",""35815""
""fullscreenexit"",""6"",""38137""
","""event"",""trial"",""time""
""blur"",""0"",""0""
","""event"",""trial"",""time""
""focus"",""1"",""13392""
","""event"",""trial"",""time""
""fullscreenenter"",""5"",""35815""
","""event"",""trial"",""time""
""fullscreenexit"",""6"",""38137""
","","","","","","","","","","","","","","","","","","","","","",""
"d3-instructions","7","64030","0.0-7.0","3457","5870","9","Female","false","false","false","false","""event"",""trial"",""time""
""blur"",""0"",""0""
""focus"",""1"",""13392""
""fullscreenenter"",""5"",""35815""
""fullscreenexit"",""6"",""38137""
","""event"",""trial"",""time""
""blur"",""0"",""0""
","""event"",""trial"",""time""
""focus"",""1"",""13392""
","""event"",""trial"",""time""
""fullscreenenter"",""5"",""35815""
","""event"",""trial"",""time""
""fullscreenexit"",""6"",""38137""
","","","","","","","","","","","","","","","","","","","","","",""
"d3-instructions","8","70934","0.0-8.0","3457","5870","9","Female","false","false","false","false","""event"",""trial"",""time""
""blur"",""0"",""0""
""focus"",""1"",""13392""
""fullscreenenter"",""5"",""35815""
""fullscreenexit"",""6"",""38137""
","""event"",""trial"",""time""
""blur"",""0"",""0""
","""event"",""trial"",""time""
""focus"",""1"",""13392""
","""event"",""trial"",""time""
""fullscreenenter"",""5"",""35815""
","""event"",""trial"",""time""
""fullscreenexit"",""6"",""38137""
","","","","","","","","","","","","","","","","","","","","","",""
"d3-instructions","9","82574","0.0-9.0","3457","5870","9","Female","false","false","false","false","""event"",""trial"",""time""
""blur"",""0"",""0""
""focus"",""1"",""13392""
""fullscreenenter"",""5"",""35815""
""fullscreenexit"",""6"",""38137""
","""event"",""trial"",""time""
""blur"",""0"",""0""
","""event"",""trial"",""time""
""focus"",""1"",""13392""
","""event"",""trial"",""time""
""fullscreenenter"",""5"",""35815""
","""event"",""trial"",""time""
""fullscreenexit"",""6"",""38137""
","","","","","","","","","","","","","","","","","","","","","",""
"d3-instructions","10","102376","0.0-10.0","3457","5870","9","Female","false","false","false","false","""event"",""trial"",""time""
""blur"",""0"",""0""
""focus"",""1"",""13392""
""fullscreenenter"",""5"",""35815""
""fullscreenexit"",""6"",""38137""
","""event"",""trial"",""time""
""blur"",""0"",""0""
","""event"",""trial"",""time""
""focus"",""1"",""13392""
","""event"",""trial"",""time""
""fullscreenenter"",""5"",""35815""
","""event"",""trial"",""time""
""fullscreenexit"",""6"",""38137""
","","","","","","","","","","","","","","","","","","","","","",""
"d3-animate-choice","11","106473","0.0-11.0","3457","5870","9","Female","false","false","false","false","""event"",""trial"",""time""
""blur"",""0"",""0""
""focus"",""1"",""13392""
""fullscreenenter"",""5"",""35815""
""fullscreenexit"",""6"",""38137""
","""event"",""trial"",""time""
""blur"",""0"",""0""
","""event"",""trial"",""time""
""focus"",""1"",""13392""
","""event"",""trial"",""time""
""fullscreenenter"",""5"",""35815""
","""event"",""trial"",""time""
""fullscreenexit"",""6"",""38137""
","2082.8000000715256","","49","","","3000","1","","","images/tutgreenplanet.jpg","images/tutalien1","images/tutalien2","null","images/tutalien2","","NA","practice","null","","","",""
"d3-animate-choice","12","110177","0.0-12.0","3457","5870","9","Female","false","false","false","false","""event"",""trial"",""time""
""blur"",""0"",""0""
""focus"",""1"",""13392""
""fullscreenenter"",""5"",""35815""
""fullscreenexit"",""6"",""38137""
","""event"",""trial"",""time""
""blur"",""0"",""0""
","""event"",""trial"",""time""
""focus"",""1"",""13392""
","""event"",""trial"",""time""
""fullscreenenter"",""5"",""35815""
","""event"",""trial"",""time""
""fullscreenexit"",""6"",""38137""
","1684","","49","","","3000","1","","","images/tutgreenplanet.jpg","images/tutalien1","images/tutalien2","null","images/tutalien2","","NA","practice","null","","","",""
"d3-animate-choice","13","118123","0.0-13.0","3457","5870","9","Female","false","false","false","false","""event"",""trial"",""time""
""blur"",""0"",""0""
""focus"",""1"",""13392""
""fullscreenenter"",""5"",""35815""
""fullscreenexit"",""6"",""38137""
","""event"",""trial"",""time""
""blur"",""0"",""0""
","""event"",""trial"",""time""
""focus"",""1"",""13392""
","""event"",""trial"",""time""
""fullscreenenter"",""5"",""35815""
","""event"",""trial"",""time""
""fullscreenexit"",""6"",""38137""
","741.3999999761581","","50","","","3000","1","2086.399999976158,5932.899999976158","50,48","images/tutgreenplanet.jpg","images/tutalien1","images/tutalien2","null","images/tutalien1","","NA","practice","null","","","",""
"d3-animate-choice","14","121003","0.0-14.0","3457","5870","9","Female","false","false","false","false","""event"",""trial"",""time""
""blur"",""0"",""0""
""focus"",""1"",""13392""
""fullscreenenter"",""5"",""35815""
""fullscreenexit"",""6"",""38137""
","""event"",""trial"",""time""
""blur"",""0"",""0""
","""event"",""trial"",""time""
""focus"",""1"",""13392""
","""event"",""trial"",""time""
""fullscreenenter"",""5"",""35815""
","""event"",""trial"",""time""
""fullscreenexit"",""6"",""38137""
","858.5999999046326","","48","","","3000","1","","","images/tutgreenplanet.jpg","images/tutalien1","images/tutalien2","null","images/tutalien1","","NA","practice","null","","","",""
"d3-instructions","15","131233","0.0-15.0","3457","5870","9","Female","false","false","false","false","""event"",""trial"",""time""
""blur"",""0"",""0""
""focus"",""1"",""13392""
""fullscreenenter"",""5"",""35815""
""fullscreenexit"",""6"",""38137""
","""event"",""trial"",""time""
""blur"",""0"",""0""
","""event"",""trial"",""time""
""focus"",""1"",""13392""
","""event"",""trial"",""time""
""fullscreenenter"",""5"",""35815""
","""event"",""trial"",""time""
""fullscreenexit"",""6"",""38137""
","","","","","","","","","","","","","","","","","","","","","",""
"d3-instructions","16","138423","0.0-16.0","3457","5870","9","Female","false","false","false","false","""event"",""trial"",""time""
""blur"",""0"",""0""
""focus"",""1"",""13392""
""fullscreenenter"",""5"",""35815""
""fullscreenexit"",""6"",""38137""
","""event"",""trial"",""time""
""blur"",""0"",""0""
","""event"",""trial"",""time""
""focus"",""1"",""13392""
","""event"",""trial"",""time""
""fullscreenenter"",""5"",""35815""
","""event"",""trial"",""time""
""fullscreenexit"",""6"",""38137""
","","","","","","","","","","","","","","","","","","","","","",""
"d3-instructions","17","147346","0.0-17.0","3457","5870","9","Female","false","false","false","false","""event"",""trial"",""time""
""blur"",""0"",""0""
""focus"",""1"",""13392""
""fullscreenenter"",""5"",""35815""
""fullscreenexit"",""6"",""38137""
","""event"",""trial"",""time""
""blur"",""0"",""0""
","""event"",""trial"",""time""
""focus"",""1"",""13392""
","""event"",""trial"",""time""
""fullscreenenter"",""5"",""35815""
","""event"",""trial"",""time""
""fullscreenexit"",""6"",""38137""
","","","","","","","","","","","","","","","","","","","","","",""
"d3-instructions","18","160594","0.0-18.0","3457","5870","9","Female","false","false","false","false","""event"",""trial"",""time""
""blur"",""0"",""0""
""focus"",""1"",""13392""
""fullscreenenter"",""5"",""35815""
""fullscreenexit"",""6"",""38137""
","""event"",""trial"",""time""
""blur"",""0"",""0""
","""event"",""trial"",""time""
""focus"",""1"",""13392""
","""event"",""trial"",""time""
""fullscreenenter"",""5"",""35815""
","""event"",""trial"",""time""
""fullscreenexit"",""6"",""38137""
","","","","","","","","","","","","","","","","","","","","","",""
"d3-instructions","19","177486","0.0-19.0","3457","5870","9","Female","false","false","false","false","""event"",""trial"",""time""
""blur"",""0"",""0""
""focus"",""1"",""13392""
""fullscreenenter"",""5"",""35815""
""fullscreenexit"",""6"",""38137""
","""event"",""trial"",""time""
""blur"",""0"",""0""
","""event"",""trial"",""time""
""focus"",""1"",""13392""
","""event"",""trial"",""time""
""fullscreenenter"",""5"",""35815""
","""event"",""trial"",""time""
""fullscreenexit"",""6"",""38137""
","","","","","","","","","","","","","","","","","","","","","",""
"d3-animate-choice","20","180381","0.0-20.0","3457","5870","9","Female","false","false","false","false","""event"",""trial"",""time""
""blur"",""0"",""0""
""focus"",""1"",""13392""
""fullscreenenter"",""5"",""35815""
""fullscreenexit"",""6"",""38137""
","""event"",""trial"",""time""
""blur"",""0"",""0""
","""event"",""trial"",""time""
""focus"",""1"",""13392""
","""event"",""trial"",""time""
""fullscreenenter"",""5"",""35815""
","""event"",""trial"",""time""
""fullscreenexit"",""6"",""38137""
","877.6999999284744","","49","","","3000","1","","","images/tutyellowplanet.jpg","null","images/tutalien3","null","images/tutalien3","images/t.png","NA","practice","null","","","",""
"d3-animate-choice","21","183182","0.0-21.0","3457","5870","9","Female","false","false","false","false","""event"",""trial"",""time""
""blur"",""0"",""0""
""focus"",""1"",""13392""
""fullscreenenter"",""5"",""35815""
""fullscreenexit"",""6"",""38137""
","""event"",""trial"",""time""
""blur"",""0"",""0""
","""event"",""trial"",""time""
""focus"",""1"",""13392""
","""event"",""trial"",""time""
""fullscreenenter"",""5"",""35815""
","""event"",""trial"",""time""
""fullscreenexit"",""6"",""38137""
","782.6999999284744","","49","","","3000","1","","","images/tutyellowplanet.jpg","null","images/tutalien3","null","images/tutalien3","images/t.png","NA","practice","null","","","",""
"d3-animate-choice","22","186042","0.0-22.0","3457","5870","9","Female","false","false","false","false","""event"",""trial"",""time""
""blur"",""0"",""0""
""focus"",""1"",""13392""
""fullscreenenter"",""5"",""35815""
""fullscreenexit"",""6"",""38137""
","""event"",""trial"",""time""
""blur"",""0"",""0""
","""event"",""trial"",""time""
""focus"",""1"",""13392""
","""event"",""trial"",""time""
""fullscreenenter"",""5"",""35815""
","""event"",""trial"",""time""
""fullscreenexit"",""6"",""38137""
","837.8999999761581","","49","","","3000","1","","","images/tutyellowplanet.jpg","null","images/tutalien3","null","images/tutalien3","images/t.png","NA","practice","null","","","",""
"d3-animate-choice","23","189311","0.0-23.0","3457","5870","9","Female","false","false","false","false","""event"",""trial"",""time""
""blur"",""0"",""0""
""focus"",""1"",""13392""
""fullscreenenter"",""5"",""35815""
""fullscreenexit"",""6"",""38137""
","""event"",""trial"",""time""
""blur"",""0"",""0""
","""event"",""trial"",""time""
""focus"",""1"",""13392""
","""event"",""trial"",""time""
""fullscreenenter"",""5"",""35815""
","""event"",""trial"",""time""
""fullscreenexit"",""6"",""38137""
","1249.7999999523163","","49","","","3000","1","","","images/tutyellowplanet.jpg","null","images/tutalien3","null","images/tutalien3","images/nothing.png","NA","practice","null","","","",""
"d3-animate-choice","24","192861","0.0-24.0","3457","5870","9","Female","false","false","false","false","""event"",""trial"",""time""
""blur"",""0"",""0""
""focus"",""1"",""13392""
""fullscreenenter"",""5"",""35815""
""fullscreenexit"",""6"",""38137""
","""event"",""trial"",""time""
""blur"",""0"",""0""
","""event"",""trial"",""time""
""focus"",""1"",""13392""
","""event"",""trial"",""time""
""fullscreenenter"",""5"",""35815""
","""event"",""trial"",""time""
""fullscreenexit"",""6"",""38137""
","1541","","49","","","3000","1","","","images/tutyellowplanet.jpg","null","images/tutalien3","null","images/tutalien3","images/t.png","NA","practice","null","","","",""
"d3-animate-choice","25","196702","0.0-25.0","3457","5870","9","Female","false","false","false","false","""event"",""trial"",""time""
""blur"",""0"",""0""
""focus"",""1"",""13392""
""fullscreenenter"",""5"",""35815""
""fullscreenexit"",""6"",""38137""
","""event"",""trial"",""time""
""blur"",""0"",""0""
","""event"",""trial"",""time""
""focus"",""1"",""13392""
","""event"",""trial"",""time""
""fullscreenenter"",""5"",""35815""
","""event"",""trial"",""time""
""fullscreenexit"",""6"",""38137""
","1831.1000000238419","","49","","","3000","1","","","images/tutyellowplanet.jpg","null","images/tutalien3","null","images/tutalien3","images/t.png","NA","practice","null","","","",""
"d3-animate-choice","26","199732","0.0-26.0","3457","5870","9","Female","false","false","false","false","""event"",""trial"",""time""
""blur"",""0"",""0""
""focus"",""1"",""13392""
""fullscreenenter"",""5"",""35815""
""fullscreenexit"",""6"",""38137""
","""event"",""trial"",""time""
""blur"",""0"",""0""
","""event"",""trial"",""time""
""focus"",""1"",""13392""
","""event"",""trial"",""time""
""fullscreenenter"",""5"",""35815""
","""event"",""trial"",""time""
""fullscreenexit"",""6"",""38137""
","1006.2000000476837","","49","","","3000","1","","","images/tutyellowplanet.jpg","null","images/tutalien3","null","images/tutalien3","images/t.png","NA","practice","null","","","",""
"d3-animate-choice","27","202292","0.0-27.0","3457","5870","9","Female","false","false","false","false","""event"",""trial"",""time""
""blur"",""0"",""0""
""focus"",""1"",""13392""
""fullscreenenter"",""5"",""35815""
""fullscreenexit"",""6"",""38137""
","""event"",""trial"",""time""
""blur"",""0"",""0""
","""event"",""trial"",""time""
""focus"",""1"",""13392""
","""event"",""trial"",""time""
""fullscreenenter"",""5"",""35815""
","""event"",""trial"",""time""
""fullscreenexit"",""6"",""38137""
","553.1000000238419","","49","","","3000","1","","","images/tutyellowplanet.jpg","null","images/tutalien3","null","images/tutalien3","images/nothing.png","NA","practice","null","","","",""
"d3-animate-choice","28","205354","0.0-28.0","3457","5870","9","Female","false","false","false","false","""event"",""trial"",""time""
""blur"",""0"",""0""
""focus"",""1"",""13392""
""fullscreenenter"",""5"",""35815""
""fullscreenexit"",""6"",""38137""
","""event"",""trial"",""time""
""blur"",""0"",""0""
","""event"",""trial"",""time""
""focus"",""1"",""13392""
","""event"",""trial"",""time""
""fullscreenenter"",""5"",""35815""
","""event"",""trial"",""time""
""fullscreenexit"",""6"",""38137""
","1057","","49","","","3000","1","","","images/tutyellowplanet.jpg","null","images/tutalien3","null","images/tutalien3","images/t.png","NA","practice","null","","","",""
"d3-animate-choice","29","207923","0.0-29.0","3457","5870","9","Female","false","false","false","false","""event"",""trial"",""time""
""blur"",""0"",""0""
""focus"",""1"",""13392""
""fullscreenenter"",""5"",""35815""
""fullscreenexit"",""6"",""38137""
","""event"",""trial"",""time""
""blur"",""0"",""0""
","""event"",""trial"",""time""
""focus"",""1"",""13392""
","""event"",""trial"",""time""
""fullscreenenter"",""5"",""35815""
","""event"",""trial"",""time""
""fullscreenexit"",""6"",""38137""
","561.1999999284744","","49","","","3000","1","","","images/tutyellowplanet.jpg","null","images/tutalien3","null","images/tutalien3","images/t.png","NA","practice","null","","","",""
"d3-instructions","30","214510","0.0-30.0","3457","5870","9","Female","false","false","false","false","""event"",""trial"",""time""
""blur"",""0"",""0""
""focus"",""1"",""13392""
""fullscreenenter"",""5"",""35815""
""fullscreenexit"",""6"",""38137""
","""event"",""trial"",""time""
""blur"",""0"",""0""
","""event"",""trial"",""time""
""focus"",""1"",""13392""
","""event"",""trial"",""time""
""fullscreenenter"",""5"",""35815""
","""event"",""trial"",""time""
""fullscreenexit"",""6"",""38137""
","","","","","","","","","","","","","","","","","","","","","",""
"d3-instructions","31","224678","0.0-31.0","3457","5870","9","Female","false","false","false","false","""event"",""trial"",""time""
""blur"",""0"",""0""
""focus"",""1"",""13392""
""fullscreenenter"",""5"",""35815""
""fullscreenexit"",""6"",""38137""
","""event"",""trial"",""time""
""blur"",""0"",""0""
","""event"",""trial"",""time""
""focus"",""1"",""13392""
","""event"",""trial"",""time""
""fullscreenenter"",""5"",""35815""
","""event"",""trial"",""time""
""fullscreenexit"",""6"",""38137""
","","","","","","","","","","","","","","","","","","","","","",""
"d3-instructions","32","232128","0.0-32.0","3457","5870","9","Female","false","false","false","false","""event"",""trial"",""time""
""blur"",""0"",""0""
""focus"",""1"",""13392""
""fullscreenenter"",""5"",""35815""
""fullscreenexit"",""6"",""38137""
","""event"",""trial"",""time""
""blur"",""0"",""0""
","""event"",""trial"",""time""
""focus"",""1"",""13392""
","""event"",""trial"",""time""
""fullscreenenter"",""5"",""35815""
","""event"",""trial"",""time""
""fullscreenexit"",""6"",""38137""
","","","","","","","","","","","","","","","","","","","","","",""
"d3-instructions","33","244379","0.0-33.0","3457","5870","9","Female","false","false","false","false","""event"",""trial"",""time""
""blur"",""0"",""0""
""focus"",""1"",""13392""
""fullscreenenter"",""5"",""35815""
""fullscreenexit"",""6"",""38137""
","""event"",""trial"",""time""
""blur"",""0"",""0""
","""event"",""trial"",""time""
""focus"",""1"",""13392""
","""event"",""trial"",""time""
""fullscreenenter"",""5"",""35815""
","""event"",""trial"",""time""
""fullscreenexit"",""6"",""38137""
","","","","","","","","","","","","","","","","","","","","","",""
"d3-animate-choice","34","247884","0.0-34.0","3457","5870","9","Female","false","false","false","false","""event"",""trial"",""time""
""blur"",""0"",""0""
""focus"",""1"",""13392""
""fullscreenenter"",""5"",""35815""
""fullscreenexit"",""6"",""38137""
","""event"",""trial"",""time""
""blur"",""0"",""0""
","""event"",""trial"",""time""
""focus"",""1"",""13392""
","""event"",""trial"",""time""
""fullscreenenter"",""5"",""35815""
","""event"",""trial"",""time""
""fullscreenexit"",""6"",""38137""
","1487.6000000238419","","48","","","3000","1","","","images/tutgreenplanet.jpg","images/tutalien1","images/tutalien2","null","images/tutalien1","images/nothing.png","NA","practice","null","","","",""
"d3-animate-choice","35","250759","0.0-35.0","3457","5870","9","Female","false","false","false","false","""event"",""trial"",""time""
""blur"",""0"",""0""
""focus"",""1"",""13392""
""fullscreenenter"",""5"",""35815""
""fullscreenexit"",""6"",""38137""
","""event"",""trial"",""time""
""blur"",""0"",""0""
","""event"",""trial"",""time""
""focus"",""1"",""13392""
","""event"",""trial"",""time""
""fullscreenenter"",""5"",""35815""
","""event"",""trial"",""time""
""fullscreenexit"",""6"",""38137""
","862.8000000715256","","49","","","3000","1","","","images/tutgreenplanet.jpg","images/tutalien1","images/tutalien2","null","images/tutalien2","images/t.png","NA","practice","null","","","",""
"d3-animate-choice","36","253565","0.0-36.0","3457","5870","9","Female","false","false","false","false","""event"",""trial"",""time""
""blur"",""0"",""0""
""focus"",""1"",""13392""
""fullscreenenter"",""5"",""35815""
""fullscreenexit"",""6"",""38137""
","""event"",""trial"",""time""
""blur"",""0"",""0""
","""event"",""trial"",""time""
""focus"",""1"",""13392""
","""event"",""trial"",""time""
""fullscreenenter"",""5"",""35815""
","""event"",""trial"",""time""
""fullscreenexit"",""6"",""38137""
","787.5","","49","","","3000","1","","","images/tutgreenplanet.jpg","images/tutalien1","images/tutalien2","null","images/tutalien2","images/t.png","NA","practice","null","","","",""
"d3-animate-choice","37","256159","0.0-37.0","3457","5870","9","Female","false","false","false","false","""event"",""trial"",""time""
""blur"",""0"",""0""
""focus"",""1"",""13392""
""fullscreenenter"",""5"",""35815""
""fullscreenexit"",""6"",""38137""
","""event"",""trial"",""time""
""blur"",""0"",""0""
","""event"",""trial"",""time""
""focus"",""1"",""13392""
","""event"",""trial"",""time""
""fullscreenenter"",""5"",""35815""
","""event"",""trial"",""time""
""fullscreenexit"",""6"",""38137""
","582.7000000476837","","49","","","3000","1","","","images/tutgreenplanet.jpg","images/tutalien1","images/tutalien2","null","images/tutalien2","images/t.png","NA","practice","null","","","",""
"d3-animate-choice","38","258864","0.0-38.0","3457","5870","9","Female","false","false","false","false","""event"",""trial"",""time""
""blur"",""0"",""0""
""focus"",""1"",""13392""
""fullscreenenter"",""5"",""35815""
""fullscreenexit"",""6"",""38137""
","""event"",""trial"",""time""
""blur"",""0"",""0""
","""event"",""trial"",""time""
""focus"",""1"",""13392""
","""event"",""trial"",""time""
""fullscreenenter"",""5"",""35815""
","""event"",""trial"",""time""
""fullscreenexit"",""6"",""38137""
","698.7999999523163","","49","","","3000","1","","","images/tutgreenplanet.jpg","images/tutalien1","images/tutalien2","null","images/tutalien2","images/t.png","NA","practice","null","","","",""
"d3-animate-choice","39","261499","0.0-39.0","3457","5870","9","Female","false","false","false","false","""event"",""trial"",""time""
""blur"",""0"",""0""
""focus"",""1"",""13392""
""fullscreenenter"",""5"",""35815""
""fullscreenexit"",""6"",""38137""
","""event"",""trial"",""time""
""blur"",""0"",""0""
","""event"",""trial"",""time""
""focus"",""1"",""13392""
","""event"",""trial"",""time""
""fullscreenenter"",""5"",""35815""
","""event"",""trial"",""time""
""fullscreenexit"",""6"",""38137""
","618.7000000476837","","49","","","3000","1","","","images/tutgreenplanet.jpg","images/tutalien1","images/tutalien2","null","images/tutalien2","images/t.png","NA","practice","null","","","",""
"d3-animate-choice","40","263989","0.0-40.0","3457","5870","9","Female","false","false","false","false","""event"",""trial"",""time""
""blur"",""0"",""0""
""focus"",""1"",""13392""
""fullscreenenter"",""5"",""35815""
""fullscreenexit"",""6"",""38137""
","""event"",""trial"",""time""
""blur"",""0"",""0""
","""event"",""trial"",""time""
""focus"",""1"",""13392""
","""event"",""trial"",""time""
""fullscreenenter"",""5"",""35815""
","""event"",""trial"",""time""
""fullscreenexit"",""6"",""38137""
","462.7000000476837","","49","","","3000","1","","","images/tutgreenplanet.jpg","images/tutalien1","images/tutalien2","null","images/tutalien2","images/t.png","NA","practice","null","","","",""
"d3-animate-choice","41","266520","0.0-41.0","3457","5870","9","Female","false","false","false","false","""event"",""trial"",""time""
""blur"",""0"",""0""
""focus"",""1"",""13392""
""fullscreenenter"",""5"",""35815""
""fullscreenexit"",""6"",""38137""
","""event"",""trial"",""time""
""blur"",""0"",""0""
","""event"",""trial"",""time""
""focus"",""1"",""13392""
","""event"",""trial"",""time""
""fullscreenenter"",""5"",""35815""
","""event"",""trial"",""time""
""fullscreenexit"",""6"",""38137""
","501.5","","49","","","3000","1","","","images/tutgreenplanet.jpg","images/tutalien1","images/tutalien2","null","images/tutalien2","images/t.png","NA","practice","null","","","",""
"d3-animate-choice","42","268949","0.0-42.0","3457","5870","9","Female","false","false","false","false","""event"",""trial"",""time""
""blur"",""0"",""0""
""focus"",""1"",""13392""
""fullscreenenter"",""5"",""35815""
""fullscreenexit"",""6"",""38137""
","""event"",""trial"",""time""
""blur"",""0"",""0""
","""event"",""trial"",""time""
""focus"",""1"",""13392""
","""event"",""trial"",""time""
""fullscreenenter"",""5"",""35815""
","""event"",""trial"",""time""
""fullscreenexit"",""6"",""38137""
","411.10000002384186","","49","","","3000","1","","","images/tutgreenplanet.jpg","images/tutalien1","images/tutalien2","null","images/tutalien2","images/t.png","NA","practice","null","","","",""
"d3-animate-choice","43","271390","0.0-43.0","3457","5870","9","Female","false","false","false","false","""event"",""trial"",""time""
""blur"",""0"",""0""
""focus"",""1"",""13392""
""fullscreenenter"",""5"",""35815""
""fullscreenexit"",""6"",""38137""
","""event"",""trial"",""time""
""blur"",""0"",""0""
","""event"",""trial"",""time""
""focus"",""1"",""13392""
","""event"",""trial"",""time""
""fullscreenenter"",""5"",""35815""
","""event"",""trial"",""time""
""fullscreenexit"",""6"",""38137""
","428.09999990463257","","49","","","3000","1","","","images/tutgreenplanet.jpg","images/tutalien1","images/tutalien2","null","images/tutalien2","images/t.png","NA","practice","null","","","",""
"d3-instructions","44","284477","0.0-44.0","3457","5870","9","Female","false","false","false","false","""event"",""trial"",""time""
""blur"",""0"",""0""
""focus"",""1"",""13392""
""fullscreenenter"",""5"",""35815""
""fullscreenexit"",""6"",""38137""
","""event"",""trial"",""time""
""blur"",""0"",""0""
","""event"",""trial"",""time""
""focus"",""1"",""13392""
","""event"",""trial"",""time""
""fullscreenenter"",""5"",""35815""
","""event"",""trial"",""time""
""fullscreenexit"",""6"",""38137""
","","","","","","","","","","","","","","","","","","","","","",""
"d3-instructions","45","290918","0.0-45.0","3457","5870","9","Female","false","false","false","false","""event"",""trial"",""time""
""blur"",""0"",""0""
""focus"",""1"",""13392""
""fullscreenenter"",""5"",""35815""
""fullscreenexit"",""6"",""38137""
","""event"",""trial"",""time""
""blur"",""0"",""0""
","""event"",""trial"",""time""
""focus"",""1"",""13392""
","""event"",""trial"",""time""
""fullscreenenter"",""5"",""35815""
","""event"",""trial"",""time""
""fullscreenexit"",""6"",""38137""
","","","","","","","","","","","","","","","","","","","","","",""
"d3-instructions","46","296158","0.0-46.0","3457","5870","9","Female","false","false","false","false","""event"",""trial"",""time""
""blur"",""0"",""0""
""focus"",""1"",""13392""
""fullscreenenter"",""5"",""35815""
""fullscreenexit"",""6"",""38137""
","""event"",""trial"",""time""
""blur"",""0"",""0""
","""event"",""trial"",""time""
""focus"",""1"",""13392""
","""event"",""trial"",""time""
""fullscreenenter"",""5"",""35815""
","""event"",""trial"",""time""
""fullscreenexit"",""6"",""38137""
","","","","","","","","","","","","","","","","","","","","","",""
"d3-instructions","47","312967","0.0-47.0","3457","5870","9","Female","false","false","false","false","""event"",""trial"",""time""
""blur"",""0"",""0""
""focus"",""1"",""13392""
""fullscreenenter"",""5"",""35815""
""fullscreenexit"",""6"",""38137""
","""event"",""trial"",""time""
""blur"",""0"",""0""
","""event"",""trial"",""time""
""focus"",""1"",""13392""
","""event"",""trial"",""time""
""fullscreenenter"",""5"",""35815""
","""event"",""trial"",""time""
""fullscreenexit"",""6"",""38137""
","","","","","","","","","","","","","","","","","","","","","",""
"d3-instructions","48","319757","0.0-48.0","3457","5870","9","Female","false","false","false","false","""event"",""trial"",""time""
""blur"",""0"",""0""
""focus"",""1"",""13392""
""fullscreenenter"",""5"",""35815""
""fullscreenexit"",""6"",""38137""
","""event"",""trial"",""time""
""blur"",""0"",""0""
","""event"",""trial"",""time""
""focus"",""1"",""13392""
","""event"",""trial"",""time""
""fullscreenenter"",""5"",""35815""
","""event"",""trial"",""time""
""fullscreenexit"",""6"",""38137""
","","","","","","","","","","","","","","","","","","","","","",""
"d3-instructions","49","331303","0.0-49.0","3457","5870","9","Female","false","false","false","false","""event"",""trial"",""time""
""blur"",""0"",""0""
""focus"",""1"",""13392""
""fullscreenenter"",""5"",""35815""
""fullscreenexit"",""6"",""38137""
","""event"",""trial"",""time""
""blur"",""0"",""0""
","""event"",""trial"",""time""
""focus"",""1"",""13392""
","""event"",""trial"",""time""
""fullscreenenter"",""5"",""35815""
","""event"",""trial"",""time""
""fullscreenexit"",""6"",""38137""
","","","","","","","","","","","","","","","","","","","","","",""
"d3-instructions","50","340296","0.0-50.0","3457","5870","9","Female","false","false","false","false","""event"",""trial"",""time""
""blur"",""0"",""0""
""focus"",""1"",""13392""
""fullscreenenter"",""5"",""35815""
""fullscreenexit"",""6"",""38137""
","""event"",""trial"",""time""
""blur"",""0"",""0""
","""event"",""trial"",""time""
""focus"",""1"",""13392""
","""event"",""trial"",""time""
""fullscreenenter"",""5"",""35815""
","""event"",""trial"",""time""
""fullscreenexit"",""6"",""38137""
","","","","","","","","","","","","","","","","","","","","","",""
"d3-instructions","51","343016","0.0-51.0","3457","5870","9","Female","false","false","false","false","""event"",""trial"",""time""
""blur"",""0"",""0""
""focus"",""1"",""13392""
""fullscreenenter"",""5"",""35815""
""fullscreenexit"",""6"",""38137""
","""event"",""trial"",""time""
""blur"",""0"",""0""
","""event"",""trial"",""time""
""focus"",""1"",""13392""
","""event"",""trial"",""time""
""fullscreenenter"",""5"",""35815""
","""event"",""trial"",""time""
""fullscreenexit"",""6"",""38137""
","","","","","","","","","","","","","","","","","","","","","",""
"d3-instructions","52","345480","0.0-52.0","3457","5870","9","Female","false","false","false","false","""event"",""trial"",""time""
""blur"",""0"",""0""
""focus"",""1"",""13392""
""fullscreenenter"",""5"",""35815""
""fullscreenexit"",""6"",""38137""
","""event"",""trial"",""time""
""blur"",""0"",""0""
","""event"",""trial"",""time""
""focus"",""1"",""13392""
","""event"",""trial"",""time""
""fullscreenenter"",""5"",""35815""
","""event"",""trial"",""time""
""fullscreenexit"",""6"",""38137""
","","","","","","","","","","","","","","","","","","","","","",""
"d3-instructions","53","358272","0.0-53.0","3457","5870","9","Female","false","false","false","false","""event"",""trial"",""time""
""blur"",""0"",""0""
""focus"",""1"",""13392""
""fullscreenenter"",""5"",""35815""
""fullscreenexit"",""6"",""38137""
","""event"",""trial"",""time""
""blur"",""0"",""0""
","""event"",""trial"",""time""
""focus"",""1"",""13392""
","""event"",""trial"",""time""
""fullscreenenter"",""5"",""35815""
","""event"",""trial"",""time""
""fullscreenexit"",""6"",""38137""
","","","","","","","","","","","","","","","","","","","","","",""
"d3-instructions","54","385217","0.0-54.0","3457","5870","9","Female","false","false","false","false","""event"",""trial"",""time""
""blur"",""0"",""0""
""focus"",""1"",""13392""
""fullscreenenter"",""5"",""35815""
""fullscreenexit"",""6"",""38137""
","""event"",""trial"",""time""
""blur"",""0"",""0""
","""event"",""trial"",""time""
""focus"",""1"",""13392""
","""event"",""trial"",""time""
""fullscreenenter"",""5"",""35815""
","""event"",""trial"",""time""
""fullscreenexit"",""6"",""38137""
","","","","","","","","","","","","","","","","","","","","","",""
"d3-instructions","55","395489","0.0-55.0","3457","5870","9","Female","false","false","false","false","""event"",""trial"",""time""
""blur"",""0"",""0""
""focus"",""1"",""13392""
""fullscreenenter"",""5"",""35815""
""fullscreenexit"",""6"",""38137""
","""event"",""trial"",""time""
""blur"",""0"",""0""
","""event"",""trial"",""time""
""focus"",""1"",""13392""
","""event"",""trial"",""time""
""fullscreenenter"",""5"",""35815""
","""event"",""trial"",""time""
""fullscreenexit"",""6"",""38137""
","","","","","","","","","","","","","","","","","","","","","",""
"d3-instructions","56","403768","0.0-56.0","3457","5870","9","Female","false","false","false","false","""event"",""trial"",""time""
""blur"",""0"",""0""
""focus"",""1"",""13392""
""fullscreenenter"",""5"",""35815""
""fullscreenexit"",""6"",""38137""
","""event"",""trial"",""time""
""blur"",""0"",""0""
","""event"",""trial"",""time""
""focus"",""1"",""13392""
","""event"",""trial"",""time""
""fullscreenenter"",""5"",""35815""
","""event"",""trial"",""time""
""fullscreenexit"",""6"",""38137""
","","","","","","","","","","","","","","","","","","","","","",""
"d3-instructions","57","414282","0.0-57.0","3457","5870","9","Female","false","false","false","false","""event"",""trial"",""time""
""blur"",""0"",""0""
""focus"",""1"",""13392""
""fullscreenenter"",""5"",""35815""
""fullscreenexit"",""6"",""38137""
","""event"",""trial"",""time""
""blur"",""0"",""0""
","""event"",""trial"",""time""
""focus"",""1"",""13392""
","""event"",""trial"",""time""
""fullscreenenter"",""5"",""35815""
","""event"",""trial"",""time""
""fullscreenexit"",""6"",""38137""
","","","","","","","","","","","","","","","","","","","","","",""
"d3-instructions","58","427851","0.0-58.0","3457","5870","9","Female","false","false","false","false","""event"",""trial"",""time""
""blur"",""0"",""0""
""focus"",""1"",""13392""
""fullscreenenter"",""5"",""35815""
""fullscreenexit"",""6"",""38137""
","""event"",""trial"",""time""
""blur"",""0"",""0""
","""event"",""trial"",""time""
""focus"",""1"",""13392""
","""event"",""trial"",""time""
""fullscreenenter"",""5"",""35815""
","""event"",""trial"",""time""
""fullscreenexit"",""6"",""38137""
","","","","","","","","","","","","","","","","","","","","","",""
"d3-instructions","59","435371","0.0-59.0","3457","5870","9","Female","false","false","false","false","""event"",""trial"",""time""
""blur"",""0"",""0""
""focus"",""1"",""13392""
""fullscreenenter"",""5"",""35815""
""fullscreenexit"",""6"",""38137""
","""event"",""trial"",""time""
""blur"",""0"",""0""
","""event"",""trial"",""time""
""focus"",""1"",""13392""
","""event"",""trial"",""time""
""fullscreenenter"",""5"",""35815""
","""event"",""trial"",""time""
""fullscreenexit"",""6"",""38137""
","","","","","","","","","","","","","","","","","","","","","",""
"d3-instructions","60","445203","0.0-60.0","3457","5870","9","Female","false","false","false","false","""event"",""trial"",""time""
""blur"",""0"",""0""
""focus"",""1"",""13392""
""fullscreenenter"",""5"",""35815""
""fullscreenexit"",""6"",""38137""
","""event"",""trial"",""time""
""blur"",""0"",""0""
","""event"",""trial"",""time""
""focus"",""1"",""13392""
","""event"",""trial"",""time""
""fullscreenenter"",""5"",""35815""
","""event"",""trial"",""time""
""fullscreenexit"",""6"",""38137""
","","","","","","","","","","","","","","","","","","","","","",""
"d3-animate-choice","61","448000","0.0-61.0-0.0","3457","5870","9","Female","false","false","false","false","""event"",""trial"",""time""
""blur"",""0"",""0""
""focus"",""1"",""13392""
""fullscreenenter"",""5"",""35815""
""fullscreenexit"",""6"",""38137""
","""event"",""trial"",""time""
""blur"",""0"",""0""
","""event"",""trial"",""time""
""focus"",""1"",""13392""
","""event"",""trial"",""time""
""fullscreenenter"",""5"",""35815""
","""event"",""trial"",""time""
""fullscreenexit"",""6"",""38137""
","786.8000000715256","","48","","","3000","1","","","images/earth.jpg","images/tutrocket1","images/tutrocket2","null","images/tutrocket1","","1","practice","null","2","","",""
"d3-animate-choice","62","451086","0.0-61.0-1.0","3457","5870","9","Female","false","false","false","false","""event"",""trial"",""time""
""blur"",""0"",""0""
""focus"",""1"",""13392""
""fullscreenenter"",""5"",""35815""
""fullscreenexit"",""6"",""38137""
","""event"",""trial"",""time""
""blur"",""0"",""0""
","""event"",""trial"",""time""
""focus"",""1"",""13392""
","""event"",""trial"",""time""
""fullscreenenter"",""5"",""35815""
","""event"",""trial"",""time""
""fullscreenexit"",""6"",""38137""
","1067.6000000238419","","49","","","3000","1","","","images/tutyellowplanet.jpg","images/tutalien4","images/tutalien3","images/tutrocket1","images/tutalien3","images/nothing.png","2","practice","true","1","common","0","2023-01-20 23:43:24.366"
"two-step-fixation","63","452107","0.0-61.0-2.0","3457","5870","9","Female","false","false","false","false","""event"",""trial"",""time""
""blur"",""0"",""0""
""focus"",""1"",""13392""
""fullscreenenter"",""5"",""35815""
""fullscreenexit"",""6"",""38137""
","""event"",""trial"",""time""
""blur"",""0"",""0""
","""event"",""trial"",""time""
""focus"",""1"",""13392""
","""event"",""trial"",""time""
""fullscreenenter"",""5"",""35815""
","""event"",""trial"",""time""
""fullscreenexit"",""6"",""38137""
","","images/earth.jpg","","","","","","","","","","","","","","fixation","","","","","",""
"d3-animate-choice","64","456116","0.0-61.0-0.1","3457","5870","9","Female","false","false","false","false","""event"",""trial"",""time""
""blur"",""0"",""0""
""focus"",""1"",""13392""
""fullscreenenter"",""5"",""35815""
""fullscreenexit"",""6"",""38137""
","""event"",""trial"",""time""
""blur"",""0"",""0""
","""event"",""trial"",""time""
""focus"",""1"",""13392""
","""event"",""trial"",""time""
""fullscreenenter"",""5"",""35815""
","""event"",""trial"",""time""
""fullscreenexit"",""6"",""38137""
","1701.3000000715256","","57","","","3000","1","2438.7000000476837","48","images/earth.jpg","images/tutrocket1","images/tutrocket2","null","images/tutrocket1","","1","practice","null","","","",""
"d3-animate-choice","65","458977","0.0-61.0-1.1","3457","5870","9","Female","false","false","false","false","""event"",""trial"",""time""
""blur"",""0"",""0""
""focus"",""1"",""13392""
""fullscreenenter"",""5"",""35815""
""fullscreenexit"",""6"",""38137""
","""event"",""trial"",""time""
""blur"",""0"",""0""
","""event"",""trial"",""time""
""focus"",""1"",""13392""
","""event"",""trial"",""time""
""fullscreenenter"",""5"",""35815""
","""event"",""trial"",""time""
""fullscreenexit"",""6"",""38137""
","843.3999999761581","","49","","","3000","1","","","images/tutyellowplanet.jpg","images/tutalien4","images/tutalien3","images/tutrocket1","images/tutalien3","images/nothing.png","2","practice","true","1","common","0","2023-01-20 23:43:32.257"
"two-step-fixation","66","459997","0.0-61.0-2.1","3457","5870","9","Female","false","false","false","false","""event"",""trial"",""time""
""blur"",""0"",""0""
""focus"",""1"",""13392""
""fullscreenenter"",""5"",""35815""
""fullscreenexit"",""6"",""38137""
","""event"",""trial"",""time""
""blur"",""0"",""0""
","""event"",""trial"",""time""
""focus"",""1"",""13392""
","""event"",""trial"",""time""
""fullscreenenter"",""5"",""35815""
","""event"",""trial"",""time""
""fullscreenexit"",""6"",""38137""
","","images/earth.jpg","","","","","","","","","","","","","","fixation","","","","","",""
"d3-animate-choice","67","463128","0.0-61.0-0.2","3457","5870","9","Female","false","false","false","false","""event"",""trial"",""time""
""blur"",""0"",""0""
""focus"",""1"",""13392""
""fullscreenenter"",""5"",""35815""
""fullscreenexit"",""6"",""38137""
","""event"",""trial"",""time""
""blur"",""0"",""0""
","""event"",""trial"",""time""
""focus"",""1"",""13392""
","""event"",""trial"",""time""
""fullscreenenter"",""5"",""35815""
","""event"",""trial"",""time""
""fullscreenexit"",""6"",""38137""
","1122.2000000476837","","49","","","3000","1","","","images/earth.jpg","images/tutrocket1","images/tutrocket2","null","images/tutrocket2","","1","practice","null","1","","",""
"d3-animate-choice","68","466037","0.0-61.0-1.2","3457","5870","9","Female","false","false","false","false","""event"",""trial"",""time""
""blur"",""0"",""0""
""focus"",""1"",""13392""
""fullscreenenter"",""5"",""35815""
""fullscreenexit"",""6"",""38137""
","""event"",""trial"",""time""
""blur"",""0"",""0""
","""event"",""trial"",""time""
""focus"",""1"",""13392""
","""event"",""trial"",""time""
""fullscreenenter"",""5"",""35815""
","""event"",""trial"",""time""
""fullscreenexit"",""6"",""38137""
","895.5999999046326","","48","","","3000","1","","","images/tutgreenplanet.jpg","images/tutalien2","images/tutalien1","images/tutrocket2","images/tutalien2","images/t.png","2","practice","true","2","common","1","2023-01-20 23:43:39.317"
"two-step-fixation","69","467057","0.0-61.0-2.2","3457","5870","9","Female","false","false","false","false","""event"",""trial"",""time""
""blur"",""0"",""0""
""focus"",""1"",""13392""
""fullscreenenter"",""5"",""35815""
""fullscreenexit"",""6"",""38137""
","""event"",""trial"",""time""
""blur"",""0"",""0""
","""event"",""trial"",""time""
""focus"",""1"",""13392""
","""event"",""trial"",""time""
""fullscreenenter"",""5"",""35815""
","""event"",""trial"",""time""
""fullscreenexit"",""6"",""38137""
","","images/earth.jpg","","","","","","","","","","","","","","fixation","","","","","",""
"d3-animate-choice","70","469707","0.0-61.0-0.3","3457","5870","9","Female","false","false","false","false","""event"",""trial"",""time""
""blur"",""0"",""0""
""focus"",""1"",""13392""
""fullscreenenter"",""5"",""35815""
""fullscreenexit"",""6"",""38137""
","""event"",""trial"",""time""
""blur"",""0"",""0""
","""event"",""trial"",""time""
""focus"",""1"",""13392""
","""event"",""trial"",""time""
""fullscreenenter"",""5"",""35815""
","""event"",""trial"",""time""
""fullscreenexit"",""6"",""38137""
","631.1000000238419","","48","","","3000","1","","","images/earth.jpg","images/tutrocket1","images/tutrocket2","null","images/tutrocket1","","1","practice","null","2","","",""
"d3-animate-choice","71","472319","0.0-61.0-1.3","3457","5870","9","Female","false","false","false","false","""event"",""trial"",""time""
""blur"",""0"",""0""
""focus"",""1"",""13392""
""fullscreenenter"",""5"",""35815""
""fullscreenexit"",""6"",""38137""
","""event"",""trial"",""time""
""blur"",""0"",""0""
","""event"",""trial"",""time""
""focus"",""1"",""13392""
","""event"",""trial"",""time""
""fullscreenenter"",""5"",""35815""
","""event"",""trial"",""time""
""fullscreenexit"",""6"",""38137""
","608","","48","","","3000","1","","","images/tutyellowplanet.jpg","images/tutalien4","images/tutalien3","images/tutrocket1","images/tutalien4","images/nothing.png","2","practice","true","2","common","0","2023-01-20 23:43:45.599"
"two-step-fixation","72","473327","0.0-61.0-2.3","3457","5870","9","Female","false","false","false","false","""event"",""trial"",""time""
""blur"",""0"",""0""
""focus"",""1"",""13392""
""fullscreenenter"",""5"",""35815""
""fullscreenexit"",""6"",""38137""
","""event"",""trial"",""time""
""blur"",""0"",""0""
","""event"",""trial"",""time""
""focus"",""1"",""13392""
","""event"",""trial"",""time""
""fullscreenenter"",""5"",""35815""
","""event"",""trial"",""time""
""fullscreenexit"",""6"",""38137""
","","images/earth.jpg","","","","","","","","","","","","","","fixation","","","","","",""
"d3-animate-choice","73","475775","0.0-61.0-0.4","3457","5870","9","Female","false","false","false","false","""event"",""trial"",""time""
""blur"",""0"",""0""
""focus"",""1"",""13392""
""fullscreenenter"",""5"",""35815""
""fullscreenexit"",""6"",""38137""
","""event"",""trial"",""time""
""blur"",""0"",""0""
","""event"",""trial"",""time""
""focus"",""1"",""13392""
","""event"",""trial"",""time""
""fullscreenenter"",""5"",""35815""
","""event"",""trial"",""time""
""fullscreenexit"",""6"",""38137""
","440.39999997615814","","49","","","3000","1","","","images/earth.jpg","images/tutrocket1","images/tutrocket2","null","images/tutrocket2","","1","practice","null","1","","",""
"d3-animate-choice","74","478367","0.0-61.0-1.4","3457","5870","9","Female","false","false","false","false","""event"",""trial"",""time""
""blur"",""0"",""0""
""focus"",""1"",""13392""
""fullscreenenter"",""5"",""35815""
""fullscreenexit"",""6"",""38137""
","""event"",""trial"",""time""
""blur"",""0"",""0""
","""event"",""trial"",""time""
""focus"",""1"",""13392""
","""event"",""trial"",""time""
""fullscreenenter"",""5"",""35815""
","""event"",""trial"",""time""
""fullscreenexit"",""6"",""38137""
","586.8999999761581","","48","","","3000","1","","","images/tutgreenplanet.jpg","images/tutalien2","images/tutalien1","images/tutrocket2","images/tutalien2","images/t.png","2","practice","true","2","common","1","2023-01-20 23:43:51.647"
"two-step-fixation","75","479375","0.0-61.0-2.4","3457","5870","9","Female","false","false","false","false","""event"",""trial"",""time""
""blur"",""0"",""0""
""focus"",""1"",""13392""
""fullscreenenter"",""5"",""35815""
""fullscreenexit"",""6"",""38137""
","""event"",""trial"",""time""
""blur"",""0"",""0""
","""event"",""trial"",""time""
""focus"",""1"",""13392""
","""event"",""trial"",""time""
""fullscreenenter"",""5"",""35815""
","""event"",""trial"",""time""
""fullscreenexit"",""6"",""38137""
","","images/earth.jpg","","","","","","","","","","","","","","fixation","","","","","",""
"d3-animate-choice","76","481766","0.0-61.0-0.5","3457","5870","9","Female","false","false","false","false","""event"",""trial"",""time""
""blur"",""0"",""0""
""focus"",""1"",""13392""
""fullscreenenter"",""5"",""35815""
""fullscreenexit"",""6"",""38137""
","""event"",""trial"",""time""
""blur"",""0"",""0""
","""event"",""trial"",""time""
""focus"",""1"",""13392""
","""event"",""trial"",""time""
""fullscreenenter"",""5"",""35815""
","""event"",""trial"",""time""
""fullscreenexit"",""6"",""38137""
","383.2000000476837","","49","","","3000","1","","","images/earth.jpg","images/tutrocket1","images/tutrocket2","null","images/tutrocket2","","1","practice","null","1","","",""
"d3-animate-choice","77","484357","0.0-61.0-1.5","3457","5870","9","Female","false","false","false","false","""event"",""trial"",""time""
""blur"",""0"",""0""
""focus"",""1"",""13392""
""fullscreenenter"",""5"",""35815""
""fullscreenexit"",""6"",""38137""
","""event"",""trial"",""time""
""blur"",""0"",""0""
","""event"",""trial"",""time""
""focus"",""1"",""13392""
","""event"",""trial"",""time""
""fullscreenenter"",""5"",""35815""
","""event"",""trial"",""time""
""fullscreenexit"",""6"",""38137""
","586.3000000715256","","48","","","3000","1","","","images/tutgreenplanet.jpg","images/tutalien2","images/tutalien1","images/tutrocket2","images/tutalien2","images/nothing.png","2","practice","true","2","common","0","2023-01-20 23:43:57.637"
"two-step-fixation","78","485366","0.0-61.0-2.5","3457","5870","9","Female","false","false","false","false","""event"",""trial"",""time""
""blur"",""0"",""0""
""focus"",""1"",""13392""
""fullscreenenter"",""5"",""35815""
""fullscreenexit"",""6"",""38137""
","""event"",""trial"",""time""
""blur"",""0"",""0""
","""event"",""trial"",""time""
""focus"",""1"",""13392""
","""event"",""trial"",""time""
""fullscreenenter"",""5"",""35815""
","""event"",""trial"",""time""
""fullscreenexit"",""6"",""38137""
","","images/earth.jpg","","","","","","","","","","","","","","fixation","","","","","",""
"d3-animate-choice","79","487382","0.0-61.0-0.6","3457","5870","9","Female","false","false","false","false","""event"",""trial"",""time""
""blur"",""0"",""0""
""focus"",""1"",""13392""
""fullscreenenter"",""5"",""35815""
""fullscreenexit"",""6"",""38137""
","""event"",""trial"",""time""
""blur"",""0"",""0""
","""event"",""trial"",""time""
""focus"",""1"",""13392""
","""event"",""trial"",""time""
""fullscreenenter"",""5"",""35815""
","""event"",""trial"",""time""
""fullscreenexit"",""6"",""38137""
","8.100000023841858","","49","","","3000","1","","","images/earth.jpg","images/tutrocket1","images/tutrocket2","null","images/tutrocket2","","1","practice","null","1","","",""
"d3-animate-choice","80","489927","0.0-61.0-1.6","3457","5870","9","Female","false","false","false","false","""event"",""trial"",""time""
""blur"",""0"",""0""
""focus"",""1"",""13392""
""fullscreenenter"",""5"",""35815""
""fullscreenexit"",""6"",""38137""
","""event"",""trial"",""time""
""blur"",""0"",""0""
","""event"",""trial"",""time""
""focus"",""1"",""13392""
","""event"",""trial"",""time""
""fullscreenenter"",""5"",""35815""
","""event"",""trial"",""time""
""fullscreenexit"",""6"",""38137""
","530.9000000953674","","48","","","3000","1","","","images/tutgreenplanet.jpg","images/tutalien2","images/tutalien1","images/tutrocket2","images/tutalien2","images/nothing.png","2","practice","true","2","common","0","2023-01-20 23:44:03.207"
"two-step-fixation","81","490934","0.0-61.0-2.6","3457","5870","9","Female","false","false","false","false","""event"",""trial"",""time""
""blur"",""0"",""0""
""focus"",""1"",""13392""
""fullscreenenter"",""5"",""35815""
""fullscreenexit"",""6"",""38137""
","""event"",""trial"",""time""
""blur"",""0"",""0""
","""event"",""trial"",""time""
""focus"",""1"",""13392""
","""event"",""trial"",""time""
""fullscreenenter"",""5"",""35815""
","""event"",""trial"",""time""
""fullscreenexit"",""6"",""38137""
","","images/earth.jpg","","","","","","","","","","","","","","fixation","","","","","",""
"d3-animate-choice","82","493550","0.0-61.0-0.7","3457","5870","9","Female","false","false","false","false","""event"",""trial"",""time""
""blur"",""0"",""0""
""focus"",""1"",""13392""
""fullscreenenter"",""5"",""35815""
""fullscreenexit"",""6"",""38137""
","""event"",""trial"",""time""
""blur"",""0"",""0""
","""event"",""trial"",""time""
""focus"",""1"",""13392""
","""event"",""trial"",""time""
""fullscreenenter"",""5"",""35815""
","""event"",""trial"",""time""
""fullscreenexit"",""6"",""38137""
","612.8000000715256","","49","","","3000","1","","","images/earth.jpg","images/tutrocket1","images/tutrocket2","null","images/tutrocket2","","1","practice","null","1","","",""
"d3-animate-choice","83","495958","0.0-61.0-1.7","3457","5870","9","Female","false","false","false","false","""event"",""trial"",""time""
""blur"",""0"",""0""
""focus"",""1"",""13392""
""fullscreenenter"",""5"",""35815""
""fullscreenexit"",""6"",""38137""
","""event"",""trial"",""time""
""blur"",""0"",""0""
","""event"",""trial"",""time""
""focus"",""1"",""13392""
","""event"",""trial"",""time""
""fullscreenenter"",""5"",""35815""
","""event"",""trial"",""time""
""fullscreenexit"",""6"",""38137""
","401.2000000476837","","49","","","3000","1","","","images/tutgreenplanet.jpg","images/tutalien2","images/tutalien1","images/tutrocket2","images/tutalien1","images/nothing.png","2","practice","true","1","common","0","2023-01-20 23:44:09.238"
"two-step-fixation","84","496965","0.0-61.0-2.7","3457","5870","9","Female","false","false","false","false","""event"",""trial"",""time""
""blur"",""0"",""0""
""focus"",""1"",""13392""
""fullscreenenter"",""5"",""35815""
""fullscreenexit"",""6"",""38137""
","""event"",""trial"",""time""
""blur"",""0"",""0""
","""event"",""trial"",""time""
""focus"",""1"",""13392""
","""event"",""trial"",""time""
""fullscreenenter"",""5"",""35815""
","""event"",""trial"",""time""
""fullscreenexit"",""6"",""38137""
","","images/earth.jpg","","","","","","","","","","","","","","fixation","","","","","",""
"d3-animate-choice","85","499399","0.0-61.0-0.8","3457","5870","9","Female","false","false","false","false","""event"",""trial"",""time""
""blur"",""0"",""0""
""focus"",""1"",""13392""
""fullscreenenter"",""5"",""35815""
""fullscreenexit"",""6"",""38137""
","""event"",""trial"",""time""
""blur"",""0"",""0""
","""event"",""trial"",""time""
""focus"",""1"",""13392""
","""event"",""trial"",""time""
""fullscreenenter"",""5"",""35815""
","""event"",""trial"",""time""
""fullscreenexit"",""6"",""38137""
","421.2999999523163","","48","","","3000","1","","","images/earth.jpg","images/tutrocket1","images/tutrocket2","null","images/tutrocket1","","1","practice","null","2","","",""
"d3-animate-choice","86","502070","0.0-61.0-1.8","3457","5870","9","Female","false","false","false","false","""event"",""trial"",""time""
""blur"",""0"",""0""
""focus"",""1"",""13392""
""fullscreenenter"",""5"",""35815""
""fullscreenexit"",""6"",""38137""
","""event"",""trial"",""time""
""blur"",""0"",""0""
","""event"",""trial"",""time""
""focus"",""1"",""13392""
","""event"",""trial"",""time""
""fullscreenenter"",""5"",""35815""
","""event"",""trial"",""time""
""fullscreenexit"",""6"",""38137""
","663.7000000476837","","48","","","3000","1","","","images/tutyellowplanet.jpg","images/tutalien4","images/tutalien3","images/tutrocket1","images/tutalien4","images/t.png","2","practice","true","2","common","1","2023-01-20 23:44:15.350"
"two-step-fixation","87","503078","0.0-61.0-2.8","3457","5870","9","Female","false","false","false","false","""event"",""trial"",""time""
""blur"",""0"",""0""
""focus"",""1"",""13392""
""fullscreenenter"",""5"",""35815""
""fullscreenexit"",""6"",""38137""
","""event"",""trial"",""time""
""blur"",""0"",""0""
","""event"",""trial"",""time""
""focus"",""1"",""13392""
","""event"",""trial"",""time""
""fullscreenenter"",""5"",""35815""
","""event"",""trial"",""time""
""fullscreenexit"",""6"",""38137""
","","images/earth.jpg","","","","","","","","","","","","","","fixation","","","","","",""
"d3-animate-choice","88","505223","0.0-61.0-0.9","3457","5870","9","Female","false","false","false","false","""event"",""trial"",""time""
""blur"",""0"",""0""
""focus"",""1"",""13392""
""fullscreenenter"",""5"",""35815""
""fullscreenexit"",""6"",""38137""
","""event"",""trial"",""time""
""blur"",""0"",""0""
","""event"",""trial"",""time""
""focus"",""1"",""13392""
","""event"",""trial"",""time""
""fullscreenenter"",""5"",""35815""
","""event"",""trial"",""time""
""fullscreenexit"",""6"",""38137""
","133.20000004768372","","48","","","3000","1","","","images/earth.jpg","images/tutrocket1","images/tutrocket2","null","images/tutrocket1","","1","practice","null","2","","",""
"d3-animate-choice","89","507670","0.0-61.0-1.9","3457","5870","9","Female","false","false","false","false","""event"",""trial"",""time""
""blur"",""0"",""0""
""focus"",""1"",""13392""
""fullscreenenter"",""5"",""35815""
""fullscreenexit"",""6"",""38137""
","""event"",""trial"",""time""
""blur"",""0"",""0""
","""event"",""trial"",""time""
""focus"",""1"",""13392""
","""event"",""trial"",""time""
""fullscreenenter"",""5"",""35815""
","""event"",""trial"",""time""
""fullscreenexit"",""6"",""38137""
","441.60000002384186","","48","","","3000","1","","","images/tutyellowplanet.jpg","images/tutalien4","images/tutalien3","images/tutrocket1","images/tutalien4","images/t.png","2","practice","true","2","common","1","2023-01-20 23:44:20.950"
"two-step-fixation","90","508676","0.0-61.0-2.9","3457","5870","9","Female","false","false","false","false","""event"",""trial"",""time""
""blur"",""0"",""0""
""focus"",""1"",""13392""
""fullscreenenter"",""5"",""35815""
""fullscreenexit"",""6"",""38137""
","""event"",""trial"",""time""
""blur"",""0"",""0""
","""event"",""trial"",""time""
""focus"",""1"",""13392""
","""event"",""trial"",""time""
""fullscreenenter"",""5"",""35815""
","""event"",""trial"",""time""
""fullscreenexit"",""6"",""38137""
","","images/earth.jpg","","","","","","","","","","","","","","fixation","","","","","",""
"d3-animate-choice","91","511335","0.0-61.0-0.10","3457","5870","9","Female","false","false","false","false","""event"",""trial"",""time""
""blur"",""0"",""0""
""focus"",""1"",""13392""
""fullscreenenter"",""5"",""35815""
""fullscreenexit"",""6"",""38137""
","""event"",""trial"",""time""
""blur"",""0"",""0""
","""event"",""trial"",""time""
""focus"",""1"",""13392""
","""event"",""trial"",""time""
""fullscreenenter"",""5"",""35815""
","""event"",""trial"",""time""
""fullscreenexit"",""6"",""38137""
","644.2999999523163","","48","","","3000","1","","","images/earth.jpg","images/tutrocket1","images/tutrocket2","null","images/tutrocket1","","1","practice","null","2","","",""
"d3-animate-choice","92","513991","0.0-61.0-1.10","3457","5870","9","Female","false","false","false","false","""event"",""trial"",""time""
""blur"",""0"",""0""
""focus"",""1"",""13392""
""fullscreenenter"",""5"",""35815""
""fullscreenexit"",""6"",""38137""
","""event"",""trial"",""time""
""blur"",""0"",""0""
","""event"",""trial"",""time""
""focus"",""1"",""13392""
","""event"",""trial"",""time""
""fullscreenenter"",""5"",""35815""
","""event"",""trial"",""time""
""fullscreenexit"",""6"",""38137""
","649.2000000476837","","48","","","3000","1","","","images/tutyellowplanet.jpg","images/tutalien4","images/tutalien3","images/tutrocket1","images/tutalien4","images/t.png","2","practice","true","2","common","1","2023-01-20 23:44:27.271"
"two-step-fixation","93","514998","0.0-61.0-2.10","3457","5870","9","Female","false","false","false","false","""event"",""trial"",""time""
""blur"",""0"",""0""
""focus"",""1"",""13392""
""fullscreenenter"",""5"",""35815""
""fullscreenexit"",""6"",""38137""
","""event"",""trial"",""time""
""blur"",""0"",""0""
","""event"",""trial"",""time""
""focus"",""1"",""13392""
","""event"",""trial"",""time""
""fullscreenenter"",""5"",""35815""
","""event"",""trial"",""time""
""fullscreenexit"",""6"",""38137""
","","images/earth.jpg","","","","","","","","","","","","","","fixation","","","","","",""
"d3-animate-choice","94","517366","0.0-61.0-0.11","3457","5870","9","Female","false","false","false","false","""event"",""trial"",""time""
""blur"",""0"",""0""
""focus"",""1"",""13392""
""fullscreenenter"",""5"",""35815""
""fullscreenexit"",""6"",""38137""
","""event"",""trial"",""time""
""blur"",""0"",""0""
","""event"",""trial"",""time""
""focus"",""1"",""13392""
","""event"",""trial"",""time""
""fullscreenenter"",""5"",""35815""
","""event"",""trial"",""time""
""fullscreenexit"",""6"",""38137""
","355.2000000476837","","48","","","3000","1","","","images/earth.jpg","images/tutrocket1","images/tutrocket2","null","images/tutrocket1","","1","practice","null","2","","",""
"d3-animate-choice","95","520014","0.0-61.0-1.11","3457","5870","9","Female","false","false","false","false","""event"",""trial"",""time""
""blur"",""0"",""0""
""focus"",""1"",""13392""
""fullscreenenter"",""5"",""35815""
""fullscreenexit"",""6"",""38137""
","""event"",""trial"",""time""
""blur"",""0"",""0""
","""event"",""trial"",""time""
""focus"",""1"",""13392""
","""event"",""trial"",""time""
""fullscreenenter"",""5"",""35815""
","""event"",""trial"",""time""
""fullscreenexit"",""6"",""38137""
","635.4000000953674","","48","","","3000","1","","","images/tutyellowplanet.jpg","images/tutalien4","images/tutalien3","images/tutrocket1","images/tutalien4","images/nothing.png","2","practice","true","2","common","0","2023-01-20 23:44:33.294"
"two-step-fixation","96","521022","0.0-61.0-2.11","3457","5870","9","Female","false","false","false","false","""event"",""trial"",""time""
""blur"",""0"",""0""
""focus"",""1"",""13392""
""fullscreenenter"",""5"",""35815""
""fullscreenexit"",""6"",""38137""
","""event"",""trial"",""time""
""blur"",""0"",""0""
","""event"",""trial"",""time""
""focus"",""1"",""13392""
","""event"",""trial"",""time""
""fullscreenenter"",""5"",""35815""
","""event"",""trial"",""time""
""fullscreenexit"",""6"",""38137""
","","images/earth.jpg","","","","","","","","","","","","","","fixation","","","","","",""
"d3-animate-choice","97","523326","0.0-61.0-0.12","3457","5870","9","Female","false","false","false","false","""event"",""trial"",""time""
""blur"",""0"",""0""
""focus"",""1"",""13392""
""fullscreenenter"",""5"",""35815""
""fullscreenexit"",""6"",""38137""
","""event"",""trial"",""time""
""blur"",""0"",""0""
","""event"",""trial"",""time""
""focus"",""1"",""13392""
","""event"",""trial"",""time""
""fullscreenenter"",""5"",""35815""
","""event"",""trial"",""time""
""fullscreenexit"",""6"",""38137""
","290.3000000715256","","48","","","3000","1","","","images/earth.jpg","images/tutrocket1","images/tutrocket2","null","images/tutrocket1","","1","practice","null","2","","",""
"d3-animate-choice","98","525950","0.0-61.0-1.12","3457","5870","9","Female","false","false","false","false","""event"",""trial"",""time""
""blur"",""0"",""0""
""focus"",""1"",""13392""
""fullscreenenter"",""5"",""35815""
""fullscreenexit"",""6"",""38137""
","""event"",""trial"",""time""
""blur"",""0"",""0""
","""event"",""trial"",""time""
""focus"",""1"",""13392""
","""event"",""trial"",""time""
""fullscreenenter"",""5"",""35815""
","""event"",""trial"",""time""
""fullscreenexit"",""6"",""38137""
","612","","49","","","3000","1","","","images/tutyellowplanet.jpg","images/tutalien4","images/tutalien3","images/tutrocket1","images/tutalien3","images/nothing.png","2","practice","true","1","common","0","2023-01-20 23:44:39.230"
"two-step-fixation","99","526957","0.0-61.0-2.12","3457","5870","9","Female","false","false","false","false","""event"",""trial"",""time""
""blur"",""0"",""0""
""focus"",""1"",""13392""
""fullscreenenter"",""5"",""35815""
""fullscreenexit"",""6"",""38137""
","""event"",""trial"",""time""
""blur"",""0"",""0""
","""event"",""trial"",""time""
""focus"",""1"",""13392""
","""event"",""trial"",""time""
""fullscreenenter"",""5"",""35815""
","""event"",""trial"",""time""
""fullscreenexit"",""6"",""38137""
","","images/earth.jpg","","","","","","","","","","","","","","fixation","","","","","",""
"d3-animate-choice","100","529102","0.0-61.0-0.13","3457","5870","9","Female","false","false","false","false","""event"",""trial"",""time""
""blur"",""0"",""0""
""focus"",""1"",""13392""
""fullscreenenter"",""5"",""35815""
""fullscreenexit"",""6"",""38137""
","""event"",""trial"",""time""
""blur"",""0"",""0""
","""event"",""trial"",""time""
""focus"",""1"",""13392""
","""event"",""trial"",""time""
""fullscreenenter"",""5"",""35815""
","""event"",""trial"",""time""
""fullscreenexit"",""6"",""38137""
","141.70000004768372","","48","","","3000","1","","","images/earth.jpg","images/tutrocket1","images/tutrocket2","null","images/tutrocket1","","1","practice","null","2","","",""
"d3-animate-choice","101","531551","0.0-61.0-1.13","3457","5870","9","Female","false","false","false","false","""event"",""trial"",""time""
""blur"",""0"",""0""
""focus"",""1"",""13392""
""fullscreenenter"",""5"",""35815""
""fullscreenexit"",""6"",""38137""
","""event"",""trial"",""time""
""blur"",""0"",""0""
","""event"",""trial"",""time""
""focus"",""1"",""13392""
","""event"",""trial"",""time""
""fullscreenenter"",""5"",""35815""
","""event"",""trial"",""time""
""fullscreenexit"",""6"",""38137""
","436.5","","48","","","3000","1","","","images/tutyellowplanet.jpg","images/tutalien4","images/tutalien3","images/tutrocket1","images/tutalien4","images/t.png","2","practice","true","2","common","1","2023-01-20 23:44:44.831"
"two-step-fixation","102","532559","0.0-61.0-2.13","3457","5870","9","Female","false","false","false","false","""event"",""trial"",""time""
""blur"",""0"",""0""
""focus"",""1"",""13392""
""fullscreenenter"",""5"",""35815""
""fullscreenexit"",""6"",""38137""
","""event"",""trial"",""time""
""blur"",""0"",""0""
","""event"",""trial"",""time""
""focus"",""1"",""13392""
","""event"",""trial"",""time""
""fullscreenenter"",""5"",""35815""
","""event"",""trial"",""time""
""fullscreenexit"",""6"",""38137""
","","images/earth.jpg","","","","","","","","","","","","","","fixation","","","","","",""
"d3-animate-choice","103","534966","0.0-61.0-0.14","3457","5870","9","Female","false","false","false","false","""event"",""trial"",""time""
""blur"",""0"",""0""
""focus"",""1"",""13392""
""fullscreenenter"",""5"",""35815""
""fullscreenexit"",""6"",""38137""
","""event"",""trial"",""time""
""blur"",""0"",""0""
","""event"",""trial"",""time""
""focus"",""1"",""13392""
","""event"",""trial"",""time""
""fullscreenenter"",""5"",""35815""
","""event"",""trial"",""time""
""fullscreenexit"",""6"",""38137""
","394.8000000715256","","49","","","3000","1","","","images/earth.jpg","images/tutrocket1","images/tutrocket2","null","images/tutrocket2","","1","practice","null","1","","",""
"d3-animate-choice","104","537641","0.0-61.0-1.14","3457","5870","9","Female","false","false","false","false","""event"",""trial"",""time""
""blur"",""0"",""0""
""focus"",""1"",""13392""
""fullscreenenter"",""5"",""35815""
""fullscreenexit"",""6"",""38137""
","""event"",""trial"",""time""
""blur"",""0"",""0""
","""event"",""trial"",""time""
""focus"",""1"",""13392""
","""event"",""trial"",""time""
""fullscreenenter"",""5"",""35815""
","""event"",""trial"",""time""
""fullscreenexit"",""6"",""38137""
","668.2000000476837","","49","","","3000","1","","","images/tutgreenplanet.jpg","images/tutalien2","images/tutalien1","images/tutrocket2","images/tutalien1","images/nothing.png","2","practice","true","1","common","0","2023-01-20 23:44:50.921"
"two-step-fixation","105","538654","0.0-61.0-2.14","3457","5870","9","Female","false","false","false","false","""event"",""trial"",""time""
""blur"",""0"",""0""
""focus"",""1"",""13392""
""fullscreenenter"",""5"",""35815""
""fullscreenexit"",""6"",""38137""
","""event"",""trial"",""time""
""blur"",""0"",""0""
","""event"",""trial"",""time""
""focus"",""1"",""13392""
","""event"",""trial"",""time""
""fullscreenenter"",""5"",""35815""
","""event"",""trial"",""time""
""fullscreenexit"",""6"",""38137""
","","images/earth.jpg","","","","","","","","","","","","","","fixation","","","","","",""
"d3-animate-choice","106","541334","0.0-61.0-0.15","3457","5870","9","Female","false","false","false","false","""event"",""trial"",""time""
""blur"",""0"",""0""
""focus"",""1"",""13392""
""fullscreenenter"",""5"",""35815""
""fullscreenexit"",""6"",""38137""
","""event"",""trial"",""time""
""blur"",""0"",""0""
","""event"",""trial"",""time""
""focus"",""1"",""13392""
","""event"",""trial"",""time""
""fullscreenenter"",""5"",""35815""
","""event"",""trial"",""time""
""fullscreenexit"",""6"",""38137""
","668","","49","","","3000","1","","","images/earth.jpg","images/tutrocket1","images/tutrocket2","null","images/tutrocket2","","1","practice","null","1","","",""
"d3-animate-choice","107","543871","0.0-61.0-1.15","3457","5870","9","Female","false","false","false","false","""event"",""trial"",""time""
""blur"",""0"",""0""
""focus"",""1"",""13392""
""fullscreenenter"",""5"",""35815""
""fullscreenexit"",""6"",""38137""
","""event"",""trial"",""time""
""blur"",""0"",""0""
","""event"",""trial"",""time""
""focus"",""1"",""13392""
","""event"",""trial"",""time""
""fullscreenenter"",""5"",""35815""
","""event"",""trial"",""time""
""fullscreenexit"",""6"",""38137""
","530.8999999761581","","48","","","3000","1","","","images/tutyellowplanet.jpg","images/tutalien4","images/tutalien3","images/tutrocket2","images/tutalien4","images/nothing.png","2","practice","false","2","rare","0","2023-01-20 23:44:57.151"
"two-step-fixation","108","544877","0.0-61.0-2.15","3457","5870","9","Female","false","false","false","false","""event"",""trial"",""time""
""blur"",""0"",""0""
""focus"",""1"",""13392""
""fullscreenenter"",""5"",""35815""
""fullscreenexit"",""6"",""38137""
","""event"",""trial"",""time""
""blur"",""0"",""0""
","""event"",""trial"",""time""
""focus"",""1"",""13392""
","""event"",""trial"",""time""
""fullscreenenter"",""5"",""35815""
","""event"",""trial"",""time""
""fullscreenexit"",""6"",""38137""
","","images/earth.jpg","","","","","","","","","","","","","","fixation","","","","","",""
"d3-animate-choice","109","547575","0.0-61.0-0.16","3457","5870","9","Female","false","false","false","false","""event"",""trial"",""time""
""blur"",""0"",""0""
""focus"",""1"",""13392""
""fullscreenenter"",""5"",""35815""
""fullscreenexit"",""6"",""38137""
","""event"",""trial"",""time""
""blur"",""0"",""0""
","""event"",""trial"",""time""
""focus"",""1"",""13392""
","""event"",""trial"",""time""
""fullscreenenter"",""5"",""35815""
","""event"",""trial"",""time""
""fullscreenexit"",""6"",""38137""
","687.8000000715256","","48","","","3000","1","","","images/earth.jpg","images/tutrocket1","images/tutrocket2","null","images/tutrocket1","","1","practice","null","2","","",""
"d3-animate-choice","110","550062","0.0-61.0-1.16","3457","5870","9","Female","false","false","false","false","""event"",""trial"",""time""
""blur"",""0"",""0""
""focus"",""1"",""13392""
""fullscreenenter"",""5"",""35815""
""fullscreenexit"",""6"",""38137""
","""event"",""trial"",""time""
""blur"",""0"",""0""
","""event"",""trial"",""time""
""focus"",""1"",""13392""
","""event"",""trial"",""time""
""fullscreenenter"",""5"",""35815""
","""event"",""trial"",""time""
""fullscreenexit"",""6"",""38137""
","475.7000000476837","","48","","","3000","1","","","images/tutgreenplanet.jpg","images/tutalien2","images/tutalien1","images/tutrocket1","images/tutalien2","images/t.png","2","practice","false","2","rare","1","2023-01-20 23:45:03.343"
"two-step-fixation","111","551071","0.0-61.0-2.16","3457","5870","9","Female","false","false","false","false","""event"",""trial"",""time""
""blur"",""0"",""0""
""focus"",""1"",""13392""
""fullscreenenter"",""5"",""35815""
""fullscreenexit"",""6"",""38137""
","""event"",""trial"",""time""
""blur"",""0"",""0""
","""event"",""trial"",""time""
""focus"",""1"",""13392""
","""event"",""trial"",""time""
""fullscreenenter"",""5"",""35815""
","""event"",""trial"",""time""
""fullscreenexit"",""6"",""38137""
","","images/earth.jpg","","","","","","","","","","","","","","fixation","","","","","",""
"d3-animate-choice","112","553438","0.0-61.0-0.17","3457","5870","9","Female","false","false","false","false","""event"",""trial"",""time""
""blur"",""0"",""0""
""focus"",""1"",""13392""
""fullscreenenter"",""5"",""35815""
""fullscreenexit"",""6"",""38137""
","""event"",""trial"",""time""
""blur"",""0"",""0""
","""event"",""trial"",""time""
""focus"",""1"",""13392""
","""event"",""trial"",""time""
""fullscreenenter"",""5"",""35815""
","""event"",""trial"",""time""
""fullscreenexit"",""6"",""38137""
","358.2000000476837","","48","","","3000","1","","","images/earth.jpg","images/tutrocket1","images/tutrocket2","null","images/tutrocket1","","1","practice","null","2","","",""
"d3-animate-choice","113","556014","0.0-61.0-1.17","3457","5870","9","Female","false","false","false","false","""event"",""trial"",""time""
""blur"",""0"",""0""
""focus"",""1"",""13392""
""fullscreenenter"",""5"",""35815""
""fullscreenexit"",""6"",""38137""
","""event"",""trial"",""time""
""blur"",""0"",""0""
","""event"",""trial"",""time""
""focus"",""1"",""13392""
","""event"",""trial"",""time""
""fullscreenenter"",""5"",""35815""
","""event"",""trial"",""time""
""fullscreenexit"",""6"",""38137""
","565","","48","","","3000","1","","","images/tutyellowplanet.jpg","images/tutalien4","images/tutalien3","images/tutrocket1","images/tutalien4","images/nothing.png","2","practice","true","2","common","0","2023-01-20 23:45:09.294"
"two-step-fixation","114","557022","0.0-61.0-2.17","3457","5870","9","Female","false","false","false","false","""event"",""trial"",""time""
""blur"",""0"",""0""
""focus"",""1"",""13392""
""fullscreenenter"",""5"",""35815""
""fullscreenexit"",""6"",""38137""
","""event"",""trial"",""time""
""blur"",""0"",""0""
","""event"",""trial"",""time""
""focus"",""1"",""13392""
","""event"",""trial"",""time""
""fullscreenenter"",""5"",""35815""
","""event"",""trial"",""time""
""fullscreenexit"",""6"",""38137""
","","images/earth.jpg","","","","","","","","","","","","","","fixation","","","","","",""
"d3-animate-choice","115","559494","0.0-61.0-0.18","3457","5870","9","Female","false","false","false","false","""event"",""trial"",""time""
""blur"",""0"",""0""
""focus"",""1"",""13392""
""fullscreenenter"",""5"",""35815""
""fullscreenexit"",""6"",""38137""
","""event"",""trial"",""time""
""blur"",""0"",""0""
","""event"",""trial"",""time""
""focus"",""1"",""13392""
","""event"",""trial"",""time""
""fullscreenenter"",""5"",""35815""
","""event"",""trial"",""time""
""fullscreenexit"",""6"",""38137""
","461.39999997615814","","48","","","3000","1","757.1999999284744,1078.2999999523163,1349.2999999523163,1653.3999999761581,1940.5,2285.2999999523163","48,48,48,48,48,48","images/earth.jpg","images/tutrocket1","images/tutrocket2","null","images/tutrocket1","","1","practice","null","2","","",""
"d3-animate-choice","116","561614","0.0-61.0-1.18","3457","5870","9","Female","false","false","false","false","""event"",""trial"",""time""
""blur"",""0"",""0""
""focus"",""1"",""13392""
""fullscreenenter"",""5"",""35815""
""fullscreenexit"",""6"",""38137""
","""event"",""trial"",""time""
""blur"",""0"",""0""
","""event"",""trial"",""time""
""focus"",""1"",""13392""
","""event"",""trial"",""time""
""fullscreenenter"",""5"",""35815""
","""event"",""trial"",""time""
""fullscreenexit"",""6"",""38137""
","109.5","","48","","","3000","1","452.7999999523163","48","images/tutyellowplanet.jpg","images/tutalien4","images/tutalien3","images/tutrocket1","images/tutalien4","images/t.png","2","practice","true","2","common","1","2023-01-20 23:45:14.894"
"two-step-fixation","117","562622","0.0-61.0-2.18","3457","5870","9","Female","false","false","false","false","""event"",""trial"",""time""
""blur"",""0"",""0""
""focus"",""1"",""13392""
""fullscreenenter"",""5"",""35815""
""fullscreenexit"",""6"",""38137""
","""event"",""trial"",""time""
""blur"",""0"",""0""
","""event"",""trial"",""time""
""focus"",""1"",""13392""
","""event"",""trial"",""time""
""fullscreenenter"",""5"",""35815""
","""event"",""trial"",""time""
""fullscreenexit"",""6"",""38137""
","","images/earth.jpg","","","","","","","","","","","","","","fixation","","","","","",""
"d3-animate-choice","118","565036","0.0-61.0-0.19","3457","5870","9","Female","false","false","false","false","""event"",""trial"",""time""
""blur"",""0"",""0""
""focus"",""1"",""13392""
""fullscreenenter"",""5"",""35815""
""fullscreenexit"",""6"",""38137""
","""event"",""trial"",""time""
""blur"",""0"",""0""
","""event"",""trial"",""time""
""focus"",""1"",""13392""
","""event"",""trial"",""time""
""fullscreenenter"",""5"",""35815""
","""event"",""trial"",""time""
""fullscreenexit"",""6"",""38137""
","403.7999999523163","","48","","","3000","1","","","images/earth.jpg","images/tutrocket1","images/tutrocket2","null","images/tutrocket1","","1","practice","null","2","","",""
"d3-animate-choice","119","567462","0.0-61.0-1.19","3457","5870","9","Female","false","false","false","false","""event"",""trial"",""time""
""blur"",""0"",""0""
""focus"",""1"",""13392""
""fullscreenenter"",""5"",""35815""
""fullscreenexit"",""6"",""38137""
","""event"",""trial"",""time""
""blur"",""0"",""0""
","""event"",""trial"",""time""
""focus"",""1"",""13392""
","""event"",""trial"",""time""
""fullscreenenter"",""5"",""35815""
","""event"",""trial"",""time""
""fullscreenexit"",""6"",""38137""
","416.2000000476837","","48","","","3000","1","","","images/tutyellowplanet.jpg","images/tutalien4","images/tutalien3","images/tutrocket1","images/tutalien4","images/nothing.png","2","practice","true","2","common","0","2023-01-20 23:45:20.742"
"two-step-fixation","120","568470","0.0-61.0-2.19","3457","5870","9","Female","false","false","false","false","""event"",""trial"",""time""
""blur"",""0"",""0""
""focus"",""1"",""13392""
""fullscreenenter"",""5"",""35815""
""fullscreenexit"",""6"",""38137""
","""event"",""trial"",""time""
""blur"",""0"",""0""
","""event"",""trial"",""time""
""focus"",""1"",""13392""
","""event"",""trial"",""time""
""fullscreenenter"",""5"",""35815""
","""event"",""trial"",""time""
""fullscreenexit"",""6"",""38137""
","","images/earth.jpg","","","","","","","","","","","","","","fixation","","","","","",""
"d3-instructions","121","578856","0.0-62.0","3457","5870","9","Female","false","false","false","false","""event"",""trial"",""time""
""blur"",""0"",""0""
""focus"",""1"",""13392""
""fullscreenenter"",""5"",""35815""
""fullscreenexit"",""6"",""38137""
","""event"",""trial"",""time""
""blur"",""0"",""0""
","""event"",""trial"",""time""
""focus"",""1"",""13392""
","""event"",""trial"",""time""
""fullscreenenter"",""5"",""35815""
","""event"",""trial"",""time""
""fullscreenexit"",""6"",""38137""
","","","","","","","","","","","","","","","","","","","","","",""
"audio-keyboard-response","122","585094","0.0-63.0","3457","5870","9","Female","false","false","false","false","""event"",""trial"",""time""
""blur"",""0"",""0""
""focus"",""1"",""13392""
""fullscreenenter"",""5"",""35815""
""fullscreenexit"",""6"",""38137""
","""event"",""trial"",""time""
""blur"",""0"",""0""
","""event"",""trial"",""time""
""focus"",""1"",""13392""
","""event"",""trial"",""time""
""fullscreenenter"",""5"",""35815""
","""event"",""trial"",""time""
""fullscreenexit"",""6"",""38137""
","6240","audio/instructions/treasure_feedback.wav","32","","","","","","","","","","","","","","","","","","",""
"d3-instructions","123","607541","0.0-64.0","3457","5870","9","Female","false","false","false","false","""event"",""trial"",""time""
""blur"",""0"",""0""
""focus"",""1"",""13392""
""fullscreenenter"",""5"",""35815""
""fullscreenexit"",""6"",""38137""
","""event"",""trial"",""time""
""blur"",""0"",""0""
","""event"",""trial"",""time""
""focus"",""1"",""13392""
","""event"",""trial"",""time""
""fullscreenenter"",""5"",""35815""
","""event"",""trial"",""time""
""fullscreenexit"",""6"",""38137""
","","","","","","","","","","","","","","","","","","","","","",""
"d3-instructions","124","621647","0.0-65.0","3457","5870","9","Female","false","false","false","false","""event"",""trial"",""time""
""blur"",""0"",""0""
""focus"",""1"",""13392""
""fullscreenenter"",""5"",""35815""
""fullscreenexit"",""6"",""38137""
","""event"",""trial"",""time""
""blur"",""0"",""0""
","""event"",""trial"",""time""
""focus"",""1"",""13392""
","""event"",""trial"",""time""
""fullscreenenter"",""5"",""35815""
","""event"",""trial"",""time""
""fullscreenexit"",""6"",""38137""
","","","","","","","","","","","","","","","","","","","","","",""
"d3-instructions","125","648607","0.0-66.0","3457","5870","9","Female","false","false","false","false","""event"",""trial"",""time""
""blur"",""0"",""0""
""focus"",""1"",""13392""
""fullscreenenter"",""5"",""35815""
""fullscreenexit"",""6"",""38137""
","""event"",""trial"",""time""
""blur"",""0"",""0""
","""event"",""trial"",""time""
""focus"",""1"",""13392""
","""event"",""trial"",""time""
""fullscreenenter"",""5"",""35815""
","""event"",""trial"",""time""
""fullscreenexit"",""6"",""38137""
","","","","","","","","","","","","","","","","","","","","","",""
"d3-instructions","126","664481","0.0-67.0","3457","5870","9","Female","false","false","false","false","""event"",""trial"",""time""
""blur"",""0"",""0""
""focus"",""1"",""13392""
""fullscreenenter"",""5"",""35815""
""fullscreenexit"",""6"",""38137""
","""event"",""trial"",""time""
""blur"",""0"",""0""
","""event"",""trial"",""time""
""focus"",""1"",""13392""
","""event"",""trial"",""time""
""fullscreenenter"",""5"",""35815""
","""event"",""trial"",""time""
""fullscreenexit"",""6"",""38137""
","","","","","","","","","","","","","","","","","","","","","",""
"d3-instructions","127","672675","0.0-68.0","3457","5870","9","Female","false","false","false","false","""event"",""trial"",""time""
""blur"",""0"",""0""
""focus"",""1"",""13392""
""fullscreenenter"",""5"",""35815""
""fullscreenexit"",""6"",""38137""
","""event"",""trial"",""time""
""blur"",""0"",""0""
","""event"",""trial"",""time""
""focus"",""1"",""13392""
","""event"",""trial"",""time""
""fullscreenenter"",""5"",""35815""
","""event"",""trial"",""time""
""fullscreenexit"",""6"",""38137""
","","","","","","","","","","","","","","","","","","","","","",""
"instructions-quiz","128","677652","0.0-69.0","3457","5870","9","Female","false","false","false","false","""event"",""trial"",""time""
""blur"",""0"",""0""
""focus"",""1"",""13392""
""fullscreenenter"",""5"",""35815""
""fullscreenexit"",""6"",""38137""
","""event"",""trial"",""time""
""blur"",""0"",""0""
","""event"",""trial"",""time""
""focus"",""1"",""13392""
","""event"",""trial"",""time""
""fullscreenenter"",""5"",""35815""
","""event"",""trial"",""time""
""fullscreenexit"",""6"",""38137""
","4973.599999904633","audio/quiz/Q1_Prompt.wav","","1","","","","","","","","","","","","","","","","","",""
"audio-keyboard-response","129","686818","0.0-70.0","3457","5870","9","Female","false","false","false","false","""event"",""trial"",""time""
""blur"",""0"",""0""
""focus"",""1"",""13392""
""fullscreenenter"",""5"",""35815""
""fullscreenexit"",""6"",""38137""
","""event"",""trial"",""time""
""blur"",""0"",""0""
","""event"",""trial"",""time""
""focus"",""1"",""13392""
","""event"",""trial"",""time""
""fullscreenenter"",""5"",""35815""
","""event"",""trial"",""time""
""fullscreenexit"",""6"",""38137""
","null","audio/quiz/Q1_Correct.wav","null","","","","","","","","","","","","","","","","","","",""
"instructions-quiz","130","698213","0.0-71.0","3457","5870","9","Female","false","false","false","false","""event"",""trial"",""time""
""blur"",""0"",""0""
""focus"",""1"",""13392""
""fullscreenenter"",""5"",""35815""
""fullscreenexit"",""6"",""38137""
","""event"",""trial"",""time""
""blur"",""0"",""0""
","""event"",""trial"",""time""
""focus"",""1"",""13392""
","""event"",""trial"",""time""
""fullscreenenter"",""5"",""35815""
","""event"",""trial"",""time""
""fullscreenexit"",""6"",""38137""
","11392.600000023842","audio/quiz/Q2_Prompt.wav","","1","","","","","","","","","","","","","","","","","",""
"audio-keyboard-response","131","712289","0.0-72.0","3457","5870","9","Female","false","false","false","false","""event"",""trial"",""time""
""blur"",""0"",""0""
""focus"",""1"",""13392""
""fullscreenenter"",""5"",""35815""
""fullscreenexit"",""6"",""38137""
","""event"",""trial"",""time""
""blur"",""0"",""0""
","""event"",""trial"",""time""
""focus"",""1"",""13392""
","""event"",""trial"",""time""
""fullscreenenter"",""5"",""35815""
","""event"",""trial"",""time""
""fullscreenexit"",""6"",""38137""
","null","audio/quiz/Q2_Incorrect.wav","null","","","","","","","","","","","","","","","","","","",""
"instructions-quiz","132","719364","0.0-73.0","3457","5870","9","Female","false","false","false","false","""event"",""trial"",""time""
""blur"",""0"",""0""
""focus"",""1"",""13392""
""fullscreenenter"",""5"",""35815""
""fullscreenexit"",""6"",""38137""
","""event"",""trial"",""time""
""blur"",""0"",""0""
","""event"",""trial"",""time""
""focus"",""1"",""13392""
","""event"",""trial"",""time""
""fullscreenenter"",""5"",""35815""
","""event"",""trial"",""time""
""fullscreenexit"",""6"",""38137""
","7074","audio/quiz/Q3_Prompt.wav","","1","","","","","","","","","","","","","","","","","",""
"audio-keyboard-response","133","725158","0.0-74.0","3457","5870","9","Female","false","false","false","false","""event"",""trial"",""time""
""blur"",""0"",""0""
""focus"",""1"",""13392""
""fullscreenenter"",""5"",""35815""
""fullscreenexit"",""6"",""38137""
","""event"",""trial"",""time""
""blur"",""0"",""0""
","""event"",""trial"",""time""
""focus"",""1"",""13392""
","""event"",""trial"",""time""
""fullscreenenter"",""5"",""35815""
","""event"",""trial"",""time""
""fullscreenexit"",""6"",""38137""
","null","audio/quiz/Q3_Correct.wav","null","","","","","","","","","","","","","","","","","","",""
"d3-instructions","134","747597","0.0-75.0","3457","5870","9","Female","false","false","false","false","""event"",""trial"",""time""
""blur"",""0"",""0""
""focus"",""1"",""13392""
""fullscreenenter"",""5"",""35815""
""fullscreenexit"",""6"",""38137""
","""event"",""trial"",""time""
""blur"",""0"",""0""
","""event"",""trial"",""time""
""focus"",""1"",""13392""
","""event"",""trial"",""time""
""fullscreenenter"",""5"",""35815""
","""event"",""trial"",""time""
""fullscreenexit"",""6"",""38137""
","","","","","","","","","","","","","","","","","","","","","",""
"pavlovia","135","747600","0.0-76.0","3457","5870","9","Female","false","false","false","false","""event"",""trial"",""time""
""blur"",""0"",""0""
""focus"",""1"",""13392""
""fullscreenenter"",""5"",""35815""
""fullscreenexit"",""6"",""38137""
","""event"",""trial"",""time""
""blur"",""0"",""0""
","""event"",""trial"",""time""
""focus"",""1"",""13392""
","""event"",""trial"",""time""
""fullscreenenter"",""5"",""35815""
","""event"",""trial"",""time""
""fullscreenexit"",""6"",""38137""
","","","","","","","","","","","","","","","","","","","","","",""
"d3-animate-choice","136","750653","0.0-77.0-0.0","3457","5870","9","Female","false","false","false","false","""event"",""trial"",""time""
""blur"",""0"",""0""
""focus"",""1"",""13392""
""fullscreenenter"",""5"",""35815""
""fullscreenexit"",""6"",""38137""
","""event"",""trial"",""time""
""blur"",""0"",""0""
","""event"",""trial"",""time""
""focus"",""1"",""13392""
","""event"",""trial"",""time""
""fullscreenenter"",""5"",""35815""
","""event"",""trial"",""time""
""fullscreenexit"",""6"",""38137""
","1040.6999999284744","","48","","","3000","1","","","images/earth.jpg","images/rocket1","images/rocket2","null","images/rocket1","","1","real","null","2","","",""
"d3-animate-choice","137","753366","0.0-77.0-1.0","3457","5870","9","Female","false","false","false","false","""event"",""trial"",""time""
""blur"",""0"",""0""
""focus"",""1"",""13392""
""fullscreenenter"",""5"",""35815""
""fullscreenexit"",""6"",""38137""
","""event"",""trial"",""time""
""blur"",""0"",""0""
","""event"",""trial"",""time""
""focus"",""1"",""13392""
","""event"",""trial"",""time""
""fullscreenenter"",""5"",""35815""
","""event"",""trial"",""time""
""fullscreenexit"",""6"",""38137""
","698.5","","48","","","3000","1","","","images/purpleplanet.jpg","images/alien4","images/alien3","images/rocket1","images/alien4","images/t.png","2","real","true","2","common","1","2023-01-20 23:48:26.646"
"two-step-fixation","138","754372","0.0-77.0-2.0","3457","5870","9","Female","false","false","false","false","""event"",""trial"",""time""
""blur"",""0"",""0""
""focus"",""1"",""13392""
""fullscreenenter"",""5"",""35815""
""fullscreenexit"",""6"",""38137""
","""event"",""trial"",""time""
""blur"",""0"",""0""
","""event"",""trial"",""time""
""focus"",""1"",""13392""
","""event"",""trial"",""time""
""fullscreenenter"",""5"",""35815""
","""event"",""trial"",""time""
""fullscreenexit"",""6"",""38137""
","","images/earth.jpg","","","","","","","","","","","","","","fixation","","","","","",""
"d3-animate-choice","139","756823","0.0-77.0-0.1","3457","5870","9","Female","false","false","false","false","""event"",""trial"",""time""
""blur"",""0"",""0""
""focus"",""1"",""13392""
""fullscreenenter"",""5"",""35815""
""fullscreenexit"",""6"",""38137""
","""event"",""trial"",""time""
""blur"",""0"",""0""
","""event"",""trial"",""time""
""focus"",""1"",""13392""
","""event"",""trial"",""time""
""fullscreenenter"",""5"",""35815""
","""event"",""trial"",""time""
""fullscreenexit"",""6"",""38137""
","430.7999999523163","","48","","","3000","1","","","images/earth.jpg","images/rocket1","images/rocket2","null","images/rocket1","","1","real","null","2","","",""
"d3-animate-choice","140","760023","0.0-77.0-1.1","3457","5870","9","Female","false","false","false","false","""event"",""trial"",""time""
""blur"",""0"",""0""
""focus"",""1"",""13392""
""fullscreenenter"",""5"",""35815""
""fullscreenexit"",""6"",""38137""
","""event"",""trial"",""time""
""blur"",""0"",""0""
","""event"",""trial"",""time""
""focus"",""1"",""13392""
","""event"",""trial"",""time""
""fullscreenenter"",""5"",""35815""
","""event"",""trial"",""time""
""fullscreenexit"",""6"",""38137""
","1178","","49","","","3000","1","","","images/redplanet1.jpg","images/alien2","images/alien1","images/rocket1","images/alien1","images/nothing.png","2","real","false","1","rare","0","2023-01-20 23:48:33.304"
"two-step-fixation","141","761040","0.0-77.0-2.1","3457","5870","9","Female","false","false","false","false","""event"",""trial"",""time""
""blur"",""0"",""0""
""focus"",""1"",""13392""
""fullscreenenter"",""5"",""35815""
""fullscreenexit"",""6"",""38137""
","""event"",""trial"",""time""
""blur"",""0"",""0""
","""event"",""trial"",""time""
""focus"",""1"",""13392""
","""event"",""trial"",""time""
""fullscreenenter"",""5"",""35815""
","""event"",""trial"",""time""
""fullscreenexit"",""6"",""38137""
","","images/earth.jpg","","","","","","","","","","","","","","fixation","","","","","",""
"d3-animate-choice","142","763534","0.0-77.0-0.2","3457","5870","9","Female","false","false","false","false","""event"",""trial"",""time""
""blur"",""0"",""0""
""focus"",""1"",""13392""
""fullscreenenter"",""5"",""35815""
""fullscreenexit"",""6"",""38137""
","""event"",""trial"",""time""
""blur"",""0"",""0""
","""event"",""trial"",""time""
""focus"",""1"",""13392""
","""event"",""trial"",""time""
""fullscreenenter"",""5"",""35815""
","""event"",""trial"",""time""
""fullscreenexit"",""6"",""38137""
","472.89999997615814","","49","","","3000","1","","","images/earth.jpg","images/rocket1","images/rocket2","null","images/rocket2","","1","real","null","1","","",""
"d3-animate-choice","143","766413","0.0-77.0-1.2","3457","5870","9","Female","false","false","false","false","""event"",""trial"",""time""
""blur"",""0"",""0""
""focus"",""1"",""13392""
""fullscreenenter"",""5"",""35815""
""fullscreenexit"",""6"",""38137""
","""event"",""trial"",""time""
""blur"",""0"",""0""
","""event"",""trial"",""time""
""focus"",""1"",""13392""
","""event"",""trial"",""time""
""fullscreenenter"",""5"",""35815""
","""event"",""trial"",""time""
""fullscreenexit"",""6"",""38137""
","867.3999999761581","","49","","","3000","1","","","images/redplanet1.jpg","images/alien2","images/alien1","images/rocket2","images/alien1","images/nothing.png","2","real","true","1","common","0","2023-01-20 23:48:39.693"
"two-step-fixation","144","767434","0.0-77.0-2.2","3457","5870","9","Female","false","false","false","false","""event"",""trial"",""time""
""blur"",""0"",""0""
""focus"",""1"",""13392""
""fullscreenenter"",""5"",""35815""
""fullscreenexit"",""6"",""38137""
","""event"",""trial"",""time""
""blur"",""0"",""0""
","""event"",""trial"",""time""
""focus"",""1"",""13392""
","""event"",""trial"",""time""
""fullscreenenter"",""5"",""35815""
","""event"",""trial"",""time""
""fullscreenexit"",""6"",""38137""
","","images/earth.jpg","","","","","","","","","","","","","","fixation","","","","","",""
"d3-animate-choice","145","769831","0.0-77.0-0.3","3457","5870","9","Female","false","false","false","false","""event"",""trial"",""time""
""blur"",""0"",""0""
""focus"",""1"",""13392""
""fullscreenenter"",""5"",""35815""
""fullscreenexit"",""6"",""38137""
","""event"",""trial"",""time""
""blur"",""0"",""0""
","""event"",""trial"",""time""
""focus"",""1"",""13392""
","""event"",""trial"",""time""
""fullscreenenter"",""5"",""35815""
","""event"",""trial"",""time""
""fullscreenexit"",""6"",""38137""
","390.5","","49","","","3000","1","","","images/earth.jpg","images/rocket1","images/rocket2","null","images/rocket2","","1","real","null","1","","",""
"d3-animate-choice","146","772270","0.0-77.0-1.3","3457","5870","9","Female","false","false","false","false","""event"",""trial"",""time""
""blur"",""0"",""0""
""focus"",""1"",""13392""
""fullscreenenter"",""5"",""35815""
""fullscreenexit"",""6"",""38137""
","""event"",""trial"",""time""
""blur"",""0"",""0""
","""event"",""trial"",""time""
""focus"",""1"",""13392""
","""event"",""trial"",""time""
""fullscreenenter"",""5"",""35815""
","""event"",""trial"",""time""
""fullscreenexit"",""6"",""38137""
","433.60000002384186","","48","","","3000","1","","","images/redplanet1.jpg","images/alien2","images/alien1","images/rocket2","images/alien2","images/t.png","2","real","true","2","common","1","2023-01-20 23:48:45.550"
"two-step-fixation","147","773278","0.0-77.0-2.3","3457","5870","9","Female","false","false","false","false","""event"",""trial"",""time""
""blur"",""0"",""0""
""focus"",""1"",""13392""
""fullscreenenter"",""5"",""35815""
""fullscreenexit"",""6"",""38137""
","""event"",""trial"",""time""
""blur"",""0"",""0""
","""event"",""trial"",""time""
""focus"",""1"",""13392""
","""event"",""trial"",""time""
""fullscreenenter"",""5"",""35815""
","""event"",""trial"",""time""
""fullscreenexit"",""6"",""38137""
","","images/earth.jpg","","","","","","","","","","","","","","fixation","","","","","",""
"d3-animate-choice","148","775846","0.0-77.0-0.4","3457","5870","9","Female","false","false","false","false","""event"",""trial"",""time""
""blur"",""0"",""0""
""focus"",""1"",""13392""
""fullscreenenter"",""5"",""35815""
""fullscreenexit"",""6"",""38137""
","""event"",""trial"",""time""
""blur"",""0"",""0""
","""event"",""trial"",""time""
""focus"",""1"",""13392""
","""event"",""trial"",""time""
""fullscreenenter"",""5"",""35815""
","""event"",""trial"",""time""
""fullscreenexit"",""6"",""38137""
","561.6000000238419","","48","","","3000","1","","","images/earth.jpg","images/rocket1","images/rocket2","null","images/rocket1","","1","real","null","2","","",""
"d3-animate-choice","149","778426","0.0-77.0-1.4","3457","5870","9","Female","false","false","false","false","""event"",""trial"",""time""
""blur"",""0"",""0""
""focus"",""1"",""13392""
""fullscreenenter"",""5"",""35815""
""fullscreenexit"",""6"",""38137""
","""event"",""trial"",""time""
""blur"",""0"",""0""
","""event"",""trial"",""time""
""focus"",""1"",""13392""
","""event"",""trial"",""time""
""fullscreenenter"",""5"",""35815""
","""event"",""trial"",""time""
""fullscreenexit"",""6"",""38137""
","571.1999999284744","","48","","","3000","1","","","images/purpleplanet.jpg","images/alien4","images/alien3","images/rocket1","images/alien4","images/nothing.png","2","real","true","2","common","0","2023-01-20 23:48:51.706"
"two-step-fixation","150","779439","0.0-77.0-2.4","3457","5870","9","Female","false","false","false","false","""event"",""trial"",""time""
""blur"",""0"",""0""
""focus"",""1"",""13392""
""fullscreenenter"",""5"",""35815""
""fullscreenexit"",""6"",""38137""
","""event"",""trial"",""time""
""blur"",""0"",""0""
","""event"",""trial"",""time""
""focus"",""1"",""13392""
","""event"",""trial"",""time""
""fullscreenenter"",""5"",""35815""
","""event"",""trial"",""time""
""fullscreenexit"",""6"",""38137""
","","images/earth.jpg","","","","","","","","","","","","","","fixation","","","","","",""
"d3-animate-choice","151","782022","0.0-77.0-0.5","3457","5870","9","Female","false","false","false","false","""event"",""trial"",""time""
""blur"",""0"",""0""
""focus"",""1"",""13392""
""fullscreenenter"",""5"",""35815""
""fullscreenexit"",""6"",""38137""
","""event"",""trial"",""time""
""blur"",""0"",""0""
","""event"",""trial"",""time""
""focus"",""1"",""13392""
","""event"",""trial"",""time""
""fullscreenenter"",""5"",""35815""
","""event"",""trial"",""time""
""fullscreenexit"",""6"",""38137""
","574.5","","48","","","3000","1","","","images/earth.jpg","images/rocket1","images/rocket2","null","images/rocket1","","1","real","null","2","","",""
"d3-animate-choice","152","784583","0.0-77.0-1.5","3457","5870","9","Female","false","false","false","false","""event"",""trial"",""time""
""blur"",""0"",""0""
""focus"",""1"",""13392""
""fullscreenenter"",""5"",""35815""
""fullscreenexit"",""6"",""38137""
","""event"",""trial"",""time""
""blur"",""0"",""0""
","""event"",""trial"",""time""
""focus"",""1"",""13392""
","""event"",""trial"",""time""
""fullscreenenter"",""5"",""35815""
","""event"",""trial"",""time""
""fullscreenexit"",""6"",""38137""
","548.2000000476837","","49","","","3000","1","","","images/redplanet1.jpg","images/alien2","images/alien1","images/rocket1","images/alien1","images/nothing.png","2","real","false","1","rare","0","2023-01-20 23:48:57.863"
"two-step-fixation","153","785591","0.0-77.0-2.5","3457","5870","9","Female","false","false","false","false","""event"",""trial"",""time""
""blur"",""0"",""0""
""focus"",""1"",""13392""
""fullscreenenter"",""5"",""35815""
