"trial_type","trial_index","time_elapsed","internal_node_id","participant_id","subject_id","age","gender","rocket_sides","red_planet_first_rocket","red_display_order","purple_display_order","interactions","blur_events","focus_events","fullscreenenter_events","fullscreenexit_events","rt","stimulus","key_press","button_pressed","success","duration","valid_pressed","rts","keys","planet_text","right_text","left_text","center_text","chosen_text","reward_text","trial_stage","practice_trial","transition_type","choice","transition","reward","timestamp"
"pavlovia","0","3","0.0-0.0","958","1399","8","Female","true","false","true","true","
","
","
","
","
","","","","","","","","","","","","","","","","","","","","","",""
"html-keyboard-response","1","68315","0.0-1.0","958","1399","8","Female","true","false","true","true","
","
","
","
","
","68309.09999999404","Welcome! Press the space bar to begin.","32","","","","","","","","","","","","","","","","","","",""
"audio-keyboard-response","2","73215","0.0-2.0","958","1399","8","Female","true","false","true","true","
","
","
","
","
","4725","audio/beep_loop.wav","32","","","","","","","","","","","","","","","","","","",""
"audio-button-response","3","88782","0.0-3.0","958","1399","8","Female","true","false","true","true","
","
","
","
","
","NaN","audio/fish.mp3","","1","","","","","","","","","","","","","","","","","",""
"audio-button-response","4","91943","0.0-4.0","958","1399","8","Female","true","false","true","true","""event"",""trial"",""time""
""fullscreenenter"",""5"",""95354""
","
","
","""event"",""trial"",""time""
""fullscreenenter"",""5"",""95354""
","
","NaN","audio/tiger.mp3","","4","","","","","","","","","","","","","","","","","",""
"fullscreen","5","96284","0.0-5.0","958","1399","8","Female","true","false","true","true","""event"",""trial"",""time""
""fullscreenenter"",""5"",""95354""
","
","
","""event"",""trial"",""time""
""fullscreenenter"",""5"",""95354""
","
","","","","","true","","","","","","","","","","","","","","","","",""
"d3-instructions","6","107194","0.0-6.0","958","1399","8","Female","true","false","true","true","""event"",""trial"",""time""
""fullscreenenter"",""5"",""95354""
","
","
","""event"",""trial"",""time""
""fullscreenenter"",""5"",""95354""
","
","","","","","","","","","","","","","","","","","","","","","",""
"d3-instructions","7","116559","0.0-7.0","958","1399","8","Female","true","false","true","true","""event"",""trial"",""time""
""fullscreenenter"",""5"",""95354""
","
","
","""event"",""trial"",""time""
""fullscreenenter"",""5"",""95354""
","
","","","","","","","","","","","","","","","","","","","","","",""
"d3-instructions","8","122084","0.0-8.0","958","1399","8","Female","true","false","true","true","""event"",""trial"",""time""
""fullscreenenter"",""5"",""95354""
","
","
","""event"",""trial"",""time""
""fullscreenenter"",""5"",""95354""
","
","","","","","","","","","","","","","","","","","","","","","",""
"d3-instructions","9","131019","0.0-9.0","958","1399","8","Female","true","false","true","true","""event"",""trial"",""time""
""fullscreenenter"",""5"",""95354""
","
","
","""event"",""trial"",""time""
""fullscreenenter"",""5"",""95354""
","
","","","","","","","","","","","","","","","","","","","","","",""
"d3-instructions","10","141981","0.0-10.0","958","1399","8","Female","true","false","true","true","""event"",""trial"",""time""
""fullscreenenter"",""5"",""95354""
","
","
","""event"",""trial"",""time""
""fullscreenenter"",""5"",""95354""
","
","","","","","","","","","","","","","","","","","","","","","",""
"d3-animate-choice","11","147103","0.0-11.0","958","1399","8","Female","true","false","true","true","""event"",""trial"",""time""
""fullscreenenter"",""5"",""95354""
","
","
","""event"",""trial"",""time""
""fullscreenenter"",""5"",""95354""
","
","3108.7999999970198","","49","","","3000","1","","","images/tutgreenplanet.jpg","images/tutalien1","images/tutalien2","null","images/tutalien2","","NA","practice","null","","","",""
"d3-animate-choice","12","150528","0.0-12.0","958","1399","8","Female","true","false","true","true","""event"",""trial"",""time""
""fullscreenenter"",""5"",""95354""
","
","
","""event"",""trial"",""time""
""fullscreenenter"",""5"",""95354""
","
","1419.5999999940395","","48","","","3000","1","","","images/tutgreenplanet.jpg","images/tutalien1","images/tutalien2","null","images/tutalien1","","NA","practice","null","","","",""
"d3-animate-choice","13","153012","0.0-13.0","958","1399","8","Female","true","false","true","true","""event"",""trial"",""time""
""fullscreenenter"",""5"",""95354""
","
","
","""event"",""trial"",""time""
""fullscreenenter"",""5"",""95354""
","
","477.70000000298023","","49","","","3000","1","","","images/tutgreenplanet.jpg","images/tutalien1","images/tutalien2","null","images/tutalien2","","NA","practice","null","","","",""
"d3-animate-choice","14","155392","0.0-14.0","958","1399","8","Female","true","false","true","true","""event"",""trial"",""time""
""fullscreenenter"",""5"",""95354""
","
","
","""event"",""trial"",""time""
""fullscreenenter"",""5"",""95354""
","
","371.59999999403954","","48","","","3000","1","","","images/tutgreenplanet.jpg","images/tutalien1","images/tutalien2","null","images/tutalien1","","NA","practice","null","","","",""
"d3-instructions","15","162109","0.0-15.0","958","1399","8","Female","true","false","true","true","""event"",""trial"",""time""
""fullscreenenter"",""5"",""95354""
","
","
","""event"",""trial"",""time""
""fullscreenenter"",""5"",""95354""
","
","","","","","","","","","","","","","","","","","","","","","",""
"d3-instructions","16","166102","0.0-16.0","958","1399","8","Female","true","false","true","true","""event"",""trial"",""time""
""fullscreenenter"",""5"",""95354""
","
","
","""event"",""trial"",""time""
""fullscreenenter"",""5"",""95354""
","
","","","","","","","","","","","","","","","","","","","","","",""
"d3-instructions","17","173336","0.0-17.0","958","1399","8","Female","true","false","true","true","""event"",""trial"",""time""
""fullscreenenter"",""5"",""95354""
","
","
","""event"",""trial"",""time""
""fullscreenenter"",""5"",""95354""
","
","","","","","","","","","","","","","","","","","","","","","",""
"d3-instructions","18","182678","0.0-18.0","958","1399","8","Female","true","false","true","true","""event"",""trial"",""time""
""fullscreenenter"",""5"",""95354""
","
","
","""event"",""trial"",""time""
""fullscreenenter"",""5"",""95354""
","
","","","","","","","","","","","","","","","","","","","","","",""
"d3-instructions","19","192114","0.0-19.0","958","1399","8","Female","true","false","true","true","""event"",""trial"",""time""
""fullscreenenter"",""5"",""95354""
","
","
","""event"",""trial"",""time""
""fullscreenenter"",""5"",""95354""
","
","","","","","","","","","","","","","","","","","","","","","",""
"d3-animate-choice","20","194734","0.0-20.0","958","1399","8","Female","true","false","true","true","""event"",""trial"",""time""
""fullscreenenter"",""5"",""95354""
","
","
","""event"",""trial"",""time""
""fullscreenenter"",""5"",""95354""
","
","611.3999999910593","","49","","","3000","1","1013.0999999940395","49","images/tutyellowplanet.jpg","null","images/tutalien3","null","images/tutalien3","images/t.png","NA","practice","null","","","",""
"d3-animate-choice","21","197224","0.0-21.0","958","1399","8","Female","true","false","true","true","""event"",""trial"",""time""
""fullscreenenter"",""5"",""95354""
","
","
","""event"",""trial"",""time""
""fullscreenenter"",""5"",""95354""
","
","482","","49","","","3000","1","2419.800000011921","49","images/tutyellowplanet.jpg","null","images/tutalien3","null","images/tutalien3","images/nothing.png","NA","practice","null","","","",""
"d3-animate-choice","22","200023","0.0-22.0","958","1399","8","Female","true","false","true","true","""event"",""trial"",""time""
""fullscreenenter"",""5"",""95354""
","
","
","""event"",""trial"",""time""
""fullscreenenter"",""5"",""95354""
","
","791.7999999970198","","49","","","3000","1","","","images/tutyellowplanet.jpg","null","images/tutalien3","null","images/tutalien3","images/t.png","NA","practice","null","","","",""
"d3-animate-choice","23","202370","0.0-23.0","958","1399","8","Female","true","false","true","true","""event"",""trial"",""time""
""fullscreenenter"",""5"",""95354""
","
","
","""event"",""trial"",""time""
""fullscreenenter"",""5"",""95354""
","
","344.5","","49","","","3000","1","2173.4000000059605","49","images/tutyellowplanet.jpg","null","images/tutalien3","null","images/tutalien3","images/t.png","NA","practice","null","","","",""
"d3-animate-choice","24","204806","0.0-24.0","958","1399","8","Female","true","false","true","true","""event"",""trial"",""time""
""fullscreenenter"",""5"",""95354""
","
","
","""event"",""trial"",""time""
""fullscreenenter"",""5"",""95354""
","
","432.59999999403954","","49","","","3000","1","","","images/tutyellowplanet.jpg","null","images/tutalien3","null","images/tutalien3","images/t.png","NA","practice","null","","","",""
"d3-animate-choice","25","207220","0.0-25.0","958","1399","8","Female","true","false","true","true","""event"",""trial"",""time""
""fullscreenenter"",""5"",""95354""
","
","
","""event"",""trial"",""time""
""fullscreenenter"",""5"",""95354""
","
","408.1000000089407","","49","","","3000","1","","","images/tutyellowplanet.jpg","null","images/tutalien3","null","images/tutalien3","images/nothing.png","NA","practice","null","","","",""
"d3-animate-choice","26","209938","0.0-26.0","958","1399","8","Female","true","false","true","true","""event"",""trial"",""time""
""fullscreenenter"",""5"",""95354""
","
","
","""event"",""trial"",""time""
""fullscreenenter"",""5"",""95354""
","
","711.6999999880791","","49","","","3000","1","","","images/tutyellowplanet.jpg","null","images/tutalien3","null","images/tutalien3","images/t.png","NA","practice","null","","","",""
"d3-animate-choice","27","212583","0.0-27.0","958","1399","8","Female","true","false","true","true","""event"",""trial"",""time""
""fullscreenenter"",""5"",""95354""
","
","
","""event"",""trial"",""time""
""fullscreenenter"",""5"",""95354""
","
","638.7000000029802","","49","","","3000","1","","","images/tutyellowplanet.jpg","null","images/tutalien3","null","images/tutalien3","images/t.png","NA","practice","null","","","",""
"d3-animate-choice","28","215164","0.0-28.0","958","1399","8","Female","true","false","true","true","""event"",""trial"",""time""
""fullscreenenter"",""5"",""95354""
","
","
","""event"",""trial"",""time""
""fullscreenenter"",""5"",""95354""
","
","577.5","","49","","","3000","1","","","images/tutyellowplanet.jpg","null","images/tutalien3","null","images/tutalien3","images/t.png","NA","practice","null","","","",""
"d3-animate-choice","29","217548","0.0-29.0","958","1399","8","Female","true","false","true","true","""event"",""trial"",""time""
""fullscreenenter"",""5"",""95354""
","
","
","""event"",""trial"",""time""
""fullscreenenter"",""5"",""95354""
","
","381.5","","49","","","3000","1","","","images/tutyellowplanet.jpg","null","images/tutalien3","null","images/tutalien3","images/t.png","NA","practice","null","","","",""
"d3-instructions","30","220585","0.0-30.0","958","1399","8","Female","true","false","true","true","""event"",""trial"",""time""
""fullscreenenter"",""5"",""95354""
","
","
","""event"",""trial"",""time""
""fullscreenenter"",""5"",""95354""
","
","","","","","","","","","","","","","","","","","","","","","",""
"d3-instructions","31","228546","0.0-31.0","958","1399","8","Female","true","false","true","true","""event"",""trial"",""time""
""fullscreenenter"",""5"",""95354""
","
","
","""event"",""trial"",""time""
""fullscreenenter"",""5"",""95354""
","
","","","","","","","","","","","","","","","","","","","","","",""
"d3-instructions","32","232196","0.0-32.0","958","1399","8","Female","true","false","true","true","""event"",""trial"",""time""
""fullscreenenter"",""5"",""95354""
","
","
","""event"",""trial"",""time""
""fullscreenenter"",""5"",""95354""
","
","","","","","","","","","","","","","","","","","","","","","",""
"d3-instructions","33","234546","0.0-33.0","958","1399","8","Female","true","false","true","true","""event"",""trial"",""time""
""fullscreenenter"",""5"",""95354""
","
","
","""event"",""trial"",""time""
""fullscreenenter"",""5"",""95354""
","
","","","","","","","","","","","","","","","","","","","","","",""
"d3-animate-choice","34","237402","0.0-34.0","958","1399","8","Female","true","false","true","true","""event"",""trial"",""time""
""fullscreenenter"",""5"",""95354""
","
","
","""event"",""trial"",""time""
""fullscreenenter"",""5"",""95354""
","
","847.7999999970198","","49","","","3000","1","","","images/tutgreenplanet.jpg","images/tutalien1","images/tutalien2","null","images/tutalien2","images/t.png","NA","practice","null","","","",""
"d3-animate-choice","35","240327","0.0-35.0","958","1399","8","Female","true","false","true","true","""event"",""trial"",""time""
""fullscreenenter"",""5"",""95354""
","
","
","""event"",""trial"",""time""
""fullscreenenter"",""5"",""95354""
","
","920.8000000119209","","48","","","3000","1","","","images/tutgreenplanet.jpg","images/tutalien1","images/tutalien2","null","images/tutalien1","images/nothing.png","NA","practice","null","","","",""
"d3-animate-choice","36","242756","0.0-36.0","958","1399","8","Female","true","false","true","true","""event"",""trial"",""time""
""fullscreenenter"",""5"",""95354""
","
","
","""event"",""trial"",""time""
""fullscreenenter"",""5"",""95354""
","
","426.09999999403954","","48","","","3000","1","","","images/tutgreenplanet.jpg","images/tutalien1","images/tutalien2","null","images/tutalien1","images/nothing.png","NA","practice","null","","","",""
"d3-animate-choice","37","245175","0.0-37.0","958","1399","8","Female","true","false","true","true","""event"",""trial"",""time""
""fullscreenenter"",""5"",""95354""
","
","
","""event"",""trial"",""time""
""fullscreenenter"",""5"",""95354""
","
","414.59999999403954","","49","","","3000","1","1939.2999999970198","49","images/tutgreenplanet.jpg","images/tutalien1","images/tutalien2","null","images/tutalien2","images/t.png","NA","practice","null","","","",""
"d3-animate-choice","38","247526","0.0-38.0","958","1399","8","Female","true","false","true","true","""event"",""trial"",""time""
""fullscreenenter"",""5"",""95354""
","
","
","""event"",""trial"",""time""
""fullscreenenter"",""5"",""95354""
","
","344","","49","","","3000","1","","","images/tutgreenplanet.jpg","images/tutalien1","images/tutalien2","null","images/tutalien2","images/t.png","NA","practice","null","","","",""
"d3-animate-choice","39","249900","0.0-39.0","958","1399","8","Female","true","false","true","true","""event"",""trial"",""time""
""fullscreenenter"",""5"",""95354""
","
","
","""event"",""trial"",""time""
""fullscreenenter"",""5"",""95354""
","
","367.69999998807907","","49","","","3000","1","","","images/tutgreenplanet.jpg","images/tutalien1","images/tutalien2","null","images/tutalien2","images/t.png","NA","practice","null","","","",""
"d3-animate-choice","40","252246","0.0-40.0","958","1399","8","Female","true","false","true","true","""event"",""trial"",""time""
""fullscreenenter"",""5"",""95354""
","
","
","""event"",""trial"",""time""
""fullscreenenter"",""5"",""95354""
","
","342.40000000596046","","49","","","3000","1","1893.7000000029802","49","images/tutgreenplanet.jpg","images/tutalien1","images/tutalien2","null","images/tutalien2","images/t.png","NA","practice","null","","","",""
"d3-animate-choice","41","254637","0.0-41.0","958","1399","8","Female","true","false","true","true","""event"",""trial"",""time""
""fullscreenenter"",""5"",""95354""
","
","
","""event"",""trial"",""time""
""fullscreenenter"",""5"",""95354""
","
","387.09999999403954","","49","","","3000","1","","","images/tutgreenplanet.jpg","images/tutalien1","images/tutalien2","null","images/tutalien2","images/t.png","NA","practice","null","","","",""
"d3-animate-choice","42","257007","0.0-42.0","958","1399","8","Female","true","false","true","true","""event"",""trial"",""time""
""fullscreenenter"",""5"",""95354""
","
","
","""event"",""trial"",""time""
""fullscreenenter"",""5"",""95354""
","
","366.90000000596046","","49","","","3000","1","2147.0999999940395","49","images/tutgreenplanet.jpg","images/tutalien1","images/tutalien2","null","images/tutalien2","images/t.png","NA","practice","null","","","",""
"d3-animate-choice","43","259345","0.0-43.0","958","1399","8","Female","true","false","true","true","""event"",""trial"",""time""
""fullscreenenter"",""5"",""95354""
","
","
","""event"",""trial"",""time""
""fullscreenenter"",""5"",""95354""
","
","333.5","","49","","","3000","1","1948","49","images/tutgreenplanet.jpg","images/tutalien1","images/tutalien2","null","images/tutalien2","images/t.png","NA","practice","null","","","",""
"d3-instructions","44","264838","0.0-44.0","958","1399","8","Female","true","false","true","true","""event"",""trial"",""time""
""fullscreenenter"",""5"",""95354""
","
","
","""event"",""trial"",""time""
""fullscreenenter"",""5"",""95354""
","
","","","","","","","","","","","","","","","","","","","","","",""
"d3-instructions","45","267415","0.0-45.0","958","1399","8","Female","true","false","true","true","""event"",""trial"",""time""
""fullscreenenter"",""5"",""95354""
","
","
","""event"",""trial"",""time""
""fullscreenenter"",""5"",""95354""
","
","","","","","","","","","","","","","","","","","","","","","",""
"d3-instructions","46","271089","0.0-46.0","958","1399","8","Female","true","false","true","true","""event"",""trial"",""time""
""fullscreenenter"",""5"",""95354""
","
","
","""event"",""trial"",""time""
""fullscreenenter"",""5"",""95354""
","
","","","","","","","","","","","","","","","","","","","","","",""
"d3-instructions","47","277132","0.0-47.0","958","1399","8","Female","true","false","true","true","""event"",""trial"",""time""
""fullscreenenter"",""5"",""95354""
","
","
","""event"",""trial"",""time""
""fullscreenenter"",""5"",""95354""
","
","","","","","","","","","","","","","","","","","","","","","",""
"d3-instructions","48","285788","0.0-48.0","958","1399","8","Female","true","false","true","true","""event"",""trial"",""time""
""fullscreenenter"",""5"",""95354""
","
","
","""event"",""trial"",""time""
""fullscreenenter"",""5"",""95354""
","
","","","","","","","","","","","","","","","","","","","","","",""
"d3-instructions","49","289632","0.0-49.0","958","1399","8","Female","true","false","true","true","""event"",""trial"",""time""
""fullscreenenter"",""5"",""95354""
","
","
","""event"",""trial"",""time""
""fullscreenenter"",""5"",""95354""
","
","","","","","","","","","","","","","","","","","","","","","",""
"d3-instructions","50","292188","0.0-50.0","958","1399","8","Female","true","false","true","true","""event"",""trial"",""time""
""fullscreenenter"",""5"",""95354""
","
","
","""event"",""trial"",""time""
""fullscreenenter"",""5"",""95354""
","
","","","","","","","","","","","","","","","","","","","","","",""
"d3-instructions","51","294450","0.0-51.0","958","1399","8","Female","true","false","true","true","""event"",""trial"",""time""
""fullscreenenter"",""5"",""95354""
","
","
","""event"",""trial"",""time""
""fullscreenenter"",""5"",""95354""
","
","","","","","","","","","","","","","","","","","","","","","",""
"d3-instructions","52","295512","0.0-52.0","958","1399","8","Female","true","false","true","true","""event"",""trial"",""time""
""fullscreenenter"",""5"",""95354""
","
","
","""event"",""trial"",""time""
""fullscreenenter"",""5"",""95354""
","
","","","","","","","","","","","","","","","","","","","","","",""
"d3-instructions","53","303526","0.0-53.0","958","1399","8","Female","true","false","true","true","""event"",""trial"",""time""
""fullscreenenter"",""5"",""95354""
","
","
","""event"",""trial"",""time""
""fullscreenenter"",""5"",""95354""
","
","","","","","","","","","","","","","","","","","","","","","",""
"d3-instructions","54","308236","0.0-54.0","958","1399","8","Female","true","false","true","true","""event"",""trial"",""time""
""fullscreenenter"",""5"",""95354""
","
","
","""event"",""trial"",""time""
""fullscreenenter"",""5"",""95354""
","
","","","","","","","","","","","","","","","","","","","","","",""
"d3-instructions","55","312248","0.0-55.0","958","1399","8","Female","true","false","true","true","""event"",""trial"",""time""
""fullscreenenter"",""5"",""95354""
","
","
","""event"",""trial"",""time""
""fullscreenenter"",""5"",""95354""
","
","","","","","","","","","","","","","","","","","","","","","",""
"d3-instructions","56","317331","0.0-56.0","958","1399","8","Female","true","false","true","true","""event"",""trial"",""time""
""fullscreenenter"",""5"",""95354""
","
","
","""event"",""trial"",""time""
""fullscreenenter"",""5"",""95354""
","
","","","","","","","","","","","","","","","","","","","","","",""
"d3-instructions","57","320596","0.0-57.0","958","1399","8","Female","true","false","true","true","""event"",""trial"",""time""
""fullscreenenter"",""5"",""95354""
","
","
","""event"",""trial"",""time""
""fullscreenenter"",""5"",""95354""
","
","","","","","","","","","","","","","","","","","","","","","",""
"d3-instructions","58","323316","0.0-58.0","958","1399","8","Female","true","false","true","true","""event"",""trial"",""time""
""fullscreenenter"",""5"",""95354""
","
","
","""event"",""trial"",""time""
""fullscreenenter"",""5"",""95354""
","
","","","","","","","","","","","","","","","","","","","","","",""
"d3-instructions","59","325059","0.0-59.0","958","1399","8","Female","true","false","true","true","""event"",""trial"",""time""
""fullscreenenter"",""5"",""95354""
","
","
","""event"",""trial"",""time""
""fullscreenenter"",""5"",""95354""
","
","","","","","","","","","","","","","","","","","","","","","",""
"d3-instructions","60","328239","0.0-60.0","958","1399","8","Female","true","false","true","true","""event"",""trial"",""time""
""fullscreenenter"",""5"",""95354""
","
","
","""event"",""trial"",""time""
""fullscreenenter"",""5"",""95354""
","
","","","","","","","","","","","","","","","","","","","","","",""
"d3-animate-choice","61","330909","0.0-61.0-0.0","958","1399","8","Female","true","false","true","true","""event"",""trial"",""time""
""fullscreenenter"",""5"",""95354""
","
","
","""event"",""trial"",""time""
""fullscreenenter"",""5"",""95354""
","
","664.7999999970198","","49","","","3000","1","","","images/earth.jpg","images/tutrocket2","images/tutrocket1","null","images/tutrocket1","","1","practice","null","1","","",""
"d3-animate-choice","62","333740","0.0-61.0-1.0","958","1399","8","Female","true","false","true","true","""event"",""trial"",""time""
""fullscreenenter"",""5"",""95354""
","
","
","""event"",""trial"",""time""
""fullscreenenter"",""5"",""95354""
","
","822.7999999970198","","49","","","3000","1","","","images/tutyellowplanet.jpg","images/tutalien4","images/tutalien3","images/tutrocket1","images/tutalien3","images/nothing.png","2","practice","true","1","common","0","2022-04-20 01:41:25.761"
"two-step-fixation","63","334744","0.0-61.0-2.0","958","1399","8","Female","true","false","true","true","""event"",""trial"",""time""
""fullscreenenter"",""5"",""95354""
","
","
","""event"",""trial"",""time""
""fullscreenenter"",""5"",""95354""
","
","","images/earth.jpg","","","","","","","","","","","","","","fixation","","","","","",""
"d3-animate-choice","64","336828","0.0-61.0-0.1","958","1399","8","Female","true","false","true","true","""event"",""trial"",""time""
""fullscreenenter"",""5"",""95354""
","
","
","""event"",""trial"",""time""
""fullscreenenter"",""5"",""95354""
","
","75.40000000596046","","49","","","3000","1","","","images/earth.jpg","images/tutrocket2","images/tutrocket1","null","images/tutrocket1","","1","practice","null","1","","",""
"d3-animate-choice","65","339831","0.0-61.0-1.1","958","1399","8","Female","true","false","true","true","""event"",""trial"",""time""
""fullscreenenter"",""5"",""95354""
","
","
","""event"",""trial"",""time""
""fullscreenenter"",""5"",""95354""
","
","996.0999999940395","","48","","","3000","1","","","images/tutyellowplanet.jpg","images/tutalien4","images/tutalien3","images/tutrocket1","images/tutalien4","images/t.png","2","practice","true","2","common","1","2022-04-20 01:41:31.853"
"two-step-fixation","66","340837","0.0-61.0-2.1","958","1399","8","Female","true","false","true","true","""event"",""trial"",""time""
""fullscreenenter"",""5"",""95354""
","
","
","""event"",""trial"",""time""
""fullscreenenter"",""5"",""95354""
","
","","images/earth.jpg","","","","","","","","","","","","","","fixation","","","","","",""
"d3-animate-choice","67","343312","0.0-61.0-0.2","958","1399","8","Female","true","false","true","true","""event"",""trial"",""time""
""fullscreenenter"",""5"",""95354""
","
","
","""event"",""trial"",""time""
""fullscreenenter"",""5"",""95354""
","
","468.8999999910593","","49","","","3000","1","","","images/earth.jpg","images/tutrocket2","images/tutrocket1","null","images/tutrocket1","","1","practice","null","1","","",""
"d3-animate-choice","68","345965","0.0-61.0-1.2","958","1399","8","Female","true","false","true","true","""event"",""trial"",""time""
""fullscreenenter"",""5"",""95354""
","
","
","""event"",""trial"",""time""
""fullscreenenter"",""5"",""95354""
","
","646.8999999910593","","49","","","3000","1","","","images/tutyellowplanet.jpg","images/tutalien4","images/tutalien3","images/tutrocket1","images/tutalien3","images/nothing.png","2","practice","true","1","common","0","2022-04-20 01:41:37.986"
"two-step-fixation","69","346970","0.0-61.0-2.2","958","1399","8","Female","true","false","true","true","""event"",""trial"",""time""
""fullscreenenter"",""5"",""95354""
","
","
","""event"",""trial"",""time""
""fullscreenenter"",""5"",""95354""
","
","","images/earth.jpg","","","","","","","","","","","","","","fixation","","","","","",""
"d3-animate-choice","70","349402","0.0-61.0-0.3","958","1399","8","Female","true","false","true","true","""event"",""trial"",""time""
""fullscreenenter"",""5"",""95354""
","
","
","""event"",""trial"",""time""
""fullscreenenter"",""5"",""95354""
","
","423.1000000089407","","48","","","3000","1","","","images/earth.jpg","images/tutrocket2","images/tutrocket1","null","images/tutrocket2","","1","practice","null","2","","",""
"d3-animate-choice","71","351791","0.0-61.0-1.3","958","1399","8","Female","true","false","true","true","""event"",""trial"",""time""
""fullscreenenter"",""5"",""95354""
","
","
","""event"",""trial"",""time""
""fullscreenenter"",""5"",""95354""
","
","383.29999999701977","","48","","","3000","1","","","images/tutyellowplanet.jpg","images/tutalien4","images/tutalien3","images/tutrocket2","images/tutalien4","images/t.png","2","practice","false","2","rare","1","2022-04-20 01:41:43.812"
"two-step-fixation","72","352798","0.0-61.0-2.3","958","1399","8","Female","true","false","true","true","""event"",""trial"",""time""
""fullscreenenter"",""5"",""95354""
","
","
","""event"",""trial"",""time""
""fullscreenenter"",""5"",""95354""
","
","","images/earth.jpg","","","","","","","","","","","","","","fixation","","","","","",""
"d3-animate-choice","73","355115","0.0-61.0-0.4","958","1399","8","Female","true","false","true","true","""event"",""trial"",""time""
""fullscreenenter"",""5"",""95354""
","
","
","""event"",""trial"",""time""
""fullscreenenter"",""5"",""95354""
","
","312.1000000089407","","48","","","3000","1","","","images/earth.jpg","images/tutrocket2","images/tutrocket1","null","images/tutrocket2","","1","practice","null","2","","",""
"d3-animate-choice","74","357529","0.0-61.0-1.4","958","1399","8","Female","true","false","true","true","""event"",""trial"",""time""
""fullscreenenter"",""5"",""95354""
","
","
","""event"",""trial"",""time""
""fullscreenenter"",""5"",""95354""
","
","407.70000000298023","","48","","","3000","1","","","images/tutgreenplanet.jpg","images/tutalien2","images/tutalien1","images/tutrocket2","images/tutalien2","images/nothing.png","2","practice","true","2","common","0","2022-04-20 01:41:49.550"
"two-step-fixation","75","358535","0.0-61.0-2.4","958","1399","8","Female","true","false","true","true","""event"",""trial"",""time""
""fullscreenenter"",""5"",""95354""
","
","
","""event"",""trial"",""time""
""fullscreenenter"",""5"",""95354""
","
","","images/earth.jpg","","","","","","","","","","","","","","fixation","","","","","",""
"d3-animate-choice","76","360902","0.0-61.0-0.5","958","1399","8","Female","true","false","true","true","""event"",""trial"",""time""
""fullscreenenter"",""5"",""95354""
","
","
","""event"",""trial"",""time""
""fullscreenenter"",""5"",""95354""
","
","362.5","","48","","","3000","1","","","images/earth.jpg","images/tutrocket2","images/tutrocket1","null","images/tutrocket2","","1","practice","null","2","","",""
"d3-animate-choice","77","364421","0.0-61.0-1.5","958","1399","8","Female","true","false","true","true","""event"",""trial"",""time""
""fullscreenenter"",""5"",""95354""
","
","
","""event"",""trial"",""time""
""fullscreenenter"",""5"",""95354""
","
","1514.2999999970198","","49","","","3000","1","","","images/tutgreenplanet.jpg","images/tutalien2","images/tutalien1","images/tutrocket2","images/tutalien1","images/nothing.png","2","practice","true","1","common","0","2022-04-20 01:41:56.442"
"two-step-fixation","78","365429","0.0-61.0-2.5","958","1399","8","Female","true","false","true","true","""event"",""trial"",""time""
""fullscreenenter"",""5"",""95354""
","
","
","""event"",""trial"",""time""
""fullscreenenter"",""5"",""95354""
","
","","images/earth.jpg","","","","","","","","","","","","","","fixation","","","","","",""
"d3-animate-choice","79","367864","0.0-61.0-0.6","958","1399","8","Female","true","false","true","true","""event"",""trial"",""time""
""fullscreenenter"",""5"",""95354""
","
","
","""event"",""trial"",""time""
""fullscreenenter"",""5"",""95354""
","
","428","","48","","","3000","1","","","images/earth.jpg","images/tutrocket2","images/tutrocket1","null","images/tutrocket2","","1","practice","null","2","","",""
"d3-animate-choice","80","370279","0.0-61.0-1.6","958","1399","8","Female","true","false","true","true","""event"",""trial"",""time""
""fullscreenenter"",""5"",""95354""
","
","
","""event"",""trial"",""time""
""fullscreenenter"",""5"",""95354""
","
","408.3999999910593","","48","","","3000","1","","","images/tutyellowplanet.jpg","images/tutalien4","images/tutalien3","images/tutrocket2","images/tutalien4","images/nothing.png","2","practice","false","2","rare","0","2022-04-20 01:42:02.300"
"two-step-fixation","81","371283","0.0-61.0-2.6","958","1399","8","Female","true","false","true","true","""event"",""trial"",""time""
""fullscreenenter"",""5"",""95354""
","
","
","""event"",""trial"",""time""
""fullscreenenter"",""5"",""95354""
","
","","images/earth.jpg","","","","","","","","","","","","","","fixation","","","","","",""
"d3-animate-choice","82","373814","0.0-61.0-0.7","958","1399","8","Female","true","false","true","true","""event"",""trial"",""time""
""fullscreenenter"",""5"",""95354""
","
","
","""event"",""trial"",""time""
""fullscreenenter"",""5"",""95354""
","
","522.5","","49","","","3000","1","","","images/earth.jpg","images/tutrocket2","images/tutrocket1","null","images/tutrocket1","","1","practice","null","1","","",""
"d3-animate-choice","83","376294","0.0-61.0-1.7","958","1399","8","Female","true","false","true","true","""event"",""trial"",""time""
""fullscreenenter"",""5"",""95354""
","
","
","""event"",""trial"",""time""
""fullscreenenter"",""5"",""95354""
","
","475.59999999403954","","49","","","3000","1","","","images/tutgreenplanet.jpg","images/tutalien2","images/tutalien1","images/tutrocket1","images/tutalien1","images/nothing.png","2","practice","false","1","rare","0","2022-04-20 01:42:08.315"
"two-step-fixation","84","377297","0.0-61.0-2.7","958","1399","8","Female","true","false","true","true","""event"",""trial"",""time""
""fullscreenenter"",""5"",""95354""
","
","
","""event"",""trial"",""time""
""fullscreenenter"",""5"",""95354""
","
","","images/earth.jpg","","","","","","","","","","","","","","fixation","","","","","",""
"d3-animate-choice","85","379700","0.0-61.0-0.8","958","1399","8","Female","true","false","true","true","""event"",""trial"",""time""
""fullscreenenter"",""5"",""95354""
","
","
","""event"",""trial"",""time""
""fullscreenenter"",""5"",""95354""
","
","398.1000000089407","","49","","","3000","1","","","images/earth.jpg","images/tutrocket2","images/tutrocket1","null","images/tutrocket1","","1","practice","null","1","","",""
"d3-animate-choice","86","382255","0.0-61.0-1.8","958","1399","8","Female","true","false","true","true","""event"",""trial"",""time""
""fullscreenenter"",""5"",""95354""
","
","
","""event"",""trial"",""time""
""fullscreenenter"",""5"",""95354""
","
","545.1999999880791","","48","","","3000","1","","","images/tutyellowplanet.jpg","images/tutalien4","images/tutalien3","images/tutrocket1","images/tutalien4","images/t.png","2","practice","true","2","common","1","2022-04-20 01:42:14.276"
"two-step-fixation","87","383259","0.0-61.0-2.8","958","1399","8","Female","true","false","true","true","""event"",""trial"",""time""
""fullscreenenter"",""5"",""95354""
","
","
","""event"",""trial"",""time""
""fullscreenenter"",""5"",""95354""
","
","","images/earth.jpg","","","","","","","","","","","","","","fixation","","","","","",""
"d3-animate-choice","88","385670","0.0-61.0-0.9","958","1399","8","Female","true","false","true","true","""event"",""trial"",""time""
""fullscreenenter"",""5"",""95354""
","
","
","""event"",""trial"",""time""
""fullscreenenter"",""5"",""95354""
","
","407","","49","","","3000","1","","","images/earth.jpg","images/tutrocket2","images/tutrocket1","null","images/tutrocket1","","1","practice","null","1","","",""
"d3-animate-choice","89","388361","0.0-61.0-1.9","958","1399","8","Female","true","false","true","true","""event"",""trial"",""time""
""fullscreenenter"",""5"",""95354""
","
","
","""event"",""trial"",""time""
""fullscreenenter"",""5"",""95354""
","
","686.0999999940395","","48","","","3000","1","","","images/tutyellowplanet.jpg","images/tutalien4","images/tutalien3","images/tutrocket1","images/tutalien4","images/t.png","2","practice","true","2","common","1","2022-04-20 01:42:20.383"
"two-step-fixation","90","389366","0.0-61.0-2.9","958","1399","8","Female","true","false","true","true","""event"",""trial"",""time""
""fullscreenenter"",""5"",""95354""
","
","
","""event"",""trial"",""time""
""fullscreenenter"",""5"",""95354""
","
","","images/earth.jpg","","","","","","","","","","","","","","fixation","","","","","",""
"d3-animate-choice","91","392059","0.0-61.0-0.10","958","1399","8","Female","true","false","true","true","""event"",""trial"",""time""
""fullscreenenter"",""5"",""95354""
","
","
","""event"",""trial"",""time""
""fullscreenenter"",""5"",""95354""
","
","687.4000000059605","","48","","","3000","1","","","images/earth.jpg","images/tutrocket2","images/tutrocket1","null","images/tutrocket2","","1","practice","null","2","","",""
"d3-animate-choice","92","394590","0.0-61.0-1.10","958","1399","8","Female","true","false","true","true","""event"",""trial"",""time""
""fullscreenenter"",""5"",""95354""
","
","
","""event"",""trial"",""time""
""fullscreenenter"",""5"",""95354""
","
","522.7000000029802","","49","","","3000","1","","","images/tutgreenplanet.jpg","images/tutalien2","images/tutalien1","images/tutrocket2","images/tutalien1","images/nothing.png","2","practice","true","1","common","0","2022-04-20 01:42:26.611"
"two-step-fixation","93","395595","0.0-61.0-2.10","958","1399","8","Female","true","false","true","true","""event"",""trial"",""time""
""fullscreenenter"",""5"",""95354""
","
","
","""event"",""trial"",""time""
""fullscreenenter"",""5"",""95354""
","
","","images/earth.jpg","","","","","","","","","","","","","","fixation","","","","","",""
"d3-animate-choice","94","398638","0.0-61.0-0.11","958","1399","8","Female","true","false","true","true","""event"",""trial"",""time""
""fullscreenenter"",""5"",""95354""
","
","
","""event"",""trial"",""time""
""fullscreenenter"",""5"",""95354""
","
","1038.4000000059605","","48","","","3000","1","","","images/earth.jpg","images/tutrocket2","images/tutrocket1","null","images/tutrocket2","","1","practice","null","2","","",""
"d3-animate-choice","95","401466","0.0-61.0-1.11","958","1399","8","Female","true","false","true","true","""event"",""trial"",""time""
""fullscreenenter"",""5"",""95354""
","
","
","""event"",""trial"",""time""
""fullscreenenter"",""5"",""95354""
","
","821.8999999910593","","49","","","3000","1","","","images/tutgreenplanet.jpg","images/tutalien2","images/tutalien1","images/tutrocket2","images/tutalien1","images/nothing.png","2","practice","true","1","common","0","2022-04-20 01:42:33.487"
"two-step-fixation","96","402472","0.0-61.0-2.11","958","1399","8","Female","true","false","true","true","""event"",""trial"",""time""
""fullscreenenter"",""5"",""95354""
","
","
","""event"",""trial"",""time""
""fullscreenenter"",""5"",""95354""
","
","","images/earth.jpg","","","","","","","","","","","","","","fixation","","","","","",""
"d3-animate-choice","97","405379","0.0-61.0-0.12","958","1399","8","Female","true","false","true","true","""event"",""trial"",""time""
""fullscreenenter"",""5"",""95354""
","
","
","""event"",""trial"",""time""
""fullscreenenter"",""5"",""95354""
","
","900.6999999880791","","48","","","3000","1","","","images/earth.jpg","images/tutrocket2","images/tutrocket1","null","images/tutrocket2","","1","practice","null","2","","",""
"d3-animate-choice","98","408407","0.0-61.0-1.12","958","1399","8","Female","true","false","true","true","""event"",""trial"",""time""
""fullscreenenter"",""5"",""95354""
","
","
","""event"",""trial"",""time""
""fullscreenenter"",""5"",""95354""
","
","1023.2999999970198","","48","","","3000","1","","","images/tutgreenplanet.jpg","images/tutalien2","images/tutalien1","images/tutrocket2","images/tutalien2","images/t.png","2","practice","true","2","common","1","2022-04-20 01:42:40.428"
"two-step-fixation","99","409411","0.0-61.0-2.12","958","1399","8","Female","true","false","true","true","""event"",""trial"",""time""
""fullscreenenter"",""5"",""95354""
","
","
","""event"",""trial"",""time""
""fullscreenenter"",""5"",""95354""
","
","","images/earth.jpg","","","","","","","","","","","","","","fixation","","","","","",""
"d3-animate-choice","100","412650","0.0-61.0-0.13","958","1399","8","Female","true","false","true","true","""event"",""trial"",""time""
""fullscreenenter"",""5"",""95354""
","
","
","""event"",""trial"",""time""
""fullscreenenter"",""5"",""95354""
","
","1232.2999999970198","","48","","","3000","1","","","images/earth.jpg","images/tutrocket2","images/tutrocket1","null","images/tutrocket2","","1","practice","null","2","","",""
"d3-animate-choice","101","415182","0.0-61.0-1.13","958","1399","8","Female","true","false","true","true","""event"",""trial"",""time""
""fullscreenenter"",""5"",""95354""
","
","
","""event"",""trial"",""time""
""fullscreenenter"",""5"",""95354""
","
","526.9000000059605","","49","","","3000","1","","","images/tutgreenplanet.jpg","images/tutalien2","images/tutalien1","images/tutrocket2","images/tutalien1","images/nothing.png","2","practice","true","1","common","0","2022-04-20 01:42:47.203"
"two-step-fixation","102","416186","0.0-61.0-2.13","958","1399","8","Female","true","false","true","true","""event"",""trial"",""time""
""fullscreenenter"",""5"",""95354""
","
","
","""event"",""trial"",""time""
""fullscreenenter"",""5"",""95354""
","
","","images/earth.jpg","","","","","","","","","","","","","","fixation","","","","","",""
"d3-animate-choice","103","419791","0.0-61.0-0.14","958","1399","8","Female","true","false","true","true","""event"",""trial"",""time""
""fullscreenenter"",""5"",""95354""
","
","
","""event"",""trial"",""time""
""fullscreenenter"",""5"",""95354""
","
","1601.5999999940395","","48","","","3000","1","","","images/earth.jpg","images/tutrocket2","images/tutrocket1","null","images/tutrocket2","","1","practice","null","2","","",""
"d3-animate-choice","104","423800","0.0-61.0-1.14","958","1399","8","Female","true","false","true","true","""event"",""trial"",""time""
""fullscreenenter"",""5"",""95354""
","
","
","""event"",""trial"",""time""
""fullscreenenter"",""5"",""95354""
","
","3589.4000000059605","","48","","","3000","0","","","images/tutyellowplanet.jpg","images/tutalien4","images/tutalien3","images/tutrocket2","","","2","practice","false","2","rare","0","2022-04-20 01:42:55.821"
"two-step-fixation","105","424806","0.0-61.0-2.14","958","1399","8","Female","true","false","true","true","""event"",""trial"",""time""
""fullscreenenter"",""5"",""95354""
","
","
","""event"",""trial"",""time""
""fullscreenenter"",""5"",""95354""
","
","","images/earth.jpg","","","","","","","","","","","","","","fixation","","","","","",""
"d3-animate-choice","106","427570","0.0-61.0-0.15","958","1399","8","Female","true","false","true","true","""event"",""trial"",""time""
""fullscreenenter"",""5"",""95354""
","
","
","""event"",""trial"",""time""
""fullscreenenter"",""5"",""95354""
","
","756","","48","","","3000","1","","","images/earth.jpg","images/tutrocket2","images/tutrocket1","null","images/tutrocket2","","1","practice","null","2","","",""
"d3-animate-choice","107","430408","0.0-61.0-1.15","958","1399","8","Female","true","false","true","true","""event"",""trial"",""time""
""fullscreenenter"",""5"",""95354""
","
","
","""event"",""trial"",""time""
""fullscreenenter"",""5"",""95354""
","
","832.1999999880791","","48","","","3000","1","","","images/tutgreenplanet.jpg","images/tutalien2","images/tutalien1","images/tutrocket2","images/tutalien2","images/nothing.png","2","practice","true","2","common","0","2022-04-20 01:43:02.429"
"two-step-fixation","108","431413","0.0-61.0-2.15","958","1399","8","Female","true","false","true","true","""event"",""trial"",""time""
""fullscreenenter"",""5"",""95354""
","
","
","""event"",""trial"",""time""
""fullscreenenter"",""5"",""95354""
","
","","images/earth.jpg","","","","","","","","","","","","","","fixation","","","","","",""
"d3-animate-choice","109","433836","0.0-61.0-0.16","958","1399","8","Female","true","false","true","true","""event"",""trial"",""time""
""fullscreenenter"",""5"",""95354""
","
","
","""event"",""trial"",""time""
""fullscreenenter"",""5"",""95354""
","
","418.8999999910593","","49","","","3000","1","","","images/earth.jpg","images/tutrocket2","images/tutrocket1","null","images/tutrocket1","","1","practice","null","1","","",""
"d3-animate-choice","110","436295","0.0-61.0-1.16","958","1399","8","Female","true","false","true","true","""event"",""trial"",""time""
""fullscreenenter"",""5"",""95354""
","
","
","""event"",""trial"",""time""
""fullscreenenter"",""5"",""95354""
","
","455.70000000298023","","49","","","3000","1","","","images/tutyellowplanet.jpg","images/tutalien4","images/tutalien3","images/tutrocket1","images/tutalien3","images/nothing.png","2","practice","true","1","common","0","2022-04-20 01:43:08.316"
"two-step-fixation","111","437300","0.0-61.0-2.16","958","1399","8","Female","true","false","true","true","""event"",""trial"",""time""
""fullscreenenter"",""5"",""95354""
","
","
","""event"",""trial"",""time""
""fullscreenenter"",""5"",""95354""
","
","","images/earth.jpg","","","","","","","","","","","","","","fixation","","","","","",""
"d3-animate-choice","112","439861","0.0-61.0-0.17","958","1399","8","Female","true","false","true","true","""event"",""trial"",""time""
""fullscreenenter"",""5"",""95354""
","
","
","""event"",""trial"",""time""
""fullscreenenter"",""5"",""95354""
","
","554.1000000089407","","48","","","3000","1","","","images/earth.jpg","images/tutrocket2","images/tutrocket1","null","images/tutrocket2","","1","practice","null","2","","",""
"d3-animate-choice","113","442855","0.0-61.0-1.17","958","1399","8","Female","true","false","true","true","""event"",""trial"",""time""
""fullscreenenter"",""5"",""95354""
","
","
","""event"",""trial"",""time""
""fullscreenenter"",""5"",""95354""
","
","988.2000000029802","","49","","","3000","1","","","images/tutgreenplanet.jpg","images/tutalien2","images/tutalien1","images/tutrocket2","images/tutalien1","images/nothing.png","2","practice","true","1","common","0","2022-04-20 01:43:14.876"
"two-step-fixation","114","443859","0.0-61.0-2.17","958","1399","8","Female","true","false","true","true","""event"",""trial"",""time""
""fullscreenenter"",""5"",""95354""
","
","
","""event"",""trial"",""time""
""fullscreenenter"",""5"",""95354""
","
","","images/earth.jpg","","","","","","","","","","","","","","fixation","","","","","",""
"d3-animate-choice","115","446552","0.0-61.0-0.18","958","1399","8","Female","true","false","true","true","""event"",""trial"",""time""
""fullscreenenter"",""5"",""95354""
","
","
","""event"",""trial"",""time""
""fullscreenenter"",""5"",""95354""
","
","688","","48","","","3000","1","","","images/earth.jpg","images/tutrocket2","images/tutrocket1","null","images/tutrocket2","","1","practice","null","2","","",""
"d3-animate-choice","116","449617","0.0-61.0-1.18","958","1399","8","Female","true","false","true","true","""event"",""trial"",""time""
""fullscreenenter"",""5"",""95354""
","
","
","""event"",""trial"",""time""
""fullscreenenter"",""5"",""95354""
","
","1059.0999999940395","","48","","","3000","1","","","images/tutgreenplanet.jpg","images/tutalien2","images/tutalien1","images/tutrocket2","images/tutalien2","images/nothing.png","2","practice","true","2","common","0","2022-04-20 01:43:21.639"
"two-step-fixation","117","450622","0.0-61.0-2.18","958","1399","8","Female","true","false","true","true","""event"",""trial"",""time""
""fullscreenenter"",""5"",""95354""
","
","
","""event"",""trial"",""time""
""fullscreenenter"",""5"",""95354""
","
","","images/earth.jpg","","","","","","","","","","","","","","fixation","","","","","",""
"d3-animate-choice","118","453056","0.0-61.0-0.19","958","1399","8","Female","true","false","true","true","""event"",""trial"",""time""
""fullscreenenter"",""5"",""95354""
","
","
","""event"",""trial"",""time""
""fullscreenenter"",""5"",""95354""
","
","428.1000000089407","","49","","","3000","1","","","images/earth.jpg","images/tutrocket2","images/tutrocket1","null","images/tutrocket1","","1","practice","null","1","","",""
"d3-animate-choice","119","457060","0.0-61.0-1.19","958","1399","8","Female","true","false","true","true","""event"",""trial"",""time""
""fullscreenenter"",""5"",""95354""
","
","
","""event"",""trial"",""time""
""fullscreenenter"",""5"",""95354""
","
","2781.2000000029802","","48","","","3000","1","","","images/tutyellowplanet.jpg","images/tutalien4","images/tutalien3","images/tutrocket1","images/tutalien4","","2","practice","true","2","common","0","2022-04-20 01:43:29.081"
"two-step-fixation","120","458064","0.0-61.0-2.19","958","1399","8","Female","true","false","true","true","""event"",""trial"",""time""
""fullscreenenter"",""5"",""95354""
","
","
","""event"",""trial"",""time""
""fullscreenenter"",""5"",""95354""
","
","","images/earth.jpg","","","","","","","","","","","","","","fixation","","","","","",""
"d3-instructions","121","474498","0.0-62.0","958","1399","8","Female","true","false","true","true","""event"",""trial"",""time""
""fullscreenenter"",""5"",""95354""
","
","
","""event"",""trial"",""time""
""fullscreenenter"",""5"",""95354""
","
","","","","","","","","","","","","","","","","","","","","","",""
"audio-keyboard-response","122","483770","0.0-63.0","958","1399","8","Female","true","false","true","true","""event"",""trial"",""time""
""fullscreenenter"",""5"",""95354""
","
","
","""event"",""trial"",""time""
""fullscreenenter"",""5"",""95354""
","
","9271","audio/instructions/treasure_feedback.wav","32","","","","","","","","","","","","","","","","","","",""
"d3-instructions","123","492992","0.0-64.0","958","1399","8","Female","true","false","true","true","""event"",""trial"",""time""
""fullscreenenter"",""5"",""95354""
","
","
","""event"",""trial"",""time""
""fullscreenenter"",""5"",""95354""
","
","","","","","","","","","","","","","","","","","","","","","",""
"d3-instructions","124","500478","0.0-65.0","958","1399","8","Female","true","false","true","true","""event"",""trial"",""time""
""fullscreenenter"",""5"",""95354""
","
","
","""event"",""trial"",""time""
""fullscreenenter"",""5"",""95354""
","
","","","","","","","","","","","","","","","","","","","","","",""
"d3-instructions","125","504507","0.0-66.0","958","1399","8","Female","true","false","true","true","""event"",""trial"",""time""
""fullscreenenter"",""5"",""95354""
","
","
","""event"",""trial"",""time""
""fullscreenenter"",""5"",""95354""
","
","","","","","","","","","","","","","","","","","","","","","",""
"d3-instructions","126","506029","0.0-67.0","958","1399","8","Female","true","false","true","true","""event"",""trial"",""time""
""fullscreenenter"",""5"",""95354""
","
","
","""event"",""trial"",""time""
""fullscreenenter"",""5"",""95354""
","
","","","","","","","","","","","","","","","","","","","","","",""
"d3-instructions","127","508078","0.0-68.0","958","1399","8","Female","true","false","true","true","""event"",""trial"",""time""
""fullscreenenter"",""5"",""95354""
","
","
","""event"",""trial"",""time""
""fullscreenenter"",""5"",""95354""
","
","","","","","","","","","","","","","","","","","","","","","",""
"instructions-quiz","128","514170","0.0-69.0","958","1399","8","Female","true","false","true","true","""event"",""trial"",""time""
""fullscreenenter"",""5"",""95354""
","
","
","""event"",""trial"",""time""
""fullscreenenter"",""5"",""95354""
","
","6089","audio/quiz/Q1_Prompt.wav","","1","","","","","","","","","","","","","","","","","",""
"audio-keyboard-response","129","523340","0.0-70.0","958","1399","8","Female","true","false","true","true","""event"",""trial"",""time""
""fullscreenenter"",""5"",""95354""
","
","
","""event"",""trial"",""time""
""fullscreenenter"",""5"",""95354""
","
","null","audio/quiz/Q1_Correct.wav","null","","","","","","","","","","","","","","","","","","",""
"instructions-quiz","130","531400","0.0-71.0","958","1399","8","Female","true","false","true","true","""event"",""trial"",""time""
""fullscreenenter"",""5"",""95354""
","
","
","""event"",""trial"",""time""
""fullscreenenter"",""5"",""95354""
","
","8057.4000000059605","audio/quiz/Q2_Prompt.wav","","0","","","","","","","","","","","","","","","","","",""
"audio-keyboard-response","131","544268","0.0-72.0","958","1399","8","Female","true","false","true","true","""event"",""trial"",""time""
""fullscreenenter"",""5"",""95354""
","
","
","""event"",""trial"",""time""
""fullscreenenter"",""5"",""95354""
","
","null","audio/quiz/Q2_Correct.wav","null","","","","","","","","","","","","","","","","","","",""
"instructions-quiz","132","548312","0.0-73.0","958","1399","8","Female","true","false","true","true","""event"",""trial"",""time""
""fullscreenenter"",""5"",""95354""
","
","
","""event"",""trial"",""time""
""fullscreenenter"",""5"",""95354""
","
","4041.699999988079","audio/quiz/Q3_Prompt.wav","","1","","","","","","","","","","","","","","","","","",""
"audio-keyboard-response","133","554113","0.0-74.0","958","1399","8","Female","true","false","true","true","""event"",""trial"",""time""
""fullscreenenter"",""5"",""95354""
","
","
","""event"",""trial"",""time""
""fullscreenenter"",""5"",""95354""
","
","null","audio/quiz/Q3_Correct.wav","null","","","","","","","","","","","","","","","","","","",""
"d3-instructions","134","556121","0.0-75.0","958","1399","8","Female","true","false","true","true","""event"",""trial"",""time""
""fullscreenenter"",""5"",""95354""
","
","
","""event"",""trial"",""time""
""fullscreenenter"",""5"",""95354""
","
","","","","","","","","","","","","","","","","","","","","","",""
"d3-animate-choice","135","559646","0.0-76.0-0.0","958","1399","8","Female","true","false","true","true","""event"",""trial"",""time""
""fullscreenenter"",""5"",""95354""
","
","
","""event"",""trial"",""time""
""fullscreenenter"",""5"",""95354""
","
","1520.2000000029802","","49","","","3000","1","","","images/earth.jpg","images/rocket2","images/rocket1","null","images/rocket1","","1","real","null","1","","",""
"d3-animate-choice","136","562337","0.0-76.0-1.0","958","1399","8","Female","true","false","true","true","""event"",""trial"",""time""
""fullscreenenter"",""5"",""95354""
","
","
","""event"",""trial"",""time""
""fullscreenenter"",""5"",""95354""
","
","685.7999999970198","","49","","","3000","1","","","images/purpleplanet.jpg","images/alien4","images/alien3","images/rocket1","images/alien3","images/t.png","2","real","true","1","common","1","2022-04-20 01:45:14.358"
"two-step-fixation","137","563343","0.0-76.0-2.0","958","1399","8","Female","true","false","true","true","""event"",""trial"",""time""
""fullscreenenter"",""5"",""95354""
","
","
","""event"",""trial"",""time""
""fullscreenenter"",""5"",""95354""
","
","","images/earth.jpg","","","","","","","","","","","","","","fixation","","","","","",""
"d3-animate-choice","138","565667","0.0-76.0-0.1","958","1399","8","Female","true","false","true","true","""event"",""trial"",""time""
""fullscreenenter"",""5"",""95354""
","
","
","""event"",""trial"",""time""
""fullscreenenter"",""5"",""95354""
","
","319.3999999910593","","49","","","3000","1","","","images/earth.jpg","images/rocket2","images/rocket1","null","images/rocket1","","1","real","null","1","","",""
"d3-animate-choice","139","568168","0.0-76.0-1.1","958","1399","8","Female","true","false","true","true","""event"",""trial"",""time""
""fullscreenenter"",""5"",""95354""
","
","
","""event"",""trial"",""time""
""fullscreenenter"",""5"",""95354""
","
","497","","49","","","3000","1","","","images/purpleplanet.jpg","images/alien4","images/alien3","images/rocket1","images/alien3","images/t.png","2","real","true","1","common","1","2022-04-20 01:45:20.189"
"two-step-fixation","140","569173","0.0-76.0-2.1","958","1399","8","Female","true","false","true","true","""event"",""trial"",""time""
""fullscreenenter"",""5"",""95354""
","
","
","""event"",""trial"",""time""
""fullscreenenter"",""5"",""95354""
","
","","images/earth.jpg","","","","","","","","","","","","","","fixation","","","","","",""
"d3-animate-choice","141","571229","0.0-76.0-0.2","958","1399","8","Female","true","false","true","true","""event"",""trial"",""time""
""fullscreenenter"",""5"",""95354""
","
","
","""event"",""trial"",""time""
""fullscreenenter"",""5"",""95354""
","
","51.400000005960464","","49","","","3000","1","","","images/earth.jpg","images/rocket2","images/rocket1","null","images/rocket1","","1","real","null","1","","",""
"d3-animate-choice","142","573817","0.0-76.0-1.2","958","1399","8","Female","true","false","true","true","""event"",""trial"",""time""
""fullscreenenter"",""5"",""95354""
","
","
","""event"",""trial"",""time""
""fullscreenenter"",""5"",""95354""
","
","583.5","","49","","","3000","1","","","images/purpleplanet.jpg","images/alien4","images/alien3","images/rocket1","images/alien3","images/nothing.png","2","real","true","1","common","0","2022-04-20 01:45:25.838"
"two-step-fixation","143","574823","0.0-76.0-2.2","958","1399","8","Female","true","false","true","true","""event"",""trial"",""time""
""fullscreenenter"",""5"",""95354""
","
","
","""event"",""trial"",""time""
""fullscreenenter"",""5"",""95354""
","
","","images/earth.jpg","","","","","","","","","","","","","","fixation","","","","","",""
"d3-animate-choice","144","577295","0.0-76.0-0.3","958","1399","8","Female","true","false","true","true","""event"",""trial"",""time""
""fullscreenenter"",""5"",""95354""
","
","
","""event"",""trial"",""time""
""fullscreenenter"",""5"",""95354""
","
","466","","48","","","3000","1","","","images/earth.jpg","images/rocket2","images/rocket1","null","images/rocket2","","1","real","null","2","","",""
"d3-animate-choice","145","579848","0.0-76.0-1.3","958","1399","8","Female","true","false","true","true","""event"",""trial"",""time""
""fullscreenenter"",""5"",""95354""
","
","
","""event"",""trial"",""time""
""fullscreenenter"",""5"",""95354""
","
","547.1000000089407","","48","","","3000","1","","","images/redplanet1.jpg","images/alien2","images/alien1","images/rocket2","images/alien2","images/t.png","2","real","true","2","common","1","2022-04-20 01:45:31.869"
"two-step-fixation","146","580852","0.0-76.0-2.3","958","1399","8","Female","true","false","true","true","""event"",""trial"",""time""
""fullscreenenter"",""5"",""95354""
","
","
","""event"",""trial"",""time""
""fullscreenenter"",""5"",""95354""
","
","","images/earth.jpg","","","","","","","","","","","","","","fixation","","","","","",""
"d3-animate-choice","147","583248","0.0-76.0-0.4","958","1399","8","Female","true","false","true","true","""event"",""trial"",""time""
""fullscreenenter"",""5"",""95354""
","
","
","""event"",""trial"",""time""
""fullscreenenter"",""5"",""95354""
","
","389.09999999403954","","48","","","3000","1","","","images/earth.jpg","images/rocket2","images/rocket1","null","images/rocket2","","1","real","null","2","","",""
"d3-animate-choice","148","585634","0.0-76.0-1.4","958","1399","8","Female","true","false","true","true","""event"",""trial"",""time""
""fullscreenenter"",""5"",""95354""
","
","
","""event"",""trial"",""time""
""fullscreenenter"",""5"",""95354""
","
","378","","48","","","3000","1","","","images/purpleplanet.jpg","images/alien4","images/alien3","images/rocket2","images/alien4","images/t.png","2","real","false","2","rare","1","2022-04-20 01:45:37.655"
"two-step-fixation","149","586639","0.0-76.0-2.4","958","1399","8","Female","true","false","true","true","""event"",""trial"",""time""
""fullscreenenter"",""5"",""95354""
","
","
","""event"",""trial"",""time""
""fullscreenenter"",""5"",""95354""
","
","","images/earth.jpg","","","","","","","","","","","","","","fixation","","","","","",""
"d3-animate-choice","150","589033","0.0-76.0-0.5","958","1399","8","Female","true","false","true","true","""event"",""trial"",""time""
""fullscreenenter"",""5"",""95354""
","
","
","""event"",""trial"",""time""
""fullscreenenter"",""5"",""95354""
","
","386.59999999403954","","48","","","3000","1","","","images/earth.jpg","images/rocket2","images/rocket1","null","images/rocket2","","1","real","null","2","","",""
"d3-animate-choice","151","591407","0.0-76.0-1.5","958","1399","8","Female","true","false","true","true","""event"",""trial"",""time""
""fullscreenenter"",""5"",""95354""
","
","
","""event"",""trial"",""time""
""fullscreenenter"",""5"",""95354""
","
","367.29999999701977","","48","","","3000","1","","","images/purpleplanet.jpg","images/alien4","images/alien3","images/rocket2","images/alien4","images/nothing.png","2","real","false","2","rare","0","2022-04-20 01:45:43.428"
"two-step-fixation","152","592411","0.0-76.0-2.5","958","1399","8","Female","true","false","true","true","""event"",""trial"",""time""
""fullscreenenter"",""5"",""95354""
","
","
","""event"",""trial"",""time""
""fullscreenenter"",""5"",""95354""
","
","","images/earth.jpg","","","","","","","","","","","","","","fixation","","","","","",""
"d3-animate-choice","153","594859","0.0-76.0-0.6","958","1399","8","Female","true","false","true","true","""event"",""trial"",""time""
""fullscreenenter"",""5"",""95354""
","
","
","""event"",""trial"",""time""
""fullscreenenter"",""5"",""95354""
","
","441.1000000089407","","49","","","3000","1","","","images/earth.jpg","images/rocket2","images/rocket1","null","images/rocket1","","1","real","null","1","","",""
"d3-animate-choice","154","597288","0.0-76.0-1.6","958","1399","8","Female","true","false","true","true","""event"",""trial"",""time""
""fullscreenenter"",""5"",""95354""
","
","
","""event"",""trial"",""time""
""fullscreenenter"",""5"",""95354""
","
","425.5","","48","","","3000","1","","","images/purpleplanet.jpg","images/alien4","images/alien3","images/rocket1","images/alien4","images/t.png","2","real","true","2","common","1","2022-04-20 01:45:49.309"
"two-step-fixation","155","598292","0.0-76.0-2.6","958","1399","8","Female","true","false","true","true","""event"",""trial"",""time""
""fullscreenenter"",""5"",""95354""
","
","
","""event"",""trial"",""time""
""fullscreenenter"",""5"",""95354""
","
","","images/earth.jpg","","","","","","","","","","","","","","fixation","","","","","",""
"d3-animate-choice","156","600654","0.0-76.0-0.7","958","1399","8","Female","true","false","true","true","""event"",""trial"",""time""
""fullscreenenter"",""5"",""95354""
","
","
","""event"",""trial"",""time""
""fullscreenenter"",""5"",""95354""
","
","358.1000000089407","","49","","","3000","1","","","images/earth.jpg","images/rocket2","images/rocket1","null","images/rocket1","","1","real","null","1","","",""
"d3-animate-choice","157","603081","0.0-76.0-1.7","958","1399","8","Female","true","false","true","true","""event"",""trial"",""time""
""fullscreenenter"",""5"",""95354""
","
","
","""event"",""trial"",""time""
""fullscreenenter"",""5"",""95354""
","
","422.40000000596046","","48","","","3000","1","","","images/redplanet1.jpg","images/alien2","images/alien1","images/rocket1","images/alien2","images/nothing.png","2","real","false","2","rare","0","2022-04-20 01:45:55.102"
"two-step-fixation","158","604085","0.0-76.0-2.7","958","1399","8","Female","true","false","true","true","""event"",""trial"",""time""
""fullscreenenter"",""5"",""95354""
","
","
","""event"",""trial"",""time""
""fullscreenenter"",""5"",""95354""
","
","","images/earth.jpg","","","","","","","","","","","","","","fixation","","","","","",""
"d3-animate-choice","159","606444","0.0-76.0-0.8","958","1399","8","Female","true","false","true","true","""event"",""trial"",""time""
""fullscreenenter"",""5"",""95354""
","
","
","""event"",""trial"",""time""
""fullscreenenter"",""5"",""95354""
","
","352.59999999403954","","49","","","3000","1","","","images/earth.jpg","images/rocket2","images/rocket1","null","images/rocket1","","1","real","null","1","","",""
"d3-animate-choice","160","608903","0.0-76.0-1.8","958","1399","8","Female","true","false","true","true","""event"",""trial"",""time""
""fullscreenenter"",""5"",""95354""
","
","
","""event"",""trial"",""time""
""fullscreenenter"",""5"",""95354""
","
","452.3999999910593","","49","","","3000","1","","","images/purpleplanet.jpg","images/alien4","images/alien3","images/rocket1","images/alien3","images/t.png","2","real","true","1","common","1","2022-04-20 01:46:00.925"
"two-step-fixation","161","609907","0.0-76.0-2.8","958","1399","8","Female","true","false","true","true","""event"",""trial"",""time""
""fullscreenenter"",""5"",""95354""
","
","
","""event"",""trial"",""time""
""fullscreenenter"",""5"",""95354""
","
","","images/earth.jpg","","","","","","","","","","","","","","fixation","","","","","",""
"d3-animate-choice","162","612398","0.0-76.0-0.9","958","1399","8","Female","true","false","true","true","""event"",""trial"",""time""
""fullscreenenter"",""5"",""95354""
","
","
","""event"",""trial"",""time""
""fullscreenenter"",""5"",""95354""
","
","483.5","","49","","","3000","1","","","images/earth.jpg","images/rocket2","images/rocket1","null","images/rocket1","","1","real","null","1","","",""
"d3-animate-choice","163","614773","0.0-76.0-1.9","958","1399","8","Female","true","false","true","true","""event"",""trial"",""time""
""fullscreenenter"",""5"",""95354""
","
","
","""event"",""trial"",""time""
""fullscreenenter"",""5"",""95354""
","
","370.5","","49","","","3000","1","","","images/redplanet1.jpg","images/alien2","images/alien1","images/rocket1","images/alien1","images/nothing.png","2","real","false","1","rare","0","2022-04-20 01:46:06.794"
"two-step-fixation","164","615777","0.0-76.0-2.9","958","1399","8","Female","true","false","true","true","""event"",""trial"",""time""
""fullscreenenter"",""5"",""95354""
","
","
","""event"",""trial"",""time""
""fullscreenenter"",""5"",""95354""
","
","","images/earth.jpg","","","","","","","","","","","","","","fixation","","","","","",""
"d3-animate-choice","165","618128","0.0-76.0-0.10","958","1399","8","Female","true","false","true","true","""event"",""trial"",""time""
""fullscreenenter"",""5"",""95354""
","
","
","""event"",""trial"",""time""
""fullscreenenter"",""5"",""95354""
","
","345.8999999910593","","48","","","3000","1","","","images/earth.jpg","images/rocket2","images/rocket1","null","images/rocket2","","1","real","null","2","","",""
"d3-animate-choice","166","620535","0.0-76.0-1.10","958","1399","8","Female","true","false","true","true","""event"",""trial"",""time""
""fullscreenenter"",""5"",""95354""
","
","
","""event"",""trial"",""time""
""fullscreenenter"",""5"",""95354""
","
","401.79999999701977","","48","","","3000","1","","","images/redplanet1.jpg","images/alien2","images/alien1","images/rocket2","images/alien2","images/nothing.png","2","real","true","2","common","0","2022-04-20 01:46:12.557"
"two-step-fixation","167","621540","0.0-76.0-2.10","958","1399","8","Female","true","false","true","true","""event"",""trial"",""time""
""fullscreenenter"",""5"",""95354""
","
","
","""event"",""trial"",""time""
""fullscreenenter"",""5"",""95354""
","
","","images/earth.jpg","","","","","","","","","","","","","","fixation","","","","","",""
"d3-animate-choice","168","624043","0.0-76.0-0.11","958","1399","8","Female","true","false","true","true","""event"",""trial"",""time""
""fullscreenenter"",""5"",""95354""
","
","
","""event"",""trial"",""time""
""fullscreenenter"",""5"",""95354""
","
","498.1000000089407","","49","","","3000","1","","","images/earth.jpg","images/rocket2","images/rocket1","null","images/rocket1","","1","real","null","1","","",""
"d3-animate-choice","169","626463","0.0-76.0-1.11","958","1399","8","Female","true","false","true","true","""event"",""trial"",""time""
""fullscreenenter"",""5"",""95354""
","
","
","""event"",""trial"",""time""
""fullscreenenter"",""5"",""95354""
","
","412.79999999701977","","49","","","3000","1","","","images/purpleplanet.jpg","images/alien4","images/alien3","images/rocket1","images/alien3","images/nothing.png","2","real","true","1","common","0","2022-04-20 01:46:18.484"
"two-step-fixation","170","627469","0.0-76.0-2.11","958","1399","8","Female","true","false","true","true","""event"",""trial"",""time""
""fullscreenenter"",""5"",""95354""
","
","
","""event"",""trial"",""time""
""fullscreenenter"",""5"",""95354""
","
","","images/earth.jpg","","","","","","","","","","","","","","fixation","","","","","",""
"d3-animate-choice","171","629527","0.0-76.0-0.12","958","1399","8","Female","true","false","true","true","""event"",""trial"",""time""
""fullscreenenter"",""5"",""95354""
","
","
","""event"",""trial"",""time""
""fullscreenenter"",""5"",""95354""
","
","53.69999998807907","","48","","","3000","1","","","images/earth.jpg","images/rocket2","images/rocket1","null","images/rocket2","","1","real","null","2","","",""
"d3-animate-choice","172","631944","0.0-76.0-1.12","958","1399","8","Female","true","false","true","true","""event"",""trial"",""time""
""fullscreenenter"",""5"",""95354""
","
","
","""event"",""trial"",""time""
""fullscreenenter"",""5"",""95354""
","
","413.29999999701977","","48","","","3000","1","","","images/redplanet1.jpg","images/alien2","images/alien1","images/rocket2","images/alien2","images/t.png","2","real","true","2","common","1","2022-04-20 01:46:23.965"
"two-step-fixation","173","632948","0.0-76.0-2.12","958","1399","8","Female","true","false","true","true","""event"",""trial"",""time""
""fullscreenenter"",""5"",""95354""
","
","
","""event"",""trial"",""time""
""fullscreenenter"",""5"",""95354""
","
","","images/earth.jpg","","","","","","","","","","","","","","fixation","","","","","",""
"d3-animate-choice","174","635345","0.0-76.0-0.13","958","1399","8","Female","true","false","true","true","""event"",""trial"",""time""
""fullscreenenter"",""5"",""95354""
","
","
","""event"",""trial"",""time""
""fullscreenenter"",""5"",""95354""
","
","392","","48","","","3000","1","","","images/earth.jpg","images/rocket2","images/rocket1","null","images/rocket2","","1","real","null","2","","",""
"d3-animate-choice","175","637774","0.0-76.0-1.13","958","1399","8","Female","true","false","true","true","""event"",""trial"",""time""
""fullscreenenter"",""5"",""95354""
","
","
","""event"",""trial"",""time""
""fullscreenenter"",""5"",""95354""
","
","424.79999999701977","","48","","","3000","1","","","images/redplanet1.jpg","images/alien2","images/alien1","images/rocket2","images/alien2","images/t.png","2","real","true","2","common","1","2022-04-20 01:46:29.795"
"two-step-fixation","176","638779","0.0-76.0-2.13","958","1399","8","Female","true","false","true","true","""event"",""trial"",""time""
""fullscreenenter"",""5"",""95354""
","
","
","""event"",""trial"",""time""
""fullscreenenter"",""5"",""95354""
","
","","images/earth.jpg","","","","","","","","","","","","","","fixation","","","","","",""
"d3-animate-choice","177","641233","0.0-76.0-0.14","958","1399","8","Female","true","false","true","true","""event"",""trial"",""time""
""fullscreenenter"",""5"",""95354""
","
","
","""event"",""trial"",""time""
""fullscreenenter"",""5"",""95354""
","
","449","","48","","","3000","1","","","images/earth.jpg","images/rocket2","images/rocket1","null","images/rocket2","","1","real","null","2","","",""
"d3-animate-choice","178","644369","0.0-76.0-1.14","958","1399","8","Female","true","false","true","true","""event"",""trial"",""time""
""fullscreenenter"",""5"",""95354""
","
","
","""event"",""trial"",""time""
""fullscreenenter"",""5"",""95354""
","
","1132.2999999970198","","48","","","3000","1","","","images/purpleplanet.jpg","images/alien4","images/alien3","images/rocket2","images/alien4","images/t.png","2","real","false","2","rare","1","2022-04-20 01:46:36.390"
"two-step-fixation","179","645375","0.0-76.0-2.14","958","1399","8","Female","true","false","true","true","""event"",""trial"",""time""
""fullscreenenter"",""5"",""95354""
","
","
","""event"",""trial"",""time""
""fullscreenenter"",""5"",""95354""
","
","","images/earth.jpg","","","","","","","","","","","","","","fixation","","","","","",""
"d3-animate-choice","180","647771","0.0-76.0-0.15","958","1399","8","Female","true","false","true","true","""event"",""trial"",""time""
""fullscreenenter"",""5"",""95354""
","
","
","""event"",""trial"",""time""
""fullscreenenter"",""5"",""95354""
","
","391.29999999701977","","48","","","3000","1","","","images/earth.jpg","images/rocket2","images/rocket1","null","images/rocket2","","1","real","null","2","","",""
"d3-animate-choice","181","650251","0.0-76.0-1.15","958","1399","8","Female","true","false","true","true","""event"",""trial"",""time""
""fullscreenenter"",""5"",""95354""
","
","
","""event"",""trial"",""time""
""fullscreenenter"",""5"",""95354""
","
","473.79999999701977","","48","","","3000","1","","","images/redplanet1.jpg","images/alien2","images/alien1","images/rocket2","images/alien2","images/t.png","2","real","true","2","common","1","2022-04-20 01:46:42.272"
"two-step-fixation","182","651256","0.0-76.0-2.15","958","1399","8","Female","true","false","true","true","""event"",""trial"",""time""
""fullscreenenter"",""5"",""95354""
","
","
","""event"",""trial"",""time""
""fullscreenenter"",""5"",""95354""
","
","","images/earth.jpg","","","","","","","","","","","","","","fixation","","","","","",""
"d3-animate-choice","183","653661","0.0-76.0-0.16","958","1399","8","Female","true","false","true","true","""event"",""trial"",""time""
""fullscreenenter"",""5"",""95354""
","
","
","""event"",""trial"",""time""
""fullscreenenter"",""5"",""95354""
","
","400.70000000298023","","48","","","3000","1","","","images/earth.jpg","images/rocket2","images/rocket1","null","images/rocket2","","1","real","null","2","","",""
"d3-animate-choice","184","656234","0.0-76.0-1.16","958","1399","8","Female","true","false","true","true","""event"",""trial"",""time""
""fullscreenenter"",""5"",""95354""
","
","
","""event"",""trial"",""time""
""fullscreenenter"",""5"",""95354""
","
","569.2000000029802","","48","","","3000","1","","","images/redplanet1.jpg","images/alien2","images/alien1","images/rocket2","images/alien2","images/t.png","2","real","true","2","common","1","2022-04-20 01:46:48.256"
"two-step-fixation","185","657238","0.0-76.0-2.16","958","1399","8","Female","true","false","true","true","""event"",""trial"",""time""
""fullscreenenter"",""5"",""95354""
","
","
","""event"",""trial"",""time""
""fullscreenenter"",""5"",""95354""
","
","","images/earth.jpg","","","","","","","","","","","","","","fixation","","","","","",""
"d3-animate-choice","186","660093","0.0-76.0-0.17","958","1399","8","Female","true","false","true","true","""event"",""trial"",""time""
""fullscreenenter"",""5"",""95354""
","
","
","""event"",""trial"",""time""
""fullscreenenter"",""5"",""95354""
","
","845.6999999880791","","48","","","3000","1","","","images/earth.jpg","images/rocket2","images/rocket1","null","images/rocket2","","1","real","null","2","","",""
"d3-animate-choice","187","662564","0.0-76.0-1.17","958","1399","8","Female","true","false","true","true","""event"",""trial"",""time""
""fullscreenenter"",""5"",""95354""
","
","
","""event"",""trial"",""time""
""fullscreenenter"",""5"",""95354""
","
","464.70000000298023","","48","","","3000","1","468.40000000596046","49","images/redplanet1.jpg","images/alien2","images/alien1","images/rocket2","images/alien2","images/t.png","2","real","true","2","common","1","2022-04-20 01:46:54.585"
"two-step-fixation","188","663568","0.0-76.0-2.17","958","1399","8","Female","true","false","true","true","""event"",""trial"",""time""
""fullscreenenter"",""5"",""95354""
","
","
","""event"",""trial"",""time""
""fullscreenenter"",""5"",""95354""
","
","","images/earth.jpg","","","","","","","","","","","","","","fixation","","","","","",""
"d3-animate-choice","189","665997","0.0-76.0-0.18","958","1399","8","Female","true","false","true","true","""event"",""trial"",""time""
""fullscreenenter"",""5"",""95354""
","
","
","""event"",""trial"",""time""
""fullscreenenter"",""5"",""95354""
","
","424.1000000089407","","48","","","3000","1","","","images/earth.jpg","images/rocket2","images/rocket1","null","images/rocket2","","1","real","null","2","","",""
"d3-animate-choice","190","668400","0.0-76.0-1.18","958","1399","8","Female","true","false","true","true","""event"",""trial"",""time""
""fullscreenenter"",""5"",""95354""
","
","
","""event"",""trial"",""time""
""fullscreenenter"",""5"",""95354""
","
","395.40000000596046","","48","","","3000","1","","","images/redplanet1.jpg","images/alien2","images/alien1","images/rocket2","images/alien2","images/t.png","2","real","true","2","common","1","2022-04-20 01:47:00.422"
"two-step-fixation","191","669405","0.0-76.0-2.18","958","1399","8","Female","true","false","true","true","""event"",""trial"",""time""
""fullscreenenter"",""5"",""95354""
","
","
","""event"",""trial"",""time""
""fullscreenenter"",""5"",""95354""
","
","","images/earth.jpg","","","","","","","","","","","","","","fixation","","","","","",""
"d3-animate-choice","192","671449","0.0-76.0-0.19","958","1399","8","Female","true","false","true","true","""event"",""trial"",""time""
""fullscreenenter"",""5"",""95354""
","
","
","""event"",""trial"",""time""
""fullscreenenter"",""5"",""95354""
","
","40.400000005960464","","48","","","3000","1","","","images/earth.jpg","images/rocket2","images/rocket1","null","images/rocket2","","1","real","null","2","","",""
"d3-animate-choice","193","674122","0.0-76.0-1.19","958","1399","8","Female","true","false","true","true","""event"",""trial"",""time""
""fullscreenenter"",""5"",""95354""
","
","
","""event"",""trial"",""time""
""fullscreenenter"",""5"",""95354""
","
","668.0999999940395","","48","","","3000","1","","","images/purpleplanet.jpg","images/alien4","images/alien3","images/rocket2","images/alien4","images/t.png","2","real","false","2","rare","1","2022-04-20 01:47:06.144"
"two-step-fixation","194","675127","0.0-76.0-2.19","958","1399","8","Female","true","false","true","true","""event"",""trial"",""time""
""fullscreenenter"",""5"",""95354""
","
","
","""event"",""trial"",""time""
""fullscreenenter"",""5"",""95354""
","
","","images/earth.jpg","","","","","","","","","","","","","","fixation","","","","","",""
"d3-animate-choice","195","677490","0.0-76.0-0.20","958","1399","8","Female","true","false","true","true","""event"",""trial"",""time""
""fullscreenenter"",""5"",""95354""
","
","
","""event"",""trial"",""time""
""fullscreenenter"",""5"",""95354""
","
","359.5","","48","","","3000","1","","","images/earth.jpg","images/rocket2","images/rocket1","null","images/rocket2","","1","real","null","2","","",""
"d3-animate-choice","196","679999","0.0-76.0-1.20","958","1399","8","Female","true","false","true","true","""event"",""trial"",""time""
""fullscreenenter"",""5"",""95354""
","
","
","""event"",""trial"",""time""
""fullscreenenter"",""5"",""95354""
","
","504.09999999403954","","48","","","3000","1","","","images/redplanet1.jpg","images/alien2","images/alien1","images/rocket2","images/alien2","images/t.png","2","real","true","2","common","1","2022-04-20 01:47:12.020"
"two-step-fixation","197","681003","0.0-76.0-2.20","958","1399","8","Female","true","false","true","true","""event"",""trial"",""time""
""fullscreenenter"",""5"",""95354""
","
","
","""event"",""trial"",""time""
""fullscreenenter"",""5"",""95354""
","
","","images/earth.jpg","","","","","","","","","","","","","","fixation","","","","","",""
"d3-animate-choice","198","683058","0.0-76.0-0.21","958","1399","8","Female","true","false","true","true","""event"",""trial"",""time""
""fullscreenenter"",""5"",""95354""
","
","
","""event"",""trial"",""time""
""fullscreenenter"",""5"",""95354""
","
","49.79999999701977","","48","","","3000","1","","","images/earth.jpg","images/rocket2","images/rocket1","null","images/rocket2","","1","real","null","2","","",""
"d3-animate-choice","199","685490","0.0-76.0-1.21","958","1399","8","Female","true","false","true","true","""event"",""trial"",""time""
""fullscreenenter"",""5"",""95354""
","
","
","""event"",""trial"",""time""
""fullscreenenter"",""5"",""95354""
","
","428","","48","","","3000","1","","","images/purpleplanet.jpg","images/alien4","images/alien3","images/rocket2","images/alien4","images/t.png","2","real","false","2","rare","1","2022-04-20 01:47:17.511"
"two-step-fixation","200","686495","0.0-76.0-2.21","958","1399","8","Female","true","false","true","true","""event"",""trial"",""time""
""fullscreenenter"",""5"",""95354""
","
","
","""event"",""trial"",""time""
""fullscreenenter"",""5"",""95354""
","
","","images/earth.jpg","","","","","","","","","","","","","","fixation","","","","","",""
"d3-animate-choice","201","689258","0.0-76.0-0.22","958","1399","8","Female","true","false","true","true","""event"",""trial"",""time""
""fullscreenenter"",""5"",""95354""
","
","
","""event"",""trial"",""time""
""fullscreenenter"",""5"",""95354""
","
","757.7000000029802","","48","","","3000","1","","","images/earth.jpg","images/rocket2","images/rocket1","null","images/rocket2","","1","real","null","2","","",""
"d3-animate-choice","202","691563","0.0-76.0-1.22","958","1399","8","Female","true","false","true","true","""event"",""trial"",""time""
""fullscreenenter"",""5"",""95354""
","
","
","""event"",""trial"",""time""
""fullscreenenter"",""5"",""95354""
","
","301.3999999910593","","48","","","3000","1","","","images/purpleplanet.jpg","images/alien4","images/alien3","images/rocket2","images/alien4","images/nothing.png","2","real","false","2","rare","0","2022-04-20 01:47:23.584"
"two-step-fixation","203","692567","0.0-76.0-2.22","958","1399","8","Female","true","false","true","true","""event"",""trial"",""time""
""fullscreenenter"",""5"",""95354""
","
","
","""event"",""trial"",""time""
""fullscreenenter"",""5"",""95354""
","
","","images/earth.jpg","","","","","","","","","","","","","","fixation","","","","","",""
"d3-animate-choice","204","695053","0.0-76.0-0.23","958","1399","8","Female","true","false","true","true","""event"",""trial"",""time""
""fullscreenenter"",""5"",""95354""
","
","
","""event"",""trial"",""time""
""fullscreenenter"",""5"",""95354""
","
","481","","49","","","3000","1","","","images/earth.jpg","images/rocket2","images/rocket1","null","images/rocket1","","1","real","null","1","","",""
"d3-animate-choice","205","697438","0.0-76.0-1.23","958","1399","8","Female","true","false","true","true","""event"",""trial"",""time""
""fullscreenenter"",""5"",""95354""
","
","
","""event"",""trial"",""time""
""fullscreenenter"",""5"",""95354""
","
","378.29999999701977","","49","","","3000","1","","","images/purpleplanet.jpg","images/alien4","images/alien3","images/rocket1","images/alien3","images/t.png","2","real","true","1","common","1","2022-04-20 01:47:29.459"
"two-step-fixation","206","698442","0.0-76.0-2.23","958","1399","8","Female","true","false","true","true","""event"",""trial"",""time""
""fullscreenenter"",""5"",""95354""
","
","
","""event"",""trial"",""time""
""fullscreenenter"",""5"",""95354""
","
","","images/earth.jpg","","","","","","","","","","","","","","fixation","","","","","",""
"d3-animate-choice","207","700845","0.0-76.0-0.24","958","1399","8","Female","true","false","true","true","""event"",""trial"",""time""
""fullscreenenter"",""5"",""95354""
","
","
","""event"",""trial"",""time""
""fullscreenenter"",""5"",""95354""
","
","399.40000000596046","","49","","","3000","1","","","images/earth.jpg","images/rocket2","images/rocket1","null","images/rocket1","","1","real","null","1","","",""
"d3-animate-choice","208","703429","0.0-76.0-1.24","958","1399","8","Female","true","false","true","true","""event"",""trial"",""time""
""fullscreenenter"",""5"",""95354""
","
","
","""event"",""trial"",""time""
""fullscreenenter"",""5"",""95354""
","
","575.7999999970198","","49","","","3000","1","","","images/purpleplanet.jpg","images/alien4","images/alien3","images/rocket1","images/alien3","images/nothing.png","2","real","true","1","common","0","2022-04-20 01:47:35.450"
"two-step-fixation","209","704433","0.0-76.0-2.24","958","1399","8","Female","true","false","true","true","""event"",""trial"",""time""
""fullscreenenter"",""5"",""95354""
","
","
","""event"",""trial"",""time""
""fullscreenenter"",""5"",""95354""
","
","","images/earth.jpg","","","","","","","","","","","","","","fixation","","","","","",""
"d3-animate-choice","210","706645","0.0-76.0-0.25","958","1399","8","Female","true","false","true","true","""event"",""trial"",""time""
""fullscreenenter"",""5"",""95354""
","
","
","""event"",""trial"",""time""
""fullscreenenter"",""5"",""95354""
","
","206.5","","49","","","3000","1","","","images/earth.jpg","images/rocket2","images/rocket1","null","images/rocket1","","1","real","null","1","","",""
"d3-animate-choice","211","709030","0.0-76.0-1.25","958","1399","8","Female","true","false","true","true","""event"",""trial"",""time""
""fullscreenenter"",""5"",""95354""
","
","
","""event"",""trial"",""time""
""fullscreenenter"",""5"",""95354""
","
","381.8999999910593","","48","","","3000","1","","","images/purpleplanet.jpg","images/alien4","images/alien3","images/rocket1","images/alien4","images/t.png","2","real","true","2","common","1","2022-04-20 01:47:41.051"
"two-step-fixation","212","710035","0.0-76.0-2.25","958","1399","8","Female","true","false","true","true","""event"",""trial"",""time""
""fullscreenenter"",""5"",""95354""
","
","
","""event"",""trial"",""time""
""fullscreenenter"",""5"",""95354""
","
","","images/earth.jpg","","","","","","","","","","","","","","fixation","","","","","",""
"d3-animate-choice","213","712386","0.0-76.0-0.26","958","1399","8","Female","true","false","true","true","""event"",""trial"",""time""
""fullscreenenter"",""5"",""95354""
","
","
","""event"",""trial"",""time""
""fullscreenenter"",""5"",""95354""
","
","345.90000000596046","","49","","","3000","1","","","images/earth.jpg","images/rocket2","images/rocket1","null","images/rocket1","","1","real","null","1","","",""
"d3-animate-choice","214","714810","0.0-76.0-1.26","958","1399","8","Female","true","false","true","true","""event"",""trial"",""time""
""fullscreenenter"",""5"",""95354""
","
","
","""event"",""trial"",""time""
""fullscreenenter"",""5"",""95354""
","
","419.80000001192093","","48","","","3000","1","","","images/purpleplanet.jpg","images/alien4","images/alien3","images/rocket1","images/alien4","images/nothing.png","2","real","true","2","common","0","2022-04-20 01:47:46.831"
"two-step-fixation","215","715815","0.0-76.0-2.26","958","1399","8","Female","true","false","true","true","""event"",""trial"",""time""
""fullscreenenter"",""5"",""95354""
","
","
","""event"",""trial"",""time""
""fullscreenenter"",""5"",""95354""
","
","","images/earth.jpg","","","","","","","","","","","","","","fixation","","","","","",""
"d3-animate-choice","216","717980","0.0-76.0-0.27","958","1399","8","Female","true","false","true","true","""event"",""trial"",""time""
""fullscreenenter"",""5"",""95354""
","
","
","""event"",""trial"",""time""
""fullscreenenter"",""5"",""95354""
","
","159.90000000596046","","48","","","3000","1","","","images/earth.jpg","images/rocket2","images/rocket1","null","images/rocket2","","1","real","null","2","","",""
"d3-animate-choice","217","720327","0.0-76.0-1.27","958","1399","8","Female","true","false","true","true","""event"",""trial"",""time""
""fullscreenenter"",""5"",""95354""
","
","
","""event"",""trial"",""time""
""fullscreenenter"",""5"",""95354""
","
","342.20000000298023","","49","","","3000","1","","","images/redplanet1.jpg","images/alien2","images/alien1","images/rocket2","images/alien1","images/t.png","2","real","true","1","common","1","2022-04-20 01:47:52.348"
"two-step-fixation","218","721332","0.0-76.0-2.27","958","1399","8","Female","true","false","true","true","""event"",""trial"",""time""
""fullscreenenter"",""5"",""95354""
","
","
","""event"",""trial"",""time""
""fullscreenenter"",""5"",""95354""
","
","","images/earth.jpg","","","","","","","","","","","","","","fixation","","","","","",""
"d3-animate-choice","219","723780","0.0-76.0-0.28","958","1399","8","Female","true","false","true","true","""event"",""trial"",""time""
""fullscreenenter"",""5"",""95354""
","
","
","""event"",""trial"",""time""
""fullscreenenter"",""5"",""95354""
","
","442.8999999910593","","48","","","3000","1","","","images/earth.jpg","images/rocket2","images/rocket1","null","images/rocket2","","1","real","null","2","","",""
"d3-animate-choice","220","726263","0.0-76.0-1.28","958","1399","8","Female","true","false","true","true","""event"",""trial"",""time""
""fullscreenenter"",""5"",""95354""
","
","
","""event"",""trial"",""time""
""fullscreenenter"",""5"",""95354""
","
","478.8999999910593","","49","","","3000","1","","","images/purpleplanet.jpg","images/alien4","images/alien3","images/rocket2","images/alien3","images/t.png","2","real","false","1","rare","1","2022-04-20 01:47:58.285"
"two-step-fixation","221","727268","0.0-76.0-2.28","958","1399","8","Female","true","false","true","true","""event"",""trial"",""time""
""fullscreenenter"",""5"",""95354""
","
","
","""event"",""trial"",""time""
""fullscreenenter"",""5"",""95354""
","
","","images/earth.jpg","","","","","","","","","","","","","","fixation","","","","","",""
"d3-animate-choice","222","729633","0.0-76.0-0.29","958","1399","8","Female","true","false","true","true","""event"",""trial"",""time""
""fullscreenenter"",""5"",""95354""
","
","
","""event"",""trial"",""time""
""fullscreenenter"",""5"",""95354""
","
","360.29999999701977","","48","","","3000","1","","","images/earth.jpg","images/rocket2","images/rocket1","null","images/rocket2","","1","real","null","2","","",""
"d3-animate-choice","223","731950","0.0-76.0-1.29","958","1399","8","Female","true","false","true","true","""event"",""trial"",""time""
""fullscreenenter"",""5"",""95354""
","
","
","""event"",""trial"",""time""
""fullscreenenter"",""5"",""95354""
","
","310.40000000596046","","49","","","3000","1","","","images/redplanet1.jpg","images/alien2","images/alien1","images/rocket2","images/alien1","images/t.png","2","real","true","1","common","1","2022-04-20 01:48:03.971"
"two-step-fixation","224","732954","0.0-76.0-2.29","958","1399","8","Female","true","false","true","true","""event"",""trial"",""time""
""fullscreenenter"",""5"",""95354""
","
","
","""event"",""trial"",""time""
""fullscreenenter"",""5"",""95354""
","
","","images/earth.jpg","","","","","","","","","","","","","","fixation","","","","","",""
"d3-animate-choice","225","735067","0.0-76.0-0.30","958","1399","8","Female","true","false","true","true","""event"",""trial"",""time""
""fullscreenenter"",""5"",""95354""
","
","
","""event"",""trial"",""time""
""fullscreenenter"",""5"",""95354""
","
","107.40000000596046","","48","","","3000","1","","","images/earth.jpg","images/rocket2","images/rocket1","null","images/rocket2","","1","real","null","2","","",""
"d3-animate-choice","226","737371","0.0-76.0-1.30","958","1399","8","Female","true","false","true","true","""event"",""trial"",""time""
""fullscreenenter"",""5"",""95354""
","
","
","""event"",""trial"",""time""
""fullscreenenter"",""5"",""95354""
","
","301.30000001192093","","49","","","3000","1","","","images/redplanet1.jpg","images/alien2","images/alien1","images/rocket2","images/alien1","images/nothing.png","2","real","true","1","common","0","2022-04-20 01:48:09.393"
"two-step-fixation","227","738376","0.0-76.0-2.30","958","1399","8","Female","true","false","true","true","""event"",""trial"",""time""
""fullscreenenter"",""5"",""95354""
","
","
","""event"",""trial"",""time""
""fullscreenenter"",""5"",""95354""
","
","","images/earth.jpg","","","","","","","","","","","","","","fixation","","","","","",""
"d3-animate-choice","228","741158","0.0-76.0-0.31","958","1399","8","Female","true","false","true","true","""event"",""trial"",""time""
""fullscreenenter"",""5"",""95354""
","
","
","""event"",""trial"",""time""
""fullscreenenter"",""5"",""95354""
","
","778.2999999970198","","49","","","3000","1","","","images/earth.jpg","images/rocket2","images/rocket1","null","images/rocket1","","1","real","null","1","","",""
"d3-animate-choice","229","743495","0.0-76.0-1.31","958","1399","8","Female","true","false","true","true","""event"",""trial"",""time""
""fullscreenenter"",""5"",""95354""
","
","
","""event"",""trial"",""time""
""fullscreenenter"",""5"",""95354""
","
","331.70000000298023","","48","","","3000","1","","","images/purpleplanet.jpg","images/alien4","images/alien3","images/rocket1","images/alien4","images/nothing.png","2","real","true","2","common","0","2022-04-20 01:48:15.516"
"two-step-fixation","230","744500","0.0-76.0-2.31","958","1399","8","Female","true","false","true","true","""event"",""trial"",""time""
""fullscreenenter"",""5"",""95354""
","
","
","""event"",""trial"",""time""
""fullscreenenter"",""5"",""95354""
","
","","images/earth.jpg","","","","","","","","","","","","","","fixation","","","","","",""
"d3-animate-choice","231","746535","0.0-76.0-0.32","958","1399","8","Female","true","false","true","true","""event"",""trial"",""time""
""fullscreenenter"",""5"",""95354""
","
","
","""event"",""trial"",""time""
""fullscreenenter"",""5"",""95354""
","
","30.599999994039536","","49","","","3000","1","","","images/earth.jpg","images/rocket2","images/rocket1","null","images/rocket1","","1","real","null","1","","",""
"d3-animate-choice","232","748964","0.0-76.0-1.32","958","1399","8","Female","true","false","true","true","""event"",""trial"",""time""
""fullscreenenter"",""5"",""95354""
","
","
","""event"",""trial"",""time""
""fullscreenenter"",""5"",""95354""
","
","423.70000000298023","","49","","","3000","1","","","images/redplanet1.jpg","images/alien2","images/alien1","images/rocket1","images/alien1","images/t.png","2","real","false","1","rare","1","2022-04-20 01:48:20.985"
"two-step-fixation","233","749969","0.0-76.0-2.32","958","1399","8","Female","true","false","true","true","""event"",""trial"",""time""
""fullscreenenter"",""5"",""95354""
","
","
","""event"",""trial"",""time""
""fullscreenenter"",""5"",""95354""
","
","","images/earth.jpg","","","","","","","","","","","","","","fixation","","","","","",""
"d3-animate-choice","234","752376","0.0-76.0-0.33","958","1399","8","Female","true","false","true","true","""event"",""trial"",""time""
""fullscreenenter"",""5"",""95354""
","
","
","""event"",""trial"",""time""
""fullscreenenter"",""5"",""95354""
","
","401.8999999910593","","49","","","3000","1","","","images/earth.jpg","images/rocket2","images/rocket1","null","images/rocket1","","1","real","null","1","","",""
"d3-animate-choice","235","754809","0.0-76.0-1.33","958","1399","8","Female","true","false","true","true","""event"",""trial"",""time""
""fullscreenenter"",""5"",""95354""
","
","
","""event"",""trial"",""time""
""fullscreenenter"",""5"",""95354""
","
","426.40000000596046","","49","","","3000","1","","","images/purpleplanet.jpg","images/alien4","images/alien3","images/rocket1","images/alien3","images/nothing.png","2","real","true","1","common","0","2022-04-20 01:48:26.830"
"two-step-fixation","236","755813","0.0-76.0-2.33","958","1399","8","Female","true","false","true","true","""event"",""trial"",""time""
""fullscreenenter"",""5"",""95354""
","
","
","""event"",""trial"",""time""
""fullscreenenter"",""5"",""95354""
","
","","images/earth.jpg","","","","","","","","","","","","","","fixation","","","","","",""
"d3-animate-choice","237","758351","0.0-76.0-0.34","958","1399","8","Female","true","false","true","true","""event"",""trial"",""time""
""fullscreenenter"",""5"",""95354""
","
","
","""event"",""trial"",""time""
""fullscreenenter"",""5"",""95354""
","
","533.7999999970198","","48","","","3000","1","","","images/earth.jpg","images/rocket2","images/rocket1","null","images/rocket2","","1","real","null","2","","",""
"d3-animate-choice","238","760872","0.0-76.0-1.34","958","1399","8","Female","true","false","true","true","""event"",""trial"",""time""
""fullscreenenter"",""5"",""95354""
","
","
","""event"",""trial"",""time""
""fullscreenenter"",""5"",""95354""
","
","516.5999999940395","","48","","","3000","1","","","images/redplanet1.jpg","images/alien2","images/alien1","images/rocket2","images/alien2","images/nothing.png","2","real","true","2","common","0","2022-04-20 01:48:32.893"
"two-step-fixation","239","761876","0.0-76.0-2.34","958","1399","8","Female","true","false","true","true","""event"",""trial"",""time""
""fullscreenenter"",""5"",""95354""
","
","
","""event"",""trial"",""time""
""fullscreenenter"",""5"",""95354""
","
","","images/earth.jpg","","","","","","","","","","","","","","fixation","","","","","",""
"d3-animate-choice","240","764318","0.0-76.0-0.35","958","1399","8","Female","true","false","true","true","""event"",""trial"",""time""
""fullscreenenter"",""5"",""95354""
","
","
","""event"",""trial"",""time""
""fullscreenenter"",""5"",""95354""
","
","437.30000001192093","","49","","","3000","1","","","images/earth.jpg","images/rocket2","images/rocket1","null","images/rocket1","","1","real","null","1","","",""
"d3-animate-choice","241","766788","0.0-76.0-1.35","958","1399","8","Female","true","false","true","true","""event"",""trial"",""time""
""fullscreenenter"",""5"",""95354""
","
","
","""event"",""trial"",""time""
""fullscreenenter"",""5"",""95354""
","
","466.20000000298023","","48","","","3000","1","","","images/purpleplanet.jpg","images/alien4","images/alien3","images/rocket1","images/alien4","images/t.png","2","real","true","2","common","1","2022-04-20 01:48:38.809"
"two-step-fixation","242","767793","0.0-76.0-2.35","958","1399","8","Female","true","false","true","true","""event"",""trial"",""time""
""fullscreenenter"",""5"",""95354""
","
","
","""event"",""trial"",""time""
""fullscreenenter"",""5"",""95354""
","
","","images/earth.jpg","","","","","","","","","","","","","","fixation","","","","","",""
"d3-animate-choice","243","770394","0.0-76.0-0.36","958","1399","8","Female","true","false","true","true","""event"",""trial"",""time""
""fullscreenenter"",""5"",""95354""
","
","
","""event"",""trial"",""time""
""fullscreenenter"",""5"",""95354""
","
","598","","49","","","3000","1","","","images/earth.jpg","images/rocket2","images/rocket1","null","images/rocket1","","1","real","null","1","","",""
"d3-animate-choice","244","772781","0.0-76.0-1.36","958","1399","8","Female","true","false","true","true","""event"",""trial"",""time""
""fullscreenenter"",""5"",""95354""
","
","
","""event"",""trial"",""time""
""fullscreenenter"",""5"",""95354""
","
","383.29999999701977","","48","","","3000","1","","","images/redplanet1.jpg","images/alien2","images/alien1","images/rocket1","images/alien2","images/t.png","2","real","false","2","rare","1","2022-04-20 01:48:44.802"
"two-step-fixation","245","773784","0.0-76.0-2.36","958","1399","8","Female","true","false","true","true","""event"",""trial"",""time""
""fullscreenenter"",""5"",""95354""
","
","
","""event"",""trial"",""time""
""fullscreenenter"",""5"",""95354""
","
","","images/earth.jpg","","","","","","","","","","","","","","fixation","","","","","",""
"d3-animate-choice","246","775948","0.0-76.0-0.37","958","1399","8","Female","true","false","true","true","""event"",""trial"",""time""
""fullscreenenter"",""5"",""95354""
","
","
","""event"",""trial"",""time""
""fullscreenenter"",""5"",""95354""
","
","159.29999999701977","","49","","","3000","1","","","images/earth.jpg","images/rocket2","images/rocket1","null","images/rocket1","","1","real","null","1","","",""
