"trial_type","trial_index","time_elapsed","internal_node_id","participant_id","subject_id","age","gender","rocket_sides","red_planet_first_rocket","red_display_order","purple_display_order","interactions","blur_events","focus_events","fullscreenenter_events","fullscreenexit_events","rt","stimulus","key_press","button_pressed","success","duration","valid_pressed","rts","keys","planet_text","right_text","left_text","center_text","chosen_text","reward_text","trial_stage","practice_trial","transition_type","choice","transition","reward","timestamp"
"pavlovia","0","1","0.0-0.0","3880","7204","19","Male","true","true","true","true","
","
","
","
","
","","","","","","","","","","","","","","","","","","","","","",""
"html-keyboard-response","1","1198","0.0-1.0","3880","7204","19","Male","true","true","true","true","
","
","
","
","
","1195.7000000178814","Welcome! Press the space bar to begin.","32","","","","","","","","","","","","","","","","","","",""
"audio-keyboard-response","2","3833","0.0-2.0","3880","7204","19","Male","true","true","true","true","
","
","
","
","
","2549","audio/beep_loop.wav","32","","","","","","","","","","","","","","","","","","",""
"audio-button-response","3","5744","0.0-3.0","3880","7204","19","Male","true","true","true","true","
","
","
","
","
","NaN","audio/fish.mp3","","1","","","","","","","","","","","","","","","","","",""
"audio-button-response","4","8008","0.0-4.0","3880","7204","19","Male","true","true","true","true","""event"",""trial"",""time""
""fullscreenenter"",""5"",""10196""
","
","
","""event"",""trial"",""time""
""fullscreenenter"",""5"",""10196""
","
","NaN","audio/tiger.mp3","","4","","","","","","","","","","","","","","","","","",""
"fullscreen","5","11197","0.0-5.0","3880","7204","19","Male","true","true","true","true","""event"",""trial"",""time""
""fullscreenenter"",""5"",""10196""
","
","
","""event"",""trial"",""time""
""fullscreenenter"",""5"",""10196""
","
","","","","","true","","","","","","","","","","","","","","","","",""
"d3-instructions","6","19632","0.0-6.0","3880","7204","19","Male","true","true","true","true","""event"",""trial"",""time""
""fullscreenenter"",""5"",""10196""
","
","
","""event"",""trial"",""time""
""fullscreenenter"",""5"",""10196""
","
","","","","","","","","","","","","","","","","","","","","","",""
"d3-instructions","7","24717","0.0-7.0","3880","7204","19","Male","true","true","true","true","""event"",""trial"",""time""
""fullscreenenter"",""5"",""10196""
","
","
","""event"",""trial"",""time""
""fullscreenenter"",""5"",""10196""
","
","","","","","","","","","","","","","","","","","","","","","",""
"d3-instructions","8","31236","0.0-8.0","3880","7204","19","Male","true","true","true","true","""event"",""trial"",""time""
""fullscreenenter"",""5"",""10196""
","
","
","""event"",""trial"",""time""
""fullscreenenter"",""5"",""10196""
","
","","","","","","","","","","","","","","","","","","","","","",""
"d3-instructions","9","38819","0.0-9.0","3880","7204","19","Male","true","true","true","true","""event"",""trial"",""time""
""fullscreenenter"",""5"",""10196""
","
","
","""event"",""trial"",""time""
""fullscreenenter"",""5"",""10196""
","
","","","","","","","","","","","","","","","","","","","","","",""
"d3-instructions","10","51255","0.0-10.0","3880","7204","19","Male","true","true","true","true","""event"",""trial"",""time""
""fullscreenenter"",""5"",""10196""
","
","
","""event"",""trial"",""time""
""fullscreenenter"",""5"",""10196""
","
","","","","","","","","","","","","","","","","","","","","","",""
"d3-animate-choice","11","54238","0.0-11.0","3880","7204","19","Male","true","true","true","true","""event"",""trial"",""time""
""fullscreenenter"",""5"",""10196""
","
","
","""event"",""trial"",""time""
""fullscreenenter"",""5"",""10196""
","
","967","","49","","","3000","1","","","images/tutgreenplanet.jpg","images/tutalien1","images/tutalien2","null","images/tutalien2","","NA","practice","null","","","",""
"d3-animate-choice","12","57596","0.0-12.0","3880","7204","19","Male","true","true","true","true","""event"",""trial"",""time""
""fullscreenenter"",""5"",""10196""
","
","
","""event"",""trial"",""time""
""fullscreenenter"",""5"",""10196""
","
","1343.9000000059605","","48","","","3000","1","","","images/tutgreenplanet.jpg","images/tutalien1","images/tutalien2","null","images/tutalien1","","NA","practice","null","","","",""
"d3-animate-choice","13","61413","0.0-13.0","3880","7204","19","Male","true","true","true","true","""event"",""trial"",""time""
""fullscreenenter"",""5"",""10196""
","
","
","""event"",""trial"",""time""
""fullscreenenter"",""5"",""10196""
","
","1798.800000011921","","49","","","3000","1","","","images/tutgreenplanet.jpg","images/tutalien1","images/tutalien2","null","images/tutalien2","","NA","practice","null","","","",""
"d3-animate-choice","14","63888","0.0-14.0","3880","7204","19","Male","true","true","true","true","""event"",""trial"",""time""
""fullscreenenter"",""5"",""10196""
","
","
","""event"",""trial"",""time""
""fullscreenenter"",""5"",""10196""
","
","463.59999999403954","","49","","","3000","1","","","images/tutgreenplanet.jpg","images/tutalien1","images/tutalien2","null","images/tutalien2","","NA","practice","null","","","",""
"d3-instructions","15","70538","0.0-15.0","3880","7204","19","Male","true","true","true","true","""event"",""trial"",""time""
""fullscreenenter"",""5"",""10196""
","
","
","""event"",""trial"",""time""
""fullscreenenter"",""5"",""10196""
","
","","","","","","","","","","","","","","","","","","","","","",""
"d3-instructions","16","73809","0.0-16.0","3880","7204","19","Male","true","true","true","true","""event"",""trial"",""time""
""fullscreenenter"",""5"",""10196""
","
","
","""event"",""trial"",""time""
""fullscreenenter"",""5"",""10196""
","
","","","","","","","","","","","","","","","","","","","","","",""
"d3-instructions","17","82223","0.0-17.0","3880","7204","19","Male","true","true","true","true","""event"",""trial"",""time""
""fullscreenenter"",""5"",""10196""
","
","
","""event"",""trial"",""time""
""fullscreenenter"",""5"",""10196""
","
","","","","","","","","","","","","","","","","","","","","","",""
"d3-instructions","18","93144","0.0-18.0","3880","7204","19","Male","true","true","true","true","""event"",""trial"",""time""
""fullscreenenter"",""5"",""10196""
","
","
","""event"",""trial"",""time""
""fullscreenenter"",""5"",""10196""
","
","","","","","","","","","","","","","","","","","","","","","",""
"d3-instructions","19","100136","0.0-19.0","3880","7204","19","Male","true","true","true","true","""event"",""trial"",""time""
""fullscreenenter"",""5"",""10196""
","
","
","""event"",""trial"",""time""
""fullscreenenter"",""5"",""10196""
","
","","","","","","","","","","","","","","","","","","","","","",""
"d3-animate-choice","20","102924","0.0-20.0","3880","7204","19","Male","true","true","true","true","""event"",""trial"",""time""
""fullscreenenter"",""5"",""10196""
","
","
","""event"",""trial"",""time""
""fullscreenenter"",""5"",""10196""
","
","774.8000000119209","","49","","","3000","1","","","images/tutyellowplanet.jpg","null","images/tutalien3","null","images/tutalien3","images/t.png","NA","practice","null","","","",""
"d3-animate-choice","21","105195","0.0-21.0","3880","7204","19","Male","true","true","true","true","""event"",""trial"",""time""
""fullscreenenter"",""5"",""10196""
","
","
","""event"",""trial"",""time""
""fullscreenenter"",""5"",""10196""
","
","255","","49","","","3000","1","1657.300000011921","49","images/tutyellowplanet.jpg","null","images/tutalien3","null","images/tutalien3","images/nothing.png","NA","practice","null","","","",""
"d3-animate-choice","22","107460","0.0-22.0","3880","7204","19","Male","true","true","true","true","""event"",""trial"",""time""
""fullscreenenter"",""5"",""10196""
","
","
","""event"",""trial"",""time""
""fullscreenenter"",""5"",""10196""
","
","253.2000000178814","","49","","","3000","1","","","images/tutyellowplanet.jpg","null","images/tutalien3","null","images/tutalien3","images/nothing.png","NA","practice","null","","","",""
"d3-animate-choice","23","109712","0.0-23.0","3880","7204","19","Male","true","true","true","true","""event"",""trial"",""time""
""fullscreenenter"",""5"",""10196""
","
","
","""event"",""trial"",""time""
""fullscreenenter"",""5"",""10196""
","
","242","","49","","","3000","1","","","images/tutyellowplanet.jpg","null","images/tutalien3","null","images/tutalien3","images/t.png","NA","practice","null","","","",""
"d3-animate-choice","24","111929","0.0-24.0","3880","7204","19","Male","true","true","true","true","""event"",""trial"",""time""
""fullscreenenter"",""5"",""10196""
","
","
","""event"",""trial"",""time""
""fullscreenenter"",""5"",""10196""
","
","204.59999999403954","","49","","","3000","1","","","images/tutyellowplanet.jpg","null","images/tutalien3","null","images/tutalien3","images/t.png","NA","practice","null","","","",""
"d3-animate-choice","25","114178","0.0-25.0","3880","7204","19","Male","true","true","true","true","""event"",""trial"",""time""
""fullscreenenter"",""5"",""10196""
","
","
","""event"",""trial"",""time""
""fullscreenenter"",""5"",""10196""
","
","234.40000000596046","","49","","","3000","1","","","images/tutyellowplanet.jpg","null","images/tutalien3","null","images/tutalien3","images/nothing.png","NA","practice","null","","","",""
"d3-animate-choice","26","116436","0.0-26.0","3880","7204","19","Male","true","true","true","true","""event"",""trial"",""time""
""fullscreenenter"",""5"",""10196""
","
","
","""event"",""trial"",""time""
""fullscreenenter"",""5"",""10196""
","
","244.7000000178814","","49","","","3000","1","","","images/tutyellowplanet.jpg","null","images/tutalien3","null","images/tutalien3","images/nothing.png","NA","practice","null","","","",""
"d3-animate-choice","27","118656","0.0-27.0","3880","7204","19","Male","true","true","true","true","""event"",""trial"",""time""
""fullscreenenter"",""5"",""10196""
","
","
","""event"",""trial"",""time""
""fullscreenenter"",""5"",""10196""
","
","211","","49","","","3000","1","","","images/tutyellowplanet.jpg","null","images/tutalien3","null","images/tutalien3","images/t.png","NA","practice","null","","","",""
"d3-animate-choice","28","120888","0.0-28.0","3880","7204","19","Male","true","true","true","true","""event"",""trial"",""time""
""fullscreenenter"",""5"",""10196""
","
","
","""event"",""trial"",""time""
""fullscreenenter"",""5"",""10196""
","
","219.5","","49","","","3000","1","","","images/tutyellowplanet.jpg","null","images/tutalien3","null","images/tutalien3","images/t.png","NA","practice","null","","","",""
"d3-animate-choice","29","123137","0.0-29.0","3880","7204","19","Male","true","true","true","true","""event"",""trial"",""time""
""fullscreenenter"",""5"",""10196""
","
","
","""event"",""trial"",""time""
""fullscreenenter"",""5"",""10196""
","
","241.5","","49","","","3000","1","","","images/tutyellowplanet.jpg","null","images/tutalien3","null","images/tutalien3","images/t.png","NA","practice","null","","","",""
"d3-instructions","30","127236","0.0-30.0","3880","7204","19","Male","true","true","true","true","""event"",""trial"",""time""
""fullscreenenter"",""5"",""10196""
","
","
","""event"",""trial"",""time""
""fullscreenenter"",""5"",""10196""
","
","","","","","","","","","","","","","","","","","","","","","",""
"d3-instructions","31","130203","0.0-31.0","3880","7204","19","Male","true","true","true","true","""event"",""trial"",""time""
""fullscreenenter"",""5"",""10196""
","
","
","""event"",""trial"",""time""
""fullscreenenter"",""5"",""10196""
","
","","","","","","","","","","","","","","","","","","","","","",""
"d3-instructions","32","134749","0.0-32.0","3880","7204","19","Male","true","true","true","true","""event"",""trial"",""time""
""fullscreenenter"",""5"",""10196""
","
","
","""event"",""trial"",""time""
""fullscreenenter"",""5"",""10196""
","
","","","","","","","","","","","","","","","","","","","","","",""
"d3-instructions","33","137415","0.0-33.0","3880","7204","19","Male","true","true","true","true","""event"",""trial"",""time""
""fullscreenenter"",""5"",""10196""
","
","
","""event"",""trial"",""time""
""fullscreenenter"",""5"",""10196""
","
","","","","","","","","","","","","","","","","","","","","","",""
"d3-animate-choice","34","140080","0.0-34.0","3880","7204","19","Male","true","true","true","true","""event"",""trial"",""time""
""fullscreenenter"",""5"",""10196""
","
","
","""event"",""trial"",""time""
""fullscreenenter"",""5"",""10196""
","
","656.5","","49","","","3000","1","","","images/tutgreenplanet.jpg","images/tutalien1","images/tutalien2","null","images/tutalien2","images/t.png","NA","practice","null","","","",""
"d3-animate-choice","35","142418","0.0-35.0","3880","7204","19","Male","true","true","true","true","""event"",""trial"",""time""
""fullscreenenter"",""5"",""10196""
","
","
","""event"",""trial"",""time""
""fullscreenenter"",""5"",""10196""
","
","326.30000001192093","","49","","","3000","1","","","images/tutgreenplanet.jpg","images/tutalien1","images/tutalien2","null","images/tutalien2","images/t.png","NA","practice","null","","","",""
"d3-animate-choice","36","144712","0.0-36.0","3880","7204","19","Male","true","true","true","true","""event"",""trial"",""time""
""fullscreenenter"",""5"",""10196""
","
","
","""event"",""trial"",""time""
""fullscreenenter"",""5"",""10196""
","
","284.5","","49","","","3000","1","","","images/tutgreenplanet.jpg","images/tutalien1","images/tutalien2","null","images/tutalien2","images/t.png","NA","practice","null","","","",""
"d3-animate-choice","37","147041","0.0-37.0","3880","7204","19","Male","true","true","true","true","""event"",""trial"",""time""
""fullscreenenter"",""5"",""10196""
","
","
","""event"",""trial"",""time""
""fullscreenenter"",""5"",""10196""
","
","318.30000001192093","","49","","","3000","1","","","images/tutgreenplanet.jpg","images/tutalien1","images/tutalien2","null","images/tutalien2","images/t.png","NA","practice","null","","","",""
"d3-animate-choice","38","149512","0.0-38.0","3880","7204","19","Male","true","true","true","true","""event"",""trial"",""time""
""fullscreenenter"",""5"",""10196""
","
","
","""event"",""trial"",""time""
""fullscreenenter"",""5"",""10196""
","
","462.40000000596046","","49","","","3000","1","","","images/tutgreenplanet.jpg","images/tutalien1","images/tutalien2","null","images/tutalien2","images/t.png","NA","practice","null","","","",""
"d3-animate-choice","39","151818","0.0-39.0","3880","7204","19","Male","true","true","true","true","""event"",""trial"",""time""
""fullscreenenter"",""5"",""10196""
","
","
","""event"",""trial"",""time""
""fullscreenenter"",""5"",""10196""
","
","291.09999999403954","","49","","","3000","1","","","images/tutgreenplanet.jpg","images/tutalien1","images/tutalien2","null","images/tutalien2","images/t.png","NA","practice","null","","","",""
"d3-animate-choice","40","155713","0.0-40.0","3880","7204","19","Male","true","true","true","true","""event"",""trial"",""time""
""fullscreenenter"",""5"",""10196""
","
","
","""event"",""trial"",""time""
""fullscreenenter"",""5"",""10196""
","
","1883.300000011921","","49","","","3000","1","","","images/tutgreenplanet.jpg","images/tutalien1","images/tutalien2","null","images/tutalien2","images/nothing.png","NA","practice","null","","","",""
"d3-animate-choice","41","157945","0.0-41.0","3880","7204","19","Male","true","true","true","true","""event"",""trial"",""time""
""fullscreenenter"",""5"",""10196""
","
","
","""event"",""trial"",""time""
""fullscreenenter"",""5"",""10196""
","
","222.19999998807907","","48","","","3000","1","","","images/tutgreenplanet.jpg","images/tutalien1","images/tutalien2","null","images/tutalien1","images/nothing.png","NA","practice","null","","","",""
"d3-animate-choice","42","160243","0.0-42.0","3880","7204","19","Male","true","true","true","true","""event"",""trial"",""time""
""fullscreenenter"",""5"",""10196""
","
","
","""event"",""trial"",""time""
""fullscreenenter"",""5"",""10196""
","
","292.7999999821186","","48","","","3000","1","","","images/tutgreenplanet.jpg","images/tutalien1","images/tutalien2","null","images/tutalien1","images/t.png","NA","practice","null","","","",""
"d3-animate-choice","43","162576","0.0-43.0","3880","7204","19","Male","true","true","true","true","""event"",""trial"",""time""
""fullscreenenter"",""5"",""10196""
","
","
","""event"",""trial"",""time""
""fullscreenenter"",""5"",""10196""
","
","321.69999998807907","","49","","","3000","1","","","images/tutgreenplanet.jpg","images/tutalien1","images/tutalien2","null","images/tutalien2","images/nothing.png","NA","practice","null","","","",""
"d3-instructions","44","174342","0.0-44.0","3880","7204","19","Male","true","true","true","true","""event"",""trial"",""time""
""fullscreenenter"",""5"",""10196""
","
","
","""event"",""trial"",""time""
""fullscreenenter"",""5"",""10196""
","
","","","","","","","","","","","","","","","","","","","","","",""
"d3-instructions","45","177663","0.0-45.0","3880","7204","19","Male","true","true","true","true","""event"",""trial"",""time""
""fullscreenenter"",""5"",""10196""
","
","
","""event"",""trial"",""time""
""fullscreenenter"",""5"",""10196""
","
","","","","","","","","","","","","","","","","","","","","","",""
"d3-instructions","46","180717","0.0-46.0","3880","7204","19","Male","true","true","true","true","""event"",""trial"",""time""
""fullscreenenter"",""5"",""10196""
","
","
","""event"",""trial"",""time""
""fullscreenenter"",""5"",""10196""
","
","","","","","","","","","","","","","","","","","","","","","",""
"d3-instructions","47","190091","0.0-47.0","3880","7204","19","Male","true","true","true","true","""event"",""trial"",""time""
""fullscreenenter"",""5"",""10196""
","
","
","""event"",""trial"",""time""
""fullscreenenter"",""5"",""10196""
","
","","","","","","","","","","","","","","","","","","","","","",""
"d3-instructions","48","193984","0.0-48.0","3880","7204","19","Male","true","true","true","true","""event"",""trial"",""time""
""fullscreenenter"",""5"",""10196""
","
","
","""event"",""trial"",""time""
""fullscreenenter"",""5"",""10196""
","
","","","","","","","","","","","","","","","","","","","","","",""
"d3-instructions","49","197783","0.0-49.0","3880","7204","19","Male","true","true","true","true","""event"",""trial"",""time""
""fullscreenenter"",""5"",""10196""
","
","
","""event"",""trial"",""time""
""fullscreenenter"",""5"",""10196""
","
","","","","","","","","","","","","","","","","","","","","","",""
"d3-instructions","50","201404","0.0-50.0","3880","7204","19","Male","true","true","true","true","""event"",""trial"",""time""
""fullscreenenter"",""5"",""10196""
","
","
","""event"",""trial"",""time""
""fullscreenenter"",""5"",""10196""
","
","","","","","","","","","","","","","","","","","","","","","",""
"d3-instructions","51","202792","0.0-51.0","3880","7204","19","Male","true","true","true","true","""event"",""trial"",""time""
""fullscreenenter"",""5"",""10196""
","
","
","""event"",""trial"",""time""
""fullscreenenter"",""5"",""10196""
","
","","","","","","","","","","","","","","","","","","","","","",""
"d3-instructions","52","203457","0.0-52.0","3880","7204","19","Male","true","true","true","true","""event"",""trial"",""time""
""fullscreenenter"",""5"",""10196""
","
","
","""event"",""trial"",""time""
""fullscreenenter"",""5"",""10196""
","
","","","","","","","","","","","","","","","","","","","","","",""
"d3-instructions","53","210450","0.0-53.0","3880","7204","19","Male","true","true","true","true","""event"",""trial"",""time""
""fullscreenenter"",""5"",""10196""
","
","
","""event"",""trial"",""time""
""fullscreenenter"",""5"",""10196""
","
","","","","","","","","","","","","","","","","","","","","","",""
"d3-instructions","54","217513","0.0-54.0","3880","7204","19","Male","true","true","true","true","""event"",""trial"",""time""
""fullscreenenter"",""5"",""10196""
","
","
","""event"",""trial"",""time""
""fullscreenenter"",""5"",""10196""
","
","","","","","","","","","","","","","","","","","","","","","",""
"d3-instructions","55","220400","0.0-55.0","3880","7204","19","Male","true","true","true","true","""event"",""trial"",""time""
""fullscreenenter"",""5"",""10196""
","
","
","""event"",""trial"",""time""
""fullscreenenter"",""5"",""10196""
","
","","","","","","","","","","","","","","","","","","","","","",""
"d3-instructions","56","223487","0.0-56.0","3880","7204","19","Male","true","true","true","true","""event"",""trial"",""time""
""fullscreenenter"",""5"",""10196""
","
","
","""event"",""trial"",""time""
""fullscreenenter"",""5"",""10196""
","
","","","","","","","","","","","","","","","","","","","","","",""
"d3-instructions","57","230604","0.0-57.0","3880","7204","19","Male","true","true","true","true","""event"",""trial"",""time""
""fullscreenenter"",""5"",""10196""
","
","
","""event"",""trial"",""time""
""fullscreenenter"",""5"",""10196""
","
","","","","","","","","","","","","","","","","","","","","","",""
"d3-instructions","58","234755","0.0-58.0","3880","7204","19","Male","true","true","true","true","""event"",""trial"",""time""
""fullscreenenter"",""5"",""10196""
","
","
","""event"",""trial"",""time""
""fullscreenenter"",""5"",""10196""
","
","","","","","","","","","","","","","","","","","","","","","",""
"d3-instructions","59","236618","0.0-59.0","3880","7204","19","Male","true","true","true","true","""event"",""trial"",""time""
""fullscreenenter"",""5"",""10196""
","
","
","""event"",""trial"",""time""
""fullscreenenter"",""5"",""10196""
","
","","","","","","","","","","","","","","","","","","","","","",""
"d3-instructions","60","240457","0.0-60.0","3880","7204","19","Male","true","true","true","true","""event"",""trial"",""time""
""fullscreenenter"",""5"",""10196""
","
","
","""event"",""trial"",""time""
""fullscreenenter"",""5"",""10196""
","
","","","","","","","","","","","","","","","","","","","","","",""
"d3-animate-choice","61","243425","0.0-61.0-0.0","3880","7204","19","Male","true","true","true","true","""event"",""trial"",""time""
""fullscreenenter"",""5"",""10196""
","
","
","""event"",""trial"",""time""
""fullscreenenter"",""5"",""10196""
","
","957.4000000059605","","49","","","3000","1","","","images/earth.jpg","images/tutrocket1","images/tutrocket2","null","images/tutrocket2","","1","practice","null","1","","",""
"d3-animate-choice","62","246735","0.0-61.0-1.0","3880","7204","19","Male","true","true","true","true","""event"",""trial"",""time""
""fullscreenenter"",""5"",""10196""
","
","
","""event"",""trial"",""time""
""fullscreenenter"",""5"",""10196""
","
","1300.5999999940395","","49","","","3000","1","","","images/tutgreenplanet.jpg","images/tutalien2","images/tutalien1","images/tutrocket2","images/tutalien1","images/nothing.png","2","practice","false","1","rare","0","2023-03-06 04:03:11.422"
"two-step-fixation","63","247743","0.0-61.0-2.0","3880","7204","19","Male","true","true","true","true","""event"",""trial"",""time""
""fullscreenenter"",""5"",""10196""
","
","
","""event"",""trial"",""time""
""fullscreenenter"",""5"",""10196""
","
","","images/earth.jpg","","","","","","","","","","","","","","fixation","","","","","",""
"d3-animate-choice","64","250329","0.0-61.0-0.1","3880","7204","19","Male","true","true","true","true","""event"",""trial"",""time""
""fullscreenenter"",""5"",""10196""
","
","
","""event"",""trial"",""time""
""fullscreenenter"",""5"",""10196""
","
","572.1999999880791","","48","","","3000","1","","","images/earth.jpg","images/tutrocket1","images/tutrocket2","null","images/tutrocket1","","1","practice","null","2","","",""
"d3-animate-choice","65","253664","0.0-61.0-1.1","3880","7204","19","Male","true","true","true","true","""event"",""trial"",""time""
""fullscreenenter"",""5"",""10196""
","
","
","""event"",""trial"",""time""
""fullscreenenter"",""5"",""10196""
","
","346.5","","50","","","3000","1","1321.0999999940395","48","images/tutgreenplanet.jpg","images/tutalien2","images/tutalien1","images/tutrocket1","images/tutalien2","images/nothing.png","2","practice","true","","common","0","2023-03-06 04:03:18.351"
"two-step-fixation","66","254674","0.0-61.0-2.1","3880","7204","19","Male","true","true","true","true","""event"",""trial"",""time""
""fullscreenenter"",""5"",""10196""
","
","
","""event"",""trial"",""time""
""fullscreenenter"",""5"",""10196""
","
","","images/earth.jpg","","","","","","","","","","","","","","fixation","","","","","",""
"d3-animate-choice","67","256976","0.0-61.0-0.2","3880","7204","19","Male","true","true","true","true","""event"",""trial"",""time""
""fullscreenenter"",""5"",""10196""
","
","
","""event"",""trial"",""time""
""fullscreenenter"",""5"",""10196""
","
","290.19999998807907","","49","","","3000","1","","","images/earth.jpg","images/tutrocket1","images/tutrocket2","null","images/tutrocket2","","1","practice","null","1","","",""
"d3-animate-choice","68","259366","0.0-61.0-1.2","3880","7204","19","Male","true","true","true","true","""event"",""trial"",""time""
""fullscreenenter"",""5"",""10196""
","
","
","""event"",""trial"",""time""
""fullscreenenter"",""5"",""10196""
","
","381.90000000596046","","49","","","3000","1","","","images/tutyellowplanet.jpg","images/tutalien4","images/tutalien3","images/tutrocket2","images/tutalien3","images/nothing.png","2","practice","true","1","common","0","2023-03-06 04:03:24.054"
"two-step-fixation","69","260376","0.0-61.0-2.2","3880","7204","19","Male","true","true","true","true","""event"",""trial"",""time""
""fullscreenenter"",""5"",""10196""
","
","
","""event"",""trial"",""time""
""fullscreenenter"",""5"",""10196""
","
","","images/earth.jpg","","","","","","","","","","","","","","fixation","","","","","",""
"d3-animate-choice","70","262705","0.0-61.0-0.3","3880","7204","19","Male","true","true","true","true","""event"",""trial"",""time""
""fullscreenenter"",""5"",""10196""
","
","
","""event"",""trial"",""time""
""fullscreenenter"",""5"",""10196""
","
","317.80000001192093","","49","","","3000","1","","","images/earth.jpg","images/tutrocket1","images/tutrocket2","null","images/tutrocket2","","1","practice","null","1","","",""
"d3-animate-choice","71","264985","0.0-61.0-1.3","3880","7204","19","Male","true","true","true","true","""event"",""trial"",""time""
""fullscreenenter"",""5"",""10196""
","
","
","""event"",""trial"",""time""
""fullscreenenter"",""5"",""10196""
","
","269.40000000596046","","48","","","3000","1","","","images/tutyellowplanet.jpg","images/tutalien4","images/tutalien3","images/tutrocket2","images/tutalien4","images/t.png","2","practice","true","2","common","1","2023-03-06 04:03:29.672"
"two-step-fixation","72","265993","0.0-61.0-2.3","3880","7204","19","Male","true","true","true","true","""event"",""trial"",""time""
""fullscreenenter"",""5"",""10196""
","
","
","""event"",""trial"",""time""
""fullscreenenter"",""5"",""10196""
","
","","images/earth.jpg","","","","","","","","","","","","","","fixation","","","","","",""
"d3-animate-choice","73","268209","0.0-61.0-0.4","3880","7204","19","Male","true","true","true","true","""event"",""trial"",""time""
""fullscreenenter"",""5"",""10196""
","
","
","""event"",""trial"",""time""
""fullscreenenter"",""5"",""10196""
","
","205.19999998807907","","49","","","3000","1","","","images/earth.jpg","images/tutrocket1","images/tutrocket2","null","images/tutrocket2","","1","practice","null","1","","",""
"d3-animate-choice","74","270938","0.0-61.0-1.4","3880","7204","19","Male","true","true","true","true","""event"",""trial"",""time""
""fullscreenenter"",""5"",""10196""
","
","
","""event"",""trial"",""time""
""fullscreenenter"",""5"",""10196""
","
","716.0999999940395","","48","","","3000","1","","","images/tutgreenplanet.jpg","images/tutalien2","images/tutalien1","images/tutrocket2","images/tutalien2","images/t.png","2","practice","false","2","rare","1","2023-03-06 04:03:35.625"
"two-step-fixation","75","271951","0.0-61.0-2.4","3880","7204","19","Male","true","true","true","true","""event"",""trial"",""time""
""fullscreenenter"",""5"",""10196""
","
","
","""event"",""trial"",""time""
""fullscreenenter"",""5"",""10196""
","
","","images/earth.jpg","","","","","","","","","","","","","","fixation","","","","","",""
"d3-animate-choice","76","275386","0.0-61.0-0.5","3880","7204","19","Male","true","true","true","true","""event"",""trial"",""time""
""fullscreenenter"",""5"",""10196""
","
","
","""event"",""trial"",""time""
""fullscreenenter"",""5"",""10196""
","
","281.69999998807907","","50","","","3000","1","1419.199999988079","48","images/earth.jpg","images/tutrocket1","images/tutrocket2","null","images/tutrocket1","","1","practice","null","","","",""
"d3-animate-choice","77","277616","0.0-61.0-1.5","3880","7204","19","Male","true","true","true","true","""event"",""trial"",""time""
""fullscreenenter"",""5"",""10196""
","
","
","""event"",""trial"",""time""
""fullscreenenter"",""5"",""10196""
","
","219.30000001192093","","48","","","3000","1","","","images/tutgreenplanet.jpg","images/tutalien2","images/tutalien1","images/tutrocket1","images/tutalien2","images/nothing.png","2","practice","true","2","common","0","2023-03-06 04:03:42.304"
"two-step-fixation","78","278622","0.0-61.0-2.5","3880","7204","19","Male","true","true","true","true","""event"",""trial"",""time""
""fullscreenenter"",""5"",""10196""
","
","
","""event"",""trial"",""time""
""fullscreenenter"",""5"",""10196""
","
","","images/earth.jpg","","","","","","","","","","","","","","fixation","","","","","",""
"d3-animate-choice","79","280896","0.0-61.0-0.6","3880","7204","19","Male","true","true","true","true","""event"",""trial"",""time""
""fullscreenenter"",""5"",""10196""
","
","
","""event"",""trial"",""time""
""fullscreenenter"",""5"",""10196""
","
","262.90000000596046","","49","","","3000","1","","","images/earth.jpg","images/tutrocket1","images/tutrocket2","null","images/tutrocket2","","1","practice","null","1","","",""
"d3-animate-choice","80","283146","0.0-61.0-1.6","3880","7204","19","Male","true","true","true","true","""event"",""trial"",""time""
""fullscreenenter"",""5"",""10196""
","
","
","""event"",""trial"",""time""
""fullscreenenter"",""5"",""10196""
","
","236.10000002384186","","49","","","3000","1","","","images/tutyellowplanet.jpg","images/tutalien4","images/tutalien3","images/tutrocket2","images/tutalien3","images/nothing.png","2","practice","true","1","common","0","2023-03-06 04:03:47.833"
"two-step-fixation","81","284159","0.0-61.0-2.6","3880","7204","19","Male","true","true","true","true","""event"",""trial"",""time""
""fullscreenenter"",""5"",""10196""
","
","
","""event"",""trial"",""time""
""fullscreenenter"",""5"",""10196""
","
","","images/earth.jpg","","","","","","","","","","","","","","fixation","","","","","",""
"d3-animate-choice","82","286399","0.0-61.0-0.7","3880","7204","19","Male","true","true","true","true","""event"",""trial"",""time""
""fullscreenenter"",""5"",""10196""
","
","
","""event"",""trial"",""time""
""fullscreenenter"",""5"",""10196""
","
","225.60000002384186","","48","","","3000","1","","","images/earth.jpg","images/tutrocket1","images/tutrocket2","null","images/tutrocket1","","1","practice","null","2","","",""
"d3-animate-choice","83","288720","0.0-61.0-1.7","3880","7204","19","Male","true","true","true","true","""event"",""trial"",""time""
""fullscreenenter"",""5"",""10196""
","
","
","""event"",""trial"",""time""
""fullscreenenter"",""5"",""10196""
","
","304.5","","49","","","3000","1","","","images/tutgreenplanet.jpg","images/tutalien2","images/tutalien1","images/tutrocket1","images/tutalien1","images/nothing.png","2","practice","true","1","common","0","2023-03-06 04:03:53.407"
"two-step-fixation","84","289728","0.0-61.0-2.7","3880","7204","19","Male","true","true","true","true","""event"",""trial"",""time""
""fullscreenenter"",""5"",""10196""
","
","
","""event"",""trial"",""time""
""fullscreenenter"",""5"",""10196""
","
","","images/earth.jpg","","","","","","","","","","","","","","fixation","","","","","",""
"d3-animate-choice","85","291968","0.0-61.0-0.8","3880","7204","19","Male","true","true","true","true","""event"",""trial"",""time""
""fullscreenenter"",""5"",""10196""
","
","
","""event"",""trial"",""time""
""fullscreenenter"",""5"",""10196""
","
","231.19999998807907","","48","","","3000","1","","","images/earth.jpg","images/tutrocket1","images/tutrocket2","null","images/tutrocket1","","1","practice","null","2","","",""
"d3-animate-choice","86","294726","0.0-61.0-1.8","3880","7204","19","Male","true","true","true","true","""event"",""trial"",""time""
""fullscreenenter"",""5"",""10196""
","
","
","""event"",""trial"",""time""
""fullscreenenter"",""5"",""10196""
","
","283.39999997615814","","50","","","3000","1","749.5999999940395","49","images/tutgreenplanet.jpg","images/tutalien2","images/tutalien1","images/tutrocket1","images/tutalien1","images/t.png","2","practice","true","","common","1","2023-03-06 04:03:59.414"
"two-step-fixation","87","295734","0.0-61.0-2.8","3880","7204","19","Male","true","true","true","true","""event"",""trial"",""time""
""fullscreenenter"",""5"",""10196""
","
","
","""event"",""trial"",""time""
""fullscreenenter"",""5"",""10196""
","
","","images/earth.jpg","","","","","","","","","","","","","","fixation","","","","","",""
"d3-animate-choice","88","298010","0.0-61.0-0.9","3880","7204","19","Male","true","true","true","true","""event"",""trial"",""time""
""fullscreenenter"",""5"",""10196""
","
","
","""event"",""trial"",""time""
""fullscreenenter"",""5"",""10196""
","
","260.59999999403954","","49","","","3000","1","","","images/earth.jpg","images/tutrocket1","images/tutrocket2","null","images/tutrocket2","","1","practice","null","1","","",""
"d3-animate-choice","89","300657","0.0-61.0-1.9","3880","7204","19","Male","true","true","true","true","""event"",""trial"",""time""
""fullscreenenter"",""5"",""10196""
","
","
","""event"",""trial"",""time""
""fullscreenenter"",""5"",""10196""
","
","635.2999999821186","","49","","","3000","1","","","images/tutgreenplanet.jpg","images/tutalien2","images/tutalien1","images/tutrocket2","images/tutalien1","images/nothing.png","2","practice","false","1","rare","0","2023-03-06 04:04:05.344"
"two-step-fixation","90","301674","0.0-61.0-2.9","3880","7204","19","Male","true","true","true","true","""event"",""trial"",""time""
""fullscreenenter"",""5"",""10196""
","
","
","""event"",""trial"",""time""
""fullscreenenter"",""5"",""10196""
","
","","images/earth.jpg","","","","","","","","","","","","","","fixation","","","","","",""
"d3-animate-choice","91","304398","0.0-61.0-0.10","3880","7204","19","Male","true","true","true","true","""event"",""trial"",""time""
""fullscreenenter"",""5"",""10196""
","
","
","""event"",""trial"",""time""
""fullscreenenter"",""5"",""10196""
","
","710.3000000119209","","48","","","3000","1","","","images/earth.jpg","images/tutrocket1","images/tutrocket2","null","images/tutrocket1","","1","practice","null","2","","",""
"d3-animate-choice","92","306713","0.0-61.0-1.10","3880","7204","19","Male","true","true","true","true","""event"",""trial"",""time""
""fullscreenenter"",""5"",""10196""
","
","
","""event"",""trial"",""time""
""fullscreenenter"",""5"",""10196""
","
","306.2999999821186","","49","","","3000","1","","","images/tutgreenplanet.jpg","images/tutalien2","images/tutalien1","images/tutrocket1","images/tutalien1","images/nothing.png","2","practice","true","1","common","0","2023-03-06 04:04:11.401"
"two-step-fixation","93","307728","0.0-61.0-2.10","3880","7204","19","Male","true","true","true","true","""event"",""trial"",""time""
""fullscreenenter"",""5"",""10196""
","
","
","""event"",""trial"",""time""
""fullscreenenter"",""5"",""10196""
","
","","images/earth.jpg","","","","","","","","","","","","","","fixation","","","","","",""
"d3-animate-choice","94","310001","0.0-61.0-0.11","3880","7204","19","Male","true","true","true","true","""event"",""trial"",""time""
""fullscreenenter"",""5"",""10196""
","
","
","""event"",""trial"",""time""
""fullscreenenter"",""5"",""10196""
","
","267.2000000178814","","49","","","3000","1","","","images/earth.jpg","images/tutrocket1","images/tutrocket2","null","images/tutrocket2","","1","practice","null","1","","",""
"d3-animate-choice","95","312303","0.0-61.0-1.11","3880","7204","19","Male","true","true","true","true","""event"",""trial"",""time""
""fullscreenenter"",""5"",""10196""
","
","
","""event"",""trial"",""time""
""fullscreenenter"",""5"",""10196""
","
","292.7999999821186","","48","","","3000","1","","","images/tutyellowplanet.jpg","images/tutalien4","images/tutalien3","images/tutrocket2","images/tutalien4","images/nothing.png","2","practice","true","2","common","0","2023-03-06 04:04:16.990"
"two-step-fixation","96","313312","0.0-61.0-2.11","3880","7204","19","Male","true","true","true","true","""event"",""trial"",""time""
""fullscreenenter"",""5"",""10196""
","
","
","""event"",""trial"",""time""
""fullscreenenter"",""5"",""10196""
","
","","images/earth.jpg","","","","","","","","","","","","","","fixation","","","","","",""
"d3-animate-choice","97","315574","0.0-61.0-0.12","3880","7204","19","Male","true","true","true","true","""event"",""trial"",""time""
""fullscreenenter"",""5"",""10196""
","
","
","""event"",""trial"",""time""
""fullscreenenter"",""5"",""10196""
","
","255.19999998807907","","49","","","3000","1","","","images/earth.jpg","images/tutrocket1","images/tutrocket2","null","images/tutrocket2","","1","practice","null","1","","",""
"d3-animate-choice","98","317830","0.0-61.0-1.12","3880","7204","19","Male","true","true","true","true","""event"",""trial"",""time""
""fullscreenenter"",""5"",""10196""
","
","
","""event"",""trial"",""time""
""fullscreenenter"",""5"",""10196""
","
","245.40000000596046","","49","","","3000","1","","","images/tutyellowplanet.jpg","images/tutalien4","images/tutalien3","images/tutrocket2","images/tutalien3","images/t.png","2","practice","true","1","common","1","2023-03-06 04:04:22.517"
"two-step-fixation","99","318842","0.0-61.0-2.12","3880","7204","19","Male","true","true","true","true","""event"",""trial"",""time""
""fullscreenenter"",""5"",""10196""
","
","
","""event"",""trial"",""time""
""fullscreenenter"",""5"",""10196""
","
","","images/earth.jpg","","","","","","","","","","","","","","fixation","","","","","",""
"d3-animate-choice","100","321158","0.0-61.0-0.13","3880","7204","19","Male","true","true","true","true","""event"",""trial"",""time""
""fullscreenenter"",""5"",""10196""
","
","
","""event"",""trial"",""time""
""fullscreenenter"",""5"",""10196""
","
","308.40000000596046","","49","","","3000","1","","","images/earth.jpg","images/tutrocket1","images/tutrocket2","null","images/tutrocket2","","1","practice","null","1","","",""
"d3-animate-choice","101","323517","0.0-61.0-1.13","3880","7204","19","Male","true","true","true","true","""event"",""trial"",""time""
""fullscreenenter"",""5"",""10196""
","
","
","""event"",""trial"",""time""
""fullscreenenter"",""5"",""10196""
","
","348.30000001192093","","49","","","3000","1","","","images/tutyellowplanet.jpg","images/tutalien4","images/tutalien3","images/tutrocket2","images/tutalien3","images/t.png","2","practice","true","1","common","1","2023-03-06 04:04:28.204"
"two-step-fixation","102","324526","0.0-61.0-2.13","3880","7204","19","Male","true","true","true","true","""event"",""trial"",""time""
""fullscreenenter"",""5"",""10196""
","
","
","""event"",""trial"",""time""
""fullscreenenter"",""5"",""10196""
","
","","images/earth.jpg","","","","","","","","","","","","","","fixation","","","","","",""
"d3-animate-choice","103","326783","0.0-61.0-0.14","3880","7204","19","Male","true","true","true","true","""event"",""trial"",""time""
""fullscreenenter"",""5"",""10196""
","
","
","""event"",""trial"",""time""
""fullscreenenter"",""5"",""10196""
","
","250.19999998807907","","48","","","3000","1","","","images/earth.jpg","images/tutrocket1","images/tutrocket2","null","images/tutrocket1","","1","practice","null","2","","",""
"d3-animate-choice","104","329001","0.0-61.0-1.14","3880","7204","19","Male","true","true","true","true","""event"",""trial"",""time""
""fullscreenenter"",""5"",""10196""
","
","
","""event"",""trial"",""time""
""fullscreenenter"",""5"",""10196""
","
","200.7000000178814","","49","","","3000","1","","","images/tutgreenplanet.jpg","images/tutalien2","images/tutalien1","images/tutrocket1","images/tutalien1","images/nothing.png","2","practice","true","1","common","0","2023-03-06 04:04:33.689"
"two-step-fixation","105","330009","0.0-61.0-2.14","3880","7204","19","Male","true","true","true","true","""event"",""trial"",""time""
""fullscreenenter"",""5"",""10196""
","
","
","""event"",""trial"",""time""
""fullscreenenter"",""5"",""10196""
","
","","images/earth.jpg","","","","","","","","","","","","","","fixation","","","","","",""
"d3-animate-choice","106","332025","0.0-61.0-0.15","3880","7204","19","Male","true","true","true","true","""event"",""trial"",""time""
""fullscreenenter"",""5"",""10196""
","
","
","""event"",""trial"",""time""
""fullscreenenter"",""5"",""10196""
","
","6.4000000059604645","","49","","","3000","1","","","images/earth.jpg","images/tutrocket1","images/tutrocket2","null","images/tutrocket2","","1","practice","null","1","","",""
"d3-animate-choice","107","334267","0.0-61.0-1.15","3880","7204","19","Male","true","true","true","true","""event"",""trial"",""time""
""fullscreenenter"",""5"",""10196""
","
","
","""event"",""trial"",""time""
""fullscreenenter"",""5"",""10196""
","
","235.09999999403954","","49","","","3000","1","","","images/tutyellowplanet.jpg","images/tutalien4","images/tutalien3","images/tutrocket2","images/tutalien3","images/nothing.png","2","practice","true","1","common","0","2023-03-06 04:04:38.954"
"two-step-fixation","108","335275","0.0-61.0-2.15","3880","7204","19","Male","true","true","true","true","""event"",""trial"",""time""
""fullscreenenter"",""5"",""10196""
","
","
","""event"",""trial"",""time""
""fullscreenenter"",""5"",""10196""
","
","","images/earth.jpg","","","","","","","","","","","","","","fixation","","","","","",""
"d3-animate-choice","109","337553","0.0-61.0-0.16","3880","7204","19","Male","true","true","true","true","""event"",""trial"",""time""
""fullscreenenter"",""5"",""10196""
","
","
","""event"",""trial"",""time""
""fullscreenenter"",""5"",""10196""
","
","263.5","","49","","","3000","1","1391.0999999940395,1556.0999999940395,1717.3999999761581,1892.3999999761581","48,48,48,48","images/earth.jpg","images/tutrocket1","images/tutrocket2","null","images/tutrocket2","","1","practice","null","1","","",""
"d3-animate-choice","110","339817","0.0-61.0-1.16","3880","7204","19","Male","true","true","true","true","""event"",""trial"",""time""
""fullscreenenter"",""5"",""10196""
","
","
","""event"",""trial"",""time""
""fullscreenenter"",""5"",""10196""
","
","257.89999997615814","","48","","","3000","1","","","images/tutgreenplanet.jpg","images/tutalien2","images/tutalien1","images/tutrocket2","images/tutalien2","images/nothing.png","2","practice","false","2","rare","0","2023-03-06 04:04:44.504"
"two-step-fixation","111","340821","0.0-61.0-2.16","3880","7204","19","Male","true","true","true","true","""event"",""trial"",""time""
""fullscreenenter"",""5"",""10196""
","
","
","""event"",""trial"",""time""
""fullscreenenter"",""5"",""10196""
","
","","images/earth.jpg","","","","","","","","","","","","","","fixation","","","","","",""
"d3-animate-choice","112","343073","0.0-61.0-0.17","3880","7204","19","Male","true","true","true","true","""event"",""trial"",""time""
""fullscreenenter"",""5"",""10196""
","
","
","""event"",""trial"",""time""
""fullscreenenter"",""5"",""10196""
","
","246.7999999821186","","48","","","3000","1","","","images/earth.jpg","images/tutrocket1","images/tutrocket2","null","images/tutrocket1","","1","practice","null","2","","",""
"d3-animate-choice","113","345417","0.0-61.0-1.17","3880","7204","19","Male","true","true","true","true","""event"",""trial"",""time""
""fullscreenenter"",""5"",""10196""
","
","
","""event"",""trial"",""time""
""fullscreenenter"",""5"",""10196""
","
","328.10000002384186","","49","","","3000","1","","","images/tutyellowplanet.jpg","images/tutalien4","images/tutalien3","images/tutrocket1","images/tutalien3","images/nothing.png","2","practice","false","1","rare","0","2023-03-06 04:04:50.104"
"two-step-fixation","114","346431","0.0-61.0-2.17","3880","7204","19","Male","true","true","true","true","""event"",""trial"",""time""
""fullscreenenter"",""5"",""10196""
","
","
","""event"",""trial"",""time""
""fullscreenenter"",""5"",""10196""
","
","","images/earth.jpg","","","","","","","","","","","","","","fixation","","","","","",""
"d3-animate-choice","115","348581","0.0-61.0-0.18","3880","7204","19","Male","true","true","true","true","""event"",""trial"",""time""
""fullscreenenter"",""5"",""10196""
","
","
","""event"",""trial"",""time""
""fullscreenenter"",""5"",""10196""
","
","140.60000002384186","","48","","","3000","1","","","images/earth.jpg","images/tutrocket1","images/tutrocket2","null","images/tutrocket1","","1","practice","null","2","","",""
"d3-animate-choice","116","351944","0.0-61.0-1.18","3880","7204","19","Male","true","true","true","true","""event"",""trial"",""time""
""fullscreenenter"",""5"",""10196""
","
","
","""event"",""trial"",""time""
""fullscreenenter"",""5"",""10196""
","
","1349.0999999940395","","49","","","3000","1","","","images/tutgreenplanet.jpg","images/tutalien2","images/tutalien1","images/tutrocket1","images/tutalien1","images/nothing.png","2","practice","true","1","common","0","2023-03-06 04:04:56.632"
"two-step-fixation","117","352958","0.0-61.0-2.18","3880","7204","19","Male","true","true","true","true","""event"",""trial"",""time""
""fullscreenenter"",""5"",""10196""
","
","
","""event"",""trial"",""time""
""fullscreenenter"",""5"",""10196""
","
","","images/earth.jpg","","","","","","","","","","","","","","fixation","","","","","",""
"d3-animate-choice","118","355267","0.0-61.0-0.19","3880","7204","19","Male","true","true","true","true","""event"",""trial"",""time""
""fullscreenenter"",""5"",""10196""
","
","
","""event"",""trial"",""time""
""fullscreenenter"",""5"",""10196""
","
","301.5","","49","","","3000","1","","","images/earth.jpg","images/tutrocket1","images/tutrocket2","null","images/tutrocket2","","1","practice","null","1","","",""
"d3-animate-choice","119","357496","0.0-61.0-1.19","3880","7204","19","Male","true","true","true","true","""event"",""trial"",""time""
""fullscreenenter"",""5"",""10196""
","
","
","""event"",""trial"",""time""
""fullscreenenter"",""5"",""10196""
","
","218.30000001192093","","48","","","3000","1","","","images/tutyellowplanet.jpg","images/tutalien4","images/tutalien3","images/tutrocket2","images/tutalien4","images/t.png","2","practice","true","2","common","1","2023-03-06 04:05:02.183"
"two-step-fixation","120","358505","0.0-61.0-2.19","3880","7204","19","Male","true","true","true","true","""event"",""trial"",""time""
""fullscreenenter"",""5"",""10196""
","
","
","""event"",""trial"",""time""
""fullscreenenter"",""5"",""10196""
","
","","images/earth.jpg","","","","","","","","","","","","","","fixation","","","","","",""
"d3-instructions","121","363978","0.0-62.0","3880","7204","19","Male","true","true","true","true","""event"",""trial"",""time""
""fullscreenenter"",""5"",""10196""
","
","
","""event"",""trial"",""time""
""fullscreenenter"",""5"",""10196""
","
","","","","","","","","","","","","","","","","","","","","","",""
"audio-keyboard-response","122","387576","0.0-63.0","3880","7204","19","Male","true","true","true","true","""event"",""trial"",""time""
""fullscreenenter"",""5"",""10196""
","
","
","""event"",""trial"",""time""
""fullscreenenter"",""5"",""10196""
","
","23595","audio/instructions/treasure_feedback.wav","32","","","","","","","","","","","","","","","","","","",""
"d3-instructions","123","408671","0.0-64.0","3880","7204","19","Male","true","true","true","true","""event"",""trial"",""time""
""fullscreenenter"",""5"",""10196""
","
","
","""event"",""trial"",""time""
""fullscreenenter"",""5"",""10196""
","
","","","","","","","","","","","","","","","","","","","","","",""
"d3-instructions","124","424765","0.0-65.0","3880","7204","19","Male","true","true","true","true","""event"",""trial"",""time""
""fullscreenenter"",""5"",""10196""
","
","
","""event"",""trial"",""time""
""fullscreenenter"",""5"",""10196""
","
","","","","","","","","","","","","","","","","","","","","","",""
"d3-instructions","125","461116","0.0-66.0","3880","7204","19","Male","true","true","true","true","""event"",""trial"",""time""
""fullscreenenter"",""5"",""10196""
","
","
","""event"",""trial"",""time""
""fullscreenenter"",""5"",""10196""
","
","","","","","","","","","","","","","","","","","","","","","",""
"d3-instructions","126","476280","0.0-67.0","3880","7204","19","Male","true","true","true","true","""event"",""trial"",""time""
""fullscreenenter"",""5"",""10196""
","
","
","""event"",""trial"",""time""
""fullscreenenter"",""5"",""10196""
","
","","","","","","","","","","","","","","","","","","","","","",""
"d3-instructions","127","485552","0.0-68.0","3880","7204","19","Male","true","true","true","true","""event"",""trial"",""time""
""fullscreenenter"",""5"",""10196""
","
","
","""event"",""trial"",""time""
""fullscreenenter"",""5"",""10196""
","
","","","","","","","","","","","","","","","","","","","","","",""
"instructions-quiz","128","487678","0.0-69.0","3880","7204","19","Male","true","true","true","true","""event"",""trial"",""time""
""fullscreenenter"",""5"",""10196""
","
","
","""event"",""trial"",""time""
""fullscreenenter"",""5"",""10196""
","
","2123.5999999940395","audio/quiz/Q1_Prompt.wav","","1","","","","","","","","","","","","","","","","","",""
"audio-keyboard-response","129","488446","0.0-70.0","3880","7204","19","Male","true","true","true","true","""event"",""trial"",""time""
""fullscreenenter"",""5"",""10196""
","
","
","""event"",""trial"",""time""
""fullscreenenter"",""5"",""10196""
","
","768","audio/quiz/Q1_Correct.wav","32","","","","","","","","","","","","","","","","","","",""
"instructions-quiz","130","491703","0.0-71.0","3880","7204","19","Male","true","true","true","true","""event"",""trial"",""time""
""fullscreenenter"",""5"",""10196""
","
","
","""event"",""trial"",""time""
""fullscreenenter"",""5"",""10196""
","
","3254.899999976158","audio/quiz/Q2_Prompt.wav","","0","","","","","","","","","","","","","","","","","",""
"audio-keyboard-response","131","492178","0.0-72.0","3880","7204","19","Male","true","true","true","true","""event"",""trial"",""time""
""fullscreenenter"",""5"",""10196""
","
","
","""event"",""trial"",""time""
""fullscreenenter"",""5"",""10196""
","
","469","audio/quiz/Q2_Correct.wav","32","","","","","","","","","","","","","","","","","","",""
"instructions-quiz","132","494337","0.0-73.0","3880","7204","19","Male","true","true","true","true","""event"",""trial"",""time""
""fullscreenenter"",""5"",""10196""
","
","
","""event"",""trial"",""time""
""fullscreenenter"",""5"",""10196""
","
","2156.2000000178814","audio/quiz/Q3_Prompt.wav","","1","","","","","","","","","","","","","","","","","",""
"audio-keyboard-response","133","495095","0.0-74.0","3880","7204","19","Male","true","true","true","true","""event"",""trial"",""time""
""fullscreenenter"",""5"",""10196""
","
","
","""event"",""trial"",""time""
""fullscreenenter"",""5"",""10196""
","
","757","audio/quiz/Q3_Correct.wav","32","","","","","","","","","","","","","","","","","","",""
"d3-instructions","134","510458","0.0-75.0","3880","7204","19","Male","true","true","true","true","""event"",""trial"",""time""
""fullscreenenter"",""5"",""10196""
","
","
","""event"",""trial"",""time""
""fullscreenenter"",""5"",""10196""
","
","","","","","","","","","","","","","","","","","","","","","",""
"pavlovia","135","510460","0.0-76.0","3880","7204","19","Male","true","true","true","true","""event"",""trial"",""time""
""fullscreenenter"",""5"",""10196""
","
","
","""event"",""trial"",""time""
""fullscreenenter"",""5"",""10196""
","
","","","","","","","","","","","","","","","","","","","","","",""
"d3-animate-choice","136","513853","0.0-77.0-0.0","3880","7204","19","Male","true","true","true","true","""event"",""trial"",""time""
""fullscreenenter"",""5"",""10196""
","
","
","""event"",""trial"",""time""
""fullscreenenter"",""5"",""10196""
","
","1384.300000011921","","49","","","3000","1","","","images/earth.jpg","images/rocket2","images/rocket1","null","images/rocket1","","1","real","null","1","","",""
"d3-animate-choice","137","516155","0.0-77.0-1.0","3880","7204","19","Male","true","true","true","true","""event"",""trial"",""time""
""fullscreenenter"",""5"",""10196""
","
","
","""event"",""trial"",""time""
""fullscreenenter"",""5"",""10196""
","
","294.80000001192093","","49","","","3000","1","","","images/purpleplanet.jpg","images/alien4","images/alien3","images/rocket1","images/alien3","images/t.png","2","real","false","1","rare","1","2023-03-06 04:07:40.842"
"two-step-fixation","138","517163","0.0-77.0-2.0","3880","7204","19","Male","true","true","true","true","""event"",""trial"",""time""
""fullscreenenter"",""5"",""10196""
","
","
","""event"",""trial"",""time""
""fullscreenenter"",""5"",""10196""
","
","","images/earth.jpg","","","","","","","","","","","","","","fixation","","","","","",""
"d3-animate-choice","139","519446","0.0-77.0-0.1","3880","7204","19","Male","true","true","true","true","""event"",""trial"",""time""
""fullscreenenter"",""5"",""10196""
","
","
","""event"",""trial"",""time""
""fullscreenenter"",""5"",""10196""
","
","269.69999998807907","","48","","","3000","1","","","images/earth.jpg","images/rocket2","images/rocket1","null","images/rocket2","","1","real","null","2","","",""
"d3-animate-choice","140","522478","0.0-77.0-1.1","3880","7204","19","Male","true","true","true","true","""event"",""trial"",""time""
""fullscreenenter"",""5"",""10196""
","
","
","""event"",""trial"",""time""
""fullscreenenter"",""5"",""10196""
","
","1021.5","","49","","","3000","1","","","images/purpleplanet.jpg","images/alien4","images/alien3","images/rocket2","images/alien3","images/t.png","2","real","true","1","common","1","2023-03-06 04:07:47.166"
"two-step-fixation","141","523495","0.0-77.0-2.1","3880","7204","19","Male","true","true","true","true","""event"",""trial"",""time""
""fullscreenenter"",""5"",""10196""
","
","
","""event"",""trial"",""time""
""fullscreenenter"",""5"",""10196""
","
","","images/earth.jpg","","","","","","","","","","","","","","fixation","","","","","",""
"d3-animate-choice","142","525828","0.0-77.0-0.2","3880","7204","19","Male","true","true","true","true","""event"",""trial"",""time""
""fullscreenenter"",""5"",""10196""
","
","
","""event"",""trial"",""time""
""fullscreenenter"",""5"",""10196""
","
","321.19999998807907","","49","","","3000","1","","","images/earth.jpg","images/rocket2","images/rocket1","null","images/rocket1","","1","real","null","1","","",""
"d3-animate-choice","143","528580","0.0-77.0-1.2","3880","7204","19","Male","true","true","true","true","""event"",""trial"",""time""
""fullscreenenter"",""5"",""10196""
","
","
","""event"",""trial"",""time""
""fullscreenenter"",""5"",""10196""
","
","737.8000000119209","","48","","","3000","1","","","images/redplanet1.jpg","images/alien2","images/alien1","images/rocket1","images/alien2","images/t.png","2","real","true","2","common","1","2023-03-06 04:07:53.267"
"two-step-fixation","144","529587","0.0-77.0-2.2","3880","7204","19","Male","true","true","true","true","""event"",""trial"",""time""
""fullscreenenter"",""5"",""10196""
","
","
","""event"",""trial"",""time""
""fullscreenenter"",""5"",""10196""
","
","","images/earth.jpg","","","","","","","","","","","","","","fixation","","","","","",""
"d3-animate-choice","145","531909","0.0-77.0-0.3","3880","7204","19","Male","true","true","true","true","""event"",""trial"",""time""
""fullscreenenter"",""5"",""10196""
","
","
","""event"",""trial"",""time""
""fullscreenenter"",""5"",""10196""
","
","311.7000000178814","","49","","","3000","1","","","images/earth.jpg","images/rocket2","images/rocket1","null","images/rocket1","","1","real","null","1","","",""
"d3-animate-choice","146","534646","0.0-77.0-1.3","3880","7204","19","Male","true","true","true","true","""event"",""trial"",""time""
""fullscreenenter"",""5"",""10196""
","
","
","""event"",""trial"",""time""
""fullscreenenter"",""5"",""10196""
","
","719.0999999940395","","49","","","3000","1","","","images/purpleplanet.jpg","images/alien4","images/alien3","images/rocket1","images/alien3","images/t.png","2","real","false","1","rare","1","2023-03-06 04:07:59.333"
"two-step-fixation","147","535653","0.0-77.0-2.3","3880","7204","19","Male","true","true","true","true","""event"",""trial"",""time""
""fullscreenenter"",""5"",""10196""
","
","
","""event"",""trial"",""time""
""fullscreenenter"",""5"",""10196""
","
","","images/earth.jpg","","","","","","","","","","","","","","fixation","","","","","",""
"d3-animate-choice","148","537967","0.0-77.0-0.4","3880","7204","19","Male","true","true","true","true","""event"",""trial"",""time""
""fullscreenenter"",""5"",""10196""
","
","
","""event"",""trial"",""time""
""fullscreenenter"",""5"",""10196""
","
","300.5","","49","","","3000","1","","","images/earth.jpg","images/rocket2","images/rocket1","null","images/rocket1","","1","real","null","1","","",""
"d3-animate-choice","149","540922","0.0-77.0-1.4","3880","7204","19","Male","true","true","true","true","""event"",""trial"",""time""
""fullscreenenter"",""5"",""10196""
","
","
","""event"",""trial"",""time""
""fullscreenenter"",""5"",""10196""
","
","944.6999999880791","","48","","","3000","1","","","images/redplanet1.jpg","images/alien2","images/alien1","images/rocket1","images/alien2","images/t.png","2","real","true","2","common","1","2023-03-06 04:08:05.609"
"two-step-fixation","150","541934","0.0-77.0-2.4","3880","7204","19","Male","true","true","true","true","""event"",""trial"",""time""
""fullscreenenter"",""5"",""10196""
","
","
","""event"",""trial"",""time""
""fullscreenenter"",""5"",""10196""
","
","","images/earth.jpg","","","","","","","","","","","","","","fixation","","","","","",""
"d3-animate-choice","151","544420","0.0-77.0-0.5","3880","7204","19","Male","true","true","true","true","""event"",""trial"",""time""
""fullscreenenter"",""5"",""10196""
","
","
","""event"",""trial"",""time""
""fullscreenenter"",""5"",""10196""
","
","473","","48","","","3000","1","","","images/earth.jpg","images/rocket2","images/rocket1","null","images/rocket2","","1","real","null","2","","",""
"d3-animate-choice","152","546782","0.0-77.0-1.5","3880","7204","19","Male","true","true","true","true","""event"",""trial"",""time""
""fullscreenenter"",""5"",""10196""
","
","
","""event"",""trial"",""time""
""fullscreenenter"",""5"",""10196""
","
","352.69999998807907","","49","","","3000","1","","","images/purpleplanet.jpg","images/alien4","images/alien3","images/rocket2","images/alien3","images/t.png","2","real","true","1","common","1","2023-03-06 04:08:11.469"
"two-step-fixation","153","547796","0.0-77.0-2.5","3880","7204","19","Male","true","true","true","true","""event"",""trial"",""time""
""fullscreenenter"",""5"",""10196""
","
","
","""event"",""trial"",""time""
""fullscreenenter"",""5"",""10196""
","
","","images/earth.jpg","","","","","","","","","","","","","","fixation","","","","","",""
"d3-animate-choice","154","549902","0.0-77.0-0.6","3880","7204","19","Male","true","true","true","true","""event"",""trial"",""time""
""fullscreenenter"",""5"",""10196""
","
","
","""event"",""trial"",""time""
""fullscreenenter"",""5"",""10196""
","
","90.09999999403954","","48","","","3000","1","","","images/earth.jpg","images/rocket2","images/rocket1","null","images/rocket2","","1","real","null","2","","",""
"d3-animate-choice","155","552199","0.0-77.0-1.6","3880","7204","19","Male","true","true","true","true","""event"",""trial"",""time""
""fullscreenenter"",""5"",""10196""
","
","
","""event"",""trial"",""time""
""fullscreenenter"",""5"",""10196""
","
","279.09999999403954","","49","","","3000","1","","","images/purpleplanet.jpg","images/alien4","images/alien3","images/rocket2","images/alien3","images/nothing.png","2","real","true","1","common","0","2023-03-06 04:08:16.886"
"two-step-fixation","156","553214","0.0-77.0-2.6","3880","7204","19","Male","true","true","true","true","""event"",""trial"",""time""
""fullscreenenter"",""5"",""10196""
","
","
","""event"",""trial"",""time""
""fullscreenenter"",""5"",""10196""
","
","","images/earth.jpg","","","","","","","","","","","","","","fixation","","","","","",""
"d3-animate-choice","157","556597","0.0-77.0-0.7","3880","7204","19","Male","true","true","true","true","""event"",""trial"",""time""
""fullscreenenter"",""5"",""10196""
","
","
","""event"",""trial"",""time""
""fullscreenenter"",""5"",""10196""
","
","1367.5","","48","","","3000","1","","","images/earth.jpg","images/rocket2","images/rocket1","null","images/rocket2","","1","real","null","2","","",""
"d3-animate-choice","158","559154","0.0-77.0-1.7","3880","7204","19","Male","true","true","true","true","""event"",""trial"",""time""
""fullscreenenter"",""5"",""10196""
","
","
","""event"",""trial"",""time""
""fullscreenenter"",""5"",""10196""
","
","550.5999999940395","","49","","","3000","1","","","images/purpleplanet.jpg","images/alien4","images/alien3","images/rocket2","images/alien3","images/t.png","2","real","true","1","common","1","2023-03-06 04:08:23.841"
"two-step-fixation","159","560163","0.0-77.0-2.7","3880","7204","19","Male","true","true","true","true","""event"",""trial"",""time""
""fullscreenenter"",""5"",""10196""
","
","
","""event"",""trial"",""time""
""fullscreenenter"",""5"",""10196""
","
","","images/earth.jpg","","","","","","","","","","","","","","fixation","","","","","",""
"d3-animate-choice","160","562436","0.0-77.0-0.8","3880","7204","19","Male","true","true","true","true","""event"",""trial"",""time""
""fullscreenenter"",""5"",""10196""
","
","
","""event"",""trial"",""time""
""fullscreenenter"",""5"",""10196""
","
","262.69999998807907","","48","","","3000","1","","","images/earth.jpg","images/rocket2","images/rocket1","null","images/rocket2","","1","real","null","2","","",""
"d3-animate-choice","161","565251","0.0-77.0-1.8","3880","7204","19","Male","true","true","true","true","""event"",""trial"",""time""
""fullscreenenter"",""5"",""10196""
","
","
","""event"",""trial"",""time""
""fullscreenenter"",""5"",""10196""
","
","806","","48","","","3000","1","","","images/redplanet1.jpg","images/alien2","images/alien1","images/rocket2","images/alien2","images/t.png","2","real","false","2","rare","1","2023-03-06 04:08:29.939"
"two-step-fixation","162","566261","0.0-77.0-2.8","3880","7204","19","Male","true","true","true","true","""event"",""trial"",""time""
""fullscreenenter"",""5"",""10196""
","
","
","""event"",""trial"",""time""
""fullscreenenter"",""5"",""10196""
","
","","images/earth.jpg","","","","","","","","","","","","","","fixation","","","","","",""
"d3-animate-choice","163","569079","0.0-77.0-0.9","3880","7204","19","Male","true","true","true","true","""event"",""trial"",""time""
""fullscreenenter"",""5"",""10196""
","
","
","""event"",""trial"",""time""
""fullscreenenter"",""5"",""10196""
","
","808","","48","","","3000","1","","","images/earth.jpg","images/rocket2","images/rocket1","null","images/rocket2","","1","real","null","2","","",""
"d3-animate-choice","164","571460","0.0-77.0-1.9","3880","7204","19","Male","true","true","true","true","""event"",""trial"",""time""
""fullscreenenter"",""5"",""10196""
","
","
","""event"",""trial"",""time""
""fullscreenenter"",""5"",""10196""
","
","367.69999998807907","","48","","","3000","1","","","images/redplanet1.jpg","images/alien2","images/alien1","images/rocket2","images/alien2","images/t.png","2","real","false","2","rare","1","2023-03-06 04:08:36.148"
"two-step-fixation","165","572477","0.0-77.0-2.9","3880","7204","19","Male","true","true","true","true","""event"",""trial"",""time""
""fullscreenenter"",""5"",""10196""
","
","
","""event"",""trial"",""time""
""fullscreenenter"",""5"",""10196""
","
","","images/earth.jpg","","","","","","","","","","","","","","fixation","","","","","",""
"d3-animate-choice","166","574597","0.0-77.0-0.10","3880","7204","19","Male","true","true","true","true","""event"",""trial"",""time""
""fullscreenenter"",""5"",""10196""
","
","
","""event"",""trial"",""time""
""fullscreenenter"",""5"",""10196""
","
","103.5","","48","","","3000","1","","","images/earth.jpg","images/rocket2","images/rocket1","null","images/rocket2","","1","real","null","2","","",""
"d3-animate-choice","167","576994","0.0-77.0-1.10","3880","7204","19","Male","true","true","true","true","""event"",""trial"",""time""
""fullscreenenter"",""5"",""10196""
","
","
","""event"",""trial"",""time""
""fullscreenenter"",""5"",""10196""
","
","391.09999999403954","","49","","","3000","1","","","images/purpleplanet.jpg","images/alien4","images/alien3","images/rocket2","images/alien3","images/t.png","2","real","true","1","common","1","2023-03-06 04:08:41.682"
"two-step-fixation","168","578004","0.0-77.0-2.10","3880","7204","19","Male","true","true","true","true","""event"",""trial"",""time""
""fullscreenenter"",""5"",""10196""
","
","
","""event"",""trial"",""time""
""fullscreenenter"",""5"",""10196""
","
","","images/earth.jpg","","","","","","","","","","","","","","fixation","","","","","",""
"d3-animate-choice","169","580246","0.0-77.0-0.11","3880","7204","19","Male","true","true","true","true","""event"",""trial"",""time""
""fullscreenenter"",""5"",""10196""
","
","
","""event"",""trial"",""time""
""fullscreenenter"",""5"",""10196""
","
","237.19999998807907","","48","","","3000","1","","","images/earth.jpg","images/rocket2","images/rocket1","null","images/rocket2","","1","real","null","2","","",""
"d3-animate-choice","170","582845","0.0-77.0-1.11","3880","7204","19","Male","true","true","true","true","""event"",""trial"",""time""
""fullscreenenter"",""5"",""10196""
","
","
","""event"",""trial"",""time""
""fullscreenenter"",""5"",""10196""
","
","589","","49","","","3000","1","","","images/purpleplanet.jpg","images/alien4","images/alien3","images/rocket2","images/alien3","images/t.png","2","real","true","1","common","1","2023-03-06 04:08:47.533"
"two-step-fixation","171","583858","0.0-77.0-2.11","3880","7204","19","Male","true","true","true","true","""event"",""trial"",""time""
""fullscreenenter"",""5"",""10196""
","
","
","""event"",""trial"",""time""
""fullscreenenter"",""5"",""10196""
","
","","images/earth.jpg","","","","","","","","","","","","","","fixation","","","","","",""
"d3-animate-choice","172","586278","0.0-77.0-0.12","3880","7204","19","Male","true","true","true","true","""event"",""trial"",""time""
""fullscreenenter"",""5"",""10196""
","
","
","""event"",""trial"",""time""
""fullscreenenter"",""5"",""10196""
","
","411.7999999821186","","48","","","3000","1","","","images/earth.jpg","images/rocket2","images/rocket1","null","images/rocket2","","1","real","null","2","","",""
"d3-animate-choice","173","588755","0.0-77.0-1.12","3880","7204","19","Male","true","true","true","true","""event"",""trial"",""time""
""fullscreenenter"",""5"",""10196""
","
","
","""event"",""trial"",""time""
""fullscreenenter"",""5"",""10196""
","
","469","","49","","","3000","1","","","images/purpleplanet.jpg","images/alien4","images/alien3","images/rocket2","images/alien3","images/nothing.png","2","real","true","1","common","0","2023-03-06 04:08:53.442"
"two-step-fixation","174","589762","0.0-77.0-2.12","3880","7204","19","Male","true","true","true","true","""event"",""trial"",""time""
""fullscreenenter"",""5"",""10196""
","
","
","""event"",""trial"",""time""
""fullscreenenter"",""5"",""10196""
","
","","images/earth.jpg","","","","","","","","","","","","","","fixation","","","","","",""
"d3-animate-choice","175","592095","0.0-77.0-0.13","3880","7204","19","Male","true","true","true","true","""event"",""trial"",""time""
""fullscreenenter"",""5"",""10196""
","
","
","""event"",""trial"",""time""
""fullscreenenter"",""5"",""10196""
","
","326.90000000596046","","48","","","3000","1","","","images/earth.jpg","images/rocket2","images/rocket1","null","images/rocket2","","1","real","null","2","","",""
"d3-animate-choice","176","595137","0.0-77.0-1.13","3880","7204","19","Male","true","true","true","true","""event"",""trial"",""time""
""fullscreenenter"",""5"",""10196""
","
","
","""event"",""trial"",""time""
""fullscreenenter"",""5"",""10196""
","
","1031.800000011921","","49","","","3000","1","","","images/purpleplanet.jpg","images/alien4","images/alien3","images/rocket2","images/alien3","images/nothing.png","2","real","true","1","common","0","2023-03-06 04:08:59.824"
"two-step-fixation","177","596145","0.0-77.0-2.13","3880","7204","19","Male","true","true","true","true","""event"",""trial"",""time""
""fullscreenenter"",""5"",""10196""
","
","
","""event"",""trial"",""time""
""fullscreenenter"",""5"",""10196""
","
","","images/earth.jpg","","","","","","","","","","","","","","fixation","","","","","",""
"d3-animate-choice","178","598462","0.0-77.0-0.14","3880","7204","19","Male","true","true","true","true","""event"",""trial"",""time""
""fullscreenenter"",""5"",""10196""
","
","
","""event"",""trial"",""time""
""fullscreenenter"",""5"",""10196""
","
","300.19999998807907","","49","","","3000","1","","","images/earth.jpg","images/rocket2","images/rocket1","null","images/rocket1","","1","real","null","1","","",""
"d3-animate-choice","179","601312","0.0-77.0-1.14","3880","7204","19","Male","true","true","true","true","""event"",""trial"",""time""
""fullscreenenter"",""5"",""10196""
","
","
","""event"",""trial"",""time""
""fullscreenenter"",""5"",""10196""
","
","832.9000000059605","","48","","","3000","1","","","images/purpleplanet.jpg","images/alien4","images/alien3","images/rocket1","images/alien4","images/t.png","2","real","false","2","rare","1","2023-03-06 04:09:05.999"
"two-step-fixation","180","602322","0.0-77.0-2.14","3880","7204","19","Male","true","true","true","true","""event"",""trial"",""time""
""fullscreenenter"",""5"",""10196""
","
","
","""event"",""trial"",""time""
""fullscreenenter"",""5"",""10196""
","
","","images/earth.jpg","","","","","","","","","","","","","","fixation","","","","","",""
"d3-animate-choice","181","604861","0.0-77.0-0.15","3880","7204","19","Male","true","true","true","true","""event"",""trial"",""time""
""fullscreenenter"",""5"",""10196""
","
","
","""event"",""trial"",""time""
""fullscreenenter"",""5"",""10196""
","
","521.2999999821186","","49","","","3000","1","","","images/earth.jpg","images/rocket2","images/rocket1","null","images/rocket1","","1","real","null","1","","",""
"d3-animate-choice","182","607476","0.0-77.0-1.15","3880","7204","19","Male","true","true","true","true","""event"",""trial"",""time""
""fullscreenenter"",""5"",""10196""
","
","
","""event"",""trial"",""time""
""fullscreenenter"",""5"",""10196""
","
","598.7000000178814","","48","","","3000","1","","","images/purpleplanet.jpg","images/alien4","images/alien3","images/rocket1","images/alien4","images/t.png","2","real","false","2","rare","1","2023-03-06 04:09:12.166"
"two-step-fixation","183","608493","0.0-77.0-2.15","3880","7204","19","Male","true","true","true","true","""event"",""trial"",""time""
""fullscreenenter"",""5"",""10196""
","
","
","""event"",""trial"",""time""
""fullscreenenter"",""5"",""10196""
","
","","images/earth.jpg","","","","","","","","","","","","","","fixation","","","","","",""
"d3-animate-choice","184","610770","0.0-77.0-0.16","3880","7204","19","Male","true","true","true","true","""event"",""trial"",""time""
""fullscreenenter"",""5"",""10196""
","
","
","""event"",""trial"",""time""
""fullscreenenter"",""5"",""10196""
","
","267.2000000178814","","49","","","3000","1","","","images/earth.jpg","images/rocket2","images/rocket1","null","images/rocket1","","1","real","null","1","","",""
"d3-animate-choice","185","613546","0.0-77.0-1.16","3880","7204","19","Male","true","true","true","true","""event"",""trial"",""time""
""fullscreenenter"",""5"",""10196""
","
","
","""event"",""trial"",""time""
""fullscreenenter"",""5"",""10196""
","
","764.1999999880791","","48","","","3000","1","","","images/redplanet1.jpg","images/alien2","images/alien1","images/rocket1","images/alien2","images/nothing.png","2","real","true","2","common","0","2023-03-06 04:09:18.233"
"two-step-fixation","186","614553","0.0-77.0-2.16","3880","7204","19","Male","true","true","true","true","""event"",""trial"",""time""
""fullscreenenter"",""5"",""10196""
","
","
","""event"",""trial"",""time""
""fullscreenenter"",""5"",""10196""
","
","","images/earth.jpg","","","","","","","","","","","","","","fixation","","","","","",""
"d3-animate-choice","187","616878","0.0-77.0-0.17","3880","7204","19","Male","true","true","true","true","""event"",""trial"",""time""
""fullscreenenter"",""5"",""10196""
","
","
","""event"",""trial"",""time""
""fullscreenenter"",""5"",""10196""
","
","317.2999999821186","","49","","","3000","1","","","images/earth.jpg","images/rocket2","images/rocket1","null","images/rocket1","","1","real","null","1","","",""
"d3-animate-choice","188","619714","0.0-77.0-1.17","3880","7204","19","Male","true","true","true","true","""event"",""trial"",""time""
""fullscreenenter"",""5"",""10196""
","
","
","""event"",""trial"",""time""
""fullscreenenter"",""5"",""10196""
","
","826.7000000178814","","49","","","3000","1","","","images/redplanet1.jpg","images/alien2","images/alien1","images/rocket1","images/alien1","images/t.png","2","real","true","1","common","1","2023-03-06 04:09:24.402"
"two-step-fixation","189","620723","0.0-77.0-2.17","3880","7204","19","Male","true","true","true","true","""event"",""trial"",""time""
""fullscreenenter"",""5"",""10196""
","
","
","""event"",""trial"",""time""
""fullscreenenter"",""5"",""10196""
","
","","images/earth.jpg","","","","","","","","","","","","","","fixation","","","","","",""
"d3-animate-choice","190","622985","0.0-77.0-0.18","3880","7204","19","Male","true","true","true","true","""event"",""trial"",""time""
""fullscreenenter"",""5"",""10196""
","
","
","""event"",""trial"",""time""
""fullscreenenter"",""5"",""10196""
","
","249.5","","49","","","3000","1","","","images/earth.jpg","images/rocket2","images/rocket1","null","images/rocket1","","1","real","null","1","","",""
"d3-animate-choice","191","625373","0.0-77.0-1.18","3880","7204","19","Male","true","true","true","true","""event"",""trial"",""time""
""fullscreenenter"",""5"",""10196""
","
","
","""event"",""trial"",""time""
""fullscreenenter"",""5"",""10196""
","
","379","","49","","","3000","1","","","images/redplanet1.jpg","images/alien2","images/alien1","images/rocket1","images/alien1","images/t.png","2","real","true","1","common","1","2023-03-06 04:09:30.060"
"two-step-fixation","192","626386","0.0-77.0-2.18","3880","7204","19","Male","true","true","true","true","""event"",""trial"",""time""
""fullscreenenter"",""5"",""10196""
","
","
","""event"",""trial"",""time""
""fullscreenenter"",""5"",""10196""
","
","","images/earth.jpg","","","","","","","","","","","","","","fixation","","","","","",""
"d3-animate-choice","193","628589","0.0-77.0-0.19","3880","7204","19","Male","true","true","true","true","""event"",""trial"",""time""
""fullscreenenter"",""5"",""10196""
","
","
","""event"",""trial"",""time""
""fullscreenenter"",""5"",""10196""
","
","189.40000000596046","","49","","","3000","1","","","images/earth.jpg","images/rocket2","images/rocket1","null","images/rocket1","","1","real","null","1","","",""
"d3-animate-choice","194","631453","0.0-77.0-1.19","3880","7204","19","Male","true","true","true","true","""event"",""trial"",""time""
""fullscreenenter"",""5"",""10196""
","
","
","""event"",""trial"",""time""
""fullscreenenter"",""5"",""10196""
","
","851.5999999940395","","48","","","3000","1","","","images/purpleplanet.jpg","images/alien4","images/alien3","images/rocket1","images/alien4","images/t.png","2","real","false","2","rare","1","2023-03-06 04:09:36.140"
"two-step-fixation","195","632468","0.0-77.0-2.19","3880","7204","19","Male","true","true","true","true","""event"",""trial"",""time""
""fullscreenenter"",""5"",""10196""
","
","
","""event"",""trial"",""time""
""fullscreenenter"",""5"",""10196""
","
","","images/earth.jpg","","","","","","","","","","","","","","fixation","","","","","",""
"d3-animate-choice","196","634637","0.0-77.0-0.20","3880","7204","19","Male","true","true","true","true","""event"",""trial"",""time""
""fullscreenenter"",""5"",""10196""
","
","
","""event"",""trial"",""time""
""fullscreenenter"",""5"",""10196""
","
","150.30000001192093","","49","","","3000","1","","","images/earth.jpg","images/rocket2","images/rocket1","null","images/rocket1","","1","real","null","1","","",""
"d3-animate-choice","197","637485","0.0-77.0-1.20","3880","7204","19","Male","true","true","true","true","""event"",""trial"",""time""
""fullscreenenter"",""5"",""10196""
","
","
","""event"",""trial"",""time""
""fullscreenenter"",""5"",""10196""
","
","838.8000000119209","","49","","","3000","1","","","images/redplanet1.jpg","images/alien2","images/alien1","images/rocket1","images/alien1","images/t.png","2","real","true","1","common","1","2023-03-06 04:09:42.173"
"two-step-fixation","198","638502","0.0-77.0-2.20","3880","7204","19","Male","true","true","true","true","""event"",""trial"",""time""
""fullscreenenter"",""5"",""10196""
","
","
","""event"",""trial"",""time""
""fullscreenenter"",""5"",""10196""
","
","","images/earth.jpg","","","","","","","","","","","","","","fixation","","","","","",""
"d3-animate-choice","199","640725","0.0-77.0-0.21","3880","7204","19","Male","true","true","true","true","""event"",""trial"",""time""
""fullscreenenter"",""5"",""10196""
","
","
","""event"",""trial"",""time""
""fullscreenenter"",""5"",""10196""
","
","206.60000002384186","","49","","","3000","1","","","images/earth.jpg","images/rocket2","images/rocket1","null","images/rocket1","","1","real","null","1","","",""
"d3-animate-choice","200","643581","0.0-77.0-1.21","3880","7204","19","Male","true","true","true","true","""event"",""trial"",""time""
""fullscreenenter"",""5"",""10196""
","
","
","""event"",""trial"",""time""
""fullscreenenter"",""5"",""10196""
","
","842","","48","","","3000","1","","","images/purpleplanet.jpg","images/alien4","images/alien3","images/rocket1","images/alien4","images/t.png","2","real","false","2","rare","1","2023-03-06 04:09:48.268"
"two-step-fixation","201","644594","0.0-77.0-2.21","3880","7204","19","Male","true","true","true","true","""event"",""trial"",""time""
""fullscreenenter"",""5"",""10196""
","
","
","""event"",""trial"",""time""
""fullscreenenter"",""5"",""10196""
","
","","images/earth.jpg","","","","","","","","","","","","","","fixation","","","","","",""
"d3-animate-choice","202","646878","0.0-77.0-0.22","3880","7204","19","Male","true","true","true","true","""event"",""trial"",""time""
""fullscreenenter"",""5"",""10196""
","
","
","""event"",""trial"",""time""
""fullscreenenter"",""5"",""10196""
","
","271.59999999403954","","49","","","3000","1","","","images/earth.jpg","images/rocket2","images/rocket1","null","images/rocket1","","1","real","null","1","","",""
"d3-animate-choice","203","649933","0.0-77.0-1.22","3880","7204","19","Male","true","true","true","true","""event"",""trial"",""time""
""fullscreenenter"",""5"",""10196""
","
","
","""event"",""trial"",""time""
""fullscreenenter"",""5"",""10196""
","
","1038.5999999940395","","49","","","3000","1","","","images/redplanet1.jpg","images/alien2","images/alien1","images/rocket1","images/alien1","images/t.png","2","real","true","1","common","1","2023-03-06 04:09:54.620"
"two-step-fixation","204","650948","0.0-77.0-2.22","3880","7204","19","Male","true","true","true","true","""event"",""trial"",""time""
""fullscreenenter"",""5"",""10196""
","
","
","""event"",""trial"",""time""
""fullscreenenter"",""5"",""10196""
","
","","images/earth.jpg","","","","","","","","","","","","","","fixation","","","","","",""
"d3-animate-choice","205","653178","0.0-77.0-0.23","3880","7204","19","Male","true","true","true","true","""event"",""trial"",""time""
""fullscreenenter"",""5"",""10196""
","
","
","""event"",""trial"",""time""
""fullscreenenter"",""5"",""10196""
","
","218","","49","","","3000","1","","","images/earth.jpg","images/rocket2","images/rocket1","null","images/rocket1","","1","real","null","1","","",""
"d3-animate-choice","206","656178","0.0-77.0-1.23","3880","7204","19","Male","true","true","true","true","""event"",""trial"",""time""
""fullscreenenter"",""5"",""10196""
","
","
","""event"",""trial"",""time""
""fullscreenenter"",""5"",""10196""
","
","992.4000000059605","","49","","","3000","1","","","images/redplanet1.jpg","images/alien2","images/alien1","images/rocket1","images/alien1","images/nothing.png","2","real","true","1","common","0","2023-03-06 04:10:00.865"
"two-step-fixation","207","657186","0.0-77.0-2.23","3880","7204","19","Male","true","true","true","true","""event"",""trial"",""time""
""fullscreenenter"",""5"",""10196""
","
","
","""event"",""trial"",""time""
""fullscreenenter"",""5"",""10196""
","
","","images/earth.jpg","","","","","","","","","","","","","","fixation","","","","","",""
"d3-animate-choice","208","660103","0.0-77.0-0.24","3880","7204","19","Male","true","true","true","true","""event"",""trial"",""time""
""fullscreenenter"",""5"",""10196""
","
","
","""event"",""trial"",""time""
""fullscreenenter"",""5"",""10196""
","
","908.5","","48","","","3000","1","","","images/earth.jpg","images/rocket2","images/rocket1","null","images/rocket2","","1","real","null","2","","",""
"d3-animate-choice","209","662661","0.0-77.0-1.24","3880","7204","19","Male","true","true","true","true","""event"",""trial"",""time""
""fullscreenenter"",""5"",""10196""
","
","
","""event"",""trial"",""time""
""fullscreenenter"",""5"",""10196""
","
","551.0999999940395","","48","","","3000","1","","","images/purpleplanet.jpg","images/alien4","images/alien3","images/rocket2","images/alien4","images/nothing.png","2","real","true","2","common","0","2023-03-06 04:10:07.349"
"two-step-fixation","210","663667","0.0-77.0-2.24","3880","7204","19","Male","true","true","true","true","""event"",""trial"",""time""
""fullscreenenter"",""5"",""10196""
","
","
","""event"",""trial"",""time""
""fullscreenenter"",""5"",""10196""
","
","","images/earth.jpg","","","","","","","","","","","","","","fixation","","","","","",""
"d3-animate-choice","211","665717","0.0-77.0-0.25","3880","7204","19","Male","true","true","true","true","""event"",""trial"",""time""
""fullscreenenter"",""5"",""10196""
","
","
","""event"",""trial"",""time""
""fullscreenenter"",""5"",""10196""
","
","36.400000005960464","","49","","","3000","1","","","images/earth.jpg","images/rocket2","images/rocket1","null","images/rocket1","","1","real","null","1","","",""
"d3-animate-choice","212","668332","0.0-77.0-1.25","3880","7204","19","Male","true","true","true","true","""event"",""trial"",""time""
""fullscreenenter"",""5"",""10196""
","
","
","""event"",""trial"",""time""
""fullscreenenter"",""5"",""10196""
","
","602.0999999940395","","49","","","3000","1","","","images/redplanet1.jpg","images/alien2","images/alien1","images/rocket1","images/alien1","images/t.png","2","real","true","1","common","1","2023-03-06 04:10:13.020"
"two-step-fixation","213","669344","0.0-77.0-2.25","3880","7204","19","Male","true","true","true","true","""event"",""trial"",""time""
""fullscreenenter"",""5"",""10196""
","
","
","""event"",""trial"",""time""
""fullscreenenter"",""5"",""10196""
","
","","images/earth.jpg","","","","","","","","","","","","","","fixation","","","","","",""
"d3-animate-choice","214","671911","0.0-77.0-0.26","3880","7204","19","Male","true","true","true","true","""event"",""trial"",""time""
""fullscreenenter"",""5"",""10196""
","
","
","""event"",""trial"",""time""
""fullscreenenter"",""5"",""10196""
","
","562","","49","","","3000","1","","","images/earth.jpg","images/rocket2","images/rocket1","null","images/rocket1","","1","real","null","1","","",""
"d3-animate-choice","215","674175","0.0-77.0-1.26","3880","7204","19","Male","true","true","true","true","""event"",""trial"",""time""
""fullscreenenter"",""5"",""10196""
","
","
","""event"",""trial"",""time""
""fullscreenenter"",""5"",""10196""
","
","258.69999998807907","","49","","","3000","1","","","images/redplanet1.jpg","images/alien2","images/alien1","images/rocket1","images/alien1","images/t.png","2","real","true","1","common","1","2023-03-06 04:10:18.864"
"two-step-fixation","216","675185","0.0-77.0-2.26","3880","7204","19","Male","true","true","true","true","""event"",""trial"",""time""
""fullscreenenter"",""5"",""10196""
","
","
","""event"",""trial"",""time""
""fullscreenenter"",""5"",""10196""
","
","","images/earth.jpg","","","","","","","","","","","","","","fixation","","","","","",""
"d3-animate-choice","217","677420","0.0-77.0-0.27","3880","7204","19","Male","true","true","true","true","""event"",""trial"",""time""
""fullscreenenter"",""5"",""10196""
","
","
","""event"",""trial"",""time""
""fullscreenenter"",""5"",""10196""
","
","218.69999998807907","","49","","","3000","1","","","images/earth.jpg","images/rocket2","images/rocket1","null","images/rocket1","","1","real","null","1","","",""
"d3-animate-choice","218","679677","0.0-77.0-1.27","3880","7204","19","Male","true","true","true","true","""event"",""trial"",""time""
""fullscreenenter"",""5"",""10196""
","
","
","""event"",""trial"",""time""
""fullscreenenter"",""5"",""10196""
","
","244.80000001192093","","49","","","3000","1","","","images/redplanet1.jpg","images/alien2","images/alien1","images/rocket1","images/alien1","images/t.png","2","real","true","1","common","1","2023-03-06 04:10:24.364"
"two-step-fixation","219","680692","0.0-77.0-2.27","3880","7204","19","Male","true","true","true","true","""event"",""trial"",""time""
""fullscreenenter"",""5"",""10196""
","
","
","""event"",""trial"",""time""
""fullscreenenter"",""5"",""10196""
","
","","images/earth.jpg","","","","","","","","","","","","","","fixation","","","","","",""
"d3-animate-choice","220","682709","0.0-77.0-0.28","3880","7204","19","Male","true","true","true","true","""event"",""trial"",""time""
""fullscreenenter"",""5"",""10196""
","
","
","""event"",""trial"",""time""
""fullscreenenter"",""5"",""10196""
","
","0.09999999403953552","","49","","","3000","1","","","images/earth.jpg","images/rocket2","images/rocket1","null","images/rocket1","","1","real","null","1","","",""
"d3-animate-choice","221","685002","0.0-77.0-1.28","3880","7204","19","Male","true","true","true","true","""event"",""trial"",""time""
""fullscreenenter"",""5"",""10196""
","
","
","""event"",""trial"",""time""
""fullscreenenter"",""5"",""10196""
","
","280.69999998807907","","49","","","3000","1","","","images/redplanet1.jpg","images/alien2","images/alien1","images/rocket1","images/alien1","images/t.png","2","real","true","1","common","1","2023-03-06 04:10:29.689"
"two-step-fixation","222","686010","0.0-77.0-2.28","3880","7204","19","Male","true","true","true","true","""event"",""trial"",""time""
""fullscreenenter"",""5"",""10196""
","
","
","""event"",""trial"",""time""
""fullscreenenter"",""5"",""10196""
","
","","images/earth.jpg","","","","","","","","","","","","","","fixation","","","","","",""
"d3-animate-choice","223","688210","0.0-77.0-0.29","3880","7204","19","Male","true","true","true","true","""event"",""trial"",""time""
""fullscreenenter"",""5"",""10196""
","
","
","""event"",""trial"",""time""
""fullscreenenter"",""5"",""10196""
","
","193.7000000178814","","49","","","3000","1","","","images/earth.jpg","images/rocket2","images/rocket1","null","images/rocket1","","1","real","null","1","","",""
"d3-animate-choice","224","690636","0.0-77.0-1.29","3880","7204","19","Male","true","true","true","true","""event"",""trial"",""time""
""fullscreenenter"",""5"",""10196""
","
","
","""event"",""trial"",""time""
""fullscreenenter"",""5"",""10196""
","
","409.90000000596046","","49","","","3000","1","","","images/redplanet1.jpg","images/alien2","images/alien1","images/rocket1","images/alien1","images/t.png","2","real","true","1","common","1","2023-03-06 04:10:35.323"
"two-step-fixation","225","691652","0.0-77.0-2.29","3880","7204","19","Male","true","true","true","true","""event"",""trial"",""time""
""fullscreenenter"",""5"",""10196""
","
","
","""event"",""trial"",""time""
""fullscreenenter"",""5"",""10196""
","
","","images/earth.jpg","","","","","","","","","","","","","","fixation","","","","","",""
"d3-animate-choice","226","693948","0.0-77.0-0.30","3880","7204","19","Male","true","true","true","true","""event"",""trial"",""time""
""fullscreenenter"",""5"",""10196""
","
","
","""event"",""trial"",""time""
""fullscreenenter"",""5"",""10196""
","
","286.59999999403954","","49","","","3000","1","","","images/earth.jpg","images/rocket2","images/rocket1","null","images/rocket1","","1","real","null","1","","",""
"d3-animate-choice","227","696176","0.0-77.0-1.30","3880","7204","19","Male","true","true","true","true","""event"",""trial"",""time""
""fullscreenenter"",""5"",""10196""
","
","
","""event"",""trial"",""time""
""fullscreenenter"",""5"",""10196""
","
","221","","49","","","3000","1","","","images/redplanet1.jpg","images/alien2","images/alien1","images/rocket1","images/alien1","images/t.png","2","real","true","1","common","1","2023-03-06 04:10:40.864"
"two-step-fixation","228","697185","0.0-77.0-2.30","3880","7204","19","Male","true","true","true","true","""event"",""trial"",""time""
""fullscreenenter"",""5"",""10196""
","
","
","""event"",""trial"",""time""
""fullscreenenter"",""5"",""10196""
","
","","images/earth.jpg","","","","","","","","","","","","","","fixation","","","","","",""
"d3-animate-choice","229","699420","0.0-77.0-0.31","3880","7204","19","Male","true","true","true","true","""event"",""trial"",""time""
""fullscreenenter"",""5"",""10196""
","
","
","""event"",""trial"",""time""
""fullscreenenter"",""5"",""10196""
","
","220.30000001192093","","49","","","3000","1","","","images/earth.jpg","images/rocket2","images/rocket1","null","images/rocket1","","1","real","null","1","","",""
"d3-animate-choice","230","701625","0.0-77.0-1.31","3880","7204","19","Male","true","true","true","true","""event"",""trial"",""time""
""fullscreenenter"",""5"",""10196""
","
","
","""event"",""trial"",""time""
""fullscreenenter"",""5"",""10196""
","
","198.7000000178814","","49","","","3000","1","","","images/redplanet1.jpg","images/alien2","images/alien1","images/rocket1","images/alien1","images/t.png","2","real","true","1","common","1","2023-03-06 04:10:46.313"
"two-step-fixation","231","702637","0.0-77.0-2.31","3880","7204","19","Male","true","true","true","true","""event"",""trial"",""time""
""fullscreenenter"",""5"",""10196""
","
","
","""event"",""trial"",""time""
""fullscreenenter"",""5"",""10196""
","
","","images/earth.jpg","","","","","","","","","","","","","","fixation","","","","","",""
"d3-animate-choice","232","704652","0.0-77.0-0.32","3880","7204","19","Male","true","true","true","true","""event"",""trial"",""time""
""fullscreenenter"",""5"",""10196""
","
","
","""event"",""trial"",""time""
""fullscreenenter"",""5"",""10196""
","
","0.09999999403953552","","49","","","3000","1","","","images/earth.jpg","images/rocket2","images/rocket1","null","images/rocket1","","1","real","null","1","","",""
"d3-animate-choice","233","706901","0.0-77.0-1.32","3880","7204","19","Male","true","true","true","true","""event"",""trial"",""time""
""fullscreenenter"",""5"",""10196""
","
","
","""event"",""trial"",""time""
""fullscreenenter"",""5"",""10196""
","
","241.40000000596046","","49","","","3000","1","","","images/redplanet1.jpg","images/alien2","images/alien1","images/rocket1","images/alien1","images/t.png","2","real","true","1","common","1","2023-03-06 04:10:51.589"
"two-step-fixation","234","707912","0.0-77.0-2.32","3880","7204","19","Male","true","true","true","true","""event"",""trial"",""time""
""fullscreenenter"",""5"",""10196""
","
","
","""event"",""trial"",""time""
""fullscreenenter"",""5"",""10196""
","
","","images/earth.jpg","","","","","","","","","","","","","","fixation","","","","","",""
"d3-animate-choice","235","710141","0.0-77.0-0.33","3880","7204","19","Male","true","true","true","true","""event"",""trial"",""time""
""fullscreenenter"",""5"",""10196""
","
","
","""event"",""trial"",""time""
""fullscreenenter"",""5"",""10196""
","
","224.40000000596046","","49","","","3000","1","","","images/earth.jpg","images/rocket2","images/rocket1","null","images/rocket1","","1","real","null","1","","",""
"d3-animate-choice","236","712235","0.0-77.0-1.33","3880","7204","19","Male","true","true","true","true","""event"",""trial"",""time""
""fullscreenenter"",""5"",""10196""
","
","
","""event"",""trial"",""time""
""fullscreenenter"",""5"",""10196""
","
","86.89999997615814","","49","","","3000","1","","","images/redplanet1.jpg","images/alien2","images/alien1","images/rocket1","images/alien1","images/t.png","2","real","true","1","common","1","2023-03-06 04:10:56.922"
"two-step-fixation","237","713243","0.0-77.0-2.33","3880","7204","19","Male","true","true","true","true","""event"",""trial"",""time""
""fullscreenenter"",""5"",""10196""
","
","
","""event"",""trial"",""time""
""fullscreenenter"",""5"",""10196""
","
","","images/earth.jpg","","","","","","","","","","","","","","fixation","","","","","",""
"d3-animate-choice","238","715524","0.0-77.0-0.34","3880","7204","19","Male","true","true","true","true","""event"",""trial"",""time""
""fullscreenenter"",""5"",""10196""
","
","
","""event"",""trial"",""time""
""fullscreenenter"",""5"",""10196""
","
","271.30000001192093","","49","","","3000","1","","","images/earth.jpg","images/rocket2","images/rocket1","null","images/rocket1","","1","real","null","1","","",""
"d3-animate-choice","239","717953","0.0-77.0-1.34","3880","7204","19","Male","true","true","true","true","""event"",""trial"",""time""
""fullscreenenter"",""5"",""10196""
","
","
","""event"",""trial"",""time""
""fullscreenenter"",""5"",""10196""
","
","414.19999998807907","","49","","","3000","1","","","images/redplanet1.jpg","images/alien2","images/alien1","images/rocket1","images/alien1","images/t.png","2","real","true","1","common","1","2023-03-06 04:11:02.640"
"two-step-fixation","240","718961","0.0-77.0-2.34","3880","7204","19","Male","true","true","true","true","""event"",""trial"",""time""
""fullscreenenter"",""5"",""10196""
","
","
","""event"",""trial"",""time""
""fullscreenenter"",""5"",""10196""
","
","","images/earth.jpg","","","","","","","","","","","","","","fixation","","","","","",""
"d3-animate-choice","241","721218","0.0-77.0-0.35","3880","7204","19","Male","true","true","true","true","""event"",""trial"",""time""
""fullscreenenter"",""5"",""10196""
","
","
","""event"",""trial"",""time""
""fullscreenenter"",""5"",""10196""
","
","247.80000001192093","","49","","","3000","1","","","images/earth.jpg","images/rocket2","images/rocket1","null","images/rocket1","","1","real","null","1","","",""
"d3-animate-choice","242","723596","0.0-77.0-1.35","3880","7204","19","Male","true","true","true","true","""event"",""trial"",""time""
""fullscreenenter"",""5"",""10196""
","
","
","""event"",""trial"",""time""
""fullscreenenter"",""5"",""10196""
","
","363","","49","","","3000","1","","","images/redplanet1.jpg","images/alien2","images/alien1","images/rocket1","images/alien1","images/t.png","2","real","true","1","common","1","2023-03-06 04:11:08.283"
"two-step-fixation","243","724609","0.0-77.0-2.35","3880","7204","19","Male","true","true","true","true","""event"",""trial"",""time""
""fullscreenenter"",""5"",""10196""
","
","
","""event"",""trial"",""time""
""fullscreenenter"",""5"",""10196""
","
","","images/earth.jpg","","","","","","","","","","","","","","fixation","","","","","",""
"d3-animate-choice","244","726916","0.0-77.0-0.36","3880","7204","19","Male","true","true","true","true","""event"",""trial"",""time""
""fullscreenenter"",""5"",""10196""
","
","
","""event"",""trial"",""time""
""fullscreenenter"",""5"",""10196""
","
","295.09999999403954","","49","","","3000","1","","","images/earth.jpg","images/rocket2","images/rocket1","null","images/rocket1","","1","real","null","1","","",""
"d3-animate-choice","245","729249","0.0-77.0-1.36","3880","7204","19","Male","true","true","true","true","""event"",""trial"",""time""
""fullscreenenter"",""5"",""10196""
","
","
","""event"",""trial"",""time""
""fullscreenenter"",""5"",""10196""
","
","325.30000001192093","","49","","","3000","1","","","images/redplanet1.jpg","images/alien2","images/alien1","images/rocket1","images/alien1","images/t.png","2","real","true","1","common","1","2023-03-06 04:11:13.936"
"two-step-fixation","246","730258","0.0-77.0-2.36","3880","7204","19","Male","true","true","true","true","""event"",""trial"",""time""
""fullscreenenter"",""5"",""10196""
","
","
","""event"",""trial"",""time""
""fullscreenenter"",""5"",""10196""
","
","","images/earth.jpg","","","","","","","","","","","","","","fixation","","","","","",""
"d3-animate-choice","247","732752","0.0-77.0-0.37","3880","7204","19","Male","true","true","true","true","""event"",""trial"",""time""
""fullscreenenter"",""5"",""10196""
","
","
","""event"",""trial"",""time""
""fullscreenenter"",""5"",""10196""
","
","484.5","","49","","","3000","1","","","images/earth.jpg","images/rocket2","images/rocket1","null","images/rocket1","","1","real","null","1","","",""
