"trial_type","trial_index","time_elapsed","internal_node_id","participant_id","subject_id","age","gender","rocket_sides","red_planet_first_rocket","red_display_order","purple_display_order","interactions","blur_events","focus_events","fullscreenenter_events","fullscreenexit_events","rt","stimulus","key_press","button_pressed","success","duration","valid_pressed","rts","keys","planet_text","right_text","left_text","center_text","chosen_text","reward_text","trial_stage","practice_trial","transition_type","choice","transition","reward","timestamp"
"pavlovia","0","11","0.0-0.0","132","693","14","Female","true","false","false","false","
","
","
","
","
","","","","","","","","","","","","","","","","","","","","","",""
"html-keyboard-response","1","1178","0.0-1.0","132","693","14","Female","true","false","false","false","
","
","
","
","
","1165.3999999761581","Welcome! Press the space bar to begin.","32","","","","","","","","","","","","","","","","","","",""
"audio-keyboard-response","2","5124","0.0-2.0","132","693","14","Female","true","false","false","false","
","
","
","
","
","3825","audio/beep_loop.wav","32","","","","","","","","","","","","","","","","","","",""
"audio-button-response","3","8644","0.0-3.0","132","693","14","Female","true","false","false","false","
","
","
","
","
","NaN","audio/fish.mp3","","1","","","","","","","","","","","","","","","","","",""
"audio-button-response","4","11447","0.0-4.0","132","693","14","Female","true","false","false","false","""event"",""trial"",""time""
""fullscreenenter"",""5"",""15506""
","
","
","""event"",""trial"",""time""
""fullscreenenter"",""5"",""15506""
","
","NaN","audio/tiger.mp3","","4","","","","","","","","","","","","","","","","","",""
"fullscreen","5","16472","0.0-5.0","132","693","14","Female","true","false","false","false","""event"",""trial"",""time""
""fullscreenenter"",""5"",""15506""
","
","
","""event"",""trial"",""time""
""fullscreenenter"",""5"",""15506""
","
","","","","","true","","","","","","","","","","","","","","","","",""
"d3-instructions","6","27766","0.0-6.0","132","693","14","Female","true","false","false","false","""event"",""trial"",""time""
""fullscreenenter"",""5"",""15506""
","
","
","""event"",""trial"",""time""
""fullscreenenter"",""5"",""15506""
","
","","","","","","","","","","","","","","","","","","","","","",""
"d3-instructions","7","35728","0.0-7.0","132","693","14","Female","true","false","false","false","""event"",""trial"",""time""
""fullscreenenter"",""5"",""15506""
","
","
","""event"",""trial"",""time""
""fullscreenenter"",""5"",""15506""
","
","","","","","","","","","","","","","","","","","","","","","",""
"d3-instructions","8","43565","0.0-8.0","132","693","14","Female","true","false","false","false","""event"",""trial"",""time""
""fullscreenenter"",""5"",""15506""
","
","
","""event"",""trial"",""time""
""fullscreenenter"",""5"",""15506""
","
","","","","","","","","","","","","","","","","","","","","","",""
"d3-instructions","9","55739","0.0-9.0","132","693","14","Female","true","false","false","false","""event"",""trial"",""time""
""fullscreenenter"",""5"",""15506""
","
","
","""event"",""trial"",""time""
""fullscreenenter"",""5"",""15506""
","
","","","","","","","","","","","","","","","","","","","","","",""
"d3-instructions","10","65766","0.0-10.0","132","693","14","Female","true","false","false","false","""event"",""trial"",""time""
""fullscreenenter"",""5"",""15506""
","
","
","""event"",""trial"",""time""
""fullscreenenter"",""5"",""15506""
","
","","","","","","","","","","","","","","","","","","","","","",""
"d3-animate-choice","11","68458","0.0-11.0","132","693","14","Female","true","false","false","false","""event"",""trial"",""time""
""fullscreenenter"",""5"",""15506""
","
","
","""event"",""trial"",""time""
""fullscreenenter"",""5"",""15506""
","
","680.8000000715256","","49","","","3000","1","","","images/tutgreenplanet.jpg","images/tutalien1","images/tutalien2","null","images/tutalien2","","NA","practice","null","","","",""
"d3-animate-choice","12","71244","0.0-12.0","132","693","14","Female","true","false","false","false","""event"",""trial"",""time""
""fullscreenenter"",""5"",""15506""
","
","
","""event"",""trial"",""time""
""fullscreenenter"",""5"",""15506""
","
","779.3999999761581","","48","","","3000","1","","","images/tutgreenplanet.jpg","images/tutalien1","images/tutalien2","null","images/tutalien1","","NA","practice","null","","","",""
"d3-animate-choice","13","74141","0.0-13.0","132","693","14","Female","true","false","false","false","""event"",""trial"",""time""
""fullscreenenter"",""5"",""15506""
","
","
","""event"",""trial"",""time""
""fullscreenenter"",""5"",""15506""
","
","892.7000000476837","","49","","","3000","1","","","images/tutgreenplanet.jpg","images/tutalien1","images/tutalien2","null","images/tutalien2","","NA","practice","null","","","",""
"d3-animate-choice","14","76503","0.0-14.0","132","693","14","Female","true","false","false","false","""event"",""trial"",""time""
""fullscreenenter"",""5"",""15506""
","
","
","""event"",""trial"",""time""
""fullscreenenter"",""5"",""15506""
","
","357.60000002384186","","48","","","3000","1","2182.2000000476837","32","images/tutgreenplanet.jpg","images/tutalien1","images/tutalien2","null","images/tutalien1","","NA","practice","null","","","",""
"d3-instructions","15","80708","0.0-15.0","132","693","14","Female","true","false","false","false","""event"",""trial"",""time""
""fullscreenenter"",""5"",""15506""
","
","
","""event"",""trial"",""time""
""fullscreenenter"",""5"",""15506""
","
","","","","","","","","","","","","","","","","","","","","","",""
"d3-instructions","16","84747","0.0-16.0","132","693","14","Female","true","false","false","false","""event"",""trial"",""time""
""fullscreenenter"",""5"",""15506""
","
","
","""event"",""trial"",""time""
""fullscreenenter"",""5"",""15506""
","
","","","","","","","","","","","","","","","","","","","","","",""
"d3-instructions","17","90327","0.0-17.0","132","693","14","Female","true","false","false","false","""event"",""trial"",""time""
""fullscreenenter"",""5"",""15506""
","
","
","""event"",""trial"",""time""
""fullscreenenter"",""5"",""15506""
","
","","","","","","","","","","","","","","","","","","","","","",""
"d3-instructions","18","95525","0.0-18.0","132","693","14","Female","true","false","false","false","""event"",""trial"",""time""
""fullscreenenter"",""5"",""15506""
","
","
","""event"",""trial"",""time""
""fullscreenenter"",""5"",""15506""
","
","","","","","","","","","","","","","","","","","","","","","",""
"d3-instructions","19","105453","0.0-19.0","132","693","14","Female","true","false","false","false","""event"",""trial"",""time""
""fullscreenenter"",""5"",""15506""
","
","
","""event"",""trial"",""time""
""fullscreenenter"",""5"",""15506""
","
","","","","","","","","","","","","","","","","","","","","","",""
"d3-animate-choice","20","108159","0.0-20.0","132","693","14","Female","true","false","false","false","""event"",""trial"",""time""
""fullscreenenter"",""5"",""15506""
","
","
","""event"",""trial"",""time""
""fullscreenenter"",""5"",""15506""
","
","701.7999999523163","","49","","","3000","1","","","images/tutyellowplanet.jpg","null","images/tutalien3","null","images/tutalien3","images/nothing.png","NA","practice","null","","","",""
"d3-animate-choice","21","110626","0.0-21.0","132","693","14","Female","true","false","false","false","""event"",""trial"",""time""
""fullscreenenter"",""5"",""15506""
","
","
","""event"",""trial"",""time""
""fullscreenenter"",""5"",""15506""
","
","458.3000000715256","","49","","","3000","1","","","images/tutyellowplanet.jpg","null","images/tutalien3","null","images/tutalien3","images/t.png","NA","practice","null","","","",""
"d3-animate-choice","22","112948","0.0-22.0","132","693","14","Female","true","false","false","false","""event"",""trial"",""time""
""fullscreenenter"",""5"",""15506""
","
","
","""event"",""trial"",""time""
""fullscreenenter"",""5"",""15506""
","
","317.2000000476837","","49","","","3000","1","","","images/tutyellowplanet.jpg","null","images/tutalien3","null","images/tutalien3","images/t.png","NA","practice","null","","","",""
"d3-animate-choice","23","115003","0.0-23.0","132","693","14","Female","true","false","false","false","""event"",""trial"",""time""
""fullscreenenter"",""5"",""15506""
","
","
","""event"",""trial"",""time""
""fullscreenenter"",""5"",""15506""
","
","49.89999997615814","","49","","","3000","1","","","images/tutyellowplanet.jpg","null","images/tutalien3","null","images/tutalien3","images/t.png","NA","practice","null","","","",""
"d3-animate-choice","24","117053","0.0-24.0","132","693","14","Female","true","false","false","false","""event"",""trial"",""time""
""fullscreenenter"",""5"",""15506""
","
","
","""event"",""trial"",""time""
""fullscreenenter"",""5"",""15506""
","
","42.300000071525574","","49","","","3000","1","","","images/tutyellowplanet.jpg","null","images/tutalien3","null","images/tutalien3","images/t.png","NA","practice","null","","","",""
"d3-animate-choice","25","119200","0.0-25.0","132","693","14","Female","true","false","false","false","""event"",""trial"",""time""
""fullscreenenter"",""5"",""15506""
","
","
","""event"",""trial"",""time""
""fullscreenenter"",""5"",""15506""
","
","142.60000002384186","","49","","","3000","1","","","images/tutyellowplanet.jpg","null","images/tutalien3","null","images/tutalien3","images/t.png","NA","practice","null","","","",""
"d3-animate-choice","26","121302","0.0-26.0","132","693","14","Female","true","false","false","false","""event"",""trial"",""time""
""fullscreenenter"",""5"",""15506""
","
","
","""event"",""trial"",""time""
""fullscreenenter"",""5"",""15506""
","
","96.89999997615814","","49","","","3000","1","","","images/tutyellowplanet.jpg","null","images/tutalien3","null","images/tutalien3","images/t.png","NA","practice","null","","","",""
"d3-animate-choice","27","123651","0.0-27.0","132","693","14","Female","true","false","false","false","""event"",""trial"",""time""
""fullscreenenter"",""5"",""15506""
","
","
","""event"",""trial"",""time""
""fullscreenenter"",""5"",""15506""
","
","343.1999999284744","","49","","","3000","1","","","images/tutyellowplanet.jpg","null","images/tutalien3","null","images/tutalien3","images/t.png","NA","practice","null","","","",""
"d3-animate-choice","28","125737","0.0-28.0","132","693","14","Female","true","false","false","false","""event"",""trial"",""time""
""fullscreenenter"",""5"",""15506""
","
","
","""event"",""trial"",""time""
""fullscreenenter"",""5"",""15506""
","
","82.5","","49","","","3000","1","1495.8999999761581","49","images/tutyellowplanet.jpg","null","images/tutalien3","null","images/tutalien3","images/t.png","NA","practice","null","","","",""
"d3-animate-choice","29","128140","0.0-29.0","132","693","14","Female","true","false","false","false","""event"",""trial"",""time""
""fullscreenenter"",""5"",""15506""
","
","
","""event"",""trial"",""time""
""fullscreenenter"",""5"",""15506""
","
","398.60000002384186","","49","","","3000","1","","","images/tutyellowplanet.jpg","null","images/tutalien3","null","images/tutalien3","images/t.png","NA","practice","null","","","",""
"d3-instructions","30","132358","0.0-30.0","132","693","14","Female","true","false","false","false","""event"",""trial"",""time""
""fullscreenenter"",""5"",""15506""
","
","
","""event"",""trial"",""time""
""fullscreenenter"",""5"",""15506""
","
","","","","","","","","","","","","","","","","","","","","","",""
"d3-instructions","31","136431","0.0-31.0","132","693","14","Female","true","false","false","false","""event"",""trial"",""time""
""fullscreenenter"",""5"",""15506""
","
","
","""event"",""trial"",""time""
""fullscreenenter"",""5"",""15506""
","
","","","","","","","","","","","","","","","","","","","","","",""
"d3-instructions","32","139457","0.0-32.0","132","693","14","Female","true","false","false","false","""event"",""trial"",""time""
""fullscreenenter"",""5"",""15506""
","
","
","""event"",""trial"",""time""
""fullscreenenter"",""5"",""15506""
","
","","","","","","","","","","","","","","","","","","","","","",""
"d3-instructions","33","141517","0.0-33.0","132","693","14","Female","true","false","false","false","""event"",""trial"",""time""
""fullscreenenter"",""5"",""15506""
","
","
","""event"",""trial"",""time""
""fullscreenenter"",""5"",""15506""
","
","","","","","","","","","","","","","","","","","","","","","",""
"d3-animate-choice","34","144563","0.0-34.0","132","693","14","Female","true","false","false","false","""event"",""trial"",""time""
""fullscreenenter"",""5"",""15506""
","
","
","""event"",""trial"",""time""
""fullscreenenter"",""5"",""15506""
","
","1039.5","","49","","","3000","1","","","images/tutgreenplanet.jpg","images/tutalien1","images/tutalien2","null","images/tutalien2","images/t.png","NA","practice","null","","","",""
"d3-animate-choice","35","147157","0.0-35.0","132","693","14","Female","true","false","false","false","""event"",""trial"",""time""
""fullscreenenter"",""5"",""15506""
","
","
","""event"",""trial"",""time""
""fullscreenenter"",""5"",""15506""
","
","588.8999999761581","","48","","","3000","1","","","images/tutgreenplanet.jpg","images/tutalien1","images/tutalien2","null","images/tutalien1","images/nothing.png","NA","practice","null","","","",""
"d3-animate-choice","36","149672","0.0-36.0","132","693","14","Female","true","false","false","false","""event"",""trial"",""time""
""fullscreenenter"",""5"",""15506""
","
","
","""event"",""trial"",""time""
""fullscreenenter"",""5"",""15506""
","
","510","","49","","","3000","1","","","images/tutgreenplanet.jpg","images/tutalien1","images/tutalien2","null","images/tutalien2","images/t.png","NA","practice","null","","","",""
"d3-animate-choice","37","152226","0.0-37.0","132","693","14","Female","true","false","false","false","""event"",""trial"",""time""
""fullscreenenter"",""5"",""15506""
","
","
","""event"",""trial"",""time""
""fullscreenenter"",""5"",""15506""
","
","548.3999999761581","","49","","","3000","1","","","images/tutgreenplanet.jpg","images/tutalien1","images/tutalien2","null","images/tutalien2","images/t.png","NA","practice","null","","","",""
"d3-animate-choice","38","154588","0.0-38.0","132","693","14","Female","true","false","false","false","""event"",""trial"",""time""
""fullscreenenter"",""5"",""15506""
","
","
","""event"",""trial"",""time""
""fullscreenenter"",""5"",""15506""
","
","357.3000000715256","","49","","","3000","1","","","images/tutgreenplanet.jpg","images/tutalien1","images/tutalien2","null","images/tutalien2","images/t.png","NA","practice","null","","","",""
"d3-animate-choice","39","157015","0.0-39.0","132","693","14","Female","true","false","false","false","""event"",""trial"",""time""
""fullscreenenter"",""5"",""15506""
","
","
","""event"",""trial"",""time""
""fullscreenenter"",""5"",""15506""
","
","419.39999997615814","","49","","","3000","1","","","images/tutgreenplanet.jpg","images/tutalien1","images/tutalien2","null","images/tutalien2","images/t.png","NA","practice","null","","","",""
"d3-animate-choice","40","159355","0.0-40.0","132","693","14","Female","true","false","false","false","""event"",""trial"",""time""
""fullscreenenter"",""5"",""15506""
","
","
","""event"",""trial"",""time""
""fullscreenenter"",""5"",""15506""
","
","336","","49","","","3000","1","1748.3000000715256","49","images/tutgreenplanet.jpg","images/tutalien1","images/tutalien2","null","images/tutalien2","images/t.png","NA","practice","null","","","",""
"d3-animate-choice","41","161774","0.0-41.0","132","693","14","Female","true","false","false","false","""event"",""trial"",""time""
""fullscreenenter"",""5"",""15506""
","
","
","""event"",""trial"",""time""
""fullscreenenter"",""5"",""15506""
","
","415.2000000476837","","49","","","3000","1","","","images/tutgreenplanet.jpg","images/tutalien1","images/tutalien2","null","images/tutalien2","images/t.png","NA","practice","null","","","",""
"d3-animate-choice","42","164004","0.0-42.0","132","693","14","Female","true","false","false","false","""event"",""trial"",""time""
""fullscreenenter"",""5"",""15506""
","
","
","""event"",""trial"",""time""
""fullscreenenter"",""5"",""15506""
","
","224.5","","49","","","3000","1","","","images/tutgreenplanet.jpg","images/tutalien1","images/tutalien2","null","images/tutalien2","images/nothing.png","NA","practice","null","","","",""
"d3-animate-choice","43","166402","0.0-43.0","132","693","14","Female","true","false","false","false","""event"",""trial"",""time""
""fullscreenenter"",""5"",""15506""
","
","
","""event"",""trial"",""time""
""fullscreenenter"",""5"",""15506""
","
","390","","49","","","3000","1","","","images/tutgreenplanet.jpg","images/tutalien1","images/tutalien2","null","images/tutalien2","images/t.png","NA","practice","null","","","",""
"d3-instructions","44","171975","0.0-44.0","132","693","14","Female","true","false","false","false","""event"",""trial"",""time""
""fullscreenenter"",""5"",""15506""
","
","
","""event"",""trial"",""time""
""fullscreenenter"",""5"",""15506""
","
","","","","","","","","","","","","","","","","","","","","","",""
"d3-instructions","45","181627","0.0-45.0","132","693","14","Female","true","false","false","false","""event"",""trial"",""time""
""fullscreenenter"",""5"",""15506""
","
","
","""event"",""trial"",""time""
""fullscreenenter"",""5"",""15506""
","
","","","","","","","","","","","","","","","","","","","","","",""
"d3-instructions","46","188137","0.0-46.0","132","693","14","Female","true","false","false","false","""event"",""trial"",""time""
""fullscreenenter"",""5"",""15506""
","
","
","""event"",""trial"",""time""
""fullscreenenter"",""5"",""15506""
","
","","","","","","","","","","","","","","","","","","","","","",""
"d3-instructions","47","216851","0.0-47.0","132","693","14","Female","true","false","false","false","""event"",""trial"",""time""
""fullscreenenter"",""5"",""15506""
","
","
","""event"",""trial"",""time""
""fullscreenenter"",""5"",""15506""
","
","","","","","","","","","","","","","","","","","","","","","",""
"d3-instructions","48","224014","0.0-48.0","132","693","14","Female","true","false","false","false","""event"",""trial"",""time""
""fullscreenenter"",""5"",""15506""
","
","
","""event"",""trial"",""time""
""fullscreenenter"",""5"",""15506""
","
","","","","","","","","","","","","","","","","","","","","","",""
"d3-instructions","49","232137","0.0-49.0","132","693","14","Female","true","false","false","false","""event"",""trial"",""time""
""fullscreenenter"",""5"",""15506""
","
","
","""event"",""trial"",""time""
""fullscreenenter"",""5"",""15506""
","
","","","","","","","","","","","","","","","","","","","","","",""
"d3-instructions","50","240340","0.0-50.0","132","693","14","Female","true","false","false","false","""event"",""trial"",""time""
""fullscreenenter"",""5"",""15506""
","
","
","""event"",""trial"",""time""
""fullscreenenter"",""5"",""15506""
","
","","","","","","","","","","","","","","","","","","","","","",""
"d3-instructions","51","243098","0.0-51.0","132","693","14","Female","true","false","false","false","""event"",""trial"",""time""
""fullscreenenter"",""5"",""15506""
","
","
","""event"",""trial"",""time""
""fullscreenenter"",""5"",""15506""
","
","","","","","","","","","","","","","","","","","","","","","",""
"d3-instructions","52","245174","0.0-52.0","132","693","14","Female","true","false","false","false","""event"",""trial"",""time""
""fullscreenenter"",""5"",""15506""
","
","
","""event"",""trial"",""time""
""fullscreenenter"",""5"",""15506""
","
","","","","","","","","","","","","","","","","","","","","","",""
"d3-instructions","53","253200","0.0-53.0","132","693","14","Female","true","false","false","false","""event"",""trial"",""time""
""fullscreenenter"",""5"",""15506""
","
","
","""event"",""trial"",""time""
""fullscreenenter"",""5"",""15506""
","
","","","","","","","","","","","","","","","","","","","","","",""
"d3-instructions","54","264897","0.0-54.0","132","693","14","Female","true","false","false","false","""event"",""trial"",""time""
""fullscreenenter"",""5"",""15506""
","
","
","""event"",""trial"",""time""
""fullscreenenter"",""5"",""15506""
","
","","","","","","","","","","","","","","","","","","","","","",""
"d3-instructions","55","276953","0.0-55.0","132","693","14","Female","true","false","false","false","""event"",""trial"",""time""
""fullscreenenter"",""5"",""15506""
","
","
","""event"",""trial"",""time""
""fullscreenenter"",""5"",""15506""
","
","","","","","","","","","","","","","","","","","","","","","",""
"d3-instructions","56","282385","0.0-56.0","132","693","14","Female","true","false","false","false","""event"",""trial"",""time""
""fullscreenenter"",""5"",""15506""
","
","
","""event"",""trial"",""time""
""fullscreenenter"",""5"",""15506""
","
","","","","","","","","","","","","","","","","","","","","","",""
"d3-instructions","57","286959","0.0-57.0","132","693","14","Female","true","false","false","false","""event"",""trial"",""time""
""fullscreenenter"",""5"",""15506""
","
","
","""event"",""trial"",""time""
""fullscreenenter"",""5"",""15506""
","
","","","","","","","","","","","","","","","","","","","","","",""
"d3-instructions","58","291374","0.0-58.0","132","693","14","Female","true","false","false","false","""event"",""trial"",""time""
""fullscreenenter"",""5"",""15506""
","
","
","""event"",""trial"",""time""
""fullscreenenter"",""5"",""15506""
","
","","","","","","","","","","","","","","","","","","","","","",""
"d3-instructions","59","292888","0.0-59.0","132","693","14","Female","true","false","false","false","""event"",""trial"",""time""
""fullscreenenter"",""5"",""15506""
","
","
","""event"",""trial"",""time""
""fullscreenenter"",""5"",""15506""
","
","","","","","","","","","","","","","","","","","","","","","",""
"d3-instructions","60","295310","0.0-60.0","132","693","14","Female","true","false","false","false","""event"",""trial"",""time""
""fullscreenenter"",""5"",""15506""
","
","
","""event"",""trial"",""time""
""fullscreenenter"",""5"",""15506""
","
","","","","","","","","","","","","","","","","","","","","","",""
"d3-animate-choice","61","297907","0.0-61.0-0.0","132","693","14","Female","true","false","false","false","""event"",""trial"",""time""
""fullscreenenter"",""5"",""15506""
","
","
","""event"",""trial"",""time""
""fullscreenenter"",""5"",""15506""
","
","590.2999999523163","","49","","","3000","1","","","images/earth.jpg","images/tutrocket2","images/tutrocket1","null","images/tutrocket1","","1","practice","null","1","","",""
"d3-animate-choice","62","300560","0.0-61.0-1.0","132","693","14","Female","true","false","false","false","""event"",""trial"",""time""
""fullscreenenter"",""5"",""15506""
","
","
","""event"",""trial"",""time""
""fullscreenenter"",""5"",""15506""
","
","644.7000000476837","","49","","","3000","1","","","images/tutgreenplanet.jpg","images/tutalien2","images/tutalien1","images/tutrocket1","images/tutalien1","images/t.png","2","practice","false","1","rare","1","2022-02-13 03:12:19.577"
"two-step-fixation","63","301567","0.0-61.0-2.0","132","693","14","Female","true","false","false","false","""event"",""trial"",""time""
""fullscreenenter"",""5"",""15506""
","
","
","""event"",""trial"",""time""
""fullscreenenter"",""5"",""15506""
","
","","images/earth.jpg","","","","","","","","","","","","","","fixation","","","","","",""
"d3-animate-choice","64","304420","0.0-61.0-0.1","132","693","14","Female","true","false","false","false","""event"",""trial"",""time""
""fullscreenenter"",""5"",""15506""
","
","
","""event"",""trial"",""time""
""fullscreenenter"",""5"",""15506""
","
","848","","49","","","3000","1","","","images/earth.jpg","images/tutrocket2","images/tutrocket1","null","images/tutrocket1","","1","practice","null","1","","",""
"d3-animate-choice","65","306860","0.0-61.0-1.1","132","693","14","Female","true","false","false","false","""event"",""trial"",""time""
""fullscreenenter"",""5"",""15506""
","
","
","""event"",""trial"",""time""
""fullscreenenter"",""5"",""15506""
","
","434.90000009536743","","49","","","3000","1","","","images/tutgreenplanet.jpg","images/tutalien2","images/tutalien1","images/tutrocket1","images/tutalien1","images/t.png","2","practice","false","1","rare","1","2022-02-13 03:12:25.878"
"two-step-fixation","66","307868","0.0-61.0-2.1","132","693","14","Female","true","false","false","false","""event"",""trial"",""time""
""fullscreenenter"",""5"",""15506""
","
","
","""event"",""trial"",""time""
""fullscreenenter"",""5"",""15506""
","
","","images/earth.jpg","","","","","","","","","","","","","","fixation","","","","","",""
"d3-animate-choice","67","310167","0.0-61.0-0.2","132","693","14","Female","true","false","false","false","""event"",""trial"",""time""
""fullscreenenter"",""5"",""15506""
","
","
","""event"",""trial"",""time""
""fullscreenenter"",""5"",""15506""
","
","294","","49","","","3000","1","","","images/earth.jpg","images/tutrocket2","images/tutrocket1","null","images/tutrocket1","","1","practice","null","1","","",""
"d3-animate-choice","68","312611","0.0-61.0-1.2","132","693","14","Female","true","false","false","false","""event"",""trial"",""time""
""fullscreenenter"",""5"",""15506""
","
","
","""event"",""trial"",""time""
""fullscreenenter"",""5"",""15506""
","
","435.7999999523163","","49","","","3000","1","","","images/tutgreenplanet.jpg","images/tutalien2","images/tutalien1","images/tutrocket1","images/tutalien1","images/nothing.png","2","practice","false","1","rare","0","2022-02-13 03:12:31.628"
"two-step-fixation","69","313619","0.0-61.0-2.2","132","693","14","Female","true","false","false","false","""event"",""trial"",""time""
""fullscreenenter"",""5"",""15506""
","
","
","""event"",""trial"",""time""
""fullscreenenter"",""5"",""15506""
","
","","images/earth.jpg","","","","","","","","","","","","","","fixation","","","","","",""
"d3-animate-choice","70","316036","0.0-61.0-0.3","132","693","14","Female","true","false","false","false","""event"",""trial"",""time""
""fullscreenenter"",""5"",""15506""
","
","
","""event"",""trial"",""time""
""fullscreenenter"",""5"",""15506""
","
","406.7000000476837","","48","","","3000","1","","","images/earth.jpg","images/tutrocket2","images/tutrocket1","null","images/tutrocket2","","1","practice","null","2","","",""
"d3-animate-choice","71","318427","0.0-61.0-1.3","132","693","14","Female","true","false","false","false","""event"",""trial"",""time""
""fullscreenenter"",""5"",""15506""
","
","
","""event"",""trial"",""time""
""fullscreenenter"",""5"",""15506""
","
","385.5","","48","","","3000","1","","","images/tutgreenplanet.jpg","images/tutalien2","images/tutalien1","images/tutrocket2","images/tutalien2","images/nothing.png","2","practice","true","2","common","0","2022-02-13 03:12:37.444"
"two-step-fixation","72","319432","0.0-61.0-2.3","132","693","14","Female","true","false","false","false","""event"",""trial"",""time""
""fullscreenenter"",""5"",""15506""
","
","
","""event"",""trial"",""time""
""fullscreenenter"",""5"",""15506""
","
","","images/earth.jpg","","","","","","","","","","","","","","fixation","","","","","",""
"d3-animate-choice","73","321512","0.0-61.0-0.4","132","693","14","Female","true","false","false","false","""event"",""trial"",""time""
""fullscreenenter"",""5"",""15506""
","
","
","""event"",""trial"",""time""
""fullscreenenter"",""5"",""15506""
","
","74.5","","48","","","3000","1","","","images/earth.jpg","images/tutrocket2","images/tutrocket1","null","images/tutrocket2","","1","practice","null","2","","",""
"d3-animate-choice","74","324320","0.0-61.0-1.4","132","693","14","Female","true","false","false","false","""event"",""trial"",""time""
""fullscreenenter"",""5"",""15506""
","
","
","""event"",""trial"",""time""
""fullscreenenter"",""5"",""15506""
","
","800.4000000953674","","49","","","3000","1","","","images/tutyellowplanet.jpg","images/tutalien4","images/tutalien3","images/tutrocket2","images/tutalien3","images/nothing.png","2","practice","false","1","rare","0","2022-02-13 03:12:43.337"
"two-step-fixation","75","325325","0.0-61.0-2.4","132","693","14","Female","true","false","false","false","""event"",""trial"",""time""
""fullscreenenter"",""5"",""15506""
","
","
","""event"",""trial"",""time""
""fullscreenenter"",""5"",""15506""
","
","","images/earth.jpg","","","","","","","","","","","","","","fixation","","","","","",""
"d3-animate-choice","76","327473","0.0-61.0-0.5","132","693","14","Female","true","false","false","false","""event"",""trial"",""time""
""fullscreenenter"",""5"",""15506""
","
","
","""event"",""trial"",""time""
""fullscreenenter"",""5"",""15506""
","
","142.60000002384186","","48","","","3000","1","","","images/earth.jpg","images/tutrocket2","images/tutrocket1","null","images/tutrocket2","","1","practice","null","2","","",""
"d3-animate-choice","77","329964","0.0-61.0-1.5","132","693","14","Female","true","false","false","false","""event"",""trial"",""time""
""fullscreenenter"",""5"",""15506""
","
","
","""event"",""trial"",""time""
""fullscreenenter"",""5"",""15506""
","
","481.59999990463257","","48","","","3000","1","","","images/tutgreenplanet.jpg","images/tutalien2","images/tutalien1","images/tutrocket2","images/tutalien2","images/nothing.png","2","practice","true","2","common","0","2022-02-13 03:12:48.981"
"two-step-fixation","78","330972","0.0-61.0-2.5","132","693","14","Female","true","false","false","false","""event"",""trial"",""time""
""fullscreenenter"",""5"",""15506""
","
","
","""event"",""trial"",""time""
""fullscreenenter"",""5"",""15506""
","
","","images/earth.jpg","","","","","","","","","","","","","","fixation","","","","","",""
"d3-animate-choice","79","333650","0.0-61.0-0.6","132","693","14","Female","true","false","false","false","""event"",""trial"",""time""
""fullscreenenter"",""5"",""15506""
","
","
","""event"",""trial"",""time""
""fullscreenenter"",""5"",""15506""
","
","672.7000000476837","","49","","","3000","1","","","images/earth.jpg","images/tutrocket2","images/tutrocket1","null","images/tutrocket1","","1","practice","null","1","","",""
"d3-animate-choice","80","336181","0.0-61.0-1.6","132","693","14","Female","true","false","false","false","""event"",""trial"",""time""
""fullscreenenter"",""5"",""15506""
","
","
","""event"",""trial"",""time""
""fullscreenenter"",""5"",""15506""
","
","525.3999999761581","","49","","","3000","1","","","images/tutyellowplanet.jpg","images/tutalien4","images/tutalien3","images/tutrocket1","images/tutalien3","images/nothing.png","2","practice","true","1","common","0","2022-02-13 03:12:55.198"
"two-step-fixation","81","337189","0.0-61.0-2.6","132","693","14","Female","true","false","false","false","""event"",""trial"",""time""
""fullscreenenter"",""5"",""15506""
","
","
","""event"",""trial"",""time""
""fullscreenenter"",""5"",""15506""
","
","","images/earth.jpg","","","","","","","","","","","","","","fixation","","","","","",""
"d3-animate-choice","82","339298","0.0-61.0-0.7","132","693","14","Female","true","false","false","false","""event"",""trial"",""time""
""fullscreenenter"",""5"",""15506""
","
","
","""event"",""trial"",""time""
""fullscreenenter"",""5"",""15506""
","
","102.89999997615814","","48","","","3000","1","","","images/earth.jpg","images/tutrocket2","images/tutrocket1","null","images/tutrocket2","","1","practice","null","2","","",""
"d3-animate-choice","83","341709","0.0-61.0-1.7","132","693","14","Female","true","false","false","false","""event"",""trial"",""time""
""fullscreenenter"",""5"",""15506""
","
","
","""event"",""trial"",""time""
""fullscreenenter"",""5"",""15506""
","
","406.10000002384186","","48","","","3000","1","","","images/tutgreenplanet.jpg","images/tutalien2","images/tutalien1","images/tutrocket2","images/tutalien2","images/nothing.png","2","practice","true","2","common","0","2022-02-13 03:13:00.726"
"two-step-fixation","84","342713","0.0-61.0-2.7","132","693","14","Female","true","false","false","false","""event"",""trial"",""time""
""fullscreenenter"",""5"",""15506""
","
","
","""event"",""trial"",""time""
""fullscreenenter"",""5"",""15506""
","
","","images/earth.jpg","","","","","","","","","","","","","","fixation","","","","","",""
"d3-animate-choice","85","345059","0.0-61.0-0.8","132","693","14","Female","true","false","false","false","""event"",""trial"",""time""
""fullscreenenter"",""5"",""15506""
","
","
","""event"",""trial"",""time""
""fullscreenenter"",""5"",""15506""
","
","342","","49","","","3000","1","","","images/earth.jpg","images/tutrocket2","images/tutrocket1","null","images/tutrocket1","","1","practice","null","1","","",""
"d3-animate-choice","86","348447","0.0-61.0-1.8","132","693","14","Female","true","false","false","false","""event"",""trial"",""time""
""fullscreenenter"",""5"",""15506""
","
","
","""event"",""trial"",""time""
""fullscreenenter"",""5"",""15506""
","
","1380","","48","","","3000","1","","","images/tutyellowplanet.jpg","images/tutalien4","images/tutalien3","images/tutrocket1","images/tutalien4","images/nothing.png","2","practice","true","2","common","0","2022-02-13 03:13:07.464"
"two-step-fixation","87","349451","0.0-61.0-2.8","132","693","14","Female","true","false","false","false","""event"",""trial"",""time""
""fullscreenenter"",""5"",""15506""
","
","
","""event"",""trial"",""time""
""fullscreenenter"",""5"",""15506""
","
","","images/earth.jpg","","","","","","","","","","","","","","fixation","","","","","",""
"d3-animate-choice","88","351819","0.0-61.0-0.9","132","693","14","Female","true","false","false","false","""event"",""trial"",""time""
""fullscreenenter"",""5"",""15506""
","
","
","""event"",""trial"",""time""
""fullscreenenter"",""5"",""15506""
","
","362.90000009536743","","48","","","3000","1","","","images/earth.jpg","images/tutrocket2","images/tutrocket1","null","images/tutrocket2","","1","practice","null","2","","",""
"d3-animate-choice","89","354267","0.0-61.0-1.9","132","693","14","Female","true","false","false","false","""event"",""trial"",""time""
""fullscreenenter"",""5"",""15506""
","
","
","""event"",""trial"",""time""
""fullscreenenter"",""5"",""15506""
","
","441.89999997615814","","49","","","3000","1","","","images/tutgreenplanet.jpg","images/tutalien2","images/tutalien1","images/tutrocket2","images/tutalien1","images/nothing.png","2","practice","true","1","common","0","2022-02-13 03:13:13.285"
"two-step-fixation","90","355273","0.0-61.0-2.9","132","693","14","Female","true","false","false","false","""event"",""trial"",""time""
""fullscreenenter"",""5"",""15506""
","
","
","""event"",""trial"",""time""
""fullscreenenter"",""5"",""15506""
","
","","images/earth.jpg","","","","","","","","","","","","","","fixation","","","","","",""
"d3-animate-choice","91","357596","0.0-61.0-0.10","132","693","14","Female","true","false","false","false","""event"",""trial"",""time""
""fullscreenenter"",""5"",""15506""
","
","
","""event"",""trial"",""time""
""fullscreenenter"",""5"",""15506""
","
","314.2000000476837","","48","","","3000","1","","","images/earth.jpg","images/tutrocket2","images/tutrocket1","null","images/tutrocket2","","1","practice","null","2","","",""
"d3-animate-choice","92","360136","0.0-61.0-1.10","132","693","14","Female","true","false","false","false","""event"",""trial"",""time""
""fullscreenenter"",""5"",""15506""
","
","
","""event"",""trial"",""time""
""fullscreenenter"",""5"",""15506""
","
","533.1000000238419","","49","","","3000","1","","","images/tutgreenplanet.jpg","images/tutalien2","images/tutalien1","images/tutrocket2","images/tutalien1","images/t.png","2","practice","true","1","common","1","2022-02-13 03:13:19.153"
"two-step-fixation","93","361143","0.0-61.0-2.10","132","693","14","Female","true","false","false","false","""event"",""trial"",""time""
""fullscreenenter"",""5"",""15506""
","
","
","""event"",""trial"",""time""
""fullscreenenter"",""5"",""15506""
","
","","images/earth.jpg","","","","","","","","","","","","","","fixation","","","","","",""
"d3-animate-choice","94","363599","0.0-61.0-0.11","132","693","14","Female","true","false","false","false","""event"",""trial"",""time""
""fullscreenenter"",""5"",""15506""
","
","
","""event"",""trial"",""time""
""fullscreenenter"",""5"",""15506""
","
","448.10000002384186","","49","","","3000","1","","","images/earth.jpg","images/tutrocket2","images/tutrocket1","null","images/tutrocket1","","1","practice","null","1","","",""
"d3-animate-choice","95","365959","0.0-61.0-1.11","132","693","14","Female","true","false","false","false","""event"",""trial"",""time""
""fullscreenenter"",""5"",""15506""
","
","
","""event"",""trial"",""time""
""fullscreenenter"",""5"",""15506""
","
","351.6999999284744","","49","","","3000","1","","","images/tutyellowplanet.jpg","images/tutalien4","images/tutalien3","images/tutrocket1","images/tutalien3","images/t.png","2","practice","true","1","common","1","2022-02-13 03:13:24.976"
"two-step-fixation","96","366966","0.0-61.0-2.11","132","693","14","Female","true","false","false","false","""event"",""trial"",""time""
""fullscreenenter"",""5"",""15506""
","
","
","""event"",""trial"",""time""
""fullscreenenter"",""5"",""15506""
","
","","images/earth.jpg","","","","","","","","","","","","","","fixation","","","","","",""
"d3-animate-choice","97","369090","0.0-61.0-0.12","132","693","14","Female","true","false","false","false","""event"",""trial"",""time""
""fullscreenenter"",""5"",""15506""
","
","
","""event"",""trial"",""time""
""fullscreenenter"",""5"",""15506""
","
","119.20000004768372","","49","","","3000","1","","","images/earth.jpg","images/tutrocket2","images/tutrocket1","null","images/tutrocket1","","1","practice","null","1","","",""
"d3-animate-choice","98","371650","0.0-61.0-1.12","132","693","14","Female","true","false","false","false","""event"",""trial"",""time""
""fullscreenenter"",""5"",""15506""
","
","
","""event"",""trial"",""time""
""fullscreenenter"",""5"",""15506""
","
","553.5","","49","","","3000","1","","","images/tutyellowplanet.jpg","images/tutalien4","images/tutalien3","images/tutrocket1","images/tutalien3","images/nothing.png","2","practice","true","1","common","0","2022-02-13 03:13:30.668"
"two-step-fixation","99","372658","0.0-61.0-2.12","132","693","14","Female","true","false","false","false","""event"",""trial"",""time""
""fullscreenenter"",""5"",""15506""
","
","
","""event"",""trial"",""time""
""fullscreenenter"",""5"",""15506""
","
","","images/earth.jpg","","","","","","","","","","","","","","fixation","","","","","",""
"d3-animate-choice","100","375149","0.0-61.0-0.13","132","693","14","Female","true","false","false","false","""event"",""trial"",""time""
""fullscreenenter"",""5"",""15506""
","
","
","""event"",""trial"",""time""
""fullscreenenter"",""5"",""15506""
","
","483.89999997615814","","48","","","3000","1","","","images/earth.jpg","images/tutrocket2","images/tutrocket1","null","images/tutrocket2","","1","practice","null","2","","",""
"d3-animate-choice","101","377660","0.0-61.0-1.13","132","693","14","Female","true","false","false","false","""event"",""trial"",""time""
""fullscreenenter"",""5"",""15506""
","
","
","""event"",""trial"",""time""
""fullscreenenter"",""5"",""15506""
","
","506.8000000715256","","48","","","3000","1","","","images/tutgreenplanet.jpg","images/tutalien2","images/tutalien1","images/tutrocket2","images/tutalien2","images/t.png","2","practice","true","2","common","1","2022-02-13 03:13:36.678"
"two-step-fixation","102","378664","0.0-61.0-2.13","132","693","14","Female","true","false","false","false","""event"",""trial"",""time""
""fullscreenenter"",""5"",""15506""
","
","
","""event"",""trial"",""time""
""fullscreenenter"",""5"",""15506""
","
","","images/earth.jpg","","","","","","","","","","","","","","fixation","","","","","",""
"d3-animate-choice","103","381003","0.0-61.0-0.14","132","693","14","Female","true","false","false","false","""event"",""trial"",""time""
""fullscreenenter"",""5"",""15506""
","
","
","""event"",""trial"",""time""
""fullscreenenter"",""5"",""15506""
","
","331.39999997615814","","48","","","3000","1","","","images/earth.jpg","images/tutrocket2","images/tutrocket1","null","images/tutrocket2","","1","practice","null","2","","",""
"d3-animate-choice","104","383922","0.0-61.0-1.14","132","693","14","Female","true","false","false","false","""event"",""trial"",""time""
""fullscreenenter"",""5"",""15506""
","
","
","""event"",""trial"",""time""
""fullscreenenter"",""5"",""15506""
","
","911.8000000715256","","49","","","3000","1","","","images/tutyellowplanet.jpg","images/tutalien4","images/tutalien3","images/tutrocket2","images/tutalien3","images/nothing.png","2","practice","false","1","rare","0","2022-02-13 03:13:42.940"
"two-step-fixation","105","384927","0.0-61.0-2.14","132","693","14","Female","true","false","false","false","""event"",""trial"",""time""
""fullscreenenter"",""5"",""15506""
","
","
","""event"",""trial"",""time""
""fullscreenenter"",""5"",""15506""
","
","","images/earth.jpg","","","","","","","","","","","","","","fixation","","","","","",""
"d3-animate-choice","106","387440","0.0-61.0-0.15","132","693","14","Female","true","false","false","false","""event"",""trial"",""time""
""fullscreenenter"",""5"",""15506""
","
","
","""event"",""trial"",""time""
""fullscreenenter"",""5"",""15506""
","
","508.60000002384186","","49","","","3000","1","","","images/earth.jpg","images/tutrocket2","images/tutrocket1","null","images/tutrocket1","","1","practice","null","1","","",""
"d3-animate-choice","107","389844","0.0-61.0-1.15","132","693","14","Female","true","false","false","false","""event"",""trial"",""time""
""fullscreenenter"",""5"",""15506""
","
","
","""event"",""trial"",""time""
""fullscreenenter"",""5"",""15506""
","
","398.60000002384186","","48","","","3000","1","","","images/tutgreenplanet.jpg","images/tutalien2","images/tutalien1","images/tutrocket1","images/tutalien2","images/nothing.png","2","practice","false","2","rare","0","2022-02-13 03:13:48.861"
"two-step-fixation","108","390848","0.0-61.0-2.15","132","693","14","Female","true","false","false","false","""event"",""trial"",""time""
""fullscreenenter"",""5"",""15506""
","
","
","""event"",""trial"",""time""
""fullscreenenter"",""5"",""15506""
","
","","images/earth.jpg","","","","","","","","","","","","","","fixation","","","","","",""
"d3-animate-choice","109","393240","0.0-61.0-0.16","132","693","14","Female","true","false","false","false","""event"",""trial"",""time""
""fullscreenenter"",""5"",""15506""
","
","
","""event"",""trial"",""time""
""fullscreenenter"",""5"",""15506""
","
","387.2999999523163","","48","","","3000","1","","","images/earth.jpg","images/tutrocket2","images/tutrocket1","null","images/tutrocket2","","1","practice","null","2","","",""
"d3-animate-choice","110","395701","0.0-61.0-1.16","132","693","14","Female","true","false","false","false","""event"",""trial"",""time""
""fullscreenenter"",""5"",""15506""
","
","
","""event"",""trial"",""time""
""fullscreenenter"",""5"",""15506""
","
","454.60000002384186","","49","","","3000","1","","","images/tutgreenplanet.jpg","images/tutalien2","images/tutalien1","images/tutrocket2","images/tutalien1","images/t.png","2","practice","true","1","common","1","2022-02-13 03:13:54.718"
"two-step-fixation","111","396704","0.0-61.0-2.16","132","693","14","Female","true","false","false","false","""event"",""trial"",""time""
""fullscreenenter"",""5"",""15506""
","
","
","""event"",""trial"",""time""
""fullscreenenter"",""5"",""15506""
","
","","images/earth.jpg","","","","","","","","","","","","","","fixation","","","","","",""
"d3-animate-choice","112","398754","0.0-61.0-0.17","132","693","14","Female","true","false","false","false","""event"",""trial"",""time""
""fullscreenenter"",""5"",""15506""
","
","
","""event"",""trial"",""time""
""fullscreenenter"",""5"",""15506""
","
","44.09999990463257","","48","","","3000","1","","","images/earth.jpg","images/tutrocket2","images/tutrocket1","null","images/tutrocket2","","1","practice","null","2","","",""
"d3-animate-choice","113","401384","0.0-61.0-1.17","132","693","14","Female","true","false","false","false","""event"",""trial"",""time""
""fullscreenenter"",""5"",""15506""
","
","
","""event"",""trial"",""time""
""fullscreenenter"",""5"",""15506""
","
","624.5999999046326","","49","","","3000","1","","","images/tutgreenplanet.jpg","images/tutalien2","images/tutalien1","images/tutrocket2","images/tutalien1","images/t.png","2","practice","true","1","common","1","2022-02-13 03:14:00.402"
"two-step-fixation","114","402389","0.0-61.0-2.17","132","693","14","Female","true","false","false","false","""event"",""trial"",""time""
""fullscreenenter"",""5"",""15506""
","
","
","""event"",""trial"",""time""
""fullscreenenter"",""5"",""15506""
","
","","images/earth.jpg","","","","","","","","","","","","","","fixation","","","","","",""
"d3-animate-choice","115","404743","0.0-61.0-0.18","132","693","14","Female","true","false","false","false","""event"",""trial"",""time""
""fullscreenenter"",""5"",""15506""
","
","
","""event"",""trial"",""time""
""fullscreenenter"",""5"",""15506""
","
","349.89999997615814","","48","","","3000","1","","","images/earth.jpg","images/tutrocket2","images/tutrocket1","null","images/tutrocket2","","1","practice","null","2","","",""
"d3-animate-choice","116","407196","0.0-61.0-1.18","132","693","14","Female","true","false","false","false","""event"",""trial"",""time""
""fullscreenenter"",""5"",""15506""
","
","
","""event"",""trial"",""time""
""fullscreenenter"",""5"",""15506""
","
","444.5","","49","","","3000","1","","","images/tutgreenplanet.jpg","images/tutalien2","images/tutalien1","images/tutrocket2","images/tutalien1","images/nothing.png","2","practice","true","1","common","0","2022-02-13 03:14:06.213"
"two-step-fixation","117","408203","0.0-61.0-2.18","132","693","14","Female","true","false","false","false","""event"",""trial"",""time""
""fullscreenenter"",""5"",""15506""
","
","
","""event"",""trial"",""time""
""fullscreenenter"",""5"",""15506""
","
","","images/earth.jpg","","","","","","","","","","","","","","fixation","","","","","",""
"d3-animate-choice","118","410980","0.0-61.0-0.19","132","693","14","Female","true","false","false","false","""event"",""trial"",""time""
""fullscreenenter"",""5"",""15506""
","
","
","""event"",""trial"",""time""
""fullscreenenter"",""5"",""15506""
","
","768.1000000238419","","48","","","3000","1","","","images/earth.jpg","images/tutrocket2","images/tutrocket1","null","images/tutrocket2","","1","practice","null","2","","",""
"d3-animate-choice","119","413811","0.0-61.0-1.19","132","693","14","Female","true","false","false","false","""event"",""trial"",""time""
""fullscreenenter"",""5"",""15506""
","
","
","""event"",""trial"",""time""
""fullscreenenter"",""5"",""15506""
","
","824","","48","","","3000","1","","","images/tutgreenplanet.jpg","images/tutalien2","images/tutalien1","images/tutrocket2","images/tutalien2","images/t.png","2","practice","true","2","common","1","2022-02-13 03:14:12.828"
"two-step-fixation","120","414817","0.0-61.0-2.19","132","693","14","Female","true","false","false","false","""event"",""trial"",""time""
""fullscreenenter"",""5"",""15506""
","
","
","""event"",""trial"",""time""
""fullscreenenter"",""5"",""15506""
","
","","images/earth.jpg","","","","","","","","","","","","","","fixation","","","","","",""
"d3-instructions","121","417426","0.0-62.0","132","693","14","Female","true","false","false","false","""event"",""trial"",""time""
""fullscreenenter"",""5"",""15506""
","
","
","""event"",""trial"",""time""
""fullscreenenter"",""5"",""15506""
","
","","","","","","","","","","","","","","","","","","","","","",""
"audio-keyboard-response","122","421361","0.0-63.0","132","693","14","Female","true","false","false","false","""event"",""trial"",""time""
""fullscreenenter"",""5"",""15506""
","
","
","""event"",""trial"",""time""
""fullscreenenter"",""5"",""15506""
","
","3930","audio/instructions/treasure_feedback.wav","32","","","","","","","","","","","","","","","","","","",""
"d3-instructions","123","429406","0.0-64.0","132","693","14","Female","true","false","false","false","""event"",""trial"",""time""
""fullscreenenter"",""5"",""15506""
","
","
","""event"",""trial"",""time""
""fullscreenenter"",""5"",""15506""
","
","","","","","","","","","","","","","","","","","","","","","",""
"d3-instructions","124","439309","0.0-65.0","132","693","14","Female","true","false","false","false","""event"",""trial"",""time""
""fullscreenenter"",""5"",""15506""
","
","
","""event"",""trial"",""time""
""fullscreenenter"",""5"",""15506""
","
","","","","","","","","","","","","","","","","","","","","","",""
"d3-instructions","125","460525","0.0-66.0","132","693","14","Female","true","false","false","false","""event"",""trial"",""time""
""fullscreenenter"",""5"",""15506""
","
","
","""event"",""trial"",""time""
""fullscreenenter"",""5"",""15506""
","
","","","","","","","","","","","","","","","","","","","","","",""
"d3-instructions","126","468485","0.0-67.0","132","693","14","Female","true","false","false","false","""event"",""trial"",""time""
""fullscreenenter"",""5"",""15506""
","
","
","""event"",""trial"",""time""
""fullscreenenter"",""5"",""15506""
","
","","","","","","","","","","","","","","","","","","","","","",""
"d3-instructions","127","471518","0.0-68.0","132","693","14","Female","true","false","false","false","""event"",""trial"",""time""
""fullscreenenter"",""5"",""15506""
","
","
","""event"",""trial"",""time""
""fullscreenenter"",""5"",""15506""
","
","","","","","","","","","","","","","","","","","","","","","",""
"instructions-quiz","128","474391","0.0-69.0","132","693","14","Female","true","false","false","false","""event"",""trial"",""time""
""fullscreenenter"",""5"",""15506""
","
","
","""event"",""trial"",""time""
""fullscreenenter"",""5"",""15506""
","
","2869.100000023842","audio/quiz/Q1_Prompt.wav","","1","","","","","","","","","","","","","","","","","",""
"audio-keyboard-response","129","475154","0.0-70.0","132","693","14","Female","true","false","false","false","""event"",""trial"",""time""
""fullscreenenter"",""5"",""15506""
","
","
","""event"",""trial"",""time""
""fullscreenenter"",""5"",""15506""
","
","760","audio/quiz/Q1_Correct.wav","32","","","","","","","","","","","","","","","","","","",""
"instructions-quiz","130","478485","0.0-71.0","132","693","14","Female","true","false","false","false","""event"",""trial"",""time""
""fullscreenenter"",""5"",""15506""
","
","
","""event"",""trial"",""time""
""fullscreenenter"",""5"",""15506""
","
","3327.100000023842","audio/quiz/Q2_Prompt.wav","","0","","","","","","","","","","","","","","","","","",""
"audio-keyboard-response","131","479202","0.0-72.0","132","693","14","Female","true","false","false","false","""event"",""trial"",""time""
""fullscreenenter"",""5"",""15506""
","
","
","""event"",""trial"",""time""
""fullscreenenter"",""5"",""15506""
","
","714","audio/quiz/Q2_Correct.wav","32","","","","","","","","","","","","","","","","","","",""
"instructions-quiz","132","481721","0.0-73.0","132","693","14","Female","true","false","false","false","""event"",""trial"",""time""
""fullscreenenter"",""5"",""15506""
","
","
","""event"",""trial"",""time""
""fullscreenenter"",""5"",""15506""
","
","2515.8000000715256","audio/quiz/Q3_Prompt.wav","","1","","","","","","","","","","","","","","","","","",""
"audio-keyboard-response","133","482431","0.0-74.0","132","693","14","Female","true","false","false","false","""event"",""trial"",""time""
""fullscreenenter"",""5"",""15506""
","
","
","""event"",""trial"",""time""
""fullscreenenter"",""5"",""15506""
","
","702","audio/quiz/Q3_Correct.wav","32","","","","","","","","","","","","","","","","","","",""
"d3-instructions","134","487652","0.0-75.0","132","693","14","Female","true","false","false","false","""event"",""trial"",""time""
""fullscreenenter"",""5"",""15506""
","
","
","""event"",""trial"",""time""
""fullscreenenter"",""5"",""15506""
","
","","","","","","","","","","","","","","","","","","","","","",""
"d3-animate-choice","135","490469","0.0-76.0-0.0","132","693","14","Female","true","false","false","false","""event"",""trial"",""time""
""fullscreenenter"",""5"",""15506""
","
","
","""event"",""trial"",""time""
""fullscreenenter"",""5"",""15506""
","
","812.5999999046326","","49","","","3000","1","","","images/earth.jpg","images/rocket2","images/rocket1","null","images/rocket1","","1","real","null","1","","",""
"d3-animate-choice","136","493346","0.0-76.0-1.0","132","693","14","Female","true","false","false","false","""event"",""trial"",""time""
""fullscreenenter"",""5"",""15506""
","
","
","""event"",""trial"",""time""
""fullscreenenter"",""5"",""15506""
","
","871.1000000238419","","48","","","3000","1","","","images/redplanet1.jpg","images/alien2","images/alien1","images/rocket1","images/alien2","images/t.png","2","real","false","2","rare","1","2022-02-13 03:15:32.363"
"two-step-fixation","137","494350","0.0-76.0-2.0","132","693","14","Female","true","false","false","false","""event"",""trial"",""time""
""fullscreenenter"",""5"",""15506""
","
","
","""event"",""trial"",""time""
""fullscreenenter"",""5"",""15506""
","
","","images/earth.jpg","","","","","","","","","","","","","","fixation","","","","","",""
"d3-animate-choice","138","496620","0.0-76.0-0.1","132","693","14","Female","true","false","false","false","""event"",""trial"",""time""
""fullscreenenter"",""5"",""15506""
","
","
","""event"",""trial"",""time""
""fullscreenenter"",""5"",""15506""
","
","261.5","","49","","","3000","1","","","images/earth.jpg","images/rocket2","images/rocket1","null","images/rocket1","","1","real","null","1","","",""
"d3-animate-choice","139","499126","0.0-76.0-1.1","132","693","14","Female","true","false","false","false","""event"",""trial"",""time""
""fullscreenenter"",""5"",""15506""
","
","
","""event"",""trial"",""time""
""fullscreenenter"",""5"",""15506""
","
","498.3000000715256","","48","","","3000","1","","","images/purpleplanet.jpg","images/alien4","images/alien3","images/rocket1","images/alien4","images/t.png","2","real","true","2","common","1","2022-02-13 03:15:38.143"
"two-step-fixation","140","500132","0.0-76.0-2.1","132","693","14","Female","true","false","false","false","""event"",""trial"",""time""
""fullscreenenter"",""5"",""15506""
","
","
","""event"",""trial"",""time""
""fullscreenenter"",""5"",""15506""
","
","","images/earth.jpg","","","","","","","","","","","","","","fixation","","","","","",""
"d3-animate-choice","141","502333","0.0-76.0-0.2","132","693","14","Female","true","false","false","false","""event"",""trial"",""time""
""fullscreenenter"",""5"",""15506""
","
","
","""event"",""trial"",""time""
""fullscreenenter"",""5"",""15506""
","
","195.10000002384186","","49","","","3000","1","","","images/earth.jpg","images/rocket2","images/rocket1","null","images/rocket1","","1","real","null","1","","",""
"d3-animate-choice","142","504724","0.0-76.0-1.2","132","693","14","Female","true","false","false","false","""event"",""trial"",""time""
""fullscreenenter"",""5"",""15506""
","
","
","""event"",""trial"",""time""
""fullscreenenter"",""5"",""15506""
","
","384.1999999284744","","48","","","3000","1","","","images/redplanet1.jpg","images/alien2","images/alien1","images/rocket1","images/alien2","images/t.png","2","real","false","2","rare","1","2022-02-13 03:15:43.741"
"two-step-fixation","143","505729","0.0-76.0-2.2","132","693","14","Female","true","false","false","false","""event"",""trial"",""time""
""fullscreenenter"",""5"",""15506""
","
","
","""event"",""trial"",""time""
""fullscreenenter"",""5"",""15506""
","
","","images/earth.jpg","","","","","","","","","","","","","","fixation","","","","","",""
"d3-animate-choice","144","508007","0.0-76.0-0.3","132","693","14","Female","true","false","false","false","""event"",""trial"",""time""
""fullscreenenter"",""5"",""15506""
","
","
","""event"",""trial"",""time""
""fullscreenenter"",""5"",""15506""
","
","267.8000000715256","","49","","","3000","1","","","images/earth.jpg","images/rocket2","images/rocket1","null","images/rocket1","","1","real","null","1","","",""
"d3-animate-choice","145","510450","0.0-76.0-1.3","132","693","14","Female","true","false","false","false","""event"",""trial"",""time""
""fullscreenenter"",""5"",""15506""
","
","
","""event"",""trial"",""time""
""fullscreenenter"",""5"",""15506""
","
","434.5","","48","","","3000","1","","","images/purpleplanet.jpg","images/alien4","images/alien3","images/rocket1","images/alien4","images/nothing.png","2","real","true","2","common","0","2022-02-13 03:15:49.467"
"two-step-fixation","146","511458","0.0-76.0-2.3","132","693","14","Female","true","false","false","false","""event"",""trial"",""time""
""fullscreenenter"",""5"",""15506""
","
","
","""event"",""trial"",""time""
""fullscreenenter"",""5"",""15506""
","
","","images/earth.jpg","","","","","","","","","","","","","","fixation","","","","","",""
"d3-animate-choice","147","513467","0.0-76.0-0.4","132","693","14","Female","true","false","false","false","""event"",""trial"",""time""
""fullscreenenter"",""5"",""15506""
","
","
","""event"",""trial"",""time""
""fullscreenenter"",""5"",""15506""
","
","0.19999992847442627","","49","","","3000","1","","","images/earth.jpg","images/rocket2","images/rocket1","null","images/rocket1","","1","real","null","1","","",""
"d3-animate-choice","148","515839","0.0-76.0-1.4","132","693","14","Female","true","false","false","false","""event"",""trial"",""time""
""fullscreenenter"",""5"",""15506""
","
","
","""event"",""trial"",""time""
""fullscreenenter"",""5"",""15506""
","
","364.8000000715256","","48","","","3000","1","","","images/purpleplanet.jpg","images/alien4","images/alien3","images/rocket1","images/alien4","images/t.png","2","real","true","2","common","1","2022-02-13 03:15:54.856"
"two-step-fixation","149","516846","0.0-76.0-2.4","132","693","14","Female","true","false","false","false","""event"",""trial"",""time""
""fullscreenenter"",""5"",""15506""
","
","
","""event"",""trial"",""time""
""fullscreenenter"",""5"",""15506""
","
","","images/earth.jpg","","","","","","","","","","","","","","fixation","","","","","",""
"d3-animate-choice","150","518937","0.0-76.0-0.5","132","693","14","Female","true","false","false","false","""event"",""trial"",""time""
""fullscreenenter"",""5"",""15506""
","
","
","""event"",""trial"",""time""
""fullscreenenter"",""5"",""15506""
","
","85.70000004768372","","49","","","3000","1","","","images/earth.jpg","images/rocket2","images/rocket1","null","images/rocket1","","1","real","null","1","","",""
"d3-animate-choice","151","521293","0.0-76.0-1.5","132","693","14","Female","true","false","false","false","""event"",""trial"",""time""
""fullscreenenter"",""5"",""15506""
","
","
","""event"",""trial"",""time""
""fullscreenenter"",""5"",""15506""
","
","351.60000002384186","","48","","","3000","1","","","images/purpleplanet.jpg","images/alien4","images/alien3","images/rocket1","images/alien4","images/nothing.png","2","real","true","2","common","0","2022-02-13 03:16:00.310"
"two-step-fixation","152","522298","0.0-76.0-2.5","132","693","14","Female","true","false","false","false","""event"",""trial"",""time""
""fullscreenenter"",""5"",""15506""
","
","
","""event"",""trial"",""time""
""fullscreenenter"",""5"",""15506""
","
","","images/earth.jpg","","","","","","","","","","","","","","fixation","","","","","",""
"d3-animate-choice","153","524424","0.0-76.0-0.6","132","693","14","Female","true","false","false","false","""event"",""trial"",""time""
""fullscreenenter"",""5"",""15506""
","
","
","""event"",""trial"",""time""
""fullscreenenter"",""5"",""15506""
","
","122.10000002384186","","49","","","3000","1","","","images/earth.jpg","images/rocket2","images/rocket1","null","images/rocket1","","1","real","null","1","","",""
"d3-animate-choice","154","526750","0.0-76.0-1.6","132","693","14","Female","true","false","false","false","""event"",""trial"",""time""
""fullscreenenter"",""5"",""15506""
","
","
","""event"",""trial"",""time""
""fullscreenenter"",""5"",""15506""
","
","321.10000002384186","","48","","","3000","1","","","images/purpleplanet.jpg","images/alien4","images/alien3","images/rocket1","images/alien4","images/nothing.png","2","real","true","2","common","0","2022-02-13 03:16:05.767"
"two-step-fixation","155","527757","0.0-76.0-2.6","132","693","14","Female","true","false","false","false","""event"",""trial"",""time""
""fullscreenenter"",""5"",""15506""
","
","
","""event"",""trial"",""time""
""fullscreenenter"",""5"",""15506""
","
","","images/earth.jpg","","","","","","","","","","","","","","fixation","","","","","",""
"d3-animate-choice","156","530100","0.0-76.0-0.7","132","693","14","Female","true","false","false","false","""event"",""trial"",""time""
""fullscreenenter"",""5"",""15506""
","
","
","""event"",""trial"",""time""
""fullscreenenter"",""5"",""15506""
","
","336.7999999523163","","49","","","3000","1","","","images/earth.jpg","images/rocket2","images/rocket1","null","images/rocket1","","1","real","null","1","","",""
"d3-animate-choice","157","532515","0.0-76.0-1.7","132","693","14","Female","true","false","false","false","""event"",""trial"",""time""
""fullscreenenter"",""5"",""15506""
","
","
","""event"",""trial"",""time""
""fullscreenenter"",""5"",""15506""
","
","408.39999997615814","","48","","","3000","1","","","images/purpleplanet.jpg","images/alien4","images/alien3","images/rocket1","images/alien4","images/nothing.png","2","real","true","2","common","0","2022-02-13 03:16:11.532"
"two-step-fixation","158","533519","0.0-76.0-2.7","132","693","14","Female","true","false","false","false","""event"",""trial"",""time""
""fullscreenenter"",""5"",""15506""
","
","
","""event"",""trial"",""time""
""fullscreenenter"",""5"",""15506""
","
","","images/earth.jpg","","","","","","","","","","","","","","fixation","","","","","",""
"d3-animate-choice","159","535835","0.0-76.0-0.8","132","693","14","Female","true","false","false","false","""event"",""trial"",""time""
""fullscreenenter"",""5"",""15506""
","
","
","""event"",""trial"",""time""
""fullscreenenter"",""5"",""15506""
","
","307.1999999284744","","49","","","3000","1","","","images/earth.jpg","images/rocket2","images/rocket1","null","images/rocket1","","1","real","null","1","","",""
"d3-animate-choice","160","538250","0.0-76.0-1.8","132","693","14","Female","true","false","false","false","""event"",""trial"",""time""
""fullscreenenter"",""5"",""15506""
","
","
","""event"",""trial"",""time""
""fullscreenenter"",""5"",""15506""
","
","407.6999999284744","","49","","","3000","1","","","images/purpleplanet.jpg","images/alien4","images/alien3","images/rocket1","images/alien3","images/nothing.png","2","real","true","1","common","0","2022-02-13 03:16:17.267"
"two-step-fixation","161","539255","0.0-76.0-2.8","132","693","14","Female","true","false","false","false","""event"",""trial"",""time""
""fullscreenenter"",""5"",""15506""
","
","
","""event"",""trial"",""time""
""fullscreenenter"",""5"",""15506""
","
","","images/earth.jpg","","","","","","","","","","","","","","fixation","","","","","",""
"d3-animate-choice","162","541562","0.0-76.0-0.9","132","693","14","Female","true","false","false","false","""event"",""trial"",""time""
""fullscreenenter"",""5"",""15506""
","
","
","""event"",""trial"",""time""
""fullscreenenter"",""5"",""15506""
","
","301","","49","","","3000","1","","","images/earth.jpg","images/rocket2","images/rocket1","null","images/rocket1","","1","real","null","1","","",""
"d3-animate-choice","163","543980","0.0-76.0-1.9","132","693","14","Female","true","false","false","false","""event"",""trial"",""time""
""fullscreenenter"",""5"",""15506""
","
","
","""event"",""trial"",""time""
""fullscreenenter"",""5"",""15506""
","
","409.90000009536743","","49","","","3000","1","","","images/purpleplanet.jpg","images/alien4","images/alien3","images/rocket1","images/alien3","images/nothing.png","2","real","true","1","common","0","2022-02-13 03:16:22.997"
"two-step-fixation","164","544984","0.0-76.0-2.9","132","693","14","Female","true","false","false","false","""event"",""trial"",""time""
""fullscreenenter"",""5"",""15506""
","
","
","""event"",""trial"",""time""
""fullscreenenter"",""5"",""15506""
","
","","images/earth.jpg","","","","","","","","","","","","","","fixation","","","","","",""
"d3-animate-choice","165","547428","0.0-76.0-0.10","132","693","14","Female","true","false","false","false","""event"",""trial"",""time""
""fullscreenenter"",""5"",""15506""
","
","
","""event"",""trial"",""time""
""fullscreenenter"",""5"",""15506""
","
","438.1999999284744","","48","","","3000","1","","","images/earth.jpg","images/rocket2","images/rocket1","null","images/rocket2","","1","real","null","2","","",""
"d3-animate-choice","166","550028","0.0-76.0-1.10","132","693","14","Female","true","false","false","false","""event"",""trial"",""time""
""fullscreenenter"",""5"",""15506""
","
","
","""event"",""trial"",""time""
""fullscreenenter"",""5"",""15506""
","
","595.4000000953674","","48","","","3000","1","","","images/redplanet1.jpg","images/alien2","images/alien1","images/rocket2","images/alien2","images/nothing.png","2","real","true","2","common","0","2022-02-13 03:16:29.045"
"two-step-fixation","167","551032","0.0-76.0-2.10","132","693","14","Female","true","false","false","false","""event"",""trial"",""time""
""fullscreenenter"",""5"",""15506""
","
","
","""event"",""trial"",""time""
""fullscreenenter"",""5"",""15506""
","
","","images/earth.jpg","","","","","","","","","","","","","","fixation","","","","","",""
"d3-animate-choice","168","553265","0.0-76.0-0.11","132","693","14","Female","true","false","false","false","""event"",""trial"",""time""
""fullscreenenter"",""5"",""15506""
","
","
","""event"",""trial"",""time""
""fullscreenenter"",""5"",""15506""
","
","227.10000002384186","","48","","","3000","1","","","images/earth.jpg","images/rocket2","images/rocket1","null","images/rocket2","","1","real","null","2","","",""
"d3-animate-choice","169","555584","0.0-76.0-1.11","132","693","14","Female","true","false","false","false","""event"",""trial"",""time""
""fullscreenenter"",""5"",""15506""
","
","
","""event"",""trial"",""time""
""fullscreenenter"",""5"",""15506""
","
","312.2999999523163","","49","","","3000","1","","","images/purpleplanet.jpg","images/alien4","images/alien3","images/rocket2","images/alien3","images/t.png","2","real","false","1","rare","1","2022-02-13 03:16:34.601"
"two-step-fixation","170","556592","0.0-76.0-2.11","132","693","14","Female","true","false","false","false","""event"",""trial"",""time""
""fullscreenenter"",""5"",""15506""
","
","
","""event"",""trial"",""time""
""fullscreenenter"",""5"",""15506""
","
","","images/earth.jpg","","","","","","","","","","","","","","fixation","","","","","",""
"d3-animate-choice","171","558916","0.0-76.0-0.12","132","693","14","Female","true","false","false","false","""event"",""trial"",""time""
""fullscreenenter"",""5"",""15506""
","
","
","""event"",""trial"",""time""
""fullscreenenter"",""5"",""15506""
","
","318.5","","48","","","3000","1","","","images/earth.jpg","images/rocket2","images/rocket1","null","images/rocket2","","1","real","null","2","","",""
"d3-animate-choice","172","561265","0.0-76.0-1.12","132","693","14","Female","true","false","false","false","""event"",""trial"",""time""
""fullscreenenter"",""5"",""15506""
","
","
","""event"",""trial"",""time""
""fullscreenenter"",""5"",""15506""
","
","344.89999997615814","","49","","","3000","1","","","images/redplanet1.jpg","images/alien2","images/alien1","images/rocket2","images/alien1","images/t.png","2","real","true","1","common","1","2022-02-13 03:16:40.282"
"two-step-fixation","173","562268","0.0-76.0-2.12","132","693","14","Female","true","false","false","false","""event"",""trial"",""time""
""fullscreenenter"",""5"",""15506""
","
","
","""event"",""trial"",""time""
""fullscreenenter"",""5"",""15506""
","
","","images/earth.jpg","","","","","","","","","","","","","","fixation","","","","","",""
"d3-animate-choice","174","564480","0.0-76.0-0.13","132","693","14","Female","true","false","false","false","""event"",""trial"",""time""
""fullscreenenter"",""5"",""15506""
","
","
","""event"",""trial"",""time""
""fullscreenenter"",""5"",""15506""
","
","207.29999995231628","","48","","","3000","1","","","images/earth.jpg","images/rocket2","images/rocket1","null","images/rocket2","","1","real","null","2","","",""
"d3-animate-choice","175","566933","0.0-76.0-1.13","132","693","14","Female","true","false","false","false","""event"",""trial"",""time""
""fullscreenenter"",""5"",""15506""
","
","
","""event"",""trial"",""time""
""fullscreenenter"",""5"",""15506""
","
","446.09999990463257","","49","","","3000","1","830.5999999046326","48","images/purpleplanet.jpg","images/alien4","images/alien3","images/rocket2","images/alien3","images/nothing.png","2","real","false","1","rare","0","2022-02-13 03:16:45.950"
"two-step-fixation","176","567938","0.0-76.0-2.13","132","693","14","Female","true","false","false","false","""event"",""trial"",""time""
""fullscreenenter"",""5"",""15506""
","
","
","""event"",""trial"",""time""
""fullscreenenter"",""5"",""15506""
","
","","images/earth.jpg","","","","","","","","","","","","","","fixation","","","","","",""
"d3-animate-choice","177","570201","0.0-76.0-0.14","132","693","14","Female","true","false","false","false","""event"",""trial"",""time""
""fullscreenenter"",""5"",""15506""
","
","
","""event"",""trial"",""time""
""fullscreenenter"",""5"",""15506""
","
","259.3000000715256","","48","","","3000","1","","","images/earth.jpg","images/rocket2","images/rocket1","null","images/rocket2","","1","real","null","2","","",""
"d3-animate-choice","178","572682","0.0-76.0-1.14","132","693","14","Female","true","false","false","false","""event"",""trial"",""time""
""fullscreenenter"",""5"",""15506""
","
","
","""event"",""trial"",""time""
""fullscreenenter"",""5"",""15506""
","
","476","","48","","","3000","1","","","images/purpleplanet.jpg","images/alien4","images/alien3","images/rocket2","images/alien4","images/t.png","2","real","false","2","rare","1","2022-02-13 03:16:51.699"
"two-step-fixation","179","573686","0.0-76.0-2.14","132","693","14","Female","true","false","false","false","""event"",""trial"",""time""
""fullscreenenter"",""5"",""15506""
","
","
","""event"",""trial"",""time""
""fullscreenenter"",""5"",""15506""
","
","","images/earth.jpg","","","","","","","","","","","","","","fixation","","","","","",""
"d3-animate-choice","180","576031","0.0-76.0-0.15","132","693","14","Female","true","false","false","false","""event"",""trial"",""time""
""fullscreenenter"",""5"",""15506""
","
","
","""event"",""trial"",""time""
""fullscreenenter"",""5"",""15506""
","
","339.90000009536743","","48","","","3000","1","","","images/earth.jpg","images/rocket2","images/rocket1","null","images/rocket2","","1","real","null","2","","",""
"d3-animate-choice","181","578433","0.0-76.0-1.15","132","693","14","Female","true","false","false","false","""event"",""trial"",""time""
""fullscreenenter"",""5"",""15506""
","
","
","""event"",""trial"",""time""
""fullscreenenter"",""5"",""15506""
","
","398.2000000476837","","49","","","3000","1","","","images/redplanet1.jpg","images/alien2","images/alien1","images/rocket2","images/alien1","images/nothing.png","2","real","true","1","common","0","2022-02-13 03:16:57.450"
"two-step-fixation","182","579438","0.0-76.0-2.15","132","693","14","Female","true","false","false","false","""event"",""trial"",""time""
""fullscreenenter"",""5"",""15506""
","
","
","""event"",""trial"",""time""
""fullscreenenter"",""5"",""15506""
","
","","images/earth.jpg","","","","","","","","","","","","","","fixation","","","","","",""
"d3-animate-choice","183","581951","0.0-76.0-0.16","132","693","14","Female","true","false","false","false","""event"",""trial"",""time""
""fullscreenenter"",""5"",""15506""
","
","
","""event"",""trial"",""time""
""fullscreenenter"",""5"",""15506""
","
","508.7999999523163","","48","","","3000","1","","","images/earth.jpg","images/rocket2","images/rocket1","null","images/rocket2","","1","real","null","2","","",""
"d3-animate-choice","184","584445","0.0-76.0-1.16","132","693","14","Female","true","false","false","false","""event"",""trial"",""time""
""fullscreenenter"",""5"",""15506""
","
","
","""event"",""trial"",""time""
""fullscreenenter"",""5"",""15506""
","
","487","","48","","","3000","1","","","images/redplanet1.jpg","images/alien2","images/alien1","images/rocket2","images/alien2","images/nothing.png","2","real","true","2","common","0","2022-02-13 03:17:03.462"
"two-step-fixation","185","585452","0.0-76.0-2.16","132","693","14","Female","true","false","false","false","""event"",""trial"",""time""
""fullscreenenter"",""5"",""15506""
","
","
","""event"",""trial"",""time""
""fullscreenenter"",""5"",""15506""
","
","","images/earth.jpg","","","","","","","","","","","","","","fixation","","","","","",""
"d3-animate-choice","186","587478","0.0-76.0-0.17","132","693","14","Female","true","false","false","false","""event"",""trial"",""time""
""fullscreenenter"",""5"",""15506""
","
","
","""event"",""trial"",""time""
""fullscreenenter"",""5"",""15506""
","
","21.100000023841858","","48","","","3000","1","","","images/earth.jpg","images/rocket2","images/rocket1","null","images/rocket2","","1","real","null","2","","",""
"d3-animate-choice","187","589856","0.0-76.0-1.17","132","693","14","Female","true","false","false","false","""event"",""trial"",""time""
""fullscreenenter"",""5"",""15506""
","
","
","""event"",""trial"",""time""
""fullscreenenter"",""5"",""15506""
","
","373.39999997615814","","49","","","3000","1","","","images/purpleplanet.jpg","images/alien4","images/alien3","images/rocket2","images/alien3","images/t.png","2","real","false","1","rare","1","2022-02-13 03:17:08.873"
"two-step-fixation","188","590862","0.0-76.0-2.17","132","693","14","Female","true","false","false","false","""event"",""trial"",""time""
""fullscreenenter"",""5"",""15506""
","
","
","""event"",""trial"",""time""
""fullscreenenter"",""5"",""15506""
","
","","images/earth.jpg","","","","","","","","","","","","","","fixation","","","","","",""
"d3-animate-choice","189","592904","0.0-76.0-0.18","132","693","14","Female","true","false","false","false","""event"",""trial"",""time""
""fullscreenenter"",""5"",""15506""
","
","
","""event"",""trial"",""time""
""fullscreenenter"",""5"",""15506""
","
","34.60000002384186","","49","","","3000","1","","","images/earth.jpg","images/rocket2","images/rocket1","null","images/rocket1","","1","real","null","1","","",""
"d3-animate-choice","190","595367","0.0-76.0-1.18","132","693","14","Female","true","false","false","false","""event"",""trial"",""time""
""fullscreenenter"",""5"",""15506""
","
","
","""event"",""trial"",""time""
""fullscreenenter"",""5"",""15506""
","
","453.3000000715256","","48","","","3000","1","","","images/redplanet1.jpg","images/alien2","images/alien1","images/rocket1","images/alien2","images/nothing.png","2","real","false","2","rare","0","2022-02-13 03:17:14.384"
"two-step-fixation","191","596371","0.0-76.0-2.18","132","693","14","Female","true","false","false","false","""event"",""trial"",""time""
""fullscreenenter"",""5"",""15506""
","
","
","""event"",""trial"",""time""
""fullscreenenter"",""5"",""15506""
","
","","images/earth.jpg","","","","","","","","","","","","","","fixation","","","","","",""
"d3-animate-choice","192","598702","0.0-76.0-0.19","132","693","14","Female","true","false","false","false","""event"",""trial"",""time""
""fullscreenenter"",""5"",""15506""
","
","
","""event"",""trial"",""time""
""fullscreenenter"",""5"",""15506""
","
","326.5","","49","","","3000","1","","","images/earth.jpg","images/rocket2","images/rocket1","null","images/rocket1","","1","real","null","1","","",""
"d3-animate-choice","193","601128","0.0-76.0-1.19","132","693","14","Female","true","false","false","false","""event"",""trial"",""time""
""fullscreenenter"",""5"",""15506""
","
","
","""event"",""trial"",""time""
""fullscreenenter"",""5"",""15506""
","
","420.2000000476837","","49","","","3000","1","","","images/purpleplanet.jpg","images/alien4","images/alien3","images/rocket1","images/alien3","images/nothing.png","2","real","true","1","common","0","2022-02-13 03:17:20.145"
"two-step-fixation","194","602133","0.0-76.0-2.19","132","693","14","Female","true","false","false","false","""event"",""trial"",""time""
""fullscreenenter"",""5"",""15506""
","
","
","""event"",""trial"",""time""
""fullscreenenter"",""5"",""15506""
","
","","images/earth.jpg","","","","","","","","","","","","","","fixation","","","","","",""
"d3-animate-choice","195","604480","0.0-76.0-0.20","132","693","14","Female","true","false","false","false","""event"",""trial"",""time""
""fullscreenenter"",""5"",""15506""
","
","
","""event"",""trial"",""time""
""fullscreenenter"",""5"",""15506""
","
","342.10000002384186","","49","","","3000","1","","","images/earth.jpg","images/rocket2","images/rocket1","null","images/rocket1","","1","real","null","1","","",""
"d3-animate-choice","196","606855","0.0-76.0-1.20","132","693","14","Female","true","false","false","false","""event"",""trial"",""time""
""fullscreenenter"",""5"",""15506""
","
","
","""event"",""trial"",""time""
""fullscreenenter"",""5"",""15506""
","
","371.10000002384186","","48","","","3000","1","","","images/purpleplanet.jpg","images/alien4","images/alien3","images/rocket1","images/alien4","images/nothing.png","2","real","true","2","common","0","2022-02-13 03:17:25.873"
"two-step-fixation","197","607859","0.0-76.0-2.20","132","693","14","Female","true","false","false","false","""event"",""trial"",""time""
""fullscreenenter"",""5"",""15506""
","
","
","""event"",""trial"",""time""
""fullscreenenter"",""5"",""15506""
","
","","images/earth.jpg","","","","","","","","","","","","","","fixation","","","","","",""
"d3-animate-choice","198","610231","0.0-76.0-0.21","132","693","14","Female","true","false","false","false","""event"",""trial"",""time""
""fullscreenenter"",""5"",""15506""
","
","
","""event"",""trial"",""time""
""fullscreenenter"",""5"",""15506""
","
","368.10000002384186","","49","","","3000","1","","","images/earth.jpg","images/rocket2","images/rocket1","null","images/rocket1","","1","real","null","1","","",""
"d3-animate-choice","199","612649","0.0-76.0-1.21","132","693","14","Female","true","false","false","false","""event"",""trial"",""time""
""fullscreenenter"",""5"",""15506""
","
","
","""event"",""trial"",""time""
""fullscreenenter"",""5"",""15506""
","
","413.10000002384186","","49","","","3000","1","","","images/redplanet1.jpg","images/alien2","images/alien1","images/rocket1","images/alien1","images/nothing.png","2","real","false","1","rare","0","2022-02-13 03:17:31.666"
"two-step-fixation","200","613653","0.0-76.0-2.21","132","693","14","Female","true","false","false","false","""event"",""trial"",""time""
""fullscreenenter"",""5"",""15506""
","
","
","""event"",""trial"",""time""
""fullscreenenter"",""5"",""15506""
","
","","images/earth.jpg","","","","","","","","","","","","","","fixation","","","","","",""
"d3-animate-choice","201","616451","0.0-76.0-0.22","132","693","14","Female","true","false","false","false","""event"",""trial"",""time""
""fullscreenenter"",""5"",""15506""
","
","
","""event"",""trial"",""time""
""fullscreenenter"",""5"",""15506""
","
","793.1000000238419","","48","","","3000","1","","","images/earth.jpg","images/rocket2","images/rocket1","null","images/rocket2","","1","real","null","2","","",""
"d3-animate-choice","202","619474","0.0-76.0-1.22","132","693","14","Female","true","false","false","false","""event"",""trial"",""time""
""fullscreenenter"",""5"",""15506""
","
","
","""event"",""trial"",""time""
""fullscreenenter"",""5"",""15506""
","
","1015.7000000476837","","48","","","3000","1","","","images/purpleplanet.jpg","images/alien4","images/alien3","images/rocket2","images/alien4","images/nothing.png","2","real","false","2","rare","0","2022-02-13 03:17:38.492"
"two-step-fixation","203","620479","0.0-76.0-2.22","132","693","14","Female","true","false","false","false","""event"",""trial"",""time""
""fullscreenenter"",""5"",""15506""
","
","
","""event"",""trial"",""time""
""fullscreenenter"",""5"",""15506""
","
","","images/earth.jpg","","","","","","","","","","","","","","fixation","","","","","",""
"d3-animate-choice","204","622798","0.0-76.0-0.23","132","693","14","Female","true","false","false","false","""event"",""trial"",""time""
""fullscreenenter"",""5"",""15506""
","
","
","""event"",""trial"",""time""
""fullscreenenter"",""5"",""15506""
","
","315.10000002384186","","48","","","3000","1","","","images/earth.jpg","images/rocket2","images/rocket1","null","images/rocket2","","1","real","null","2","","",""
"d3-animate-choice","205","625165","0.0-76.0-1.23","132","693","14","Female","true","false","false","false","""event"",""trial"",""time""
""fullscreenenter"",""5"",""15506""
","
","
","""event"",""trial"",""time""
""fullscreenenter"",""5"",""15506""
","
","361.6999999284744","","48","","","3000","1","","","images/redplanet1.jpg","images/alien2","images/alien1","images/rocket2","images/alien2","images/nothing.png","2","real","true","2","common","0","2022-02-13 03:17:44.182"
"two-step-fixation","206","626169","0.0-76.0-2.23","132","693","14","Female","true","false","false","false","""event"",""trial"",""time""
""fullscreenenter"",""5"",""15506""
","
","
","""event"",""trial"",""time""
""fullscreenenter"",""5"",""15506""
","
","","images/earth.jpg","","","","","","","","","","","","","","fixation","","","","","",""
"d3-animate-choice","207","628474","0.0-76.0-0.24","132","693","14","Female","true","false","false","false","""event"",""trial"",""time""
""fullscreenenter"",""5"",""15506""
","
","
","""event"",""trial"",""time""
""fullscreenenter"",""5"",""15506""
","
","299","","48","","","3000","1","","","images/earth.jpg","images/rocket2","images/rocket1","null","images/rocket2","","1","real","null","2","","",""
"d3-animate-choice","208","630918","0.0-76.0-1.24","132","693","14","Female","true","false","false","false","""event"",""trial"",""time""
""fullscreenenter"",""5"",""15506""
","
","
","""event"",""trial"",""time""
""fullscreenenter"",""5"",""15506""
","
","439.89999997615814","","48","","","3000","1","","","images/redplanet1.jpg","images/alien2","images/alien1","images/rocket2","images/alien2","images/t.png","2","real","true","2","common","1","2022-02-13 03:17:49.935"
"two-step-fixation","209","631922","0.0-76.0-2.24","132","693","14","Female","true","false","false","false","""event"",""trial"",""time""
""fullscreenenter"",""5"",""15506""
","
","
","""event"",""trial"",""time""
""fullscreenenter"",""5"",""15506""
","
","","images/earth.jpg","","","","","","","","","","","","","","fixation","","","","","",""
"d3-animate-choice","210","634277","0.0-76.0-0.25","132","693","14","Female","true","false","false","false","""event"",""trial"",""time""
""fullscreenenter"",""5"",""15506""
","
","
","""event"",""trial"",""time""
""fullscreenenter"",""5"",""15506""
","
","347.5","","48","","","3000","1","","","images/earth.jpg","images/rocket2","images/rocket1","null","images/rocket2","","1","real","null","2","","",""
"d3-animate-choice","211","636700","0.0-76.0-1.25","132","693","14","Female","true","false","false","false","""event"",""trial"",""time""
""fullscreenenter"",""5"",""15506""
","
","
","""event"",""trial"",""time""
""fullscreenenter"",""5"",""15506""
","
","416.5","","48","","","3000","1","","","images/purpleplanet.jpg","images/alien4","images/alien3","images/rocket2","images/alien4","images/t.png","2","real","false","2","rare","1","2022-02-13 03:17:55.717"
"two-step-fixation","212","637704","0.0-76.0-2.25","132","693","14","Female","true","false","false","false","""event"",""trial"",""time""
""fullscreenenter"",""5"",""15506""
","
","
","""event"",""trial"",""time""
""fullscreenenter"",""5"",""15506""
","
","","images/earth.jpg","","","","","","","","","","","","","","fixation","","","","","",""
"d3-animate-choice","213","640116","0.0-76.0-0.26","132","693","14","Female","true","false","false","false","""event"",""trial"",""time""
""fullscreenenter"",""5"",""15506""
","
","
","""event"",""trial"",""time""
""fullscreenenter"",""5"",""15506""
","
","407","","48","","","3000","1","","","images/earth.jpg","images/rocket2","images/rocket1","null","images/rocket2","","1","real","null","2","","",""
"d3-animate-choice","214","642510","0.0-76.0-1.26","132","693","14","Female","true","false","false","false","""event"",""trial"",""time""
""fullscreenenter"",""5"",""15506""
","
","
","""event"",""trial"",""time""
""fullscreenenter"",""5"",""15506""
","
","388","","48","","","3000","1","","","images/redplanet1.jpg","images/alien2","images/alien1","images/rocket2","images/alien2","images/t.png","2","real","true","2","common","1","2022-02-13 03:18:01.527"
"two-step-fixation","215","643515","0.0-76.0-2.26","132","693","14","Female","true","false","false","false","""event"",""trial"",""time""
""fullscreenenter"",""5"",""15506""
","
","
","""event"",""trial"",""time""
""fullscreenenter"",""5"",""15506""
","
","","images/earth.jpg","","","","","","","","","","","","","","fixation","","","","","",""
"d3-animate-choice","216","645829","0.0-76.0-0.27","132","693","14","Female","true","false","false","false","""event"",""trial"",""time""
""fullscreenenter"",""5"",""15506""
","
","
","""event"",""trial"",""time""
""fullscreenenter"",""5"",""15506""
","
","309","","49","","","3000","1","","","images/earth.jpg","images/rocket2","images/rocket1","null","images/rocket1","","1","real","null","1","","",""
"d3-animate-choice","217","648207","0.0-76.0-1.27","132","693","14","Female","true","false","false","false","""event"",""trial"",""time""
""fullscreenenter"",""5"",""15506""
","
","
","""event"",""trial"",""time""
""fullscreenenter"",""5"",""15506""
","
","373.60000002384186","","48","","","3000","1","","","images/purpleplanet.jpg","images/alien4","images/alien3","images/rocket1","images/alien4","images/t.png","2","real","true","2","common","1","2022-02-13 03:18:07.224"
"two-step-fixation","218","649212","0.0-76.0-2.27","132","693","14","Female","true","false","false","false","""event"",""trial"",""time""
""fullscreenenter"",""5"",""15506""
","
","
","""event"",""trial"",""time""
""fullscreenenter"",""5"",""15506""
","
","","images/earth.jpg","","","","","","","","","","","","","","fixation","","","","","",""
"d3-animate-choice","219","651575","0.0-76.0-0.28","132","693","14","Female","true","false","false","false","""event"",""trial"",""time""
""fullscreenenter"",""5"",""15506""
","
","
","""event"",""trial"",""time""
""fullscreenenter"",""5"",""15506""
","
","356.10000002384186","","48","","","3000","1","","","images/earth.jpg","images/rocket2","images/rocket1","null","images/rocket2","","1","real","null","2","","",""
"d3-animate-choice","220","653975","0.0-76.0-1.28","132","693","14","Female","true","false","false","false","""event"",""trial"",""time""
""fullscreenenter"",""5"",""15506""
","
","
","""event"",""trial"",""time""
""fullscreenenter"",""5"",""15506""
","
","393.7999999523163","","48","","","3000","1","","","images/redplanet1.jpg","images/alien2","images/alien1","images/rocket2","images/alien2","images/t.png","2","real","true","2","common","1","2022-02-13 03:18:12.992"
"two-step-fixation","221","654984","0.0-76.0-2.28","132","693","14","Female","true","false","false","false","""event"",""trial"",""time""
""fullscreenenter"",""5"",""15506""
","
","
","""event"",""trial"",""time""
""fullscreenenter"",""5"",""15506""
","
","","images/earth.jpg","","","","","","","","","","","","","","fixation","","","","","",""
"d3-animate-choice","222","657413","0.0-76.0-0.29","132","693","14","Female","true","false","false","false","""event"",""trial"",""time""
""fullscreenenter"",""5"",""15506""
","
","
","""event"",""trial"",""time""
""fullscreenenter"",""5"",""15506""
","
","420.5","","49","","","3000","1","","","images/earth.jpg","images/rocket2","images/rocket1","null","images/rocket1","","1","real","null","1","","",""
"d3-animate-choice","223","659765","0.0-76.0-1.29","132","693","14","Female","true","false","false","false","""event"",""trial"",""time""
""fullscreenenter"",""5"",""15506""
","
","
","""event"",""trial"",""time""
""fullscreenenter"",""5"",""15506""
","
","348","","48","","","3000","1","","","images/purpleplanet.jpg","images/alien4","images/alien3","images/rocket1","images/alien4","images/nothing.png","2","real","true","2","common","0","2022-02-13 03:18:18.783"
"two-step-fixation","224","660770","0.0-76.0-2.29","132","693","14","Female","true","false","false","false","""event"",""trial"",""time""
""fullscreenenter"",""5"",""15506""
","
","
","""event"",""trial"",""time""
""fullscreenenter"",""5"",""15506""
","
","","images/earth.jpg","","","","","","","","","","","","","","fixation","","","","","",""
"d3-animate-choice","225","663003","0.0-76.0-0.30","132","693","14","Female","true","false","false","false","""event"",""trial"",""time""
""fullscreenenter"",""5"",""15506""
","
","
","""event"",""trial"",""time""
""fullscreenenter"",""5"",""15506""
","
","227.59999990463257","","48","","","3000","1","","","images/earth.jpg","images/rocket2","images/rocket1","null","images/rocket2","","1","real","null","2","","",""
"d3-animate-choice","226","665405","0.0-76.0-1.30","132","693","14","Female","true","false","false","false","""event"",""trial"",""time""
""fullscreenenter"",""5"",""15506""
","
","
","""event"",""trial"",""time""
""fullscreenenter"",""5"",""15506""
","
","394.7000000476837","","48","","","3000","1","","","images/redplanet1.jpg","images/alien2","images/alien1","images/rocket2","images/alien2","images/nothing.png","2","real","true","2","common","0","2022-02-13 03:18:24.423"
"two-step-fixation","227","666413","0.0-76.0-2.30","132","693","14","Female","true","false","false","false","""event"",""trial"",""time""
""fullscreenenter"",""5"",""15506""
","
","
","""event"",""trial"",""time""
""fullscreenenter"",""5"",""15506""
","
","","images/earth.jpg","","","","","","","","","","","","","","fixation","","","","","",""
"d3-animate-choice","228","668762","0.0-76.0-0.31","132","693","14","Female","true","false","false","false","""event"",""trial"",""time""
""fullscreenenter"",""5"",""15506""
","
","
","""event"",""trial"",""time""
""fullscreenenter"",""5"",""15506""
","
","343.39999997615814","","48","","","3000","1","","","images/earth.jpg","images/rocket2","images/rocket1","null","images/rocket2","","1","real","null","2","","",""
"d3-animate-choice","229","671528","0.0-76.0-1.31","132","693","14","Female","true","false","false","false","""event"",""trial"",""time""
""fullscreenenter"",""5"",""15506""
","
","
","""event"",""trial"",""time""
""fullscreenenter"",""5"",""15506""
","
","758.9000000953674","","48","","","3000","1","","","images/redplanet1.jpg","images/alien2","images/alien1","images/rocket2","images/alien2","images/t.png","2","real","true","2","common","1","2022-02-13 03:18:30.545"
"two-step-fixation","230","672533","0.0-76.0-2.31","132","693","14","Female","true","false","false","false","""event"",""trial"",""time""
""fullscreenenter"",""5"",""15506""
","
","
","""event"",""trial"",""time""
""fullscreenenter"",""5"",""15506""
","
","","images/earth.jpg","","","","","","","","","","","","","","fixation","","","","","",""
"d3-animate-choice","231","674842","0.0-76.0-0.32","132","693","14","Female","true","false","false","false","""event"",""trial"",""time""
""fullscreenenter"",""5"",""15506""
","
","
","""event"",""trial"",""time""
""fullscreenenter"",""5"",""15506""
","
","305.2000000476837","","49","","","3000","1","","","images/earth.jpg","images/rocket2","images/rocket1","null","images/rocket1","","1","real","null","1","","",""
"d3-animate-choice","232","677261","0.0-76.0-1.32","132","693","14","Female","true","false","false","false","""event"",""trial"",""time""
""fullscreenenter"",""5"",""15506""
","
","
","""event"",""trial"",""time""
""fullscreenenter"",""5"",""15506""
","
","410.7999999523163","","48","","","3000","1","","","images/redplanet1.jpg","images/alien2","images/alien1","images/rocket1","images/alien2","images/nothing.png","2","real","false","2","rare","0","2022-02-13 03:18:36.278"
"two-step-fixation","233","678264","0.0-76.0-2.32","132","693","14","Female","true","false","false","false","""event"",""trial"",""time""
""fullscreenenter"",""5"",""15506""
","
","
","""event"",""trial"",""time""
""fullscreenenter"",""5"",""15506""
","
","","images/earth.jpg","","","","","","","","","","","","","","fixation","","","","","",""
"d3-animate-choice","234","680731","0.0-76.0-0.33","132","693","14","Female","true","false","false","false","""event"",""trial"",""time""
""fullscreenenter"",""5"",""15506""
","
","
","""event"",""trial"",""time""
""fullscreenenter"",""5"",""15506""
","
","460.60000002384186","","48","","","3000","1","","","images/earth.jpg","images/rocket2","images/rocket1","null","images/rocket2","","1","real","null","2","","",""
"d3-animate-choice","235","683134","0.0-76.0-1.33","132","693","14","Female","true","false","false","false","""event"",""trial"",""time""
""fullscreenenter"",""5"",""15506""
","
","
","""event"",""trial"",""time""
""fullscreenenter"",""5"",""15506""
","
","397.10000002384186","","48","","","3000","1","","","images/purpleplanet.jpg","images/alien4","images/alien3","images/rocket2","images/alien4","images/t.png","2","real","false","2","rare","1","2022-02-13 03:18:42.151"
"two-step-fixation","236","684139","0.0-76.0-2.33","132","693","14","Female","true","false","false","false","""event"",""trial"",""time""
""fullscreenenter"",""5"",""15506""
","
","
","""event"",""trial"",""time""
""fullscreenenter"",""5"",""15506""
","
","","images/earth.jpg","","","","","","","","","","","","","","fixation","","","","","",""
"d3-animate-choice","237","686687","0.0-76.0-0.34","132","693","14","Female","true","false","false","false","""event"",""trial"",""time""
""fullscreenenter"",""5"",""15506""
","
","
","""event"",""trial"",""time""
""fullscreenenter"",""5"",""15506""
","
","542","","48","","","3000","1","","","images/earth.jpg","images/rocket2","images/rocket1","null","images/rocket2","","1","real","null","2","","",""
"d3-animate-choice","238","689262","0.0-76.0-1.34","132","693","14","Female","true","false","false","false","""event"",""trial"",""time""
""fullscreenenter"",""5"",""15506""
","
","
","""event"",""trial"",""time""
""fullscreenenter"",""5"",""15506""
","
","570","","48","","","3000","1","","","images/purpleplanet.jpg","images/alien4","images/alien3","images/rocket2","images/alien4","images/t.png","2","real","false","2","rare","1","2022-02-13 03:18:48.279"
"two-step-fixation","239","690266","0.0-76.0-2.34","132","693","14","Female","true","false","false","false","""event"",""trial"",""time""
""fullscreenenter"",""5"",""15506""
","
","
","""event"",""trial"",""time""
""fullscreenenter"",""5"",""15506""
","
","","images/earth.jpg","","","","","","","","","","","","","","fixation","","","","","",""
"d3-animate-choice","240","692795","0.0-76.0-0.35","132","693","14","Female","true","false","false","false","""event"",""trial"",""time""
""fullscreenenter"",""5"",""15506""
","
","
","""event"",""trial"",""time""
""fullscreenenter"",""5"",""15506""
","
","524.2000000476837","","48","","","3000","1","","","images/earth.jpg","images/rocket2","images/rocket1","null","images/rocket2","","1","real","null","2","","",""
"d3-animate-choice","241","695266","0.0-76.0-1.35","132","693","14","Female","true","false","false","false","""event"",""trial"",""time""
""fullscreenenter"",""5"",""15506""
","
","
","""event"",""trial"",""time""
""fullscreenenter"",""5"",""15506""
","
","465.60000002384186","","48","","","3000","1","","","images/redplanet1.jpg","images/alien2","images/alien1","images/rocket2","images/alien2","images/t.png","2","real","true","2","common","1","2022-02-13 03:18:54.284"
"two-step-fixation","242","696272","0.0-76.0-2.35","132","693","14","Female","true","false","false","false","""event"",""trial"",""time""
""fullscreenenter"",""5"",""15506""
","
","
","""event"",""trial"",""time""
""fullscreenenter"",""5"",""15506""
","
","","images/earth.jpg","","","","","","","","","","","","","","fixation","","","","","",""
"d3-animate-choice","243","698931","0.0-76.0-0.36","132","693","14","Female","true","false","false","false","""event"",""trial"",""time""
""fullscreenenter"",""5"",""15506""
","
","
","""event"",""trial"",""time""
""fullscreenenter"",""5"",""15506""
","
","651.2000000476837","","48","","","3000","1","","","images/earth.jpg","images/rocket2","images/rocket1","null","images/rocket2","","1","real","null","2","","",""
"d3-animate-choice","244","701607","0.0-76.0-1.36","132","693","14","Female","true","false","false","false","""event"",""trial"",""time""
""fullscreenenter"",""5"",""15506""
","
","
","""event"",""trial"",""time""
""fullscreenenter"",""5"",""15506""
","
","669.3000000715256","","48","","","3000","1","","","images/redplanet1.jpg","images/alien2","images/alien1","images/rocket2","images/alien2","images/t.png","2","real","true","2","common","1","2022-02-13 03:19:00.624"
"two-step-fixation","245","702616","0.0-76.0-2.36","132","693","14","Female","true","false","false","false","""event"",""trial"",""time""
""fullscreenenter"",""5"",""15506""
","
","
","""event"",""trial"",""time""
""fullscreenenter"",""5"",""15506""
","
","","images/earth.jpg","","","","","","","","","","","","","","fixation","","","","","",""
"d3-animate-choice","246","704929","0.0-76.0-0.37","132","693","14","Female","true","false","false","false","""event"",""trial"",""time""
