"trial_type","trial_index","time_elapsed","internal_node_id","participant_id","subject_id","age","gender","rocket_sides","red_planet_first_rocket","red_display_order","purple_display_order","interactions","blur_events","focus_events","fullscreenenter_events","fullscreenexit_events","rt","stimulus","key_press","button_pressed","success","duration","valid_pressed","rts","keys","planet_text","right_text","left_text","center_text","chosen_text","reward_text","trial_stage","practice_trial","transition_type","choice","transition","reward","timestamp"
"pavlovia","0","2","0.0-0.0","3932","7269","25","Male","true","true","true","false","""event"",""trial"",""time""
""blur"",""1"",""6630""
""focus"",""1"",""12765""
""blur"",""1"",""13806""
""focus"",""1"",""32320""
","""event"",""trial"",""time""
""blur"",""1"",""6630""
""blur"",""1"",""13806""
","""event"",""trial"",""time""
""focus"",""1"",""12765""
""focus"",""1"",""32320""
","
","
","","","","","","","","","","","","","","","","","","","","","",""
"html-keyboard-response","1","33951","0.0-1.0","3932","7269","25","Male","true","true","true","false","""event"",""trial"",""time""
""blur"",""1"",""6630""
""focus"",""1"",""12765""
""blur"",""1"",""13806""
""focus"",""1"",""32320""
","""event"",""trial"",""time""
""blur"",""1"",""6630""
""blur"",""1"",""13806""
","""event"",""trial"",""time""
""focus"",""1"",""12765""
""focus"",""1"",""32320""
","
","
","33947.300000071526","Welcome! Press the space bar to begin.","32","","","","","","","","","","","","","","","","","","",""
"audio-keyboard-response","2","36237","0.0-2.0","3932","7269","25","Male","true","true","true","false","""event"",""trial"",""time""
""blur"",""1"",""6630""
""focus"",""1"",""12765""
""blur"",""1"",""13806""
""focus"",""1"",""32320""
","""event"",""trial"",""time""
""blur"",""1"",""6630""
""blur"",""1"",""13806""
","""event"",""trial"",""time""
""focus"",""1"",""12765""
""focus"",""1"",""32320""
","
","
","2159","audio/beep_loop.wav","32","","","","","","","","","","","","","","","","","","",""
"audio-button-response","3","37654","0.0-3.0","3932","7269","25","Male","true","true","true","false","""event"",""trial"",""time""
""blur"",""1"",""6630""
""focus"",""1"",""12765""
""blur"",""1"",""13806""
""focus"",""1"",""32320""
","""event"",""trial"",""time""
""blur"",""1"",""6630""
""blur"",""1"",""13806""
","""event"",""trial"",""time""
""focus"",""1"",""12765""
""focus"",""1"",""32320""
","
","
","NaN","audio/fish.mp3","","1","","","","","","","","","","","","","","","","","",""
"audio-button-response","4","40866","0.0-4.0","3932","7269","25","Male","true","true","true","false","""event"",""trial"",""time""
""blur"",""1"",""6630""
""focus"",""1"",""12765""
""blur"",""1"",""13806""
""focus"",""1"",""32320""
""fullscreenenter"",""5"",""43715""
","""event"",""trial"",""time""
""blur"",""1"",""6630""
""blur"",""1"",""13806""
","""event"",""trial"",""time""
""focus"",""1"",""12765""
""focus"",""1"",""32320""
","""event"",""trial"",""time""
""fullscreenenter"",""5"",""43715""
","
","NaN","audio/tiger.mp3","","4","","","","","","","","","","","","","","","","","",""
"fullscreen","5","44706","0.0-5.0","3932","7269","25","Male","true","true","true","false","""event"",""trial"",""time""
""blur"",""1"",""6630""
""focus"",""1"",""12765""
""blur"",""1"",""13806""
""focus"",""1"",""32320""
""fullscreenenter"",""5"",""43715""
","""event"",""trial"",""time""
""blur"",""1"",""6630""
""blur"",""1"",""13806""
","""event"",""trial"",""time""
""focus"",""1"",""12765""
""focus"",""1"",""32320""
","""event"",""trial"",""time""
""fullscreenenter"",""5"",""43715""
","
","","","","","true","","","","","","","","","","","","","","","","",""
"d3-instructions","6","45956","0.0-6.0","3932","7269","25","Male","true","true","true","false","""event"",""trial"",""time""
""blur"",""1"",""6630""
""focus"",""1"",""12765""
""blur"",""1"",""13806""
""focus"",""1"",""32320""
""fullscreenenter"",""5"",""43715""
","""event"",""trial"",""time""
""blur"",""1"",""6630""
""blur"",""1"",""13806""
","""event"",""trial"",""time""
""focus"",""1"",""12765""
""focus"",""1"",""32320""
","""event"",""trial"",""time""
""fullscreenenter"",""5"",""43715""
","
","","","","","","","","","","","","","","","","","","","","","",""
"d3-instructions","7","46685","0.0-7.0","3932","7269","25","Male","true","true","true","false","""event"",""trial"",""time""
""blur"",""1"",""6630""
""focus"",""1"",""12765""
""blur"",""1"",""13806""
""focus"",""1"",""32320""
""fullscreenenter"",""5"",""43715""
","""event"",""trial"",""time""
""blur"",""1"",""6630""
""blur"",""1"",""13806""
","""event"",""trial"",""time""
""focus"",""1"",""12765""
""focus"",""1"",""32320""
","""event"",""trial"",""time""
""fullscreenenter"",""5"",""43715""
","
","","","","","","","","","","","","","","","","","","","","","",""
"d3-instructions","8","47348","0.0-8.0","3932","7269","25","Male","true","true","true","false","""event"",""trial"",""time""
""blur"",""1"",""6630""
""focus"",""1"",""12765""
""blur"",""1"",""13806""
""focus"",""1"",""32320""
""fullscreenenter"",""5"",""43715""
","""event"",""trial"",""time""
""blur"",""1"",""6630""
""blur"",""1"",""13806""
","""event"",""trial"",""time""
""focus"",""1"",""12765""
""focus"",""1"",""32320""
","""event"",""trial"",""time""
""fullscreenenter"",""5"",""43715""
","
","","","","","","","","","","","","","","","","","","","","","",""
"d3-instructions","9","47999","0.0-9.0","3932","7269","25","Male","true","true","true","false","""event"",""trial"",""time""
""blur"",""1"",""6630""
""focus"",""1"",""12765""
""blur"",""1"",""13806""
""focus"",""1"",""32320""
""fullscreenenter"",""5"",""43715""
","""event"",""trial"",""time""
""blur"",""1"",""6630""
""blur"",""1"",""13806""
","""event"",""trial"",""time""
""focus"",""1"",""12765""
""focus"",""1"",""32320""
","""event"",""trial"",""time""
""fullscreenenter"",""5"",""43715""
","
","","","","","","","","","","","","","","","","","","","","","",""
"d3-instructions","10","48630","0.0-10.0","3932","7269","25","Male","true","true","true","false","""event"",""trial"",""time""
""blur"",""1"",""6630""
""focus"",""1"",""12765""
""blur"",""1"",""13806""
""focus"",""1"",""32320""
""fullscreenenter"",""5"",""43715""
","""event"",""trial"",""time""
""blur"",""1"",""6630""
""blur"",""1"",""13806""
","""event"",""trial"",""time""
""focus"",""1"",""12765""
""focus"",""1"",""32320""
","""event"",""trial"",""time""
""fullscreenenter"",""5"",""43715""
","
","","","","","","","","","","","","","","","","","","","","","",""
"d3-animate-choice","11","53697","0.0-11.0","3932","7269","25","Male","true","true","true","false","""event"",""trial"",""time""
""blur"",""1"",""6630""
""focus"",""1"",""12765""
""blur"",""1"",""13806""
""focus"",""1"",""32320""
""fullscreenenter"",""5"",""43715""
","""event"",""trial"",""time""
""blur"",""1"",""6630""
""blur"",""1"",""13806""
","""event"",""trial"",""time""
""focus"",""1"",""12765""
""focus"",""1"",""32320""
","""event"",""trial"",""time""
""fullscreenenter"",""5"",""43715""
","
","2082.2999999523163","","32","","","3000","1","3059","48","images/tutgreenplanet.jpg","images/tutalien1","images/tutalien2","null","images/tutalien1","","NA","practice","null","","","",""
"d3-animate-choice","12","56645","0.0-12.0","3932","7269","25","Male","true","true","true","false","""event"",""trial"",""time""
""blur"",""1"",""6630""
""focus"",""1"",""12765""
""blur"",""1"",""13806""
""focus"",""1"",""32320""
""fullscreenenter"",""5"",""43715""
","""event"",""trial"",""time""
""blur"",""1"",""6630""
""blur"",""1"",""13806""
","""event"",""trial"",""time""
""focus"",""1"",""12765""
""focus"",""1"",""32320""
","""event"",""trial"",""time""
""fullscreenenter"",""5"",""43715""
","
","935","","48","","","3000","1","1094,1244.3000000715256,1399.8999999761581,1570.8999999761581,1751.7000000476837,1956.8999999761581,2039.8000000715256,2160.7000000476837,2228.8000000715256,2376.3000000715256,2545.7000000476837,2716.8000000715256,2878.899999976158","48,48,48,48,48,48,49,48,49,48,49,49,49","images/tutgreenplanet.jpg","images/tutalien1","images/tutalien2","null","images/tutalien1","","NA","practice","null","","","",""
"d3-animate-choice","13","58753","0.0-13.0","3932","7269","25","Male","true","true","true","false","""event"",""trial"",""time""
""blur"",""1"",""6630""
""focus"",""1"",""12765""
""blur"",""1"",""13806""
""focus"",""1"",""32320""
""fullscreenenter"",""5"",""43715""
","""event"",""trial"",""time""
""blur"",""1"",""6630""
""blur"",""1"",""13806""
","""event"",""trial"",""time""
""focus"",""1"",""12765""
""focus"",""1"",""32320""
","""event"",""trial"",""time""
""fullscreenenter"",""5"",""43715""
","
","99.5","","49","","","3000","1","258.40000009536743,541.6000000238419,758,1074.9000000953674,1723.1000000238419,1922.4000000953674,2106.4000000953674","49,49,49,49,48,48,48","images/tutgreenplanet.jpg","images/tutalien1","images/tutalien2","null","images/tutalien2","","NA","practice","null","","","",""
"d3-animate-choice","14","60923","0.0-14.0","3932","7269","25","Male","true","true","true","false","""event"",""trial"",""time""
""blur"",""1"",""6630""
""focus"",""1"",""12765""
""blur"",""1"",""13806""
""focus"",""1"",""32320""
""fullscreenenter"",""5"",""43715""
","""event"",""trial"",""time""
""blur"",""1"",""6630""
""blur"",""1"",""13806""
","""event"",""trial"",""time""
""focus"",""1"",""12765""
""focus"",""1"",""32320""
","""event"",""trial"",""time""
""fullscreenenter"",""5"",""43715""
","
","165.19999992847443","","48","","","3000","1","360,878.0999999046326,1198,1615.7999999523163,1886.8999999761581,2125.1999999284744","48,49,49,49,49,49","images/tutgreenplanet.jpg","images/tutalien1","images/tutalien2","null","images/tutalien1","","NA","practice","null","","","",""
"d3-instructions","15","62821","0.0-15.0","3932","7269","25","Male","true","true","true","false","""event"",""trial"",""time""
""blur"",""1"",""6630""
""focus"",""1"",""12765""
""blur"",""1"",""13806""
""focus"",""1"",""32320""
""fullscreenenter"",""5"",""43715""
","""event"",""trial"",""time""
""blur"",""1"",""6630""
""blur"",""1"",""13806""
","""event"",""trial"",""time""
""focus"",""1"",""12765""
""focus"",""1"",""32320""
","""event"",""trial"",""time""
""fullscreenenter"",""5"",""43715""
","
","","","","","","","","","","","","","","","","","","","","","",""
"d3-instructions","16","65056","0.0-16.0","3932","7269","25","Male","true","true","true","false","""event"",""trial"",""time""
""blur"",""1"",""6630""
""focus"",""1"",""12765""
""blur"",""1"",""13806""
""focus"",""1"",""32320""
""fullscreenenter"",""5"",""43715""
","""event"",""trial"",""time""
""blur"",""1"",""6630""
""blur"",""1"",""13806""
","""event"",""trial"",""time""
""focus"",""1"",""12765""
""focus"",""1"",""32320""
","""event"",""trial"",""time""
""fullscreenenter"",""5"",""43715""
","
","","","","","","","","","","","","","","","","","","","","","",""
"d3-instructions","17","65671","0.0-17.0","3932","7269","25","Male","true","true","true","false","""event"",""trial"",""time""
""blur"",""1"",""6630""
""focus"",""1"",""12765""
""blur"",""1"",""13806""
""focus"",""1"",""32320""
""fullscreenenter"",""5"",""43715""
","""event"",""trial"",""time""
""blur"",""1"",""6630""
""blur"",""1"",""13806""
","""event"",""trial"",""time""
""focus"",""1"",""12765""
""focus"",""1"",""32320""
","""event"",""trial"",""time""
""fullscreenenter"",""5"",""43715""
","
","","","","","","","","","","","","","","","","","","","","","",""
"d3-instructions","18","66796","0.0-18.0","3932","7269","25","Male","true","true","true","false","""event"",""trial"",""time""
""blur"",""1"",""6630""
""focus"",""1"",""12765""
""blur"",""1"",""13806""
""focus"",""1"",""32320""
""fullscreenenter"",""5"",""43715""
","""event"",""trial"",""time""
""blur"",""1"",""6630""
""blur"",""1"",""13806""
","""event"",""trial"",""time""
""focus"",""1"",""12765""
""focus"",""1"",""32320""
","""event"",""trial"",""time""
""fullscreenenter"",""5"",""43715""
","
","","","","","","","","","","","","","","","","","","","","","",""
"d3-instructions","19","67748","0.0-19.0","3932","7269","25","Male","true","true","true","false","""event"",""trial"",""time""
""blur"",""1"",""6630""
""focus"",""1"",""12765""
""blur"",""1"",""13806""
""focus"",""1"",""32320""
""fullscreenenter"",""5"",""43715""
","""event"",""trial"",""time""
""blur"",""1"",""6630""
""blur"",""1"",""13806""
","""event"",""trial"",""time""
""focus"",""1"",""12765""
""focus"",""1"",""32320""
","""event"",""trial"",""time""
""fullscreenenter"",""5"",""43715""
","
","","","","","","","","","","","","","","","","","","","","","",""
"d3-animate-choice","20","71123","0.0-20.0","3932","7269","25","Male","true","true","true","false","""event"",""trial"",""time""
""blur"",""1"",""6630""
""focus"",""1"",""12765""
""blur"",""1"",""13806""
""focus"",""1"",""32320""
""fullscreenenter"",""5"",""43715""
","""event"",""trial"",""time""
""blur"",""1"",""6630""
""blur"",""1"",""13806""
","""event"",""trial"",""time""
""focus"",""1"",""12765""
""focus"",""1"",""32320""
","""event"",""trial"",""time""
""fullscreenenter"",""5"",""43715""
","
","1370.5999999046326","","49","","","3000","1","1545.5,1739.0999999046326,2733,2960.399999976158,3207.5999999046326","49,49,49,49,49","images/tutyellowplanet.jpg","null","images/tutalien3","null","images/tutalien3","images/t.png","NA","practice","null","","","",""
"d3-animate-choice","21","73515","0.0-21.0","3932","7269","25","Male","true","true","true","false","""event"",""trial"",""time""
""blur"",""1"",""6630""
""focus"",""1"",""12765""
""blur"",""1"",""13806""
""focus"",""1"",""32320""
""fullscreenenter"",""5"",""43715""
","""event"",""trial"",""time""
""blur"",""1"",""6630""
""blur"",""1"",""13806""
","""event"",""trial"",""time""
""focus"",""1"",""12765""
""focus"",""1"",""32320""
","""event"",""trial"",""time""
""fullscreenenter"",""5"",""43715""
","
","384.2000000476837","","49","","","3000","1","668.5,2113.2000000476837","49,49","images/tutyellowplanet.jpg","null","images/tutalien3","null","images/tutalien3","images/t.png","NA","practice","null","","","",""
"d3-animate-choice","22","75626","0.0-22.0","3932","7269","25","Male","true","true","true","false","""event"",""trial"",""time""
""blur"",""1"",""6630""
""focus"",""1"",""12765""
""blur"",""1"",""13806""
""focus"",""1"",""32320""
""fullscreenenter"",""5"",""43715""
","""event"",""trial"",""time""
""blur"",""1"",""6630""
""blur"",""1"",""13806""
","""event"",""trial"",""time""
""focus"",""1"",""12765""
""focus"",""1"",""32320""
","""event"",""trial"",""time""
""fullscreenenter"",""5"",""43715""
","
","107","","49","","","3000","1","410.39999997615814,726.8999999761581,1051.5999999046326,1517.7999999523163,1848.8999999761581","49,49,49,49,49","images/tutyellowplanet.jpg","null","images/tutalien3","null","images/tutalien3","images/nothing.png","NA","practice","null","","","",""
"d3-animate-choice","23","77786","0.0-23.0","3932","7269","25","Male","true","true","true","false","""event"",""trial"",""time""
""blur"",""1"",""6630""
""focus"",""1"",""12765""
""blur"",""1"",""13806""
""focus"",""1"",""32320""
""fullscreenenter"",""5"",""43715""
","""event"",""trial"",""time""
""blur"",""1"",""6630""
""blur"",""1"",""13806""
","""event"",""trial"",""time""
""focus"",""1"",""12765""
""focus"",""1"",""32320""
","""event"",""trial"",""time""
""fullscreenenter"",""5"",""43715""
","
","150.89999997615814","","49","","","3000","1","455.89999997615814,1120.5,1727.7999999523163,2034.7999999523163","49,49,49,49","images/tutyellowplanet.jpg","null","images/tutalien3","null","images/tutalien3","images/t.png","NA","practice","null","","","",""
"d3-animate-choice","24","79939","0.0-24.0","3932","7269","25","Male","true","true","true","false","""event"",""trial"",""time""
""blur"",""1"",""6630""
""focus"",""1"",""12765""
""blur"",""1"",""13806""
""focus"",""1"",""32320""
""fullscreenenter"",""5"",""43715""
","""event"",""trial"",""time""
""blur"",""1"",""6630""
""blur"",""1"",""13806""
","""event"",""trial"",""time""
""focus"",""1"",""12765""
""focus"",""1"",""32320""
","""event"",""trial"",""time""
""fullscreenenter"",""5"",""43715""
","
","147","","49","","","3000","1","415,879.2000000476837,1641.1000000238419","49,49,49","images/tutyellowplanet.jpg","null","images/tutalien3","null","images/tutalien3","images/t.png","NA","practice","null","","","",""
"d3-animate-choice","25","82298","0.0-25.0","3932","7269","25","Male","true","true","true","false","""event"",""trial"",""time""
""blur"",""1"",""6630""
""focus"",""1"",""12765""
""blur"",""1"",""13806""
""focus"",""1"",""32320""
""fullscreenenter"",""5"",""43715""
","""event"",""trial"",""time""
""blur"",""1"",""6630""
""blur"",""1"",""13806""
","""event"",""trial"",""time""
""focus"",""1"",""12765""
""focus"",""1"",""32320""
","""event"",""trial"",""time""
""fullscreenenter"",""5"",""43715""
","
","355.2000000476837","","49","","","3000","1","1879.3999999761581","49","images/tutyellowplanet.jpg","null","images/tutalien3","null","images/tutalien3","images/t.png","NA","practice","null","","","",""
"d3-animate-choice","26","84603","0.0-26.0","3932","7269","25","Male","true","true","true","false","""event"",""trial"",""time""
""blur"",""1"",""6630""
""focus"",""1"",""12765""
""blur"",""1"",""13806""
""focus"",""1"",""32320""
""fullscreenenter"",""5"",""43715""
","""event"",""trial"",""time""
""blur"",""1"",""6630""
""blur"",""1"",""13806""
","""event"",""trial"",""time""
""focus"",""1"",""12765""
""focus"",""1"",""32320""
","""event"",""trial"",""time""
""fullscreenenter"",""5"",""43715""
","
","300.5","","49","","","3000","1","1540.5","49","images/tutyellowplanet.jpg","null","images/tutalien3","null","images/tutalien3","images/nothing.png","NA","practice","null","","","",""
"d3-animate-choice","27","87050","0.0-27.0","3932","7269","25","Male","true","true","true","false","""event"",""trial"",""time""
""blur"",""1"",""6630""
""focus"",""1"",""12765""
""blur"",""1"",""13806""
""focus"",""1"",""32320""
""fullscreenenter"",""5"",""43715""
","""event"",""trial"",""time""
""blur"",""1"",""6630""
""blur"",""1"",""13806""
","""event"",""trial"",""time""
""focus"",""1"",""12765""
""focus"",""1"",""32320""
","""event"",""trial"",""time""
""fullscreenenter"",""5"",""43715""
","
","444.7000000476837","","49","","","3000","1","1641.5,2022.2000000476837","49,49","images/tutyellowplanet.jpg","null","images/tutalien3","null","images/tutalien3","images/nothing.png","NA","practice","null","","","",""
"d3-animate-choice","28","89613","0.0-28.0","3932","7269","25","Male","true","true","true","false","""event"",""trial"",""time""
""blur"",""1"",""6630""
""focus"",""1"",""12765""
""blur"",""1"",""13806""
""focus"",""1"",""32320""
""fullscreenenter"",""5"",""43715""
","""event"",""trial"",""time""
""blur"",""1"",""6630""
""blur"",""1"",""13806""
","""event"",""trial"",""time""
""focus"",""1"",""12765""
""focus"",""1"",""32320""
","""event"",""trial"",""time""
""fullscreenenter"",""5"",""43715""
","
","551.2999999523163","","49","","","3000","1","2463.2999999523163","49","images/tutyellowplanet.jpg","null","images/tutalien3","null","images/tutalien3","images/t.png","NA","practice","null","","","",""
"d3-animate-choice","29","91923","0.0-29.0","3932","7269","25","Male","true","true","true","false","""event"",""trial"",""time""
""blur"",""1"",""6630""
""focus"",""1"",""12765""
""blur"",""1"",""13806""
""focus"",""1"",""32320""
""fullscreenenter"",""5"",""43715""
","""event"",""trial"",""time""
""blur"",""1"",""6630""
""blur"",""1"",""13806""
","""event"",""trial"",""time""
""focus"",""1"",""12765""
""focus"",""1"",""32320""
","""event"",""trial"",""time""
""fullscreenenter"",""5"",""43715""
","
","304.89999997615814","","49","","","3000","1","2132.7999999523163","49","images/tutyellowplanet.jpg","null","images/tutalien3","null","images/tutalien3","images/t.png","NA","practice","null","","","",""
"d3-instructions","30","93930","0.0-30.0","3932","7269","25","Male","true","true","true","false","""event"",""trial"",""time""
""blur"",""1"",""6630""
""focus"",""1"",""12765""
""blur"",""1"",""13806""
""focus"",""1"",""32320""
""fullscreenenter"",""5"",""43715""
","""event"",""trial"",""time""
""blur"",""1"",""6630""
""blur"",""1"",""13806""
","""event"",""trial"",""time""
""focus"",""1"",""12765""
""focus"",""1"",""32320""
","""event"",""trial"",""time""
""fullscreenenter"",""5"",""43715""
","
","","","","","","","","","","","","","","","","","","","","","",""
"d3-instructions","31","94607","0.0-31.0","3932","7269","25","Male","true","true","true","false","""event"",""trial"",""time""
""blur"",""1"",""6630""
""focus"",""1"",""12765""
""blur"",""1"",""13806""
""focus"",""1"",""32320""
""fullscreenenter"",""5"",""43715""
","""event"",""trial"",""time""
""blur"",""1"",""6630""
""blur"",""1"",""13806""
","""event"",""trial"",""time""
""focus"",""1"",""12765""
""focus"",""1"",""32320""
","""event"",""trial"",""time""
""fullscreenenter"",""5"",""43715""
","
","","","","","","","","","","","","","","","","","","","","","",""
"d3-instructions","32","95040","0.0-32.0","3932","7269","25","Male","true","true","true","false","""event"",""trial"",""time""
""blur"",""1"",""6630""
""focus"",""1"",""12765""
""blur"",""1"",""13806""
""focus"",""1"",""32320""
""fullscreenenter"",""5"",""43715""
","""event"",""trial"",""time""
""blur"",""1"",""6630""
""blur"",""1"",""13806""
","""event"",""trial"",""time""
""focus"",""1"",""12765""
""focus"",""1"",""32320""
","""event"",""trial"",""time""
""fullscreenenter"",""5"",""43715""
","
","","","","","","","","","","","","","","","","","","","","","",""
"d3-instructions","33","95619","0.0-33.0","3932","7269","25","Male","true","true","true","false","""event"",""trial"",""time""
""blur"",""1"",""6630""
""focus"",""1"",""12765""
""blur"",""1"",""13806""
""focus"",""1"",""32320""
""fullscreenenter"",""5"",""43715""
","""event"",""trial"",""time""
""blur"",""1"",""6630""
""blur"",""1"",""13806""
","""event"",""trial"",""time""
""focus"",""1"",""12765""
""focus"",""1"",""32320""
","""event"",""trial"",""time""
""fullscreenenter"",""5"",""43715""
","
","","","","","","","","","","","","","","","","","","","","","",""
"d3-animate-choice","34","98866","0.0-34.0","3932","7269","25","Male","true","true","true","false","""event"",""trial"",""time""
""blur"",""1"",""6630""
""focus"",""1"",""12765""
""blur"",""1"",""13806""
""focus"",""1"",""32320""
""fullscreenenter"",""5"",""43715""
","""event"",""trial"",""time""
""blur"",""1"",""6630""
""blur"",""1"",""13806""
","""event"",""trial"",""time""
""focus"",""1"",""12765""
""focus"",""1"",""32320""
","""event"",""trial"",""time""
""fullscreenenter"",""5"",""43715""
","
","605.8999999761581","","32","","","3000","1","1240.5,1504","49,49","images/tutgreenplanet.jpg","images/tutalien1","images/tutalien2","null","images/tutalien2","images/t.png","NA","practice","null","","","",""
"d3-animate-choice","35","100875","0.0-35.0","3932","7269","25","Male","true","true","true","false","""event"",""trial"",""time""
""blur"",""1"",""6630""
""focus"",""1"",""12765""
""blur"",""1"",""13806""
""focus"",""1"",""32320""
""fullscreenenter"",""5"",""43715""
","""event"",""trial"",""time""
""blur"",""1"",""6630""
""blur"",""1"",""13806""
","""event"",""trial"",""time""
""focus"",""1"",""12765""
""focus"",""1"",""32320""
","""event"",""trial"",""time""
""fullscreenenter"",""5"",""43715""
","
","3.3000000715255737","","49","","","3000","1","270.39999997615814","49","images/tutgreenplanet.jpg","images/tutalien1","images/tutalien2","null","images/tutalien2","images/t.png","NA","practice","null","","","",""
"d3-animate-choice","36","103236","0.0-36.0","3932","7269","25","Male","true","true","true","false","""event"",""trial"",""time""
""blur"",""1"",""6630""
""focus"",""1"",""12765""
""blur"",""1"",""13806""
""focus"",""1"",""32320""
""fullscreenenter"",""5"",""43715""
","""event"",""trial"",""time""
""blur"",""1"",""6630""
""blur"",""1"",""13806""
","""event"",""trial"",""time""
""focus"",""1"",""12765""
""focus"",""1"",""32320""
","""event"",""trial"",""time""
""fullscreenenter"",""5"",""43715""
","
","350.7000000476837","","48","","","3000","1","","","images/tutgreenplanet.jpg","images/tutalien1","images/tutalien2","null","images/tutalien1","images/nothing.png","NA","practice","null","","","",""
"d3-animate-choice","37","105645","0.0-37.0","3932","7269","25","Male","true","true","true","false","""event"",""trial"",""time""
""blur"",""1"",""6630""
""focus"",""1"",""12765""
""blur"",""1"",""13806""
""focus"",""1"",""32320""
""fullscreenenter"",""5"",""43715""
","""event"",""trial"",""time""
""blur"",""1"",""6630""
""blur"",""1"",""13806""
","""event"",""trial"",""time""
""focus"",""1"",""12765""
""focus"",""1"",""32320""
","""event"",""trial"",""time""
""fullscreenenter"",""5"",""43715""
","
","402.6999999284744","","48","","","3000","1","1914.5,2154.5,2336.899999976158","48,48,48","images/tutgreenplanet.jpg","images/tutalien1","images/tutalien2","null","images/tutalien1","images/nothing.png","NA","practice","null","","","",""
"d3-animate-choice","38","107836","0.0-38.0","3932","7269","25","Male","true","true","true","false","""event"",""trial"",""time""
""blur"",""1"",""6630""
""focus"",""1"",""12765""
""blur"",""1"",""13806""
""focus"",""1"",""32320""
""fullscreenenter"",""5"",""43715""
","""event"",""trial"",""time""
""blur"",""1"",""6630""
""blur"",""1"",""13806""
","""event"",""trial"",""time""
""focus"",""1"",""12765""
""focus"",""1"",""32320""
","""event"",""trial"",""time""
""fullscreenenter"",""5"",""43715""
","
","183.30000007152557","","49","","","3000","1","375.89999997615814,551.5,677.1000000238419","48,49,48","images/tutgreenplanet.jpg","images/tutalien1","images/tutalien2","null","images/tutalien2","images/t.png","NA","practice","null","","","",""
"d3-animate-choice","39","109844","0.0-39.0","3932","7269","25","Male","true","true","true","false","""event"",""trial"",""time""
""blur"",""1"",""6630""
""focus"",""1"",""12765""
""blur"",""1"",""13806""
""focus"",""1"",""32320""
""fullscreenenter"",""5"",""43715""
","""event"",""trial"",""time""
""blur"",""1"",""6630""
""blur"",""1"",""13806""
","""event"",""trial"",""time""
""focus"",""1"",""12765""
""focus"",""1"",""32320""
","""event"",""trial"",""time""
""fullscreenenter"",""5"",""43715""
","
","2","","48","","","3000","1","207.5","48","images/tutgreenplanet.jpg","images/tutalien1","images/tutalien2","null","images/tutalien1","images/nothing.png","NA","practice","null","","","",""
"d3-animate-choice","40","112259","0.0-40.0","3932","7269","25","Male","true","true","true","false","""event"",""trial"",""time""
""blur"",""1"",""6630""
""focus"",""1"",""12765""
""blur"",""1"",""13806""
""focus"",""1"",""32320""
""fullscreenenter"",""5"",""43715""
","""event"",""trial"",""time""
""blur"",""1"",""6630""
""blur"",""1"",""13806""
","""event"",""trial"",""time""
""focus"",""1"",""12765""
""focus"",""1"",""32320""
","""event"",""trial"",""time""
""fullscreenenter"",""5"",""43715""
","
","405.60000002384186","","48","","","3000","1","","","images/tutgreenplanet.jpg","images/tutalien1","images/tutalien2","null","images/tutalien1","images/nothing.png","NA","practice","null","","","",""
"d3-animate-choice","41","114717","0.0-41.0","3932","7269","25","Male","true","true","true","false","""event"",""trial"",""time""
""blur"",""1"",""6630""
""focus"",""1"",""12765""
""blur"",""1"",""13806""
""focus"",""1"",""32320""
""fullscreenenter"",""5"",""43715""
","""event"",""trial"",""time""
""blur"",""1"",""6630""
""blur"",""1"",""13806""
","""event"",""trial"",""time""
""focus"",""1"",""12765""
""focus"",""1"",""32320""
","""event"",""trial"",""time""
""fullscreenenter"",""5"",""43715""
","
","454.60000002384186","","48","","","3000","1","2338.399999976158","48","images/tutgreenplanet.jpg","images/tutalien1","images/tutalien2","null","images/tutalien1","images/nothing.png","NA","practice","null","","","",""
"d3-animate-choice","42","116891","0.0-42.0","3932","7269","25","Male","true","true","true","false","""event"",""trial"",""time""
""blur"",""1"",""6630""
""focus"",""1"",""12765""
""blur"",""1"",""13806""
""focus"",""1"",""32320""
""fullscreenenter"",""5"",""43715""
","""event"",""trial"",""time""
""blur"",""1"",""6630""
""blur"",""1"",""13806""
","""event"",""trial"",""time""
""focus"",""1"",""12765""
""focus"",""1"",""32320""
","""event"",""trial"",""time""
""fullscreenenter"",""5"",""43715""
","
","165.89999997615814","","48","","","3000","1","1784.7000000476837","49","images/tutgreenplanet.jpg","images/tutalien1","images/tutalien2","null","images/tutalien1","images/t.png","NA","practice","null","","","",""
"d3-animate-choice","43","118900","0.0-43.0","3932","7269","25","Male","true","true","true","false","""event"",""trial"",""time""
""blur"",""1"",""6630""
""focus"",""1"",""12765""
""blur"",""1"",""13806""
""focus"",""1"",""32320""
""fullscreenenter"",""5"",""43715""
","""event"",""trial"",""time""
""blur"",""1"",""6630""
""blur"",""1"",""13806""
","""event"",""trial"",""time""
""focus"",""1"",""12765""
""focus"",""1"",""32320""
","""event"",""trial"",""time""
""fullscreenenter"",""5"",""43715""
","
","0.10000002384185791","","49","","","3000","1","227.10000002384186,1600.6000000238419","49,49","images/tutgreenplanet.jpg","images/tutalien1","images/tutalien2","null","images/tutalien2","images/t.png","NA","practice","null","","","",""
"d3-instructions","44","120287","0.0-44.0","3932","7269","25","Male","true","true","true","false","""event"",""trial"",""time""
""blur"",""1"",""6630""
""focus"",""1"",""12765""
""blur"",""1"",""13806""
""focus"",""1"",""32320""
""fullscreenenter"",""5"",""43715""
","""event"",""trial"",""time""
""blur"",""1"",""6630""
""blur"",""1"",""13806""
","""event"",""trial"",""time""
""focus"",""1"",""12765""
""focus"",""1"",""32320""
","""event"",""trial"",""time""
""fullscreenenter"",""5"",""43715""
","
","","","","","","","","","","","","","","","","","","","","","",""
"d3-instructions","45","121816","0.0-45.0","3932","7269","25","Male","true","true","true","false","""event"",""trial"",""time""
""blur"",""1"",""6630""
""focus"",""1"",""12765""
""blur"",""1"",""13806""
""focus"",""1"",""32320""
""fullscreenenter"",""5"",""43715""
","""event"",""trial"",""time""
""blur"",""1"",""6630""
""blur"",""1"",""13806""
","""event"",""trial"",""time""
""focus"",""1"",""12765""
""focus"",""1"",""32320""
","""event"",""trial"",""time""
""fullscreenenter"",""5"",""43715""
","
","","","","","","","","","","","","","","","","","","","","","",""
"d3-instructions","46","124254","0.0-46.0","3932","7269","25","Male","true","true","true","false","""event"",""trial"",""time""
""blur"",""1"",""6630""
""focus"",""1"",""12765""
""blur"",""1"",""13806""
""focus"",""1"",""32320""
""fullscreenenter"",""5"",""43715""
","""event"",""trial"",""time""
""blur"",""1"",""6630""
""blur"",""1"",""13806""
","""event"",""trial"",""time""
""focus"",""1"",""12765""
""focus"",""1"",""32320""
","""event"",""trial"",""time""
""fullscreenenter"",""5"",""43715""
","
","","","","","","","","","","","","","","","","","","","","","",""
"d3-instructions","47","125064","0.0-47.0","3932","7269","25","Male","true","true","true","false","""event"",""trial"",""time""
""blur"",""1"",""6630""
""focus"",""1"",""12765""
""blur"",""1"",""13806""
""focus"",""1"",""32320""
""fullscreenenter"",""5"",""43715""
","""event"",""trial"",""time""
""blur"",""1"",""6630""
""blur"",""1"",""13806""
","""event"",""trial"",""time""
""focus"",""1"",""12765""
""focus"",""1"",""32320""
","""event"",""trial"",""time""
""fullscreenenter"",""5"",""43715""
","
","","","","","","","","","","","","","","","","","","","","","",""
"d3-instructions","48","126031","0.0-48.0","3932","7269","25","Male","true","true","true","false","""event"",""trial"",""time""
""blur"",""1"",""6630""
""focus"",""1"",""12765""
""blur"",""1"",""13806""
""focus"",""1"",""32320""
""fullscreenenter"",""5"",""43715""
","""event"",""trial"",""time""
""blur"",""1"",""6630""
""blur"",""1"",""13806""
","""event"",""trial"",""time""
""focus"",""1"",""12765""
""focus"",""1"",""32320""
","""event"",""trial"",""time""
""fullscreenenter"",""5"",""43715""
","
","","","","","","","","","","","","","","","","","","","","","",""
"d3-instructions","49","126880","0.0-49.0","3932","7269","25","Male","true","true","true","false","""event"",""trial"",""time""
""blur"",""1"",""6630""
""focus"",""1"",""12765""
""blur"",""1"",""13806""
""focus"",""1"",""32320""
""fullscreenenter"",""5"",""43715""
","""event"",""trial"",""time""
""blur"",""1"",""6630""
""blur"",""1"",""13806""
","""event"",""trial"",""time""
""focus"",""1"",""12765""
""focus"",""1"",""32320""
","""event"",""trial"",""time""
""fullscreenenter"",""5"",""43715""
","
","","","","","","","","","","","","","","","","","","","","","",""
"d3-instructions","50","127691","0.0-50.0","3932","7269","25","Male","true","true","true","false","""event"",""trial"",""time""
""blur"",""1"",""6630""
""focus"",""1"",""12765""
""blur"",""1"",""13806""
""focus"",""1"",""32320""
""fullscreenenter"",""5"",""43715""
","""event"",""trial"",""time""
""blur"",""1"",""6630""
""blur"",""1"",""13806""
","""event"",""trial"",""time""
""focus"",""1"",""12765""
""focus"",""1"",""32320""
","""event"",""trial"",""time""
""fullscreenenter"",""5"",""43715""
","
","","","","","","","","","","","","","","","","","","","","","",""
"d3-instructions","51","128504","0.0-51.0","3932","7269","25","Male","true","true","true","false","""event"",""trial"",""time""
""blur"",""1"",""6630""
""focus"",""1"",""12765""
""blur"",""1"",""13806""
""focus"",""1"",""32320""
""fullscreenenter"",""5"",""43715""
","""event"",""trial"",""time""
""blur"",""1"",""6630""
""blur"",""1"",""13806""
","""event"",""trial"",""time""
""focus"",""1"",""12765""
""focus"",""1"",""32320""
","""event"",""trial"",""time""
""fullscreenenter"",""5"",""43715""
","
","","","","","","","","","","","","","","","","","","","","","",""
"d3-instructions","52","129255","0.0-52.0","3932","7269","25","Male","true","true","true","false","""event"",""trial"",""time""
""blur"",""1"",""6630""
""focus"",""1"",""12765""
""blur"",""1"",""13806""
""focus"",""1"",""32320""
""fullscreenenter"",""5"",""43715""
","""event"",""trial"",""time""
""blur"",""1"",""6630""
""blur"",""1"",""13806""
","""event"",""trial"",""time""
""focus"",""1"",""12765""
""focus"",""1"",""32320""
","""event"",""trial"",""time""
""fullscreenenter"",""5"",""43715""
","
","","","","","","","","","","","","","","","","","","","","","",""
"d3-instructions","53","130307","0.0-53.0","3932","7269","25","Male","true","true","true","false","""event"",""trial"",""time""
""blur"",""1"",""6630""
""focus"",""1"",""12765""
""blur"",""1"",""13806""
""focus"",""1"",""32320""
""fullscreenenter"",""5"",""43715""
","""event"",""trial"",""time""
""blur"",""1"",""6630""
""blur"",""1"",""13806""
","""event"",""trial"",""time""
""focus"",""1"",""12765""
""focus"",""1"",""32320""
","""event"",""trial"",""time""
""fullscreenenter"",""5"",""43715""
","
","","","","","","","","","","","","","","","","","","","","","",""
"d3-instructions","54","131091","0.0-54.0","3932","7269","25","Male","true","true","true","false","""event"",""trial"",""time""
""blur"",""1"",""6630""
""focus"",""1"",""12765""
""blur"",""1"",""13806""
""focus"",""1"",""32320""
""fullscreenenter"",""5"",""43715""
","""event"",""trial"",""time""
""blur"",""1"",""6630""
""blur"",""1"",""13806""
","""event"",""trial"",""time""
""focus"",""1"",""12765""
""focus"",""1"",""32320""
","""event"",""trial"",""time""
""fullscreenenter"",""5"",""43715""
","
","","","","","","","","","","","","","","","","","","","","","",""
"d3-instructions","55","131916","0.0-55.0","3932","7269","25","Male","true","true","true","false","""event"",""trial"",""time""
""blur"",""1"",""6630""
""focus"",""1"",""12765""
""blur"",""1"",""13806""
""focus"",""1"",""32320""
""fullscreenenter"",""5"",""43715""
","""event"",""trial"",""time""
""blur"",""1"",""6630""
""blur"",""1"",""13806""
","""event"",""trial"",""time""
""focus"",""1"",""12765""
""focus"",""1"",""32320""
","""event"",""trial"",""time""
""fullscreenenter"",""5"",""43715""
","
","","","","","","","","","","","","","","","","","","","","","",""
"d3-instructions","56","132545","0.0-56.0","3932","7269","25","Male","true","true","true","false","""event"",""trial"",""time""
""blur"",""1"",""6630""
""focus"",""1"",""12765""
""blur"",""1"",""13806""
""focus"",""1"",""32320""
""fullscreenenter"",""5"",""43715""
","""event"",""trial"",""time""
""blur"",""1"",""6630""
""blur"",""1"",""13806""
","""event"",""trial"",""time""
""focus"",""1"",""12765""
""focus"",""1"",""32320""
","""event"",""trial"",""time""
""fullscreenenter"",""5"",""43715""
","
","","","","","","","","","","","","","","","","","","","","","",""
"d3-instructions","57","133280","0.0-57.0","3932","7269","25","Male","true","true","true","false","""event"",""trial"",""time""
""blur"",""1"",""6630""
""focus"",""1"",""12765""
""blur"",""1"",""13806""
""focus"",""1"",""32320""
""fullscreenenter"",""5"",""43715""
","""event"",""trial"",""time""
""blur"",""1"",""6630""
""blur"",""1"",""13806""
","""event"",""trial"",""time""
""focus"",""1"",""12765""
""focus"",""1"",""32320""
","""event"",""trial"",""time""
""fullscreenenter"",""5"",""43715""
","
","","","","","","","","","","","","","","","","","","","","","",""
"d3-instructions","58","134042","0.0-58.0","3932","7269","25","Male","true","true","true","false","""event"",""trial"",""time""
""blur"",""1"",""6630""
""focus"",""1"",""12765""
""blur"",""1"",""13806""
""focus"",""1"",""32320""
""fullscreenenter"",""5"",""43715""
","""event"",""trial"",""time""
""blur"",""1"",""6630""
""blur"",""1"",""13806""
","""event"",""trial"",""time""
""focus"",""1"",""12765""
""focus"",""1"",""32320""
","""event"",""trial"",""time""
""fullscreenenter"",""5"",""43715""
","
","","","","","","","","","","","","","","","","","","","","","",""
"d3-instructions","59","134821","0.0-59.0","3932","7269","25","Male","true","true","true","false","""event"",""trial"",""time""
""blur"",""1"",""6630""
""focus"",""1"",""12765""
""blur"",""1"",""13806""
""focus"",""1"",""32320""
""fullscreenenter"",""5"",""43715""
","""event"",""trial"",""time""
""blur"",""1"",""6630""
""blur"",""1"",""13806""
","""event"",""trial"",""time""
""focus"",""1"",""12765""
""focus"",""1"",""32320""
","""event"",""trial"",""time""
""fullscreenenter"",""5"",""43715""
","
","","","","","","","","","","","","","","","","","","","","","",""
"d3-instructions","60","135762","0.0-60.0","3932","7269","25","Male","true","true","true","false","""event"",""trial"",""time""
""blur"",""1"",""6630""
""focus"",""1"",""12765""
""blur"",""1"",""13806""
""focus"",""1"",""32320""
""fullscreenenter"",""5"",""43715""
","""event"",""trial"",""time""
""blur"",""1"",""6630""
""blur"",""1"",""13806""
","""event"",""trial"",""time""
""focus"",""1"",""12765""
""focus"",""1"",""32320""
","""event"",""trial"",""time""
""fullscreenenter"",""5"",""43715""
","
","","","","","","","","","","","","","","","","","","","","","",""
"d3-animate-choice","61","138179","0.0-61.0-0.0","3932","7269","25","Male","true","true","true","false","""event"",""trial"",""time""
""blur"",""1"",""6630""
""focus"",""1"",""12765""
""blur"",""1"",""13806""
""focus"",""1"",""32320""
""fullscreenenter"",""5"",""43715""
","""event"",""trial"",""time""
""blur"",""1"",""6630""
""blur"",""1"",""13806""
","""event"",""trial"",""time""
""focus"",""1"",""12765""
""focus"",""1"",""32320""
","""event"",""trial"",""time""
""fullscreenenter"",""5"",""43715""
","
","410.2999999523163","","49","","","3000","1","","","images/earth.jpg","images/tutrocket1","images/tutrocket2","null","images/tutrocket2","","1","practice","null","1","","",""
"d3-animate-choice","62","140687","0.0-61.0-1.0","3932","7269","25","Male","true","true","true","false","""event"",""trial"",""time""
""blur"",""1"",""6630""
""focus"",""1"",""12765""
""blur"",""1"",""13806""
""focus"",""1"",""32320""
""fullscreenenter"",""5"",""43715""
","""event"",""trial"",""time""
""blur"",""1"",""6630""
""blur"",""1"",""13806""
","""event"",""trial"",""time""
""focus"",""1"",""12765""
""focus"",""1"",""32320""
","""event"",""trial"",""time""
""fullscreenenter"",""5"",""43715""
","
","496.1999999284744","","48","","","3000","1","","","images/tutgreenplanet.jpg","images/tutalien2","images/tutalien1","images/tutrocket2","images/tutalien2","images/nothing.png","2","practice","false","2","rare","0","2023-03-04 13:46:36.736"
"two-step-fixation","63","141695","0.0-61.0-2.0","3932","7269","25","Male","true","true","true","false","""event"",""trial"",""time""
""blur"",""1"",""6630""
""focus"",""1"",""12765""
""blur"",""1"",""13806""
""focus"",""1"",""32320""
""fullscreenenter"",""5"",""43715""
","""event"",""trial"",""time""
""blur"",""1"",""6630""
""blur"",""1"",""13806""
","""event"",""trial"",""time""
""focus"",""1"",""12765""
""focus"",""1"",""32320""
","""event"",""trial"",""time""
""fullscreenenter"",""5"",""43715""
","
","","images/earth.jpg","","","","","","","","","","","","","","fixation","","","","","",""
"d3-animate-choice","64","145342","0.0-61.0-0.1","3932","7269","25","Male","true","true","true","false","""event"",""trial"",""time""
""blur"",""1"",""6630""
""focus"",""1"",""12765""
""blur"",""1"",""13806""
""focus"",""1"",""32320""
""fullscreenenter"",""5"",""43715""
","""event"",""trial"",""time""
""blur"",""1"",""6630""
""blur"",""1"",""13806""
","""event"",""trial"",""time""
""focus"",""1"",""12765""
""focus"",""1"",""32320""
","""event"",""trial"",""time""
""fullscreenenter"",""5"",""43715""
","
","1638.2999999523163","","48","","","3000","1","","","images/earth.jpg","images/tutrocket1","images/tutrocket2","null","images/tutrocket1","","1","practice","null","2","","",""
"d3-animate-choice","65","147476","0.0-61.0-1.1","3932","7269","25","Male","true","true","true","false","""event"",""trial"",""time""
""blur"",""1"",""6630""
""focus"",""1"",""12765""
""blur"",""1"",""13806""
""focus"",""1"",""32320""
""fullscreenenter"",""5"",""43715""
","""event"",""trial"",""time""
""blur"",""1"",""6630""
""blur"",""1"",""13806""
","""event"",""trial"",""time""
""focus"",""1"",""12765""
""focus"",""1"",""32320""
","""event"",""trial"",""time""
""fullscreenenter"",""5"",""43715""
","
","125","","48","","","3000","1","366.60000002384186","48","images/tutyellowplanet.jpg","images/tutalien4","images/tutalien3","images/tutrocket1","images/tutalien4","images/nothing.png","2","practice","false","2","rare","0","2023-03-04 13:46:43.525"
"two-step-fixation","66","148485","0.0-61.0-2.1","3932","7269","25","Male","true","true","true","false","""event"",""trial"",""time""
""blur"",""1"",""6630""
""focus"",""1"",""12765""
""blur"",""1"",""13806""
""focus"",""1"",""32320""
""fullscreenenter"",""5"",""43715""
","""event"",""trial"",""time""
""blur"",""1"",""6630""
""blur"",""1"",""13806""
","""event"",""trial"",""time""
""focus"",""1"",""12765""
""focus"",""1"",""32320""
","""event"",""trial"",""time""
""fullscreenenter"",""5"",""43715""
","
","","images/earth.jpg","","","","","","","","","","","","","","fixation","","","","","",""
"d3-animate-choice","67","150700","0.0-61.0-0.2","3932","7269","25","Male","true","true","true","false","""event"",""trial"",""time""
""blur"",""1"",""6630""
""focus"",""1"",""12765""
""blur"",""1"",""13806""
""focus"",""1"",""32320""
""fullscreenenter"",""5"",""43715""
","""event"",""trial"",""time""
""blur"",""1"",""6630""
""blur"",""1"",""13806""
","""event"",""trial"",""time""
""focus"",""1"",""12765""
""focus"",""1"",""32320""
","""event"",""trial"",""time""
""fullscreenenter"",""5"",""43715""
","
","205.5","","48","","","3000","1","360.1999999284744,533.7999999523163,721.7999999523163,909.8999999761581,1079.6999999284744,1282.6000000238419,1493.6999999284744,1709.5","48,48,48,48,48,48,48,48","images/earth.jpg","images/tutrocket1","images/tutrocket2","null","images/tutrocket1","","1","practice","null","2","","",""
"d3-animate-choice","68","152741","0.0-61.0-1.2","3932","7269","25","Male","true","true","true","false","""event"",""trial"",""time""
""blur"",""1"",""6630""
""focus"",""1"",""12765""
""blur"",""1"",""13806""
""focus"",""1"",""32320""
""fullscreenenter"",""5"",""43715""
","""event"",""trial"",""time""
""blur"",""1"",""6630""
""blur"",""1"",""13806""
","""event"",""trial"",""time""
""focus"",""1"",""12765""
""focus"",""1"",""32320""
","""event"",""trial"",""time""
""fullscreenenter"",""5"",""43715""
","
","30.800000071525574","","48","","","3000","1","245.70000004768372,454.7000000476837,688.5,1098.3000000715256,1329.3000000715256,1996.2000000476837","48,48,48,48,48,48","images/tutgreenplanet.jpg","images/tutalien2","images/tutalien1","images/tutrocket1","images/tutalien2","images/t.png","2","practice","true","2","common","1","2023-03-04 13:46:48.790"
"two-step-fixation","69","153746","0.0-61.0-2.2","3932","7269","25","Male","true","true","true","false","""event"",""trial"",""time""
""blur"",""1"",""6630""
""focus"",""1"",""12765""
""blur"",""1"",""13806""
""focus"",""1"",""32320""
""fullscreenenter"",""5"",""43715""
","""event"",""trial"",""time""
""blur"",""1"",""6630""
""blur"",""1"",""13806""
","""event"",""trial"",""time""
""focus"",""1"",""12765""
""focus"",""1"",""32320""
","""event"",""trial"",""time""
""fullscreenenter"",""5"",""43715""
","
","","images/earth.jpg","","","","","","","","","","","","","","fixation","","","","","",""
"d3-animate-choice","70","156169","0.0-61.0-0.3","3932","7269","25","Male","true","true","true","false","""event"",""trial"",""time""
""blur"",""1"",""6630""
""focus"",""1"",""12765""
""blur"",""1"",""13806""
""focus"",""1"",""32320""
""fullscreenenter"",""5"",""43715""
","""event"",""trial"",""time""
""blur"",""1"",""6630""
""blur"",""1"",""13806""
","""event"",""trial"",""time""
""focus"",""1"",""12765""
""focus"",""1"",""32320""
","""event"",""trial"",""time""
""fullscreenenter"",""5"",""43715""
","
","407.1999999284744","","48","","","3000","1","639.1999999284744,1813.5999999046326","48,48","images/earth.jpg","images/tutrocket1","images/tutrocket2","null","images/tutrocket1","","1","practice","null","2","","",""
"d3-animate-choice","71","158758","0.0-61.0-1.3","3932","7269","25","Male","true","true","true","false","""event"",""trial"",""time""
""blur"",""1"",""6630""
""focus"",""1"",""12765""
""blur"",""1"",""13806""
""focus"",""1"",""32320""
""fullscreenenter"",""5"",""43715""
","""event"",""trial"",""time""
""blur"",""1"",""6630""
""blur"",""1"",""13806""
","""event"",""trial"",""time""
""focus"",""1"",""12765""
""focus"",""1"",""32320""
","""event"",""trial"",""time""
""fullscreenenter"",""5"",""43715""
","
","585.2999999523163","","48","","","3000","1","854,1142.6999999284744,1321.7999999523163,1575.6999999284744,2031.8999999761581,2269.6999999284744","48,48,48,48,48,48","images/tutgreenplanet.jpg","images/tutalien2","images/tutalien1","images/tutrocket1","images/tutalien2","images/t.png","2","practice","true","2","common","1","2023-03-04 13:46:54.807"
"two-step-fixation","72","159766","0.0-61.0-2.3","3932","7269","25","Male","true","true","true","false","""event"",""trial"",""time""
""blur"",""1"",""6630""
""focus"",""1"",""12765""
""blur"",""1"",""13806""
""focus"",""1"",""32320""
""fullscreenenter"",""5"",""43715""
","""event"",""trial"",""time""
""blur"",""1"",""6630""
""blur"",""1"",""13806""
","""event"",""trial"",""time""
""focus"",""1"",""12765""
""focus"",""1"",""32320""
","""event"",""trial"",""time""
""fullscreenenter"",""5"",""43715""
","
","","images/earth.jpg","","","","","","","","","","","","","","fixation","","","","","",""
"d3-animate-choice","73","161947","0.0-61.0-0.4","3932","7269","25","Male","true","true","true","false","""event"",""trial"",""time""
""blur"",""1"",""6630""
""focus"",""1"",""12765""
""blur"",""1"",""13806""
""focus"",""1"",""32320""
""fullscreenenter"",""5"",""43715""
","""event"",""trial"",""time""
""blur"",""1"",""6630""
""blur"",""1"",""13806""
","""event"",""trial"",""time""
""focus"",""1"",""12765""
""focus"",""1"",""32320""
","""event"",""trial"",""time""
""fullscreenenter"",""5"",""43715""
","
","176.10000002384186","","48","","","3000","1","1389.8000000715256,2180","48,48","images/earth.jpg","images/tutrocket1","images/tutrocket2","null","images/tutrocket1","","1","practice","null","2","","",""
"d3-animate-choice","74","164168","0.0-61.0-1.4","3932","7269","25","Male","true","true","true","false","""event"",""trial"",""time""
""blur"",""1"",""6630""
""focus"",""1"",""12765""
""blur"",""1"",""13806""
""focus"",""1"",""32320""
""fullscreenenter"",""5"",""43715""
","""event"",""trial"",""time""
""blur"",""1"",""6630""
""blur"",""1"",""13806""
","""event"",""trial"",""time""
""focus"",""1"",""12765""
""focus"",""1"",""32320""
","""event"",""trial"",""time""
""fullscreenenter"",""5"",""43715""
","
","210.89999997615814","","48","","","3000","1","1325.8999999761581,1543.8999999761581,2074.8000000715256","48,48,48","images/tutyellowplanet.jpg","images/tutalien4","images/tutalien3","images/tutrocket1","images/tutalien4","images/t.png","2","practice","false","2","rare","1","2023-03-04 13:47:00.217"
"two-step-fixation","75","165173","0.0-61.0-2.4","3932","7269","25","Male","true","true","true","false","""event"",""trial"",""time""
""blur"",""1"",""6630""
""focus"",""1"",""12765""
""blur"",""1"",""13806""
""focus"",""1"",""32320""
""fullscreenenter"",""5"",""43715""
","""event"",""trial"",""time""
""blur"",""1"",""6630""
""blur"",""1"",""13806""
","""event"",""trial"",""time""
""focus"",""1"",""12765""
""focus"",""1"",""32320""
","""event"",""trial"",""time""
""fullscreenenter"",""5"",""43715""
","
","","images/earth.jpg","","","","","","","","","","","","","","fixation","","","","","",""
"d3-animate-choice","76","167328","0.0-61.0-0.5","3932","7269","25","Male","true","true","true","false","""event"",""trial"",""time""
""blur"",""1"",""6630""
""focus"",""1"",""12765""
""blur"",""1"",""13806""
""focus"",""1"",""32320""
""fullscreenenter"",""5"",""43715""
","""event"",""trial"",""time""
""blur"",""1"",""6630""
""blur"",""1"",""13806""
","""event"",""trial"",""time""
""focus"",""1"",""12765""
""focus"",""1"",""32320""
","""event"",""trial"",""time""
""fullscreenenter"",""5"",""43715""
","
","142.80000007152557","","48","","","3000","1","846.6000000238419,1049.9000000953674,2110.5","48,48,48","images/earth.jpg","images/tutrocket1","images/tutrocket2","null","images/tutrocket1","","1","practice","null","2","","",""
"d3-animate-choice","77","169545","0.0-61.0-1.5","3932","7269","25","Male","true","true","true","false","""event"",""trial"",""time""
""blur"",""1"",""6630""
""focus"",""1"",""12765""
""blur"",""1"",""13806""
""focus"",""1"",""32320""
""fullscreenenter"",""5"",""43715""
","""event"",""trial"",""time""
""blur"",""1"",""6630""
""blur"",""1"",""13806""
","""event"",""trial"",""time""
""focus"",""1"",""12765""
""focus"",""1"",""32320""
","""event"",""trial"",""time""
""fullscreenenter"",""5"",""43715""
","
","202.89999997615814","","48","","","3000","1","435.89999997615814,639.7999999523163,1379.1000000238419,1666.2999999523163,1899.8999999761581,2105.399999976158","48,48,48,48,48,48","images/tutgreenplanet.jpg","images/tutalien2","images/tutalien1","images/tutrocket1","images/tutalien2","images/nothing.png","2","practice","true","2","common","0","2023-03-04 13:47:05.594"
"two-step-fixation","78","170549","0.0-61.0-2.5","3932","7269","25","Male","true","true","true","false","""event"",""trial"",""time""
""blur"",""1"",""6630""
""focus"",""1"",""12765""
""blur"",""1"",""13806""
""focus"",""1"",""32320""
""fullscreenenter"",""5"",""43715""
","""event"",""trial"",""time""
""blur"",""1"",""6630""
""blur"",""1"",""13806""
","""event"",""trial"",""time""
""focus"",""1"",""12765""
""focus"",""1"",""32320""
","""event"",""trial"",""time""
""fullscreenenter"",""5"",""43715""
","
","","images/earth.jpg","","","","","","","","","","","","","","fixation","","","","","",""
"d3-animate-choice","79","174102","0.0-61.0-0.6","3932","7269","25","Male","true","true","true","false","""event"",""trial"",""time""
""blur"",""1"",""6630""
""focus"",""1"",""12765""
""blur"",""1"",""13806""
""focus"",""1"",""32320""
""fullscreenenter"",""5"",""43715""
","""event"",""trial"",""time""
""blur"",""1"",""6630""
""blur"",""1"",""13806""
","""event"",""trial"",""time""
""focus"",""1"",""12765""
""focus"",""1"",""32320""
","""event"",""trial"",""time""
""fullscreenenter"",""5"",""43715""
","
","1547.9000000953674","","48","","","3000","1","1734.7000000476837","48","images/earth.jpg","images/tutrocket1","images/tutrocket2","null","images/tutrocket1","","1","practice","null","2","","",""
"d3-animate-choice","80","178110","0.0-61.0-1.6","3932","7269","25","Male","true","true","true","false","""event"",""trial"",""time""
""blur"",""1"",""6630""
""focus"",""1"",""12765""
""blur"",""1"",""13806""
""focus"",""1"",""32320""
""fullscreenenter"",""5"",""43715""
","""event"",""trial"",""time""
""blur"",""1"",""6630""
""blur"",""1"",""13806""
","""event"",""trial"",""time""
""focus"",""1"",""12765""
""focus"",""1"",""32320""
","""event"",""trial"",""time""
""fullscreenenter"",""5"",""43715""
","
","2262.399999976158","","48","","","3000","1","","","images/tutgreenplanet.jpg","images/tutalien2","images/tutalien1","images/tutrocket1","images/tutalien2","images/nothing.png","2","practice","true","2","common","0","2023-03-04 13:47:14.159"
"two-step-fixation","81","179116","0.0-61.0-2.6","3932","7269","25","Male","true","true","true","false","""event"",""trial"",""time""
""blur"",""1"",""6630""
""focus"",""1"",""12765""
""blur"",""1"",""13806""
""focus"",""1"",""32320""
""fullscreenenter"",""5"",""43715""
","""event"",""trial"",""time""
""blur"",""1"",""6630""
""blur"",""1"",""13806""
","""event"",""trial"",""time""
""focus"",""1"",""12765""
""focus"",""1"",""32320""
","""event"",""trial"",""time""
""fullscreenenter"",""5"",""43715""
","
","","images/earth.jpg","","","","","","","","","","","","","","fixation","","","","","",""
"d3-animate-choice","82","182957","0.0-61.0-0.7","3932","7269","25","Male","true","true","true","false","""event"",""trial"",""time""
""blur"",""1"",""6630""
""focus"",""1"",""12765""
""blur"",""1"",""13806""
""focus"",""1"",""32320""
""fullscreenenter"",""5"",""43715""
","""event"",""trial"",""time""
""blur"",""1"",""6630""
""blur"",""1"",""13806""
","""event"",""trial"",""time""
""focus"",""1"",""12765""
""focus"",""1"",""32320""
","""event"",""trial"",""time""
""fullscreenenter"",""5"",""43715""
","
","1832.4000000953674","","48","","","3000","1","","","images/earth.jpg","images/tutrocket1","images/tutrocket2","null","images/tutrocket1","","1","practice","null","2","","",""
"d3-animate-choice","83","186974","0.0-61.0-1.7","3932","7269","25","Male","true","true","true","false","""event"",""trial"",""time""
""blur"",""1"",""6630""
""focus"",""1"",""12765""
""blur"",""1"",""13806""
""focus"",""1"",""32320""
""fullscreenenter"",""5"",""43715""
","""event"",""trial"",""time""
""blur"",""1"",""6630""
""blur"",""1"",""13806""
","""event"",""trial"",""time""
""focus"",""1"",""12765""
""focus"",""1"",""32320""
","""event"",""trial"",""time""
""fullscreenenter"",""5"",""43715""
","
","2014.8999999761581","","48","","","3000","1","","","images/tutyellowplanet.jpg","images/tutalien4","images/tutalien3","images/tutrocket1","images/tutalien4","images/nothing.png","2","practice","false","2","rare","0","2023-03-04 13:47:23.023"
"two-step-fixation","84","187977","0.0-61.0-2.7","3932","7269","25","Male","true","true","true","false","""event"",""trial"",""time""
""blur"",""1"",""6630""
""focus"",""1"",""12765""
""blur"",""1"",""13806""
""focus"",""1"",""32320""
""fullscreenenter"",""5"",""43715""
","""event"",""trial"",""time""
""blur"",""1"",""6630""
""blur"",""1"",""13806""
","""event"",""trial"",""time""
""focus"",""1"",""12765""
""focus"",""1"",""32320""
","""event"",""trial"",""time""
""fullscreenenter"",""5"",""43715""
","
","","images/earth.jpg","","","","","","","","","","","","","","fixation","","","","","",""
"d3-animate-choice","85","190537","0.0-61.0-0.8","3932","7269","25","Male","true","true","true","false","""event"",""trial"",""time""
""blur"",""1"",""6630""
""focus"",""1"",""12765""
""blur"",""1"",""13806""
""focus"",""1"",""32320""
""fullscreenenter"",""5"",""43715""
","""event"",""trial"",""time""
""blur"",""1"",""6630""
""blur"",""1"",""13806""
","""event"",""trial"",""time""
""focus"",""1"",""12765""
""focus"",""1"",""32320""
","""event"",""trial"",""time""
""fullscreenenter"",""5"",""43715""
","
","547.1999999284744","","48","","","3000","1","","","images/earth.jpg","images/tutrocket1","images/tutrocket2","null","images/tutrocket1","","1","practice","null","2","","",""
"d3-animate-choice","86","194294","0.0-61.0-1.8","3932","7269","25","Male","true","true","true","false","""event"",""trial"",""time""
""blur"",""1"",""6630""
""focus"",""1"",""12765""
""blur"",""1"",""13806""
""focus"",""1"",""32320""
""fullscreenenter"",""5"",""43715""
","""event"",""trial"",""time""
""blur"",""1"",""6630""
""blur"",""1"",""13806""
","""event"",""trial"",""time""
""focus"",""1"",""12765""
""focus"",""1"",""32320""
","""event"",""trial"",""time""
""fullscreenenter"",""5"",""43715""
","
","1751.2000000476837","","48","","","3000","1","3488","48","images/tutgreenplanet.jpg","images/tutalien2","images/tutalien1","images/tutrocket1","images/tutalien2","images/t.png","2","practice","true","2","common","1","2023-03-04 13:47:30.343"
"two-step-fixation","87","195302","0.0-61.0-2.8","3932","7269","25","Male","true","true","true","false","""event"",""trial"",""time""
""blur"",""1"",""6630""
""focus"",""1"",""12765""
""blur"",""1"",""13806""
""focus"",""1"",""32320""
""fullscreenenter"",""5"",""43715""
","""event"",""trial"",""time""
""blur"",""1"",""6630""
""blur"",""1"",""13806""
","""event"",""trial"",""time""
""focus"",""1"",""12765""
""focus"",""1"",""32320""
","""event"",""trial"",""time""
""fullscreenenter"",""5"",""43715""
","
","","images/earth.jpg","","","","","","","","","","","","","","fixation","","","","","",""
"d3-animate-choice","88","197456","0.0-61.0-0.9","3932","7269","25","Male","true","true","true","false","""event"",""trial"",""time""
""blur"",""1"",""6630""
""focus"",""1"",""12765""
""blur"",""1"",""13806""
""focus"",""1"",""32320""
""fullscreenenter"",""5"",""43715""
","""event"",""trial"",""time""
""blur"",""1"",""6630""
""blur"",""1"",""13806""
","""event"",""trial"",""time""
""focus"",""1"",""12765""
""focus"",""1"",""32320""
","""event"",""trial"",""time""
""fullscreenenter"",""5"",""43715""
","
","145.5","","48","","","3000","1","","","images/earth.jpg","images/tutrocket1","images/tutrocket2","null","images/tutrocket1","","1","practice","null","2","","",""
"d3-animate-choice","89","199544","0.0-61.0-1.9","3932","7269","25","Male","true","true","true","false","""event"",""trial"",""time""
""blur"",""1"",""6630""
""focus"",""1"",""12765""
""blur"",""1"",""13806""
""focus"",""1"",""32320""
""fullscreenenter"",""5"",""43715""
","""event"",""trial"",""time""
""blur"",""1"",""6630""
""blur"",""1"",""13806""
","""event"",""trial"",""time""
""focus"",""1"",""12765""
""focus"",""1"",""32320""
","""event"",""trial"",""time""
""fullscreenenter"",""5"",""43715""
","
","81.60000002384186","","48","","","3000","1","","","images/tutyellowplanet.jpg","images/tutalien4","images/tutalien3","images/tutrocket1","images/tutalien4","images/nothing.png","2","practice","false","2","rare","0","2023-03-04 13:47:35.593"
"two-step-fixation","90","200550","0.0-61.0-2.9","3932","7269","25","Male","true","true","true","false","""event"",""trial"",""time""
""blur"",""1"",""6630""
""focus"",""1"",""12765""
""blur"",""1"",""13806""
""focus"",""1"",""32320""
""fullscreenenter"",""5"",""43715""
","""event"",""trial"",""time""
""blur"",""1"",""6630""
""blur"",""1"",""13806""
","""event"",""trial"",""time""
""focus"",""1"",""12765""
""focus"",""1"",""32320""
","""event"",""trial"",""time""
""fullscreenenter"",""5"",""43715""
","
","","images/earth.jpg","","","","","","","","","","","","","","fixation","","","","","",""
"d3-animate-choice","91","202902","0.0-61.0-0.10","3932","7269","25","Male","true","true","true","false","""event"",""trial"",""time""
""blur"",""1"",""6630""
""focus"",""1"",""12765""
""blur"",""1"",""13806""
""focus"",""1"",""32320""
""fullscreenenter"",""5"",""43715""
","""event"",""trial"",""time""
""blur"",""1"",""6630""
""blur"",""1"",""13806""
","""event"",""trial"",""time""
""focus"",""1"",""12765""
""focus"",""1"",""32320""
","""event"",""trial"",""time""
""fullscreenenter"",""5"",""43715""
","
","346.7000000476837","","48","","","3000","1","","","images/earth.jpg","images/tutrocket1","images/tutrocket2","null","images/tutrocket1","","1","practice","null","2","","",""
"d3-animate-choice","92","205978","0.0-61.0-1.10","3932","7269","25","Male","true","true","true","false","""event"",""trial"",""time""
""blur"",""1"",""6630""
""focus"",""1"",""12765""
""blur"",""1"",""13806""
""focus"",""1"",""32320""
""fullscreenenter"",""5"",""43715""
","""event"",""trial"",""time""
""blur"",""1"",""6630""
""blur"",""1"",""13806""
","""event"",""trial"",""time""
""focus"",""1"",""12765""
""focus"",""1"",""32320""
","""event"",""trial"",""time""
""fullscreenenter"",""5"",""43715""
","
","1065.2000000476837","","48","","","3000","1","","","images/tutyellowplanet.jpg","images/tutalien4","images/tutalien3","images/tutrocket1","images/tutalien4","images/nothing.png","2","practice","false","2","rare","0","2023-03-04 13:47:42.027"
"two-step-fixation","93","206982","0.0-61.0-2.10","3932","7269","25","Male","true","true","true","false","""event"",""trial"",""time""
""blur"",""1"",""6630""
""focus"",""1"",""12765""
""blur"",""1"",""13806""
""focus"",""1"",""32320""
""fullscreenenter"",""5"",""43715""
","""event"",""trial"",""time""
""blur"",""1"",""6630""
""blur"",""1"",""13806""
","""event"",""trial"",""time""
""focus"",""1"",""12765""
""focus"",""1"",""32320""
","""event"",""trial"",""time""
""fullscreenenter"",""5"",""43715""
","
","","images/earth.jpg","","","","","","","","","","","","","","fixation","","","","","",""
"d3-animate-choice","94","209320","0.0-61.0-0.11","3932","7269","25","Male","true","true","true","false","""event"",""trial"",""time""
""blur"",""1"",""6630""
""focus"",""1"",""12765""
""blur"",""1"",""13806""
""focus"",""1"",""32320""
""fullscreenenter"",""5"",""43715""
","""event"",""trial"",""time""
""blur"",""1"",""6630""
""blur"",""1"",""13806""
","""event"",""trial"",""time""
""focus"",""1"",""12765""
""focus"",""1"",""32320""
","""event"",""trial"",""time""
""fullscreenenter"",""5"",""43715""
","
","324.89999997615814","","48","","","3000","1","568,809,1122.8999999761581,1373.8999999761581,2213.600000023842","48,48,48,48,48","images/earth.jpg","images/tutrocket1","images/tutrocket2","null","images/tutrocket1","","1","practice","null","2","","",""
"d3-animate-choice","95","211458","0.0-61.0-1.11","3932","7269","25","Male","true","true","true","false","""event"",""trial"",""time""
""blur"",""1"",""6630""
""focus"",""1"",""12765""
""blur"",""1"",""13806""
""focus"",""1"",""32320""
""fullscreenenter"",""5"",""43715""
","""event"",""trial"",""time""
""blur"",""1"",""6630""
""blur"",""1"",""13806""
","""event"",""trial"",""time""
""focus"",""1"",""12765""
""focus"",""1"",""32320""
","""event"",""trial"",""time""
""fullscreenenter"",""5"",""43715""
","
","131.5","","48","","","3000","1","349.59999990463257","48","images/tutgreenplanet.jpg","images/tutalien2","images/tutalien1","images/tutrocket1","images/tutalien2","images/t.png","2","practice","true","2","common","1","2023-03-04 13:47:47.507"
"two-step-fixation","96","212462","0.0-61.0-2.11","3932","7269","25","Male","true","true","true","false","""event"",""trial"",""time""
""blur"",""1"",""6630""
""focus"",""1"",""12765""
""blur"",""1"",""13806""
""focus"",""1"",""32320""
""fullscreenenter"",""5"",""43715""
","""event"",""trial"",""time""
""blur"",""1"",""6630""
""blur"",""1"",""13806""
","""event"",""trial"",""time""
""focus"",""1"",""12765""
""focus"",""1"",""32320""
","""event"",""trial"",""time""
""fullscreenenter"",""5"",""43715""
","
","","images/earth.jpg","","","","","","","","","","","","","","fixation","","","","","",""
"d3-animate-choice","97","215104","0.0-61.0-0.12","3932","7269","25","Male","true","true","true","false","""event"",""trial"",""time""
""blur"",""1"",""6630""
""focus"",""1"",""12765""
""blur"",""1"",""13806""
""focus"",""1"",""32320""
""fullscreenenter"",""5"",""43715""
","""event"",""trial"",""time""
""blur"",""1"",""6630""
""blur"",""1"",""13806""
","""event"",""trial"",""time""
""focus"",""1"",""12765""
""focus"",""1"",""32320""
","""event"",""trial"",""time""
""fullscreenenter"",""5"",""43715""
","
","633.7000000476837","","48","","","3000","1","","","images/earth.jpg","images/tutrocket1","images/tutrocket2","null","images/tutrocket1","","1","practice","null","2","","",""
"d3-animate-choice","98","218618","0.0-61.0-1.12","3932","7269","25","Male","true","true","true","false","""event"",""trial"",""time""
""blur"",""1"",""6630""
""focus"",""1"",""12765""
""blur"",""1"",""13806""
""focus"",""1"",""32320""
""fullscreenenter"",""5"",""43715""
","""event"",""trial"",""time""
""blur"",""1"",""6630""
""blur"",""1"",""13806""
","""event"",""trial"",""time""
""focus"",""1"",""12765""
""focus"",""1"",""32320""
","""event"",""trial"",""time""
""fullscreenenter"",""5"",""43715""
","
","1503.8999999761581","","48","","","3000","1","","","images/tutgreenplanet.jpg","images/tutalien2","images/tutalien1","images/tutrocket1","images/tutalien2","images/nothing.png","2","practice","true","2","common","0","2023-03-04 13:47:54.667"
"two-step-fixation","99","219626","0.0-61.0-2.12","3932","7269","25","Male","true","true","true","false","""event"",""trial"",""time""
""blur"",""1"",""6630""
""focus"",""1"",""12765""
""blur"",""1"",""13806""
""focus"",""1"",""32320""
""fullscreenenter"",""5"",""43715""
","""event"",""trial"",""time""
""blur"",""1"",""6630""
""blur"",""1"",""13806""
","""event"",""trial"",""time""
""focus"",""1"",""12765""
""focus"",""1"",""32320""
","""event"",""trial"",""time""
""fullscreenenter"",""5"",""43715""
","
","","images/earth.jpg","","","","","","","","","","","","","","fixation","","","","","",""
"d3-animate-choice","100","223568","0.0-61.0-0.13","3932","7269","25","Male","true","true","true","false","""event"",""trial"",""time""
""blur"",""1"",""6630""
""focus"",""1"",""12765""
""blur"",""1"",""13806""
""focus"",""1"",""32320""
""fullscreenenter"",""5"",""43715""
","""event"",""trial"",""time""
""blur"",""1"",""6630""
""blur"",""1"",""13806""
","""event"",""trial"",""time""
""focus"",""1"",""12765""
""focus"",""1"",""32320""
","""event"",""trial"",""time""
""fullscreenenter"",""5"",""43715""
","
","1931.7000000476837","","48","","","3000","1","","","images/earth.jpg","images/tutrocket1","images/tutrocket2","null","images/tutrocket1","","1","practice","null","2","","",""
"d3-animate-choice","101","226282","0.0-61.0-1.13","3932","7269","25","Male","true","true","true","false","""event"",""trial"",""time""
""blur"",""1"",""6630""
""focus"",""1"",""12765""
""blur"",""1"",""13806""
""focus"",""1"",""32320""
""fullscreenenter"",""5"",""43715""
","""event"",""trial"",""time""
""blur"",""1"",""6630""
""blur"",""1"",""13806""
","""event"",""trial"",""time""
""focus"",""1"",""12765""
""focus"",""1"",""32320""
","""event"",""trial"",""time""
""fullscreenenter"",""5"",""43715""
","
","706.3999999761581","","48","","","3000","1","2213.2000000476837","48","images/tutgreenplanet.jpg","images/tutalien2","images/tutalien1","images/tutrocket1","images/tutalien2","images/nothing.png","2","practice","true","2","common","0","2023-03-04 13:48:02.331"
"two-step-fixation","102","227289","0.0-61.0-2.13","3932","7269","25","Male","true","true","true","false","""event"",""trial"",""time""
""blur"",""1"",""6630""
""focus"",""1"",""12765""
""blur"",""1"",""13806""
""focus"",""1"",""32320""
""fullscreenenter"",""5"",""43715""
","""event"",""trial"",""time""
""blur"",""1"",""6630""
""blur"",""1"",""13806""
","""event"",""trial"",""time""
""focus"",""1"",""12765""
""focus"",""1"",""32320""
","""event"",""trial"",""time""
""fullscreenenter"",""5"",""43715""
","
","","images/earth.jpg","","","","","","","","","","","","","","fixation","","","","","",""
"d3-animate-choice","103","229849","0.0-61.0-0.14","3932","7269","25","Male","true","true","true","false","""event"",""trial"",""time""
""blur"",""1"",""6630""
""focus"",""1"",""12765""
""blur"",""1"",""13806""
""focus"",""1"",""32320""
""fullscreenenter"",""5"",""43715""
","""event"",""trial"",""time""
""blur"",""1"",""6630""
""blur"",""1"",""13806""
","""event"",""trial"",""time""
""focus"",""1"",""12765""
""focus"",""1"",""32320""
","""event"",""trial"",""time""
""fullscreenenter"",""5"",""43715""
","
","552.1000000238419","","48","","","3000","1","","","images/earth.jpg","images/tutrocket1","images/tutrocket2","null","images/tutrocket1","","1","practice","null","2","","",""
"d3-animate-choice","104","232328","0.0-61.0-1.14","3932","7269","25","Male","true","true","true","false","""event"",""trial"",""time""
""blur"",""1"",""6630""
""focus"",""1"",""12765""
""blur"",""1"",""13806""
""focus"",""1"",""32320""
""fullscreenenter"",""5"",""43715""
","""event"",""trial"",""time""
""blur"",""1"",""6630""
""blur"",""1"",""13806""
","""event"",""trial"",""time""
""focus"",""1"",""12765""
""focus"",""1"",""32320""
","""event"",""trial"",""time""
""fullscreenenter"",""5"",""43715""
","
","470.60000002384186","","48","","","3000","1","","","images/tutyellowplanet.jpg","images/tutalien4","images/tutalien3","images/tutrocket1","images/tutalien4","images/nothing.png","2","practice","false","2","rare","0","2023-03-04 13:48:08.377"
"two-step-fixation","105","233338","0.0-61.0-2.14","3932","7269","25","Male","true","true","true","false","""event"",""trial"",""time""
""blur"",""1"",""6630""
""focus"",""1"",""12765""
""blur"",""1"",""13806""
""focus"",""1"",""32320""
""fullscreenenter"",""5"",""43715""
","""event"",""trial"",""time""
""blur"",""1"",""6630""
""blur"",""1"",""13806""
","""event"",""trial"",""time""
""focus"",""1"",""12765""
""focus"",""1"",""32320""
","""event"",""trial"",""time""
""fullscreenenter"",""5"",""43715""
","
","","images/earth.jpg","","","","","","","","","","","","","","fixation","","","","","",""
"d3-animate-choice","106","235961","0.0-61.0-0.15","3932","7269","25","Male","true","true","true","false","""event"",""trial"",""time""
""blur"",""1"",""6630""
""focus"",""1"",""12765""
""blur"",""1"",""13806""
""focus"",""1"",""32320""
""fullscreenenter"",""5"",""43715""
","""event"",""trial"",""time""
""blur"",""1"",""6630""
""blur"",""1"",""13806""
","""event"",""trial"",""time""
""focus"",""1"",""12765""
""focus"",""1"",""32320""
","""event"",""trial"",""time""
""fullscreenenter"",""5"",""43715""
","
","611.0999999046326","","48","","","3000","1","856.6999999284744,1207.2999999523163,1953,2167.5","48,48,48,48","images/earth.jpg","images/tutrocket1","images/tutrocket2","null","images/tutrocket1","","1","practice","null","2","","",""
"d3-animate-choice","107","238040","0.0-61.0-1.15","3932","7269","25","Male","true","true","true","false","""event"",""trial"",""time""
""blur"",""1"",""6630""
""focus"",""1"",""12765""
""blur"",""1"",""13806""
""focus"",""1"",""32320""
""fullscreenenter"",""5"",""43715""
","""event"",""trial"",""time""
""blur"",""1"",""6630""
""blur"",""1"",""13806""
","""event"",""trial"",""time""
""focus"",""1"",""12765""
""focus"",""1"",""32320""
","""event"",""trial"",""time""
""fullscreenenter"",""5"",""43715""
","
","69.89999997615814","","48","","","3000","1","302,1127.3000000715256,2027.3000000715256","48,48,48","images/tutyellowplanet.jpg","images/tutalien4","images/tutalien3","images/tutrocket1","images/tutalien4","images/nothing.png","2","practice","false","2","rare","0","2023-03-04 13:48:14.089"
"two-step-fixation","108","239047","0.0-61.0-2.15","3932","7269","25","Male","true","true","true","false","""event"",""trial"",""time""
""blur"",""1"",""6630""
""focus"",""1"",""12765""
""blur"",""1"",""13806""
""focus"",""1"",""32320""
""fullscreenenter"",""5"",""43715""
","""event"",""trial"",""time""
""blur"",""1"",""6630""
""blur"",""1"",""13806""
","""event"",""trial"",""time""
""focus"",""1"",""12765""
""focus"",""1"",""32320""
","""event"",""trial"",""time""
""fullscreenenter"",""5"",""43715""
","
","","images/earth.jpg","","","","","","","","","","","","","","fixation","","","","","",""
"d3-animate-choice","109","242255","0.0-61.0-0.16","3932","7269","25","Male","true","true","true","false","""event"",""trial"",""time""
""blur"",""1"",""6630""
""focus"",""1"",""12765""
""blur"",""1"",""13806""
""focus"",""1"",""32320""
""fullscreenenter"",""5"",""43715""
","""event"",""trial"",""time""
""blur"",""1"",""6630""
""blur"",""1"",""13806""
","""event"",""trial"",""time""
""focus"",""1"",""12765""
""focus"",""1"",""32320""
","""event"",""trial"",""time""
""fullscreenenter"",""5"",""43715""
","
","1199.1000000238419","","48","","","3000","1","1422.8000000715256,2705,2935.7000000476837","48,48,48","images/earth.jpg","images/tutrocket1","images/tutrocket2","null","images/tutrocket1","","1","practice","null","2","","",""
"d3-animate-choice","110","246270","0.0-61.0-1.16","3932","7269","25","Male","true","true","true","false","""event"",""trial"",""time""
""blur"",""1"",""6630""
""focus"",""1"",""12765""
""blur"",""1"",""13806""
""focus"",""1"",""32320""
""fullscreenenter"",""5"",""43715""
","""event"",""trial"",""time""
""blur"",""1"",""6630""
""blur"",""1"",""13806""
","""event"",""trial"",""time""
""focus"",""1"",""12765""
""focus"",""1"",""32320""
","""event"",""trial"",""time""
""fullscreenenter"",""5"",""43715""
","
","3410.7999999523163","","48","","","3000","0","","","images/tutyellowplanet.jpg","images/tutalien4","images/tutalien3","images/tutrocket1","","","2","practice","false","2","rare","0","2023-03-04 13:48:22.319"
"two-step-fixation","111","247282","0.0-61.0-2.16","3932","7269","25","Male","true","true","true","false","""event"",""trial"",""time""
""blur"",""1"",""6630""
""focus"",""1"",""12765""
""blur"",""1"",""13806""
""focus"",""1"",""32320""
""fullscreenenter"",""5"",""43715""
","""event"",""trial"",""time""
""blur"",""1"",""6630""
""blur"",""1"",""13806""
","""event"",""trial"",""time""
""focus"",""1"",""12765""
""focus"",""1"",""32320""
","""event"",""trial"",""time""
""fullscreenenter"",""5"",""43715""
","
","","images/earth.jpg","","","","","","","","","","","","","","fixation","","","","","",""
"d3-animate-choice","112","249865","0.0-61.0-0.17","3932","7269","25","Male","true","true","true","false","""event"",""trial"",""time""
""blur"",""1"",""6630""
""focus"",""1"",""12765""
""blur"",""1"",""13806""
""focus"",""1"",""32320""
""fullscreenenter"",""5"",""43715""
","""event"",""trial"",""time""
""blur"",""1"",""6630""
""blur"",""1"",""13806""
","""event"",""trial"",""time""
""focus"",""1"",""12765""
""focus"",""1"",""32320""
","""event"",""trial"",""time""
""fullscreenenter"",""5"",""43715""
","
","570.6000000238419","","48","","","3000","1","","","images/earth.jpg","images/tutrocket1","images/tutrocket2","null","images/tutrocket1","","1","practice","null","2","","",""
"d3-animate-choice","113","253482","0.0-61.0-1.17","3932","7269","25","Male","true","true","true","false","""event"",""trial"",""time""
""blur"",""1"",""6630""
""focus"",""1"",""12765""
""blur"",""1"",""13806""
""focus"",""1"",""32320""
""fullscreenenter"",""5"",""43715""
","""event"",""trial"",""time""
""blur"",""1"",""6630""
""blur"",""1"",""13806""
","""event"",""trial"",""time""
""focus"",""1"",""12765""
""focus"",""1"",""32320""
","""event"",""trial"",""time""
""fullscreenenter"",""5"",""43715""
","
","1604.6000000238419","","48","","","3000","1","1804.7000000476837","48","images/tutgreenplanet.jpg","images/tutalien2","images/tutalien1","images/tutrocket1","images/tutalien2","images/t.png","2","practice","true","2","common","1","2023-03-04 13:48:29.531"
"two-step-fixation","114","254488","0.0-61.0-2.17","3932","7269","25","Male","true","true","true","false","""event"",""trial"",""time""
""blur"",""1"",""6630""
""focus"",""1"",""12765""
""blur"",""1"",""13806""
""focus"",""1"",""32320""
""fullscreenenter"",""5"",""43715""
","""event"",""trial"",""time""
""blur"",""1"",""6630""
""blur"",""1"",""13806""
","""event"",""trial"",""time""
""focus"",""1"",""12765""
""focus"",""1"",""32320""
","""event"",""trial"",""time""
""fullscreenenter"",""5"",""43715""
","
","","images/earth.jpg","","","","","","","","","","","","","","fixation","","","","","",""
"d3-animate-choice","115","256570","0.0-61.0-0.18","3932","7269","25","Male","true","true","true","false","""event"",""trial"",""time""
""blur"",""1"",""6630""
""focus"",""1"",""12765""
""blur"",""1"",""13806""
""focus"",""1"",""32320""
""fullscreenenter"",""5"",""43715""
","""event"",""trial"",""time""
""blur"",""1"",""6630""
""blur"",""1"",""13806""
","""event"",""trial"",""time""
""focus"",""1"",""12765""
""focus"",""1"",""32320""
","""event"",""trial"",""time""
""fullscreenenter"",""5"",""43715""
","
","69.59999990463257","","48","","","3000","1","259.1999999284744,455.2999999523163,636.6999999284744","48,48,48","images/earth.jpg","images/tutrocket1","images/tutrocket2","null","images/tutrocket1","","1","practice","null","2","","",""
"d3-animate-choice","116","259368","0.0-61.0-1.18","3932","7269","25","Male","true","true","true","false","""event"",""trial"",""time""
""blur"",""1"",""6630""
""focus"",""1"",""12765""
""blur"",""1"",""13806""
""focus"",""1"",""32320""
""fullscreenenter"",""5"",""43715""
","""event"",""trial"",""time""
""blur"",""1"",""6630""
""blur"",""1"",""13806""
","""event"",""trial"",""time""
""focus"",""1"",""12765""
""focus"",""1"",""32320""
","""event"",""trial"",""time""
""fullscreenenter"",""5"",""43715""
","
","778.1999999284744","","48","","","3000","1","","","images/tutyellowplanet.jpg","images/tutalien4","images/tutalien3","images/tutrocket1","images/tutalien4","images/nothing.png","2","practice","false","2","rare","0","2023-03-04 13:48:35.417"
"two-step-fixation","117","260378","0.0-61.0-2.18","3932","7269","25","Male","true","true","true","false","""event"",""trial"",""time""
""blur"",""1"",""6630""
""focus"",""1"",""12765""
""blur"",""1"",""13806""
""focus"",""1"",""32320""
""fullscreenenter"",""5"",""43715""
","""event"",""trial"",""time""
""blur"",""1"",""6630""
""blur"",""1"",""13806""
","""event"",""trial"",""time""
""focus"",""1"",""12765""
""focus"",""1"",""32320""
","""event"",""trial"",""time""
""fullscreenenter"",""5"",""43715""
","
","","images/earth.jpg","","","","","","","","","","","","","","fixation","","","","","",""
"d3-animate-choice","118","263194","0.0-61.0-0.19","3932","7269","25","Male","true","true","true","false","""event"",""trial"",""time""
""blur"",""1"",""6630""
""focus"",""1"",""12765""
""blur"",""1"",""13806""
""focus"",""1"",""32320""
""fullscreenenter"",""5"",""43715""
","""event"",""trial"",""time""
""blur"",""1"",""6630""
""blur"",""1"",""13806""
","""event"",""trial"",""time""
""focus"",""1"",""12765""
""focus"",""1"",""32320""
","""event"",""trial"",""time""
""fullscreenenter"",""5"",""43715""
","
","801.8999999761581","","48","","","3000","1","2204.100000023842","48","images/earth.jpg","images/tutrocket1","images/tutrocket2","null","images/tutrocket1","","1","practice","null","2","","",""
"d3-animate-choice","119","267211","0.0-61.0-1.19","3932","7269","25","Male","true","true","true","false","""event"",""trial"",""time""
""blur"",""1"",""6630""
""focus"",""1"",""12765""
""blur"",""1"",""13806""
""focus"",""1"",""32320""
""fullscreenenter"",""5"",""43715""
","""event"",""trial"",""time""
""blur"",""1"",""6630""
""blur"",""1"",""13806""
","""event"",""trial"",""time""
""focus"",""1"",""12765""
""focus"",""1"",""32320""
","""event"",""trial"",""time""
""fullscreenenter"",""5"",""43715""
","
","2443.899999976158","","48","","","3000","1","","","images/tutgreenplanet.jpg","images/tutalien2","images/tutalien1","images/tutrocket1","images/tutalien2","images/t.png","2","practice","true","2","common","1","2023-03-04 13:48:43.260"
"two-step-fixation","120","268218","0.0-61.0-2.19","3932","7269","25","Male","true","true","true","false","""event"",""trial"",""time""
""blur"",""1"",""6630""
""focus"",""1"",""12765""
""blur"",""1"",""13806""
""focus"",""1"",""32320""
""fullscreenenter"",""5"",""43715""
","""event"",""trial"",""time""
""blur"",""1"",""6630""
""blur"",""1"",""13806""
","""event"",""trial"",""time""
""focus"",""1"",""12765""
""focus"",""1"",""32320""
","""event"",""trial"",""time""
""fullscreenenter"",""5"",""43715""
","
","","images/earth.jpg","","","","","","","","","","","","","","fixation","","","","","",""
"d3-instructions","121","271507","0.0-62.0","3932","7269","25","Male","true","true","true","false","""event"",""trial"",""time""
""blur"",""1"",""6630""
""focus"",""1"",""12765""
""blur"",""1"",""13806""
""focus"",""1"",""32320""
""fullscreenenter"",""5"",""43715""
","""event"",""trial"",""time""
""blur"",""1"",""6630""
""blur"",""1"",""13806""
","""event"",""trial"",""time""
""focus"",""1"",""12765""
""focus"",""1"",""32320""
","""event"",""trial"",""time""
""fullscreenenter"",""5"",""43715""
","
","","","","","","","","","","","","","","","","","","","","","",""
"audio-keyboard-response","122","274383","0.0-63.0","3932","7269","25","Male","true","true","true","false","""event"",""trial"",""time""
""blur"",""1"",""6630""
""focus"",""1"",""12765""
""blur"",""1"",""13806""
""focus"",""1"",""32320""
""fullscreenenter"",""5"",""43715""
","""event"",""trial"",""time""
""blur"",""1"",""6630""
""blur"",""1"",""13806""
","""event"",""trial"",""time""
""focus"",""1"",""12765""
""focus"",""1"",""32320""
","""event"",""trial"",""time""
""fullscreenenter"",""5"",""43715""
","
","2873","audio/instructions/treasure_feedback.wav","32","","","","","","","","","","","","","","","","","","",""
"d3-instructions","123","275219","0.0-64.0","3932","7269","25","Male","true","true","true","false","""event"",""trial"",""time""
""blur"",""1"",""6630""
""focus"",""1"",""12765""
""blur"",""1"",""13806""
""focus"",""1"",""32320""
""fullscreenenter"",""5"",""43715""
","""event"",""trial"",""time""
""blur"",""1"",""6630""
""blur"",""1"",""13806""
","""event"",""trial"",""time""
""focus"",""1"",""12765""
""focus"",""1"",""32320""
","""event"",""trial"",""time""
""fullscreenenter"",""5"",""43715""
","
","","","","","","","","","","","","","","","","","","","","","",""
"d3-instructions","124","276150","0.0-65.0","3932","7269","25","Male","true","true","true","false","""event"",""trial"",""time""
""blur"",""1"",""6630""
""focus"",""1"",""12765""
""blur"",""1"",""13806""
""focus"",""1"",""32320""
""fullscreenenter"",""5"",""43715""
","""event"",""trial"",""time""
""blur"",""1"",""6630""
""blur"",""1"",""13806""
","""event"",""trial"",""time""
""focus"",""1"",""12765""
""focus"",""1"",""32320""
","""event"",""trial"",""time""
""fullscreenenter"",""5"",""43715""
","
","","","","","","","","","","","","","","","","","","","","","",""
"d3-instructions","125","277186","0.0-66.0","3932","7269","25","Male","true","true","true","false","""event"",""trial"",""time""
""blur"",""1"",""6630""
""focus"",""1"",""12765""
""blur"",""1"",""13806""
""focus"",""1"",""32320""
""fullscreenenter"",""5"",""43715""
","""event"",""trial"",""time""
""blur"",""1"",""6630""
""blur"",""1"",""13806""
","""event"",""trial"",""time""
""focus"",""1"",""12765""
""focus"",""1"",""32320""
","""event"",""trial"",""time""
""fullscreenenter"",""5"",""43715""
","
","","","","","","","","","","","","","","","","","","","","","",""
"d3-instructions","126","279331","0.0-67.0","3932","7269","25","Male","true","true","true","false","""event"",""trial"",""time""
""blur"",""1"",""6630""
""focus"",""1"",""12765""
""blur"",""1"",""13806""
""focus"",""1"",""32320""
""fullscreenenter"",""5"",""43715""
","""event"",""trial"",""time""
""blur"",""1"",""6630""
""blur"",""1"",""13806""
","""event"",""trial"",""time""
""focus"",""1"",""12765""
""focus"",""1"",""32320""
","""event"",""trial"",""time""
""fullscreenenter"",""5"",""43715""
","
","","","","","","","","","","","","","","","","","","","","","",""
"d3-instructions","127","280205","0.0-68.0","3932","7269","25","Male","true","true","true","false","""event"",""trial"",""time""
""blur"",""1"",""6630""
""focus"",""1"",""12765""
""blur"",""1"",""13806""
""focus"",""1"",""32320""
""fullscreenenter"",""5"",""43715""
","""event"",""trial"",""time""
""blur"",""1"",""6630""
""blur"",""1"",""13806""
","""event"",""trial"",""time""
""focus"",""1"",""12765""
""focus"",""1"",""32320""
","""event"",""trial"",""time""
""fullscreenenter"",""5"",""43715""
","
","","","","","","","","","","","","","","","","","","","","","",""
"instructions-quiz","128","284413","0.0-69.0","3932","7269","25","Male","true","true","true","false","""event"",""trial"",""time""
""blur"",""1"",""6630""
""focus"",""1"",""12765""
""blur"",""1"",""13806""
""focus"",""1"",""32320""
""fullscreenenter"",""5"",""43715""
","""event"",""trial"",""time""
""blur"",""1"",""6630""
""blur"",""1"",""13806""
","""event"",""trial"",""time""
""focus"",""1"",""12765""
""focus"",""1"",""32320""
","""event"",""trial"",""time""
""fullscreenenter"",""5"",""43715""
","
","4206.200000047684","audio/quiz/Q1_Prompt.wav","","1","","","","","","","","","","","","","","","","","",""
"audio-keyboard-response","129","285151","0.0-70.0","3932","7269","25","Male","true","true","true","false","""event"",""trial"",""time""
""blur"",""1"",""6630""
""focus"",""1"",""12765""
""blur"",""1"",""13806""
""focus"",""1"",""32320""
""fullscreenenter"",""5"",""43715""
","""event"",""trial"",""time""
""blur"",""1"",""6630""
""blur"",""1"",""13806""
","""event"",""trial"",""time""
""focus"",""1"",""12765""
""focus"",""1"",""32320""
","""event"",""trial"",""time""
""fullscreenenter"",""5"",""43715""
","
","731","audio/quiz/Q1_Correct.wav","32","","","","","","","","","","","","","","","","","","",""
"instructions-quiz","130","291221","0.0-71.0","3932","7269","25","Male","true","true","true","false","""event"",""trial"",""time""
""blur"",""1"",""6630""
""focus"",""1"",""12765""
""blur"",""1"",""13806""
""focus"",""1"",""32320""
""fullscreenenter"",""5"",""43715""
","""event"",""trial"",""time""
""blur"",""1"",""6630""
""blur"",""1"",""13806""
","""event"",""trial"",""time""
""focus"",""1"",""12765""
""focus"",""1"",""32320""
","""event"",""trial"",""time""
""fullscreenenter"",""5"",""43715""
","
","6068.600000023842","audio/quiz/Q2_Prompt.wav","","0","","","","","","","","","","","","","","","","","",""
"audio-keyboard-response","131","291579","0.0-72.0","3932","7269","25","Male","true","true","true","false","""event"",""trial"",""time""
""blur"",""1"",""6630""
""focus"",""1"",""12765""
""blur"",""1"",""13806""
""focus"",""1"",""32320""
""fullscreenenter"",""5"",""43715""
","""event"",""trial"",""time""
""blur"",""1"",""6630""
""blur"",""1"",""13806""
","""event"",""trial"",""time""
""focus"",""1"",""12765""
""focus"",""1"",""32320""
","""event"",""trial"",""time""
""fullscreenenter"",""5"",""43715""
","
","360","audio/quiz/Q2_Correct.wav","32","","","","","","","","","","","","","","","","","","",""
"instructions-quiz","132","293912","0.0-73.0","3932","7269","25","Male","true","true","true","false","""event"",""trial"",""time""
""blur"",""1"",""6630""
""focus"",""1"",""12765""
""blur"",""1"",""13806""
""focus"",""1"",""32320""
""fullscreenenter"",""5"",""43715""
","""event"",""trial"",""time""
""blur"",""1"",""6630""
""blur"",""1"",""13806""
","""event"",""trial"",""time""
""focus"",""1"",""12765""
""focus"",""1"",""32320""
","""event"",""trial"",""time""
""fullscreenenter"",""5"",""43715""
","
","2331.6999999284744","audio/quiz/Q3_Prompt.wav","","1","","","","","","","","","","","","","","","","","",""
"audio-keyboard-response","133","294458","0.0-74.0","3932","7269","25","Male","true","true","true","false","""event"",""trial"",""time""
""blur"",""1"",""6630""
""focus"",""1"",""12765""
""blur"",""1"",""13806""
""focus"",""1"",""32320""
""fullscreenenter"",""5"",""43715""
","""event"",""trial"",""time""
""blur"",""1"",""6630""
""blur"",""1"",""13806""
","""event"",""trial"",""time""
""focus"",""1"",""12765""
""focus"",""1"",""32320""
","""event"",""trial"",""time""
""fullscreenenter"",""5"",""43715""
","
","546","audio/quiz/Q3_Correct.wav","32","","","","","","","","","","","","","","","","","","",""
"d3-instructions","134","296122","0.0-75.0","3932","7269","25","Male","true","true","true","false","""event"",""trial"",""time""
""blur"",""1"",""6630""
""focus"",""1"",""12765""
""blur"",""1"",""13806""
""focus"",""1"",""32320""
""fullscreenenter"",""5"",""43715""
","""event"",""trial"",""time""
""blur"",""1"",""6630""
""blur"",""1"",""13806""
","""event"",""trial"",""time""
""focus"",""1"",""12765""
""focus"",""1"",""32320""
","""event"",""trial"",""time""
""fullscreenenter"",""5"",""43715""
","
","","","","","","","","","","","","","","","","","","","","","",""
"pavlovia","135","296123","0.0-76.0","3932","7269","25","Male","true","true","true","false","""event"",""trial"",""time""
""blur"",""1"",""6630""
""focus"",""1"",""12765""
""blur"",""1"",""13806""
""focus"",""1"",""32320""
""fullscreenenter"",""5"",""43715""
","""event"",""trial"",""time""
""blur"",""1"",""6630""
""blur"",""1"",""13806""
","""event"",""trial"",""time""
""focus"",""1"",""12765""
""focus"",""1"",""32320""
","""event"",""trial"",""time""
""fullscreenenter"",""5"",""43715""
","
","","","","","","","","","","","","","","","","","","","","","",""
"d3-animate-choice","136","300128","0.0-77.0-0.0","3932","7269","25","Male","true","true","true","false","""event"",""trial"",""time""
""blur"",""1"",""6630""
""focus"",""1"",""12765""
""blur"",""1"",""13806""
""focus"",""1"",""32320""
""fullscreenenter"",""5"",""43715""
","""event"",""trial"",""time""
""blur"",""1"",""6630""
""blur"",""1"",""13806""
","""event"",""trial"",""time""
""focus"",""1"",""12765""
""focus"",""1"",""32320""
","""event"",""trial"",""time""
""fullscreenenter"",""5"",""43715""
","
","2346.899999976158","","48","","","3000","1","","","images/earth.jpg","images/rocket2","images/rocket1","null","images/rocket2","","1","real","null","2","","",""
"d3-animate-choice","137","302284","0.0-77.0-1.0","3932","7269","25","Male","true","true","true","false","""event"",""trial"",""time""
""blur"",""1"",""6630""
""focus"",""1"",""12765""
""blur"",""1"",""13806""
""focus"",""1"",""32320""
""fullscreenenter"",""5"",""43715""
","""event"",""trial"",""time""
""blur"",""1"",""6630""
""blur"",""1"",""13806""
","""event"",""trial"",""time""
""focus"",""1"",""12765""
""focus"",""1"",""32320""
","""event"",""trial"",""time""
""fullscreenenter"",""5"",""43715""
","
","145.5","","48","","","3000","1","","","images/purpleplanet.jpg","images/alien4","images/alien3","images/rocket2","images/alien4","images/t.png","2","real","true","2","common","1","2023-03-04 13:49:18.333"
"two-step-fixation","138","303292","0.0-77.0-2.0","3932","7269","25","Male","true","true","true","false","""event"",""trial"",""time""
""blur"",""1"",""6630""
""focus"",""1"",""12765""
""blur"",""1"",""13806""
""focus"",""1"",""32320""
""fullscreenenter"",""5"",""43715""
","""event"",""trial"",""time""
""blur"",""1"",""6630""
""blur"",""1"",""13806""
","""event"",""trial"",""time""
""focus"",""1"",""12765""
""focus"",""1"",""32320""
","""event"",""trial"",""time""
""fullscreenenter"",""5"",""43715""
","
","","images/earth.jpg","","","","","","","","","","","","","","fixation","","","","","",""
"d3-animate-choice","139","306347","0.0-77.0-0.1","3932","7269","25","Male","true","true","true","false","""event"",""trial"",""time""
""blur"",""1"",""6630""
""focus"",""1"",""12765""
""blur"",""1"",""13806""
""focus"",""1"",""32320""
""fullscreenenter"",""5"",""43715""
","""event"",""trial"",""time""
""blur"",""1"",""6630""
""blur"",""1"",""13806""
","""event"",""trial"",""time""
""focus"",""1"",""12765""
""focus"",""1"",""32320""
","""event"",""trial"",""time""
""fullscreenenter"",""5"",""43715""
","
","1047.5","","48","","","3000","1","","","images/earth.jpg","images/rocket2","images/rocket1","null","images/rocket2","","1","real","null","2","","",""
"d3-animate-choice","140","310353","0.0-77.0-1.1","3932","7269","25","Male","true","true","true","false","""event"",""trial"",""time""
""blur"",""1"",""6630""
""focus"",""1"",""12765""
""blur"",""1"",""13806""
""focus"",""1"",""32320""
""fullscreenenter"",""5"",""43715""
","""event"",""trial"",""time""
""blur"",""1"",""6630""
""blur"",""1"",""13806""
","""event"",""trial"",""time""
""focus"",""1"",""12765""
""focus"",""1"",""32320""
","""event"",""trial"",""time""
""fullscreenenter"",""5"",""43715""
","
","2622.600000023842","","48","","","3000","1","","","images/redplanet1.jpg","images/alien2","images/alien1","images/rocket2","images/alien2","images/nothing.png","2","real","false","2","rare","0","2023-03-04 13:49:26.402"
"two-step-fixation","141","311363","0.0-77.0-2.1","3932","7269","25","Male","true","true","true","false","""event"",""trial"",""time""
""blur"",""1"",""6630""
""focus"",""1"",""12765""
""blur"",""1"",""13806""
""focus"",""1"",""32320""
""fullscreenenter"",""5"",""43715""
","""event"",""trial"",""time""
""blur"",""1"",""6630""
""blur"",""1"",""13806""
","""event"",""trial"",""time""
""focus"",""1"",""12765""
""focus"",""1"",""32320""
","""event"",""trial"",""time""
""fullscreenenter"",""5"",""43715""
","
","","images/earth.jpg","","","","","","","","","","","","","","fixation","","","","","",""
"d3-animate-choice","142","313849","0.0-77.0-0.2","3932","7269","25","Male","true","true","true","false","""event"",""trial"",""time""
""blur"",""1"",""6630""
""focus"",""1"",""12765""
""blur"",""1"",""13806""
""focus"",""1"",""32320""
""fullscreenenter"",""5"",""43715""
","""event"",""trial"",""time""
""blur"",""1"",""6630""
""blur"",""1"",""13806""
","""event"",""trial"",""time""
""focus"",""1"",""12765""
""focus"",""1"",""32320""
","""event"",""trial"",""time""
""fullscreenenter"",""5"",""43715""
","
","476.7999999523163","","48","","","3000","1","","","images/earth.jpg","images/rocket2","images/rocket1","null","images/rocket2","","1","real","null","2","","",""
"d3-animate-choice","143","316541","0.0-77.0-1.2","3932","7269","25","Male","true","true","true","false","""event"",""trial"",""time""
""blur"",""1"",""6630""
""focus"",""1"",""12765""
""blur"",""1"",""13806""
""focus"",""1"",""32320""
""fullscreenenter"",""5"",""43715""
","""event"",""trial"",""time""
""blur"",""1"",""6630""
""blur"",""1"",""13806""
","""event"",""trial"",""time""
""focus"",""1"",""12765""
""focus"",""1"",""32320""
","""event"",""trial"",""time""
""fullscreenenter"",""5"",""43715""
","
","683.3999999761581","","48","","","3000","1","","","images/purpleplanet.jpg","images/alien4","images/alien3","images/rocket2","images/alien4","images/t.png","2","real","true","2","common","1","2023-03-04 13:49:32.590"
"two-step-fixation","144","317545","0.0-77.0-2.2","3932","7269","25","Male","true","true","true","false","""event"",""trial"",""time""
""blur"",""1"",""6630""
""focus"",""1"",""12765""
""blur"",""1"",""13806""
""focus"",""1"",""32320""
""fullscreenenter"",""5"",""43715""
","""event"",""trial"",""time""
""blur"",""1"",""6630""
""blur"",""1"",""13806""
","""event"",""trial"",""time""
""focus"",""1"",""12765""
""focus"",""1"",""32320""
","""event"",""trial"",""time""
""fullscreenenter"",""5"",""43715""
","
","","images/earth.jpg","","","","","","","","","","","","","","fixation","","","","","",""
"d3-animate-choice","145","320026","0.0-77.0-0.3","3932","7269","25","Male","true","true","true","false","""event"",""trial"",""time""
""blur"",""1"",""6630""
""focus"",""1"",""12765""
""blur"",""1"",""13806""
""focus"",""1"",""32320""
""fullscreenenter"",""5"",""43715""
","""event"",""trial"",""time""
""blur"",""1"",""6630""
""blur"",""1"",""13806""
","""event"",""trial"",""time""
""focus"",""1"",""12765""
""focus"",""1"",""32320""
","""event"",""trial"",""time""
""fullscreenenter"",""5"",""43715""
","
","473","","48","","","3000","1","","","images/earth.jpg","images/rocket2","images/rocket1","null","images/rocket2","","1","real","null","2","","",""
"d3-animate-choice","146","322953","0.0-77.0-1.3","3932","7269","25","Male","true","true","true","false","""event"",""trial"",""time""
""blur"",""1"",""6630""
""focus"",""1"",""12765""
""blur"",""1"",""13806""
""focus"",""1"",""32320""
""fullscreenenter"",""5"",""43715""
","""event"",""trial"",""time""
""blur"",""1"",""6630""
""blur"",""1"",""13806""
","""event"",""trial"",""time""
""focus"",""1"",""12765""
""focus"",""1"",""32320""
","""event"",""trial"",""time""
""fullscreenenter"",""5"",""43715""
","
","923.1000000238419","","48","","","3000","1","1702.2000000476837,1893.8000000715256,2099.2000000476837,2296,2511.7000000476837,2712.600000023842","48,48,48,48,48,48","images/purpleplanet.jpg","images/alien4","images/alien3","images/rocket2","images/alien4","images/nothing.png","2","real","true","2","common","0","2023-03-04 13:49:39.002"
"two-step-fixation","147","323963","0.0-77.0-2.3","3932","7269","25","Male","true","true","true","false","""event"",""trial"",""time""
""blur"",""1"",""6630""
""focus"",""1"",""12765""
""blur"",""1"",""13806""
""focus"",""1"",""32320""
""fullscreenenter"",""5"",""43715""
","""event"",""trial"",""time""
""blur"",""1"",""6630""
""blur"",""1"",""13806""
","""event"",""trial"",""time""
