"trial_type","trial_index","time_elapsed","internal_node_id","participant_id","subject_id","age","gender","rocket_sides","red_planet_first_rocket","red_display_order","purple_display_order","interactions","blur_events","focus_events","fullscreenenter_events","fullscreenexit_events","rt","stimulus","key_press","button_pressed","success","duration","valid_pressed","rts","keys","planet_text","right_text","left_text","center_text","chosen_text","reward_text","trial_stage","practice_trial","transition_type","reward","timestamp","choice","transition"
"pavlovia","0","10","0.0-0.0","3633","6350","10","Female","false","true","true","true","
","
","
","
","
","","","","","","","","","","","","","","","","","","","","","",""
"html-keyboard-response","1","2538","0.0-1.0","3633","6350","10","Female","false","true","true","true","
","
","
","
","
","2525.100000023842","Welcome! Press the space bar to begin.","32","","","","","","","","","","","","","","","","","","",""
"audio-keyboard-response","2","8769","0.0-2.0","3633","6350","10","Female","false","true","true","true","
","
","
","
","
","4120","audio/beep_loop.wav","32","","","","","","","","","","","","","","","","","","",""
"audio-button-response","3","14011","0.0-3.0","3633","6350","10","Female","false","true","true","true","
","
","
","
","
","NaN","audio/fish.mp3","","1","","","","","","","","","","","","","","","","","",""
"audio-button-response","4","16274","0.0-4.0","3633","6350","10","Female","false","true","true","true","""event"",""trial"",""time""
""fullscreenenter"",""5"",""20869""
","
","
","""event"",""trial"",""time""
""fullscreenenter"",""5"",""20869""
","
","NaN","audio/tiger.mp3","","4","","","","","","","","","","","","","","","","","",""
"fullscreen","5","21503","0.0-5.0","3633","6350","10","Female","false","true","true","true","""event"",""trial"",""time""
""fullscreenenter"",""5"",""20869""
","
","
","""event"",""trial"",""time""
""fullscreenenter"",""5"",""20869""
","
","","","","","true","","","","","","","","","","","","","","","","",""
"d3-instructions","6","36889","0.0-6.0","3633","6350","10","Female","false","true","true","true","""event"",""trial"",""time""
""fullscreenenter"",""5"",""20869""
","
","
","""event"",""trial"",""time""
""fullscreenenter"",""5"",""20869""
","
","","","","","","","","","","","","","","","","","","","","","",""
"d3-instructions","7","50058","0.0-7.0","3633","6350","10","Female","false","true","true","true","""event"",""trial"",""time""
""fullscreenenter"",""5"",""20869""
","
","
","""event"",""trial"",""time""
""fullscreenenter"",""5"",""20869""
","
","","","","","","","","","","","","","","","","","","","","","",""
"d3-instructions","8","59690","0.0-8.0","3633","6350","10","Female","false","true","true","true","""event"",""trial"",""time""
""fullscreenenter"",""5"",""20869""
","
","
","""event"",""trial"",""time""
""fullscreenenter"",""5"",""20869""
","
","","","","","","","","","","","","","","","","","","","","","",""
"d3-instructions","9","71514","0.0-9.0","3633","6350","10","Female","false","true","true","true","""event"",""trial"",""time""
""fullscreenenter"",""5"",""20869""
","
","
","""event"",""trial"",""time""
""fullscreenenter"",""5"",""20869""
","
","","","","","","","","","","","","","","","","","","","","","",""
"d3-instructions","10","90412","0.0-10.0","3633","6350","10","Female","false","true","true","true","""event"",""trial"",""time""
""fullscreenenter"",""5"",""20869""
","
","
","""event"",""trial"",""time""
""fullscreenenter"",""5"",""20869""
","
","","","","","","","","","","","","","","","","","","","","","",""
"d3-animate-choice","11","94033","0.0-11.0","3633","6350","10","Female","false","true","true","true","""event"",""trial"",""time""
""fullscreenenter"",""5"",""20869""
","
","
","""event"",""trial"",""time""
""fullscreenenter"",""5"",""20869""
","
","1603","","49","","","3000","1","3410.2999999523163","48","images/tutgreenplanet.jpg","images/tutalien1","images/tutalien2","null","images/tutalien2","","NA","practice","null","","","",""
"d3-animate-choice","12","96494","0.0-12.0","3633","6350","10","Female","false","true","true","true","""event"",""trial"",""time""
""fullscreenenter"",""5"",""20869""
","
","
","""event"",""trial"",""time""
""fullscreenenter"",""5"",""20869""
","
","454.60000002384186","","48","","","3000","1","","","images/tutgreenplanet.jpg","images/tutalien1","images/tutalien2","null","images/tutalien1","","NA","practice","null","","","",""
"d3-animate-choice","13","99727","0.0-13.0","3633","6350","10","Female","false","true","true","true","""event"",""trial"",""time""
""fullscreenenter"",""5"",""20869""
","
","
","""event"",""trial"",""time""
""fullscreenenter"",""5"",""20869""
","
","1218.5","","48","","","3000","1","","","images/tutgreenplanet.jpg","images/tutalien1","images/tutalien2","null","images/tutalien1","","NA","practice","null","","","",""
"d3-animate-choice","14","102134","0.0-14.0","3633","6350","10","Female","false","true","true","true","""event"",""trial"",""time""
""fullscreenenter"",""5"",""20869""
","
","
","""event"",""trial"",""time""
""fullscreenenter"",""5"",""20869""
","
","392.60000002384186","","49","","","3000","1","","","images/tutgreenplanet.jpg","images/tutalien1","images/tutalien2","null","images/tutalien2","","NA","practice","null","","","",""
"d3-instructions","15","112115","0.0-15.0","3633","6350","10","Female","false","true","true","true","""event"",""trial"",""time""
""fullscreenenter"",""5"",""20869""
","
","
","""event"",""trial"",""time""
""fullscreenenter"",""5"",""20869""
","
","","","","","","","","","","","","","","","","","","","","","",""
"d3-instructions","16","119610","0.0-16.0","3633","6350","10","Female","false","true","true","true","""event"",""trial"",""time""
""fullscreenenter"",""5"",""20869""
","
","
","""event"",""trial"",""time""
""fullscreenenter"",""5"",""20869""
","
","","","","","","","","","","","","","","","","","","","","","",""
"d3-instructions","17","131572","0.0-17.0","3633","6350","10","Female","false","true","true","true","""event"",""trial"",""time""
""fullscreenenter"",""5"",""20869""
","
","
","""event"",""trial"",""time""
""fullscreenenter"",""5"",""20869""
","
","","","","","","","","","","","","","","","","","","","","","",""
"d3-instructions","18","144876","0.0-18.0","3633","6350","10","Female","false","true","true","true","""event"",""trial"",""time""
""fullscreenenter"",""5"",""20869""
","
","
","""event"",""trial"",""time""
""fullscreenenter"",""5"",""20869""
","
","","","","","","","","","","","","","","","","","","","","","",""
"d3-instructions","19","161941","0.0-19.0","3633","6350","10","Female","false","true","true","true","""event"",""trial"",""time""
""fullscreenenter"",""5"",""20869""
","
","
","""event"",""trial"",""time""
""fullscreenenter"",""5"",""20869""
","
","","","","","","","","","","","","","","","","","","","","","",""
"d3-animate-choice","20","164551","0.0-20.0","3633","6350","10","Female","false","true","true","true","""event"",""trial"",""time""
""fullscreenenter"",""5"",""20869""
","
","
","""event"",""trial"",""time""
""fullscreenenter"",""5"",""20869""
","
","604.1000000238419","","49","","","3000","1","1131.8000000715256,1403.8000000715256,2324.3000000715256","49,49,49","images/tutyellowplanet.jpg","null","images/tutalien3","null","images/tutalien3","images/t.png","NA","practice","null","","","",""
"d3-animate-choice","21","167001","0.0-21.0","3633","6350","10","Female","false","true","true","true","""event"",""trial"",""time""
""fullscreenenter"",""5"",""20869""
","
","
","""event"",""trial"",""time""
""fullscreenenter"",""5"",""20869""
","
","442.8000000715256","","49","","","3000","1","","","images/tutyellowplanet.jpg","null","images/tutalien3","null","images/tutalien3","images/t.png","NA","practice","null","","","",""
"d3-animate-choice","22","169502","0.0-22.0","3633","6350","10","Female","false","true","true","true","""event"",""trial"",""time""
""fullscreenenter"",""5"",""20869""
","
","
","""event"",""trial"",""time""
""fullscreenenter"",""5"",""20869""
","
","487.89999997615814","","49","","","3000","1","","","images/tutyellowplanet.jpg","null","images/tutalien3","null","images/tutalien3","images/t.png","NA","practice","null","","","",""
"d3-animate-choice","23","171815","0.0-23.0","3633","6350","10","Female","false","true","true","true","""event"",""trial"",""time""
""fullscreenenter"",""5"",""20869""
","
","
","""event"",""trial"",""time""
""fullscreenenter"",""5"",""20869""
","
","298.60000002384186","","49","","","3000","1","","","images/tutyellowplanet.jpg","null","images/tutalien3","null","images/tutalien3","images/t.png","NA","practice","null","","","",""
"d3-animate-choice","24","174241","0.0-24.0","3633","6350","10","Female","false","true","true","true","""event"",""trial"",""time""
""fullscreenenter"",""5"",""20869""
","
","
","""event"",""trial"",""time""
""fullscreenenter"",""5"",""20869""
","
","411.09999990463257","","49","","","3000","1","","","images/tutyellowplanet.jpg","null","images/tutalien3","null","images/tutalien3","images/t.png","NA","practice","null","","","",""
"d3-animate-choice","25","176633","0.0-25.0","3633","6350","10","Female","false","true","true","true","""event"",""trial"",""time""
""fullscreenenter"",""5"",""20869""
","
","
","""event"",""trial"",""time""
""fullscreenenter"",""5"",""20869""
","
","376.7000000476837","","49","","","3000","1","","","images/tutyellowplanet.jpg","null","images/tutalien3","null","images/tutalien3","images/t.png","NA","practice","null","","","",""
"d3-animate-choice","26","179038","0.0-26.0","3633","6350","10","Female","false","true","true","true","""event"",""trial"",""time""
""fullscreenenter"",""5"",""20869""
","
","
","""event"",""trial"",""time""
""fullscreenenter"",""5"",""20869""
","
","393.7000000476837","","49","","","3000","1","","","images/tutyellowplanet.jpg","null","images/tutalien3","null","images/tutalien3","images/t.png","NA","practice","null","","","",""
"d3-animate-choice","27","181399","0.0-27.0","3633","6350","10","Female","false","true","true","true","""event"",""trial"",""time""
""fullscreenenter"",""5"",""20869""
","
","
","""event"",""trial"",""time""
""fullscreenenter"",""5"",""20869""
","
","342.60000002384186","","49","","","3000","1","","","images/tutyellowplanet.jpg","null","images/tutalien3","null","images/tutalien3","images/t.png","NA","practice","null","","","",""
"d3-animate-choice","28","183797","0.0-28.0","3633","6350","10","Female","false","true","true","true","""event"",""trial"",""time""
""fullscreenenter"",""5"",""20869""
","
","
","""event"",""trial"",""time""
""fullscreenenter"",""5"",""20869""
","
","379.5","","49","","","3000","1","","","images/tutyellowplanet.jpg","null","images/tutalien3","null","images/tutalien3","images/t.png","NA","practice","null","","","",""
"d3-animate-choice","29","186134","0.0-29.0","3633","6350","10","Female","false","true","true","true","""event"",""trial"",""time""
""fullscreenenter"",""5"",""20869""
","
","
","""event"",""trial"",""time""
""fullscreenenter"",""5"",""20869""
","
","317.8000000715256","","49","","","3000","1","","","images/tutyellowplanet.jpg","null","images/tutalien3","null","images/tutalien3","images/t.png","NA","practice","null","","","",""
"d3-instructions","30","192789","0.0-30.0","3633","6350","10","Female","false","true","true","true","""event"",""trial"",""time""
""fullscreenenter"",""5"",""20869""
","
","
","""event"",""trial"",""time""
""fullscreenenter"",""5"",""20869""
","
","","","","","","","","","","","","","","","","","","","","","",""
"d3-instructions","31","204429","0.0-31.0","3633","6350","10","Female","false","true","true","true","""event"",""trial"",""time""
""fullscreenenter"",""5"",""20869""
","
","
","""event"",""trial"",""time""
""fullscreenenter"",""5"",""20869""
","
","","","","","","","","","","","","","","","","","","","","","",""
"d3-instructions","32","228214","0.0-32.0","3633","6350","10","Female","false","true","true","true","""event"",""trial"",""time""
""fullscreenenter"",""5"",""20869""
","
","
","""event"",""trial"",""time""
""fullscreenenter"",""5"",""20869""
","
","","","","","","","","","","","","","","","","","","","","","",""
"d3-instructions","33","240336","0.0-33.0","3633","6350","10","Female","false","true","true","true","""event"",""trial"",""time""
""fullscreenenter"",""5"",""20869""
","
","
","""event"",""trial"",""time""
""fullscreenenter"",""5"",""20869""
","
","","","","","","","","","","","","","","","","","","","","","",""
"d3-animate-choice","34","243463","0.0-34.0","3633","6350","10","Female","false","true","true","true","""event"",""trial"",""time""
""fullscreenenter"",""5"",""20869""
","
","
","""event"",""trial"",""time""
""fullscreenenter"",""5"",""20869""
","
","1115.1000000238419","","49","","","3000","1","","","images/tutgreenplanet.jpg","images/tutalien1","images/tutalien2","null","images/tutalien2","images/t.png","NA","practice","null","","","",""
"d3-animate-choice","35","245877","0.0-35.0","3633","6350","10","Female","false","true","true","true","""event"",""trial"",""time""
""fullscreenenter"",""5"",""20869""
","
","
","""event"",""trial"",""time""
""fullscreenenter"",""5"",""20869""
","
","397.6999999284744","","48","","","3000","1","","","images/tutgreenplanet.jpg","images/tutalien1","images/tutalien2","null","images/tutalien1","images/nothing.png","NA","practice","null","","","",""
"d3-animate-choice","36","248214","0.0-36.0","3633","6350","10","Female","false","true","true","true","""event"",""trial"",""time""
""fullscreenenter"",""5"",""20869""
","
","
","""event"",""trial"",""time""
""fullscreenenter"",""5"",""20869""
","
","327.2999999523163","","49","","","3000","1","","","images/tutgreenplanet.jpg","images/tutalien1","images/tutalien2","null","images/tutalien2","images/t.png","NA","practice","null","","","",""
"d3-animate-choice","37","250499","0.0-37.0","3633","6350","10","Female","false","true","true","true","""event"",""trial"",""time""
""fullscreenenter"",""5"",""20869""
","
","
","""event"",""trial"",""time""
""fullscreenenter"",""5"",""20869""
","
","270.39999997615814","","49","","","3000","1","","","images/tutgreenplanet.jpg","images/tutalien1","images/tutalien2","null","images/tutalien2","images/t.png","NA","practice","null","","","",""
"d3-animate-choice","38","252812","0.0-38.0","3633","6350","10","Female","false","true","true","true","""event"",""trial"",""time""
""fullscreenenter"",""5"",""20869""
","
","
","""event"",""trial"",""time""
""fullscreenenter"",""5"",""20869""
","
","297.7999999523163","","48","","","3000","1","","","images/tutgreenplanet.jpg","images/tutalien1","images/tutalien2","null","images/tutalien1","images/nothing.png","NA","practice","null","","","",""
"d3-animate-choice","39","255108","0.0-39.0","3633","6350","10","Female","false","true","true","true","""event"",""trial"",""time""
""fullscreenenter"",""5"",""20869""
","
","
","""event"",""trial"",""time""
""fullscreenenter"",""5"",""20869""
","
","288.2999999523163","","49","","","3000","1","","","images/tutgreenplanet.jpg","images/tutalien1","images/tutalien2","null","images/tutalien2","images/t.png","NA","practice","null","","","",""
"d3-animate-choice","40","257600","0.0-40.0","3633","6350","10","Female","false","true","true","true","""event"",""trial"",""time""
""fullscreenenter"",""5"",""20869""
","
","
","""event"",""trial"",""time""
""fullscreenenter"",""5"",""20869""
","
","488.3000000715256","","49","","","3000","1","","","images/tutgreenplanet.jpg","images/tutalien1","images/tutalien2","null","images/tutalien2","images/t.png","NA","practice","null","","","",""
"d3-animate-choice","41","260042","0.0-41.0","3633","6350","10","Female","false","true","true","true","""event"",""trial"",""time""
""fullscreenenter"",""5"",""20869""
","
","
","""event"",""trial"",""time""
""fullscreenenter"",""5"",""20869""
","
","436.39999997615814","","49","","","3000","1","","","images/tutgreenplanet.jpg","images/tutalien1","images/tutalien2","null","images/tutalien2","images/t.png","NA","practice","null","","","",""
"d3-animate-choice","42","262369","0.0-42.0","3633","6350","10","Female","false","true","true","true","""event"",""trial"",""time""
""fullscreenenter"",""5"",""20869""
","
","
","""event"",""trial"",""time""
""fullscreenenter"",""5"",""20869""
","
","322.5","","49","","","3000","1","","","images/tutgreenplanet.jpg","images/tutalien1","images/tutalien2","null","images/tutalien2","images/t.png","NA","practice","null","","","",""
"d3-animate-choice","43","264627","0.0-43.0","3633","6350","10","Female","false","true","true","true","""event"",""trial"",""time""
""fullscreenenter"",""5"",""20869""
","
","
","""event"",""trial"",""time""
""fullscreenenter"",""5"",""20869""
","
","252.40000009536743","","49","","","3000","1","","","images/tutgreenplanet.jpg","images/tutalien1","images/tutalien2","null","images/tutalien2","images/nothing.png","NA","practice","null","","","",""
"d3-instructions","44","278320","0.0-44.0","3633","6350","10","Female","false","true","true","true","""event"",""trial"",""time""
""fullscreenenter"",""5"",""20869""
","
","
","""event"",""trial"",""time""
""fullscreenenter"",""5"",""20869""
","
","","","","","","","","","","","","","","","","","","","","","",""
"d3-instructions","45","289584","0.0-45.0","3633","6350","10","Female","false","true","true","true","""event"",""trial"",""time""
""fullscreenenter"",""5"",""20869""
","
","
","""event"",""trial"",""time""
""fullscreenenter"",""5"",""20869""
","
","","","","","","","","","","","","","","","","","","","","","",""
"d3-instructions","46","295369","0.0-46.0","3633","6350","10","Female","false","true","true","true","""event"",""trial"",""time""
""fullscreenenter"",""5"",""20869""
","
","
","""event"",""trial"",""time""
""fullscreenenter"",""5"",""20869""
","
","","","","","","","","","","","","","","","","","","","","","",""
"d3-instructions","47","312937","0.0-47.0","3633","6350","10","Female","false","true","true","true","""event"",""trial"",""time""
""fullscreenenter"",""5"",""20869""
","
","
","""event"",""trial"",""time""
""fullscreenenter"",""5"",""20869""
","
","","","","","","","","","","","","","","","","","","","","","",""
"d3-instructions","48","319593","0.0-48.0","3633","6350","10","Female","false","true","true","true","""event"",""trial"",""time""
""fullscreenenter"",""5"",""20869""
","
","
","""event"",""trial"",""time""
""fullscreenenter"",""5"",""20869""
","
","","","","","","","","","","","","","","","","","","","","","",""
"d3-instructions","49","331811","0.0-49.0","3633","6350","10","Female","false","true","true","true","""event"",""trial"",""time""
""fullscreenenter"",""5"",""20869""
","
","
","""event"",""trial"",""time""
""fullscreenenter"",""5"",""20869""
","
","","","","","","","","","","","","","","","","","","","","","",""
"d3-instructions","50","341434","0.0-50.0","3633","6350","10","Female","false","true","true","true","""event"",""trial"",""time""
""fullscreenenter"",""5"",""20869""
","
","
","""event"",""trial"",""time""
""fullscreenenter"",""5"",""20869""
","
","","","","","","","","","","","","","","","","","","","","","",""
"d3-instructions","51","347658","0.0-51.0","3633","6350","10","Female","false","true","true","true","""event"",""trial"",""time""
""fullscreenenter"",""5"",""20869""
","
","
","""event"",""trial"",""time""
""fullscreenenter"",""5"",""20869""
","
","","","","","","","","","","","","","","","","","","","","","",""
"d3-instructions","52","355859","0.0-52.0","3633","6350","10","Female","false","true","true","true","""event"",""trial"",""time""
""fullscreenenter"",""5"",""20869""
","
","
","""event"",""trial"",""time""
""fullscreenenter"",""5"",""20869""
","
","","","","","","","","","","","","","","","","","","","","","",""
"d3-instructions","53","368851","0.0-53.0","3633","6350","10","Female","false","true","true","true","""event"",""trial"",""time""
""fullscreenenter"",""5"",""20869""
","
","
","""event"",""trial"",""time""
""fullscreenenter"",""5"",""20869""
","
","","","","","","","","","","","","","","","","","","","","","",""
"d3-instructions","54","381293","0.0-54.0","3633","6350","10","Female","false","true","true","true","""event"",""trial"",""time""
""fullscreenenter"",""5"",""20869""
","
","
","""event"",""trial"",""time""
""fullscreenenter"",""5"",""20869""
","
","","","","","","","","","","","","","","","","","","","","","",""
"d3-instructions","55","392467","0.0-55.0","3633","6350","10","Female","false","true","true","true","""event"",""trial"",""time""
""fullscreenenter"",""5"",""20869""
","
","
","""event"",""trial"",""time""
""fullscreenenter"",""5"",""20869""
","
","","","","","","","","","","","","","","","","","","","","","",""
"d3-instructions","56","400909","0.0-56.0","3633","6350","10","Female","false","true","true","true","""event"",""trial"",""time""
""fullscreenenter"",""5"",""20869""
","
","
","""event"",""trial"",""time""
""fullscreenenter"",""5"",""20869""
","
","","","","","","","","","","","","","","","","","","","","","",""
"d3-instructions","57","411356","0.0-57.0","3633","6350","10","Female","false","true","true","true","""event"",""trial"",""time""
""fullscreenenter"",""5"",""20869""
""fullscreenexit"",""58"",""424006""
","
","
","""event"",""trial"",""time""
""fullscreenenter"",""5"",""20869""
","""event"",""trial"",""time""
""fullscreenexit"",""58"",""424006""
","","","","","","","","","","","","","","","","","","","","","",""
"d3-instructions","58","424638","0.0-58.0","3633","6350","10","Female","false","true","true","true","""event"",""trial"",""time""
""fullscreenenter"",""5"",""20869""
""fullscreenexit"",""58"",""424006""
","
","
","""event"",""trial"",""time""
""fullscreenenter"",""5"",""20869""
","""event"",""trial"",""time""
""fullscreenexit"",""58"",""424006""
","","","","","","","","","","","","","","","","","","","","","",""
"d3-instructions","59","430893","0.0-59.0","3633","6350","10","Female","false","true","true","true","""event"",""trial"",""time""
""fullscreenenter"",""5"",""20869""
""fullscreenexit"",""58"",""424006""
","
","
","""event"",""trial"",""time""
""fullscreenenter"",""5"",""20869""
","""event"",""trial"",""time""
""fullscreenexit"",""58"",""424006""
","","","","","","","","","","","","","","","","","","","","","",""
"d3-instructions","60","437485","0.0-60.0","3633","6350","10","Female","false","true","true","true","""event"",""trial"",""time""
""fullscreenenter"",""5"",""20869""
""fullscreenexit"",""58"",""424006""
","
","
","""event"",""trial"",""time""
""fullscreenenter"",""5"",""20869""
","""event"",""trial"",""time""
""fullscreenexit"",""58"",""424006""
","","","","","","","","","","","","","","","","","","","","","",""
"d3-animate-choice","61","441498","0.0-61.0-0.0","3633","6350","10","Female","false","true","true","true","""event"",""trial"",""time""
""fullscreenenter"",""5"",""20869""
""fullscreenexit"",""58"",""424006""
","
","
","""event"",""trial"",""time""
""fullscreenenter"",""5"",""20869""
","""event"",""trial"",""time""
""fullscreenexit"",""58"",""424006""
","null","","null","","","3000","0","","","images/earth.jpg","images/tutrocket2","images/tutrocket1","null","","","1","practice","null","","","",""
"d3-animate-choice","62","442511","0.0-61.0-1.0","3633","6350","10","Female","false","true","true","true","""event"",""trial"",""time""
""fullscreenenter"",""5"",""20869""
""fullscreenexit"",""58"",""424006""
","
","
","""event"",""trial"",""time""
""fullscreenenter"",""5"",""20869""
","""event"",""trial"",""time""
""fullscreenexit"",""58"",""424006""
","null","","null","","","0","0","","","images/earth.jpg","images/tutrocket2","images/tutrocket1","null","","","2","practice","null","0","2023-02-26 19:16:49.743","",""
"two-step-fixation","63","443520","0.0-61.0-2.0","3633","6350","10","Female","false","true","true","true","""event"",""trial"",""time""
""fullscreenenter"",""5"",""20869""
""fullscreenexit"",""58"",""424006""
","
","
","""event"",""trial"",""time""
""fullscreenenter"",""5"",""20869""
","""event"",""trial"",""time""
""fullscreenexit"",""58"",""424006""
","","images/earth.jpg","","","","","","","","","","","","","","fixation","","","","","",""
"d3-animate-choice","64","447532","0.0-61.0-0.1","3633","6350","10","Female","false","true","true","true","""event"",""trial"",""time""
""fullscreenenter"",""5"",""20869""
""fullscreenexit"",""58"",""424006""
","
","
","""event"",""trial"",""time""
""fullscreenenter"",""5"",""20869""
","""event"",""trial"",""time""
""fullscreenexit"",""58"",""424006""
","null","","null","","","3000","0","","","images/earth.jpg","images/tutrocket2","images/tutrocket1","null","","","1","practice","null","","","",""
"d3-animate-choice","65","448548","0.0-61.0-1.1","3633","6350","10","Female","false","true","true","true","""event"",""trial"",""time""
""fullscreenenter"",""5"",""20869""
""fullscreenexit"",""58"",""424006""
","
","
","""event"",""trial"",""time""
""fullscreenenter"",""5"",""20869""
","""event"",""trial"",""time""
""fullscreenexit"",""58"",""424006""
","null","","null","","","0","0","","","images/earth.jpg","images/tutrocket2","images/tutrocket1","null","","","2","practice","null","0","2023-02-26 19:16:55.781","",""
"two-step-fixation","66","449555","0.0-61.0-2.1","3633","6350","10","Female","false","true","true","true","""event"",""trial"",""time""
""fullscreenenter"",""5"",""20869""
""fullscreenexit"",""58"",""424006""
","
","
","""event"",""trial"",""time""
""fullscreenenter"",""5"",""20869""
","""event"",""trial"",""time""
""fullscreenexit"",""58"",""424006""
","","images/earth.jpg","","","","","","","","","","","","","","fixation","","","","","",""
"d3-animate-choice","67","451947","0.0-61.0-0.2","3633","6350","10","Female","false","true","true","true","""event"",""trial"",""time""
""fullscreenenter"",""5"",""20869""
""fullscreenexit"",""58"",""424006""
","
","
","""event"",""trial"",""time""
""fullscreenenter"",""5"",""20869""
","""event"",""trial"",""time""
""fullscreenexit"",""58"",""424006""
","384.2000000476837","","49","","","3000","1","","","images/earth.jpg","images/tutrocket2","images/tutrocket1","null","images/tutrocket1","","1","practice","null","","","1",""
"d3-animate-choice","68","455084","0.0-61.0-1.2","3633","6350","10","Female","false","true","true","true","""event"",""trial"",""time""
""fullscreenenter"",""5"",""20869""
""fullscreenexit"",""58"",""424006""
","
","
","""event"",""trial"",""time""
""fullscreenenter"",""5"",""20869""
","""event"",""trial"",""time""
""fullscreenexit"",""58"",""424006""
","1126.4000000953674","","49","","","3000","1","","","images/tutgreenplanet.jpg","images/tutalien2","images/tutalien1","images/tutrocket1","images/tutalien1","images/nothing.png","2","practice","true","0","2023-02-26 19:17:02.316","1","common"
"two-step-fixation","69","456100","0.0-61.0-2.2","3633","6350","10","Female","false","true","true","true","""event"",""trial"",""time""
""fullscreenenter"",""5"",""20869""
""fullscreenexit"",""58"",""424006""
","
","
","""event"",""trial"",""time""
""fullscreenenter"",""5"",""20869""
","""event"",""trial"",""time""
""fullscreenexit"",""58"",""424006""
","","images/earth.jpg","","","","","","","","","","","","","","fixation","","","","","",""
"d3-animate-choice","70","458592","0.0-61.0-0.3","3633","6350","10","Female","false","true","true","true","""event"",""trial"",""time""
""fullscreenenter"",""5"",""20869""
""fullscreenexit"",""58"",""424006""
","
","
","""event"",""trial"",""time""
""fullscreenenter"",""5"",""20869""
","""event"",""trial"",""time""
""fullscreenexit"",""58"",""424006""
","486.3000000715256","","48","","","3000","1","","","images/earth.jpg","images/tutrocket2","images/tutrocket1","null","images/tutrocket2","","1","practice","null","","","2",""
"d3-animate-choice","71","460952","0.0-61.0-1.3","3633","6350","10","Female","false","true","true","true","""event"",""trial"",""time""
""fullscreenenter"",""5"",""20869""
""fullscreenexit"",""58"",""424006""
","
","
","""event"",""trial"",""time""
""fullscreenenter"",""5"",""20869""
","""event"",""trial"",""time""
""fullscreenexit"",""58"",""424006""
","354.5","","48","","","3000","1","","","images/tutyellowplanet.jpg","images/tutalien4","images/tutalien3","images/tutrocket2","images/tutalien4","images/nothing.png","2","practice","true","0","2023-02-26 19:17:08.184","2","common"
"two-step-fixation","72","461957","0.0-61.0-2.3","3633","6350","10","Female","false","true","true","true","""event"",""trial"",""time""
""fullscreenenter"",""5"",""20869""
""fullscreenexit"",""58"",""424006""
","
","
","""event"",""trial"",""time""
""fullscreenenter"",""5"",""20869""
","""event"",""trial"",""time""
""fullscreenexit"",""58"",""424006""
","","images/earth.jpg","","","","","","","","","","","","","","fixation","","","","","",""
"d3-animate-choice","73","464497","0.0-61.0-0.4","3633","6350","10","Female","false","true","true","true","""event"",""trial"",""time""
""fullscreenenter"",""5"",""20869""
""fullscreenexit"",""58"",""424006""
","
","
","""event"",""trial"",""time""
""fullscreenenter"",""5"",""20869""
","""event"",""trial"",""time""
""fullscreenexit"",""58"",""424006""
","534.7000000476837","","49","","","3000","1","","","images/earth.jpg","images/tutrocket2","images/tutrocket1","null","images/tutrocket1","","1","practice","null","","","1",""
"d3-animate-choice","74","467017","0.0-61.0-1.4","3633","6350","10","Female","false","true","true","true","""event"",""trial"",""time""
""fullscreenenter"",""5"",""20869""
""fullscreenexit"",""58"",""424006""
","
","
","""event"",""trial"",""time""
""fullscreenenter"",""5"",""20869""
","""event"",""trial"",""time""
""fullscreenexit"",""58"",""424006""
","513.5","","48","","","3000","1","","","images/tutgreenplanet.jpg","images/tutalien2","images/tutalien1","images/tutrocket1","images/tutalien2","images/nothing.png","2","practice","true","0","2023-02-26 19:17:14.249","2","common"
"two-step-fixation","75","468021","0.0-61.0-2.4","3633","6350","10","Female","false","true","true","true","""event"",""trial"",""time""
""fullscreenenter"",""5"",""20869""
""fullscreenexit"",""58"",""424006""
","
","
","""event"",""trial"",""time""
""fullscreenenter"",""5"",""20869""
","""event"",""trial"",""time""
""fullscreenexit"",""58"",""424006""
","","images/earth.jpg","","","","","","","","","","","","","","fixation","","","","","",""
"d3-animate-choice","76","470617","0.0-61.0-0.5","3633","6350","10","Female","false","true","true","true","""event"",""trial"",""time""
""fullscreenenter"",""5"",""20869""
""fullscreenexit"",""58"",""424006""
","
","
","""event"",""trial"",""time""
""fullscreenenter"",""5"",""20869""
","""event"",""trial"",""time""
""fullscreenexit"",""58"",""424006""
","587.8999999761581","","49","","","3000","1","","","images/earth.jpg","images/tutrocket2","images/tutrocket1","null","images/tutrocket1","","1","practice","null","","","1",""
"d3-animate-choice","77","473497","0.0-61.0-1.5","3633","6350","10","Female","false","true","true","true","""event"",""trial"",""time""
""fullscreenenter"",""5"",""20869""
""fullscreenexit"",""58"",""424006""
","
","
","""event"",""trial"",""time""
""fullscreenenter"",""5"",""20869""
","""event"",""trial"",""time""
""fullscreenexit"",""58"",""424006""
","875.1000000238419","","49","","","3000","1","","","images/tutyellowplanet.jpg","images/tutalien4","images/tutalien3","images/tutrocket1","images/tutalien3","images/nothing.png","2","practice","false","0","2023-02-26 19:17:20.729","1","rare"
"two-step-fixation","78","474502","0.0-61.0-2.5","3633","6350","10","Female","false","true","true","true","""event"",""trial"",""time""
""fullscreenenter"",""5"",""20869""
""fullscreenexit"",""58"",""424006""
","
","
","""event"",""trial"",""time""
""fullscreenenter"",""5"",""20869""
","""event"",""trial"",""time""
""fullscreenexit"",""58"",""424006""
","","images/earth.jpg","","","","","","","","","","","","","","fixation","","","","","",""
"d3-animate-choice","79","476929","0.0-61.0-0.6","3633","6350","10","Female","false","true","true","true","""event"",""trial"",""time""
""fullscreenenter"",""5"",""20869""
""fullscreenexit"",""58"",""424006""
","
","
","""event"",""trial"",""time""
""fullscreenenter"",""5"",""20869""
","""event"",""trial"",""time""
""fullscreenexit"",""58"",""424006""
","421.8000000715256","","48","","","3000","1","","","images/earth.jpg","images/tutrocket2","images/tutrocket1","null","images/tutrocket2","","1","practice","null","","","2",""
"d3-animate-choice","80","479426","0.0-61.0-1.6","3633","6350","10","Female","false","true","true","true","""event"",""trial"",""time""
""fullscreenenter"",""5"",""20869""
""fullscreenexit"",""58"",""424006""
","
","
","""event"",""trial"",""time""
""fullscreenenter"",""5"",""20869""
","""event"",""trial"",""time""
""fullscreenexit"",""58"",""424006""
","490.8000000715256","","49","","","3000","1","","","images/tutyellowplanet.jpg","images/tutalien4","images/tutalien3","images/tutrocket2","images/tutalien3","images/nothing.png","2","practice","true","0","2023-02-26 19:17:26.658","1","common"
"two-step-fixation","81","480430","0.0-61.0-2.6","3633","6350","10","Female","false","true","true","true","""event"",""trial"",""time""
""fullscreenenter"",""5"",""20869""
""fullscreenexit"",""58"",""424006""
","
","
","""event"",""trial"",""time""
""fullscreenenter"",""5"",""20869""
","""event"",""trial"",""time""
""fullscreenexit"",""58"",""424006""
","","images/earth.jpg","","","","","","","","","","","","","","fixation","","","","","",""
"d3-animate-choice","82","483155","0.0-61.0-0.7","3633","6350","10","Female","false","true","true","true","""event"",""trial"",""time""
""fullscreenenter"",""5"",""20869""
""fullscreenexit"",""58"",""424006""
","
","
","""event"",""trial"",""time""
""fullscreenenter"",""5"",""20869""
","""event"",""trial"",""time""
""fullscreenexit"",""58"",""424006""
","716.9000000953674","","48","","","3000","1","","","images/earth.jpg","images/tutrocket2","images/tutrocket1","null","images/tutrocket2","","1","practice","null","","","2",""
"d3-animate-choice","83","485898","0.0-61.0-1.7","3633","6350","10","Female","false","true","true","true","""event"",""trial"",""time""
""fullscreenenter"",""5"",""20869""
""fullscreenexit"",""58"",""424006""
","
","
","""event"",""trial"",""time""
""fullscreenenter"",""5"",""20869""
","""event"",""trial"",""time""
""fullscreenexit"",""58"",""424006""
","737.5","","48","","","3000","1","","","images/tutyellowplanet.jpg","images/tutalien4","images/tutalien3","images/tutrocket2","images/tutalien4","images/nothing.png","2","practice","true","0","2023-02-26 19:17:33.130","2","common"
"two-step-fixation","84","486903","0.0-61.0-2.7","3633","6350","10","Female","false","true","true","true","""event"",""trial"",""time""
""fullscreenenter"",""5"",""20869""
""fullscreenexit"",""58"",""424006""
","
","
","""event"",""trial"",""time""
""fullscreenenter"",""5"",""20869""
","""event"",""trial"",""time""
""fullscreenexit"",""58"",""424006""
","","images/earth.jpg","","","","","","","","","","","","","","fixation","","","","","",""
"d3-animate-choice","85","489203","0.0-61.0-0.8","3633","6350","10","Female","false","true","true","true","""event"",""trial"",""time""
""fullscreenenter"",""5"",""20869""
""fullscreenexit"",""58"",""424006""
","
","
","""event"",""trial"",""time""
""fullscreenenter"",""5"",""20869""
","""event"",""trial"",""time""
""fullscreenexit"",""58"",""424006""
","293","","49","","","3000","1","603.7000000476837","49","images/earth.jpg","images/tutrocket2","images/tutrocket1","null","images/tutrocket1","","1","practice","null","","","1",""
"d3-animate-choice","86","493210","0.0-61.0-1.8","3633","6350","10","Female","false","true","true","true","""event"",""trial"",""time""
""fullscreenenter"",""5"",""20869""
""fullscreenexit"",""58"",""424006""
","
","
","""event"",""trial"",""time""
""fullscreenenter"",""5"",""20869""
","""event"",""trial"",""time""
""fullscreenexit"",""58"",""424006""
","474.39999997615814","","192","","","3000","1","999.8999999761581,1520.6000000238419,2032.8999999761581,3144.2000000476837","189,189,49,48","images/tutyellowplanet.jpg","images/tutalien4","images/tutalien3","images/tutrocket1","images/tutalien3","images/nothing.png","2","practice","false","0","2023-02-26 19:17:40.442","","rare"
"two-step-fixation","87","494215","0.0-61.0-2.8","3633","6350","10","Female","false","true","true","true","""event"",""trial"",""time""
""fullscreenenter"",""5"",""20869""
""fullscreenexit"",""58"",""424006""
","
","
","""event"",""trial"",""time""
""fullscreenenter"",""5"",""20869""
","""event"",""trial"",""time""
""fullscreenexit"",""58"",""424006""
","","images/earth.jpg","","","","","","","","","","","","","","fixation","","","","","",""
"d3-animate-choice","88","496642","0.0-61.0-0.9","3633","6350","10","Female","false","true","true","true","""event"",""trial"",""time""
""fullscreenenter"",""5"",""20869""
""fullscreenexit"",""58"",""424006""
","
","
","""event"",""trial"",""time""
""fullscreenenter"",""5"",""20869""
","""event"",""trial"",""time""
""fullscreenexit"",""58"",""424006""
","420.10000002384186","","48","","","3000","1","1003.6000000238419","48","images/earth.jpg","images/tutrocket2","images/tutrocket1","null","images/tutrocket2","","1","practice","null","","","2",""
"d3-animate-choice","89","499138","0.0-61.0-1.9","3633","6350","10","Female","false","true","true","true","""event"",""trial"",""time""
""fullscreenenter"",""5"",""20869""
""fullscreenexit"",""58"",""424006""
","
","
","""event"",""trial"",""time""
""fullscreenenter"",""5"",""20869""
","""event"",""trial"",""time""
""fullscreenexit"",""58"",""424006""
","490.2999999523163","","48","","","3000","1","","","images/tutyellowplanet.jpg","images/tutalien4","images/tutalien3","images/tutrocket2","images/tutalien4","images/t.png","2","practice","true","1","2023-02-26 19:17:46.370","2","common"
"two-step-fixation","90","500143","0.0-61.0-2.9","3633","6350","10","Female","false","true","true","true","""event"",""trial"",""time""
""fullscreenenter"",""5"",""20869""
""fullscreenexit"",""58"",""424006""
","
","
","""event"",""trial"",""time""
""fullscreenenter"",""5"",""20869""
","""event"",""trial"",""time""
""fullscreenexit"",""58"",""424006""
","","images/earth.jpg","","","","","","","","","","","","","","fixation","","","","","",""
"d3-animate-choice","91","502514","0.0-61.0-0.10","3633","6350","10","Female","false","true","true","true","""event"",""trial"",""time""
""fullscreenenter"",""5"",""20869""
""fullscreenexit"",""58"",""424006""
","
","
","""event"",""trial"",""time""
""fullscreenenter"",""5"",""20869""
","""event"",""trial"",""time""
""fullscreenexit"",""58"",""424006""
","363.40000009536743","","49","","","3000","1","","","images/earth.jpg","images/tutrocket2","images/tutrocket1","null","images/tutrocket1","","1","practice","null","","","1",""
"d3-animate-choice","92","504872","0.0-61.0-1.10","3633","6350","10","Female","false","true","true","true","""event"",""trial"",""time""
""fullscreenenter"",""5"",""20869""
""fullscreenexit"",""58"",""424006""
","
","
","""event"",""trial"",""time""
""fullscreenenter"",""5"",""20869""
","""event"",""trial"",""time""
""fullscreenexit"",""58"",""424006""
","353.3000000715256","","48","","","3000","1","","","images/tutgreenplanet.jpg","images/tutalien2","images/tutalien1","images/tutrocket1","images/tutalien2","images/t.png","2","practice","true","1","2023-02-26 19:17:52.104","2","common"
"two-step-fixation","93","505878","0.0-61.0-2.10","3633","6350","10","Female","false","true","true","true","""event"",""trial"",""time""
""fullscreenenter"",""5"",""20869""
""fullscreenexit"",""58"",""424006""
","
","
","""event"",""trial"",""time""
""fullscreenenter"",""5"",""20869""
","""event"",""trial"",""time""
""fullscreenexit"",""58"",""424006""
","","images/earth.jpg","","","","","","","","","","","","","","fixation","","","","","",""
"d3-animate-choice","94","508346","0.0-61.0-0.11","3633","6350","10","Female","false","true","true","true","""event"",""trial"",""time""
""fullscreenenter"",""5"",""20869""
""fullscreenexit"",""58"",""424006""
","
","
","""event"",""trial"",""time""
""fullscreenenter"",""5"",""20869""
","""event"",""trial"",""time""
""fullscreenexit"",""58"",""424006""
","461.7999999523163","","48","","","3000","1","","","images/earth.jpg","images/tutrocket2","images/tutrocket1","null","images/tutrocket2","","1","practice","null","","","2",""
"d3-animate-choice","95","510730","0.0-61.0-1.11","3633","6350","10","Female","false","true","true","true","""event"",""trial"",""time""
""fullscreenenter"",""5"",""20869""
""fullscreenexit"",""58"",""424006""
","
","
","""event"",""trial"",""time""
""fullscreenenter"",""5"",""20869""
","""event"",""trial"",""time""
""fullscreenexit"",""58"",""424006""
","378.3000000715256","","49","","","3000","1","","","images/tutyellowplanet.jpg","images/tutalien4","images/tutalien3","images/tutrocket2","images/tutalien3","images/nothing.png","2","practice","true","0","2023-02-26 19:17:57.962","1","common"
"two-step-fixation","96","511736","0.0-61.0-2.11","3633","6350","10","Female","false","true","true","true","""event"",""trial"",""time""
""fullscreenenter"",""5"",""20869""
""fullscreenexit"",""58"",""424006""
","
","
","""event"",""trial"",""time""
""fullscreenenter"",""5"",""20869""
","""event"",""trial"",""time""
""fullscreenexit"",""58"",""424006""
","","images/earth.jpg","","","","","","","","","","","","","","fixation","","","","","",""
"d3-animate-choice","97","514205","0.0-61.0-0.12","3633","6350","10","Female","false","true","true","true","""event"",""trial"",""time""
""fullscreenenter"",""5"",""20869""
""fullscreenexit"",""58"",""424006""
","
","
","""event"",""trial"",""time""
""fullscreenenter"",""5"",""20869""
","""event"",""trial"",""time""
""fullscreenexit"",""58"",""424006""
","462.10000002384186","","48","","","3000","1","","","images/earth.jpg","images/tutrocket2","images/tutrocket1","null","images/tutrocket2","","1","practice","null","","","2",""
"d3-animate-choice","98","516633","0.0-61.0-1.12","3633","6350","10","Female","false","true","true","true","""event"",""trial"",""time""
""fullscreenenter"",""5"",""20869""
""fullscreenexit"",""58"",""424006""
","
","
","""event"",""trial"",""time""
""fullscreenenter"",""5"",""20869""
","""event"",""trial"",""time""
""fullscreenexit"",""58"",""424006""
","421.7999999523163","","48","","","3000","1","","","images/tutyellowplanet.jpg","images/tutalien4","images/tutalien3","images/tutrocket2","images/tutalien4","images/t.png","2","practice","true","1","2023-02-26 19:18:03.865","2","common"
"two-step-fixation","99","517636","0.0-61.0-2.12","3633","6350","10","Female","false","true","true","true","""event"",""trial"",""time""
""fullscreenenter"",""5"",""20869""
""fullscreenexit"",""58"",""424006""
","
","
","""event"",""trial"",""time""
""fullscreenenter"",""5"",""20869""
","""event"",""trial"",""time""
""fullscreenexit"",""58"",""424006""
","","images/earth.jpg","","","","","","","","","","","","","","fixation","","","","","",""
"d3-animate-choice","100","520426","0.0-61.0-0.13","3633","6350","10","Female","false","true","true","true","""event"",""trial"",""time""
""fullscreenenter"",""5"",""20869""
""fullscreenexit"",""58"",""424006""
","
","
","""event"",""trial"",""time""
""fullscreenenter"",""5"",""20869""
","""event"",""trial"",""time""
""fullscreenexit"",""58"",""424006""
","783.6999999284744","","49","","","3000","1","","","images/earth.jpg","images/tutrocket2","images/tutrocket1","null","images/tutrocket1","","1","practice","null","","","1",""
"d3-animate-choice","101","522970","0.0-61.0-1.13","3633","6350","10","Female","false","true","true","true","""event"",""trial"",""time""
""fullscreenenter"",""5"",""20869""
""fullscreenexit"",""58"",""424006""
","
","
","""event"",""trial"",""time""
""fullscreenenter"",""5"",""20869""
","""event"",""trial"",""time""
""fullscreenexit"",""58"",""424006""
","537.2999999523163","","49","","","3000","1","","","images/tutgreenplanet.jpg","images/tutalien2","images/tutalien1","images/tutrocket1","images/tutalien1","images/nothing.png","2","practice","true","0","2023-02-26 19:18:10.202","1","common"
"two-step-fixation","102","523974","0.0-61.0-2.13","3633","6350","10","Female","false","true","true","true","""event"",""trial"",""time""
""fullscreenenter"",""5"",""20869""
""fullscreenexit"",""58"",""424006""
","
","
","""event"",""trial"",""time""
""fullscreenenter"",""5"",""20869""
","""event"",""trial"",""time""
""fullscreenexit"",""58"",""424006""
","","images/earth.jpg","","","","","","","","","","","","","","fixation","","","","","",""
"d3-animate-choice","103","526241","0.0-61.0-0.14","3633","6350","10","Female","false","true","true","true","""event"",""trial"",""time""
""fullscreenenter"",""5"",""20869""
""fullscreenexit"",""58"",""424006""
","
","
","""event"",""trial"",""time""
""fullscreenenter"",""5"",""20869""
","""event"",""trial"",""time""
""fullscreenexit"",""58"",""424006""
","261.89999997615814","","49","","","3000","1","","","images/earth.jpg","images/tutrocket2","images/tutrocket1","null","images/tutrocket1","","1","practice","null","","","1",""
"d3-animate-choice","104","528577","0.0-61.0-1.14","3633","6350","10","Female","false","true","true","true","""event"",""trial"",""time""
""fullscreenenter"",""5"",""20869""
""fullscreenexit"",""58"",""424006""
","
","
","""event"",""trial"",""time""
""fullscreenenter"",""5"",""20869""
","""event"",""trial"",""time""
""fullscreenexit"",""58"",""424006""
","331.8000000715256","","48","","","3000","1","939","48","images/tutyellowplanet.jpg","images/tutalien4","images/tutalien3","images/tutrocket1","images/tutalien4","images/t.png","2","practice","false","1","2023-02-26 19:18:15.810","2","rare"
"two-step-fixation","105","529581","0.0-61.0-2.14","3633","6350","10","Female","false","true","true","true","""event"",""trial"",""time""
""fullscreenenter"",""5"",""20869""
""fullscreenexit"",""58"",""424006""
","
","
","""event"",""trial"",""time""
""fullscreenenter"",""5"",""20869""
","""event"",""trial"",""time""
""fullscreenexit"",""58"",""424006""
","","images/earth.jpg","","","","","","","","","","","","","","fixation","","","","","",""
"d3-animate-choice","106","531908","0.0-61.0-0.15","3633","6350","10","Female","false","true","true","true","""event"",""trial"",""time""
""fullscreenenter"",""5"",""20869""
""fullscreenexit"",""58"",""424006""
","
","
","""event"",""trial"",""time""
""fullscreenenter"",""5"",""20869""
","""event"",""trial"",""time""
""fullscreenexit"",""58"",""424006""
","319.90000009536743","","49","","","3000","1","","","images/earth.jpg","images/tutrocket2","images/tutrocket1","null","images/tutrocket1","","1","practice","null","","","1",""
"d3-animate-choice","107","534186","0.0-61.0-1.15","3633","6350","10","Female","false","true","true","true","""event"",""trial"",""time""
""fullscreenenter"",""5"",""20869""
""fullscreenexit"",""58"",""424006""
","
","
","""event"",""trial"",""time""
""fullscreenenter"",""5"",""20869""
","""event"",""trial"",""time""
""fullscreenexit"",""58"",""424006""
","272.09999990463257","","48","","","3000","1","","","images/tutyellowplanet.jpg","images/tutalien4","images/tutalien3","images/tutrocket1","images/tutalien4","images/nothing.png","2","practice","false","0","2023-02-26 19:18:21.418","2","rare"
"two-step-fixation","108","535191","0.0-61.0-2.15","3633","6350","10","Female","false","true","true","true","""event"",""trial"",""time""
""fullscreenenter"",""5"",""20869""
""fullscreenexit"",""58"",""424006""
","
","
","""event"",""trial"",""time""
""fullscreenenter"",""5"",""20869""
","""event"",""trial"",""time""
""fullscreenexit"",""58"",""424006""
","","images/earth.jpg","","","","","","","","","","","","","","fixation","","","","","",""
"d3-animate-choice","109","537547","0.0-61.0-0.16","3633","6350","10","Female","false","true","true","true","""event"",""trial"",""time""
""fullscreenenter"",""5"",""20869""
""fullscreenexit"",""58"",""424006""
","
","
","""event"",""trial"",""time""
""fullscreenenter"",""5"",""20869""
","""event"",""trial"",""time""
""fullscreenexit"",""58"",""424006""
","350.60000002384186","","49","","","3000","1","","","images/earth.jpg","images/tutrocket2","images/tutrocket1","null","images/tutrocket1","","1","practice","null","","","1",""
"d3-animate-choice","110","539859","0.0-61.0-1.16","3633","6350","10","Female","false","true","true","true","""event"",""trial"",""time""
""fullscreenenter"",""5"",""20869""
""fullscreenexit"",""58"",""424006""
","
","
","""event"",""trial"",""time""
""fullscreenenter"",""5"",""20869""
","""event"",""trial"",""time""
""fullscreenexit"",""58"",""424006""
","305.89999997615814","","48","","","3000","1","","","images/tutgreenplanet.jpg","images/tutalien2","images/tutalien1","images/tutrocket1","images/tutalien2","images/t.png","2","practice","true","1","2023-02-26 19:18:27.091","2","common"
"two-step-fixation","111","540863","0.0-61.0-2.16","3633","6350","10","Female","false","true","true","true","""event"",""trial"",""time""
""fullscreenenter"",""5"",""20869""
""fullscreenexit"",""58"",""424006""
","
","
","""event"",""trial"",""time""
""fullscreenenter"",""5"",""20869""
","""event"",""trial"",""time""
""fullscreenexit"",""58"",""424006""
","","images/earth.jpg","","","","","","","","","","","","","","fixation","","","","","",""
"d3-animate-choice","112","543164","0.0-61.0-0.17","3633","6350","10","Female","false","true","true","true","""event"",""trial"",""time""
""fullscreenenter"",""5"",""20869""
""fullscreenexit"",""58"",""424006""
","
","
","""event"",""trial"",""time""
""fullscreenenter"",""5"",""20869""
","""event"",""trial"",""time""
""fullscreenexit"",""58"",""424006""
","294.6999999284744","","49","","","3000","1","","","images/earth.jpg","images/tutrocket2","images/tutrocket1","null","images/tutrocket1","","1","practice","null","","","1",""
"d3-animate-choice","113","545644","0.0-61.0-1.17","3633","6350","10","Female","false","true","true","true","""event"",""trial"",""time""
""fullscreenenter"",""5"",""20869""
""fullscreenexit"",""58"",""424006""
","
","
","""event"",""trial"",""time""
""fullscreenenter"",""5"",""20869""
","""event"",""trial"",""time""
""fullscreenexit"",""58"",""424006""
","473.60000002384186","","48","","","3000","1","","","images/tutgreenplanet.jpg","images/tutalien2","images/tutalien1","images/tutrocket1","images/tutalien2","images/t.png","2","practice","true","1","2023-02-26 19:18:32.876","2","common"
"two-step-fixation","114","546648","0.0-61.0-2.17","3633","6350","10","Female","false","true","true","true","""event"",""trial"",""time""
""fullscreenenter"",""5"",""20869""
""fullscreenexit"",""58"",""424006""
","
","
","""event"",""trial"",""time""
""fullscreenenter"",""5"",""20869""
","""event"",""trial"",""time""
""fullscreenexit"",""58"",""424006""
","","images/earth.jpg","","","","","","","","","","","","","","fixation","","","","","",""
"d3-animate-choice","115","549076","0.0-61.0-0.18","3633","6350","10","Female","false","true","true","true","""event"",""trial"",""time""
""fullscreenenter"",""5"",""20869""
""fullscreenexit"",""58"",""424006""
","
","
","""event"",""trial"",""time""
""fullscreenenter"",""5"",""20869""
","""event"",""trial"",""time""
""fullscreenexit"",""58"",""424006""
","422.2000000476837","","49","","","3000","1","","","images/earth.jpg","images/tutrocket2","images/tutrocket1","null","images/tutrocket1","","1","practice","null","","","1",""
"d3-animate-choice","116","551436","0.0-61.0-1.18","3633","6350","10","Female","false","true","true","true","""event"",""trial"",""time""
""fullscreenenter"",""5"",""20869""
""fullscreenexit"",""58"",""424006""
","
","
","""event"",""trial"",""time""
""fullscreenenter"",""5"",""20869""
","""event"",""trial"",""time""
""fullscreenexit"",""58"",""424006""
","354.5","","48","","","3000","1","","","images/tutgreenplanet.jpg","images/tutalien2","images/tutalien1","images/tutrocket1","images/tutalien2","images/t.png","2","practice","true","1","2023-02-26 19:18:38.668","2","common"
"two-step-fixation","117","552440","0.0-61.0-2.18","3633","6350","10","Female","false","true","true","true","""event"",""trial"",""time""
""fullscreenenter"",""5"",""20869""
""fullscreenexit"",""58"",""424006""
","
","
","""event"",""trial"",""time""
""fullscreenenter"",""5"",""20869""
","""event"",""trial"",""time""
""fullscreenexit"",""58"",""424006""
","","images/earth.jpg","","","","","","","","","","","","","","fixation","","","","","",""
"d3-animate-choice","118","554595","0.0-61.0-0.19","3633","6350","10","Female","false","true","true","true","""event"",""trial"",""time""
""fullscreenenter"",""5"",""20869""
""fullscreenexit"",""58"",""424006""
","
","
","""event"",""trial"",""time""
""fullscreenenter"",""5"",""20869""
","""event"",""trial"",""time""
""fullscreenexit"",""58"",""424006""
","149.30000007152557","","49","","","3000","1","","","images/earth.jpg","images/tutrocket2","images/tutrocket1","null","images/tutrocket1","","1","practice","null","","","1",""
"d3-animate-choice","119","556988","0.0-61.0-1.19","3633","6350","10","Female","false","true","true","true","""event"",""trial"",""time""
""fullscreenenter"",""5"",""20869""
""fullscreenexit"",""58"",""424006""
","
","
","""event"",""trial"",""time""
""fullscreenenter"",""5"",""20869""
","""event"",""trial"",""time""
""fullscreenexit"",""58"",""424006""
","388.1999999284744","","48","","","3000","1","","","images/tutyellowplanet.jpg","images/tutalien4","images/tutalien3","images/tutrocket1","images/tutalien4","images/nothing.png","2","practice","false","0","2023-02-26 19:18:44.220","2","rare"
"two-step-fixation","120","557992","0.0-61.0-2.19","3633","6350","10","Female","false","true","true","true","""event"",""trial"",""time""
""fullscreenenter"",""5"",""20869""
""fullscreenexit"",""58"",""424006""
","
","
","""event"",""trial"",""time""
""fullscreenenter"",""5"",""20869""
","""event"",""trial"",""time""
""fullscreenexit"",""58"",""424006""
","","images/earth.jpg","","","","","","","","","","","","","","fixation","","","","","",""
"d3-instructions","121","565010","0.0-62.0","3633","6350","10","Female","false","true","true","true","""event"",""trial"",""time""
""fullscreenenter"",""5"",""20869""
""fullscreenexit"",""58"",""424006""
","
","
","""event"",""trial"",""time""
""fullscreenenter"",""5"",""20869""
","""event"",""trial"",""time""
""fullscreenexit"",""58"",""424006""
","","","","","","","","","","","","","","","","","","","","","",""
"audio-keyboard-response","122","574442","0.0-63.0","3633","6350","10","Female","false","true","true","true","""event"",""trial"",""time""
""fullscreenenter"",""5"",""20869""
""fullscreenexit"",""58"",""424006""
","
","
","""event"",""trial"",""time""
""fullscreenenter"",""5"",""20869""
","""event"",""trial"",""time""
""fullscreenexit"",""58"",""424006""
","9429","audio/instructions/treasure_feedback.wav","32","","","","","","","","","","","","","","","","","","",""
"d3-instructions","123","593347","0.0-64.0","3633","6350","10","Female","false","true","true","true","""event"",""trial"",""time""
""fullscreenenter"",""5"",""20869""
""fullscreenexit"",""58"",""424006""
","
","
","""event"",""trial"",""time""
""fullscreenenter"",""5"",""20869""
","""event"",""trial"",""time""
""fullscreenexit"",""58"",""424006""
","","","","","","","","","","","","","","","","","","","","","",""
"d3-instructions","124","608115","0.0-65.0","3633","6350","10","Female","false","true","true","true","""event"",""trial"",""time""
""fullscreenenter"",""5"",""20869""
""fullscreenexit"",""58"",""424006""
","
","
","""event"",""trial"",""time""
""fullscreenenter"",""5"",""20869""
","""event"",""trial"",""time""
""fullscreenexit"",""58"",""424006""
","","","","","","","","","","","","","","","","","","","","","",""
"d3-instructions","125","632500","0.0-66.0","3633","6350","10","Female","false","true","true","true","""event"",""trial"",""time""
""fullscreenenter"",""5"",""20869""
""fullscreenexit"",""58"",""424006""
","
","
","""event"",""trial"",""time""
""fullscreenenter"",""5"",""20869""
","""event"",""trial"",""time""
""fullscreenexit"",""58"",""424006""
","","","","","","","","","","","","","","","","","","","","","",""
"d3-instructions","126","650869","0.0-67.0","3633","6350","10","Female","false","true","true","true","""event"",""trial"",""time""
""fullscreenenter"",""5"",""20869""
""fullscreenexit"",""58"",""424006""
","
","
","""event"",""trial"",""time""
""fullscreenenter"",""5"",""20869""
","""event"",""trial"",""time""
""fullscreenexit"",""58"",""424006""
","","","","","","","","","","","","","","","","","","","","","",""
"d3-instructions","127","659285","0.0-68.0","3633","6350","10","Female","false","true","true","true","""event"",""trial"",""time""
""fullscreenenter"",""5"",""20869""
""fullscreenexit"",""58"",""424006""
","
","
","""event"",""trial"",""time""
""fullscreenenter"",""5"",""20869""
","""event"",""trial"",""time""
""fullscreenexit"",""58"",""424006""
","","","","","","","","","","","","","","","","","","","","","",""
"instructions-quiz","128","664201","0.0-69.0","3633","6350","10","Female","false","true","true","true","""event"",""trial"",""time""
""fullscreenenter"",""5"",""20869""
""fullscreenexit"",""58"",""424006""
","
","
","""event"",""trial"",""time""
""fullscreenenter"",""5"",""20869""
","""event"",""trial"",""time""
""fullscreenexit"",""58"",""424006""
","4912.100000023842","audio/quiz/Q1_Prompt.wav","","1","","","","","","","","","","","","","","","","","",""
"audio-keyboard-response","129","673373","0.0-70.0","3633","6350","10","Female","false","true","true","true","""event"",""trial"",""time""
""fullscreenenter"",""5"",""20869""
""fullscreenexit"",""58"",""424006""
","
","
","""event"",""trial"",""time""
""fullscreenenter"",""5"",""20869""
","""event"",""trial"",""time""
""fullscreenexit"",""58"",""424006""
","null","audio/quiz/Q1_Correct.wav","null","","","","","","","","","","","","","","","","","","",""
"instructions-quiz","130","682398","0.0-71.0","3633","6350","10","Female","false","true","true","true","""event"",""trial"",""time""
""fullscreenenter"",""5"",""20869""
""fullscreenexit"",""58"",""424006""
","
","
","""event"",""trial"",""time""
""fullscreenenter"",""5"",""20869""
","""event"",""trial"",""time""
""fullscreenexit"",""58"",""424006""
","9023.300000071526","audio/quiz/Q2_Prompt.wav","","0","","","","","","","","","","","","","","","","","",""
"audio-keyboard-response","131","695263","0.0-72.0","3633","6350","10","Female","false","true","true","true","""event"",""trial"",""time""
""fullscreenenter"",""5"",""20869""
""fullscreenexit"",""58"",""424006""
","
","
","""event"",""trial"",""time""
""fullscreenenter"",""5"",""20869""
","""event"",""trial"",""time""
""fullscreenexit"",""58"",""424006""
","null","audio/quiz/Q2_Correct.wav","null","","","","","","","","","","","","","","","","","","",""
"instructions-quiz","132","700293","0.0-73.0","3633","6350","10","Female","false","true","true","true","""event"",""trial"",""time""
""fullscreenenter"",""5"",""20869""
""fullscreenexit"",""58"",""424006""
","
","
","""event"",""trial"",""time""
""fullscreenenter"",""5"",""20869""
","""event"",""trial"",""time""
""fullscreenexit"",""58"",""424006""
","5027.299999952316","audio/quiz/Q3_Prompt.wav","","1","","","","","","","","","","","","","","","","","",""
"audio-keyboard-response","133","706093","0.0-74.0","3633","6350","10","Female","false","true","true","true","""event"",""trial"",""time""
""fullscreenenter"",""5"",""20869""
""fullscreenexit"",""58"",""424006""
","
","
","""event"",""trial"",""time""
""fullscreenenter"",""5"",""20869""
","""event"",""trial"",""time""
""fullscreenexit"",""58"",""424006""
","null","audio/quiz/Q3_Correct.wav","null","","","","","","","","","","","","","","","","","","",""
"d3-instructions","134","721150","0.0-75.0","3633","6350","10","Female","false","true","true","true","""event"",""trial"",""time""
""fullscreenenter"",""5"",""20869""
""fullscreenexit"",""58"",""424006""
","
","
","""event"",""trial"",""time""
""fullscreenenter"",""5"",""20869""
","""event"",""trial"",""time""
""fullscreenexit"",""58"",""424006""
","","","","","","","","","","","","","","","","","","","","","",""
"pavlovia","135","721158","0.0-76.0","3633","6350","10","Female","false","true","true","true","""event"",""trial"",""time""
""fullscreenenter"",""5"",""20869""
""fullscreenexit"",""58"",""424006""
","
","
","""event"",""trial"",""time""
""fullscreenenter"",""5"",""20869""
","""event"",""trial"",""time""
""fullscreenexit"",""58"",""424006""
","","","","","","","","","","","","","","","","","","","","","",""
"d3-animate-choice","136","724192","0.0-77.0-0.0","3633","6350","10","Female","false","true","true","true","""event"",""trial"",""time""
""fullscreenenter"",""5"",""20869""
""fullscreenexit"",""58"",""424006""
","
","
","""event"",""trial"",""time""
""fullscreenenter"",""5"",""20869""
","""event"",""trial"",""time""
""fullscreenexit"",""58"",""424006""
","1027.9000000953674","","49","","","3000","1","","","images/earth.jpg","images/rocket1","images/rocket2","null","images/rocket2","","1","real","null","","","1",""
"d3-animate-choice","137","726864","0.0-77.0-1.0","3633","6350","10","Female","false","true","true","true","""event"",""trial"",""time""
""fullscreenenter"",""5"",""20869""
""fullscreenexit"",""58"",""424006""
","
","
","""event"",""trial"",""time""
""fullscreenenter"",""5"",""20869""
","""event"",""trial"",""time""
""fullscreenexit"",""58"",""424006""
","666","","48","","","3000","1","","","images/purpleplanet.jpg","images/alien4","images/alien3","images/rocket2","images/alien4","images/t.png","2","real","true","1","2023-02-26 19:21:34.096","2","common"
"two-step-fixation","138","727868","0.0-77.0-2.0","3633","6350","10","Female","false","true","true","true","""event"",""trial"",""time""
""fullscreenenter"",""5"",""20869""
""fullscreenexit"",""58"",""424006""
","
","
","""event"",""trial"",""time""
""fullscreenenter"",""5"",""20869""
","""event"",""trial"",""time""
""fullscreenexit"",""58"",""424006""
","","images/earth.jpg","","","","","","","","","","","","","","fixation","","","","","",""
"d3-animate-choice","139","730296","0.0-77.0-0.1","3633","6350","10","Female","false","true","true","true","""event"",""trial"",""time""
""fullscreenenter"",""5"",""20869""
""fullscreenexit"",""58"",""424006""
","
","
","""event"",""trial"",""time""
""fullscreenenter"",""5"",""20869""
","""event"",""trial"",""time""
""fullscreenexit"",""58"",""424006""
","422.89999997615814","","48","","","3000","1","","","images/earth.jpg","images/rocket1","images/rocket2","null","images/rocket1","","1","real","null","","","2",""
"d3-animate-choice","140","732872","0.0-77.0-1.1","3633","6350","10","Female","false","true","true","true","""event"",""trial"",""time""
""fullscreenenter"",""5"",""20869""
""fullscreenexit"",""58"",""424006""
","
","
","""event"",""trial"",""time""
""fullscreenenter"",""5"",""20869""
","""event"",""trial"",""time""
""fullscreenexit"",""58"",""424006""
","571.1000000238419","","48","","","3000","1","","","images/redplanet1.jpg","images/alien2","images/alien1","images/rocket1","images/alien2","images/t.png","2","real","true","1","2023-02-26 19:21:40.104","2","common"
"two-step-fixation","141","733876","0.0-77.0-2.1","3633","6350","10","Female","false","true","true","true","""event"",""trial"",""time""
""fullscreenenter"",""5"",""20869""
""fullscreenexit"",""58"",""424006""
","
","
","""event"",""trial"",""time""
""fullscreenenter"",""5"",""20869""
","""event"",""trial"",""time""
""fullscreenexit"",""58"",""424006""
","","images/earth.jpg","","","","","","","","","","","","","","fixation","","","","","",""
"d3-animate-choice","142","736327","0.0-77.0-0.2","3633","6350","10","Female","false","true","true","true","""event"",""trial"",""time""
""fullscreenenter"",""5"",""20869""
""fullscreenexit"",""58"",""424006""
","
","
","""event"",""trial"",""time""
""fullscreenenter"",""5"",""20869""
","""event"",""trial"",""time""
""fullscreenexit"",""58"",""424006""
","430.89999997615814","","49","","","3000","1","814.8000000715256","49","images/earth.jpg","images/rocket1","images/rocket2","null","images/rocket2","","1","real","null","","","1",""
"d3-animate-choice","143","738673","0.0-77.0-1.2","3633","6350","10","Female","false","true","true","true","""event"",""trial"",""time""
""fullscreenenter"",""5"",""20869""
""fullscreenexit"",""58"",""424006""
","
","
","""event"",""trial"",""time""
""fullscreenenter"",""5"",""20869""
","""event"",""trial"",""time""
""fullscreenexit"",""58"",""424006""
","340.39999997615814","","49","","","3000","1","","","images/purpleplanet.jpg","images/alien4","images/alien3","images/rocket2","images/alien3","images/nothing.png","2","real","true","0","2023-02-26 19:21:45.905","1","common"
"two-step-fixation","144","739677","0.0-77.0-2.2","3633","6350","10","Female","false","true","true","true","""event"",""trial"",""time""
""fullscreenenter"",""5"",""20869""
""fullscreenexit"",""58"",""424006""
","
","
","""event"",""trial"",""time""
""fullscreenenter"",""5"",""20869""
","""event"",""trial"",""time""
""fullscreenexit"",""58"",""424006""
","","images/earth.jpg","","","","","","","","","","","","","","fixation","","","","","",""
"d3-animate-choice","145","742010","0.0-77.0-0.3","3633","6350","10","Female","false","true","true","true","""event"",""trial"",""time""
""fullscreenenter"",""5"",""20869""
""fullscreenexit"",""58"",""424006""
","
","
","""event"",""trial"",""time""
""fullscreenenter"",""5"",""20869""
","""event"",""trial"",""time""
""fullscreenexit"",""58"",""424006""
","326.5","","48","","","3000","1","","","images/earth.jpg","images/rocket1","images/rocket2","null","images/rocket1","","1","real","null","","","2",""
"d3-animate-choice","146","744406","0.0-77.0-1.3","3633","6350","10","Female","false","true","true","true","""event"",""trial"",""time""
""fullscreenenter"",""5"",""20869""
""fullscreenexit"",""58"",""424006""
","
","
","""event"",""trial"",""time""
""fullscreenenter"",""5"",""20869""
","""event"",""trial"",""time""
""fullscreenexit"",""58"",""424006""
","385.10000002384186","","48","","","3000","1","","","images/redplanet1.jpg","images/alien2","images/alien1","images/rocket1","images/alien2","images/t.png","2","real","true","1","2023-02-26 19:21:51.639","2","common"
"two-step-fixation","147","745410","0.0-77.0-2.3","3633","6350","10","Female","false","true","true","true","""event"",""trial"",""time""
""fullscreenenter"",""5"",""20869""
""fullscreenexit"",""58"",""424006""
","
","
","""event"",""trial"",""time""
""fullscreenenter"",""5"",""20869""
","""event"",""trial"",""time""
""fullscreenexit"",""58"",""424006""
","","images/earth.jpg","","","","","","","","","","","","","","fixation","","","","","",""
"d3-animate-choice","148","747858","0.0-77.0-0.4","3633","6350","10","Female","false","true","true","true","""event"",""trial"",""time""
""fullscreenenter"",""5"",""20869""
""fullscreenexit"",""58"",""424006""
","
","
","""event"",""trial"",""time""
""fullscreenenter"",""5"",""20869""
","""event"",""trial"",""time""
""fullscreenexit"",""58"",""424006""
","440.7000000476837","","49","","","3000","1","","","images/earth.jpg","images/rocket1","images/rocket2","null","images/rocket2","","1","real","null","","","1",""
"d3-animate-choice","149","750377","0.0-77.0-1.4","3633","6350","10","Female","false","true","true","true","""event"",""trial"",""time""
""fullscreenenter"",""5"",""20869""
""fullscreenexit"",""58"",""424006""
","
","
","""event"",""trial"",""time""
""fullscreenenter"",""5"",""20869""
","""event"",""trial"",""time""
""fullscreenexit"",""58"",""424006""
","514.1000000238419","","49","","","3000","1","","","images/purpleplanet.jpg","images/alien4","images/alien3","images/rocket2","images/alien3","images/nothing.png","2","real","true","0","2023-02-26 19:21:57.609","1","common"
"two-step-fixation","150","751382","0.0-77.0-2.4","3633","6350","10","Female","false","true","true","true","""event"",""trial"",""time""
""fullscreenenter"",""5"",""20869""
""fullscreenexit"",""58"",""424006""
","
","
","""event"",""trial"",""time""
""fullscreenenter"",""5"",""20869""
","""event"",""trial"",""time""
""fullscreenexit"",""58"",""424006""
","","images/earth.jpg","","","","","","","","","","","","","","fixation","","","","","",""
"d3-animate-choice","151","754538","0.0-77.0-0.5","3633","6350","10","Female","false","true","true","true","""event"",""trial"",""time""
""fullscreenenter"",""5"",""20869""
""fullscreenexit"",""58"",""424006""
","
","
","""event"",""trial"",""time""
""fullscreenenter"",""5"",""20869""
","""event"",""trial"",""time""
""fullscreenexit"",""58"",""424006""
","1150.2000000476837","","48","","","3000","1","","","images/earth.jpg","images/rocket1","images/rocket2","null","images/rocket1","","1","real","null","","","2",""
"d3-animate-choice","152","758419","0.0-77.0-1.5","3633","6350","10","Female","false","true","true","true","""event"",""trial"",""time""
""fullscreenenter"",""5"",""20869""
""fullscreenexit"",""58"",""424006""
","
","
","""event"",""trial"",""time""
""fullscreenenter"",""5"",""20869""
","""event"",""trial"",""time""
""fullscreenexit"",""58"",""424006""
","1488.2000000476837","","189","","","3000","1","1874","48","images/redplanet1.jpg","images/alien2","images/alien1","images/rocket1","images/alien2","images/nothing.png","2","real","true","0","2023-02-26 19:22:05.651","","common"
"two-step-fixation","153","759424","0.0-77.0-2.5","3633","6350","10","Female","false","true","true","true","""event"",""trial"",""time""
""fullscreenenter"",""5"",""20869""
""fullscreenexit"",""58"",""424006""
","
","
","""event"",""trial"",""time""
""fullscreenenter"",""5"",""20869""
","""event"",""trial"",""time""
""fullscreenexit"",""58"",""424006""
","","images/earth.jpg","","","","","","","","","","","","","","fixation","","","","","",""
"d3-animate-choice","154","761754","0.0-77.0-0.6","3633","6350","10","Female","false","true","true","true","""event"",""trial"",""time""
""fullscreenenter"",""5"",""20869""
""fullscreenexit"",""58"",""424006""
","
","
","""event"",""trial"",""time""
""fullscreenenter"",""5"",""20869""
","""event"",""trial"",""time""
""fullscreenexit"",""58"",""424006""
","323.39999997615814","","49","","","3000","1","","","images/earth.jpg","images/rocket1","images/rocket2","null","images/rocket2","","1","real","null","","","1",""
"d3-animate-choice","155","764378","0.0-77.0-1.6","3633","6350","10","Female","false","true","true","true","""event"",""trial"",""time""
""fullscreenenter"",""5"",""20869""
""fullscreenexit"",""58"",""424006""
","
","
","""event"",""trial"",""time""
""fullscreenenter"",""5"",""20869""
","""event"",""trial"",""time""
""fullscreenexit"",""58"",""424006""
","618.5","","49","","","3000","1","1994.6000000238419","48","images/purpleplanet.jpg","images/alien4","images/alien3","images/rocket2","images/alien3","images/nothing.png","2","real","true","0","2023-02-26 19:22:11.610","1","common"
"two-step-fixation","156","765382","0.0-77.0-2.6","3633","6350","10","Female","false","true","true","true","""event"",""trial"",""time""
""fullscreenenter"",""5"",""20869""
""fullscreenexit"",""58"",""424006""
","
","
","""event"",""trial"",""time""
""fullscreenenter"",""5"",""20869""
","""event"",""trial"",""time""
""fullscreenexit"",""58"",""424006""
","","images/earth.jpg","","","","","","","","","","","","","","fixation","","","","","",""
"d3-animate-choice","157","767738","0.0-77.0-0.7","3633","6350","10","Female","false","true","true","true","""event"",""trial"",""time""
""fullscreenenter"",""5"",""20869""
""fullscreenexit"",""58"",""424006""
","
","
","""event"",""trial"",""time""
""fullscreenenter"",""5"",""20869""
","""event"",""trial"",""time""
""fullscreenexit"",""58"",""424006""
","349.8000000715256","","49","","","3000","1","","","images/earth.jpg","images/rocket1","images/rocket2","null","images/rocket2","","1","real","null","","","1",""
"d3-animate-choice","158","770170","0.0-77.0-1.7","3633","6350","10","Female","false","true","true","true","""event"",""trial"",""time""
""fullscreenenter"",""5"",""20869""
""fullscreenexit"",""58"",""424006""
","
","
","""event"",""trial"",""time""
""fullscreenenter"",""5"",""20869""
","""event"",""trial"",""time""
""fullscreenexit"",""58"",""424006""
","426.10000002384186","","48","","","3000","1","","","images/purpleplanet.jpg","images/alien4","images/alien3","images/rocket2","images/alien4","images/nothing.png","2","real","true","0","2023-02-26 19:22:17.402","2","common"
"two-step-fixation","159","771176","0.0-77.0-2.7","3633","6350","10","Female","false","true","true","true","""event"",""trial"",""time""
""fullscreenenter"",""5"",""20869""
""fullscreenexit"",""58"",""424006""
","
","
","""event"",""trial"",""time""
""fullscreenenter"",""5"",""20869""
","""event"",""trial"",""time""
""fullscreenexit"",""58"",""424006""
","","images/earth.jpg","","","","","","","","","","","","","","fixation","","","","","",""
"d3-animate-choice","160","773667","0.0-77.0-0.8","3633","6350","10","Female","false","true","true","true","""event"",""trial"",""time""
""fullscreenenter"",""5"",""20869""
""fullscreenexit"",""58"",""424006""
","
","
","""event"",""trial"",""time""
""fullscreenenter"",""5"",""20869""
","""event"",""trial"",""time""
""fullscreenexit"",""58"",""424006""
","484.7999999523163","","49","","","3000","1","","","images/earth.jpg","images/rocket1","images/rocket2","null","images/rocket2","","1","real","null","","","1",""
"d3-animate-choice","161","776050","0.0-77.0-1.8","3633","6350","10","Female","false","true","true","true","""event"",""trial"",""time""
""fullscreenenter"",""5"",""20869""
""fullscreenexit"",""58"",""424006""
","
","
","""event"",""trial"",""time""
""fullscreenenter"",""5"",""20869""
","""event"",""trial"",""time""
""fullscreenexit"",""58"",""424006""
","377.89999997615814","","48","","","3000","1","","","images/purpleplanet.jpg","images/alien4","images/alien3","images/rocket2","images/alien4","images/t.png","2","real","true","1","2023-02-26 19:22:23.282","2","common"
"two-step-fixation","162","777055","0.0-77.0-2.8","3633","6350","10","Female","false","true","true","true","""event"",""trial"",""time""
""fullscreenenter"",""5"",""20869""
""fullscreenexit"",""58"",""424006""
","
","
","""event"",""trial"",""time""
""fullscreenenter"",""5"",""20869""
","""event"",""trial"",""time""
""fullscreenexit"",""58"",""424006""
","","images/earth.jpg","","","","","","","","","","","","","","fixation","","","","","",""
"d3-animate-choice","163","779427","0.0-77.0-0.9","3633","6350","10","Female","false","true","true","true","""event"",""trial"",""time""
""fullscreenenter"",""5"",""20869""
""fullscreenexit"",""58"",""424006""
","
","
","""event"",""trial"",""time""
""fullscreenenter"",""5"",""20869""
","""event"",""trial"",""time""
""fullscreenexit"",""58"",""424006""
","367","","48","","","3000","1","","","images/earth.jpg","images/rocket1","images/rocket2","null","images/rocket1","","1","real","null","","","2",""
"d3-animate-choice","164","782298","0.0-77.0-1.9","3633","6350","10","Female","false","true","true","true","""event"",""trial"",""time""
""fullscreenenter"",""5"",""20869""
""fullscreenexit"",""58"",""424006""
","
","
","""event"",""trial"",""time""
""fullscreenenter"",""5"",""20869""
","""event"",""trial"",""time""
""fullscreenexit"",""58"",""424006""
","865.6999999284744","","49","","","3000","1","","","images/purpleplanet.jpg","images/alien4","images/alien3","images/rocket1","images/alien3","images/t.png","2","real","false","1","2023-02-26 19:22:29.530","1","rare"
"two-step-fixation","165","783303","0.0-77.0-2.9","3633","6350","10","Female","false","true","true","true","""event"",""trial"",""time""
""fullscreenenter"",""5"",""20869""
""fullscreenexit"",""58"",""424006""
","
","
","""event"",""trial"",""time""
""fullscreenenter"",""5"",""20869""
","""event"",""trial"",""time""
""fullscreenexit"",""58"",""424006""
","","images/earth.jpg","","","","","","","","","","","","","","fixation","","","","","",""
"d3-animate-choice","166","785803","0.0-77.0-0.10","3633","6350","10","Female","false","true","true","true","""event"",""trial"",""time""
""fullscreenenter"",""5"",""20869""
""fullscreenexit"",""58"",""424006""
","
","
","""event"",""trial"",""time""
""fullscreenenter"",""5"",""20869""
","""event"",""trial"",""time""
""fullscreenexit"",""58"",""424006""
","494.59999990463257","","49","","","3000","1","","","images/earth.jpg","images/rocket1","images/rocket2","null","images/rocket2","","1","real","null","","","1",""
"d3-animate-choice","167","788397","0.0-77.0-1.10","3633","6350","10","Female","false","true","true","true","""event"",""trial"",""time""
""fullscreenenter"",""5"",""20869""
""fullscreenexit"",""58"",""424006""
","
","
","""event"",""trial"",""time""
""fullscreenenter"",""5"",""20869""
","""event"",""trial"",""time""
""fullscreenexit"",""58"",""424006""
","588.5","","49","","","3000","1","","","images/purpleplanet.jpg","images/alien4","images/alien3","images/rocket2","images/alien3","images/t.png","2","real","true","1","2023-02-26 19:22:35.629","1","common"
"two-step-fixation","168","789402","0.0-77.0-2.10","3633","6350","10","Female","false","true","true","true","""event"",""trial"",""time""
""fullscreenenter"",""5"",""20869""
""fullscreenexit"",""58"",""424006""
","
","
","""event"",""trial"",""time""
""fullscreenenter"",""5"",""20869""
","""event"",""trial"",""time""
""fullscreenexit"",""58"",""424006""
","","images/earth.jpg","","","","","","","","","","","","","","fixation","","","","","",""
"d3-animate-choice","169","791764","0.0-77.0-0.11","3633","6350","10","Female","false","true","true","true","""event"",""trial"",""time""
""fullscreenenter"",""5"",""20869""
""fullscreenexit"",""58"",""424006""
","
","
","""event"",""trial"",""time""
""fullscreenenter"",""5"",""20869""
","""event"",""trial"",""time""
""fullscreenexit"",""58"",""424006""
","355.89999997615814","","48","","","3000","1","","","images/earth.jpg","images/rocket1","images/rocket2","null","images/rocket1","","1","real","null","","","2",""
"d3-animate-choice","170","794125","0.0-77.0-1.11","3633","6350","10","Female","false","true","true","true","""event"",""trial"",""time""
""fullscreenenter"",""5"",""20869""
""fullscreenexit"",""58"",""424006""
","
","
","""event"",""trial"",""time""
""fullscreenenter"",""5"",""20869""
","""event"",""trial"",""time""
""fullscreenexit"",""58"",""424006""
","356","","49","","","3000","1","","","images/redplanet1.jpg","images/alien2","images/alien1","images/rocket1","images/alien1","images/nothing.png","2","real","true","0","2023-02-26 19:22:41.357","1","common"
"two-step-fixation","171","795129","0.0-77.0-2.11","3633","6350","10","Female","false","true","true","true","""event"",""trial"",""time""
""fullscreenenter"",""5"",""20869""
""fullscreenexit"",""58"",""424006""
","
","
","""event"",""trial"",""time""
""fullscreenenter"",""5"",""20869""
","""event"",""trial"",""time""
""fullscreenexit"",""58"",""424006""
","","images/earth.jpg","","","","","","","","","","","","","","fixation","","","","","",""
"d3-animate-choice","172","797635","0.0-77.0-0.12","3633","6350","10","Female","false","true","true","true","""event"",""trial"",""time""
""fullscreenenter"",""5"",""20869""
""fullscreenexit"",""58"",""424006""
","
","
","""event"",""trial"",""time""
""fullscreenenter"",""5"",""20869""
","""event"",""trial"",""time""
""fullscreenexit"",""58"",""424006""
","500.2999999523163","","49","","","3000","1","","","images/earth.jpg","images/rocket1","images/rocket2","null","images/rocket2","","1","real","null","","","1",""
"d3-animate-choice","173","800052","0.0-77.0-1.12","3633","6350","10","Female","false","true","true","true","""event"",""trial"",""time""
""fullscreenenter"",""5"",""20869""
""fullscreenexit"",""58"",""424006""
","
","
","""event"",""trial"",""time""
""fullscreenenter"",""5"",""20869""
","""event"",""trial"",""time""
""fullscreenexit"",""58"",""424006""
","412","","48","","","3000","1","","","images/purpleplanet.jpg","images/alien4","images/alien3","images/rocket2","images/alien4","images/t.png","2","real","true","1","2023-02-26 19:22:47.284","2","common"
"two-step-fixation","174","801056","0.0-77.0-2.12","3633","6350","10","Female","false","true","true","true","""event"",""trial"",""time""
""fullscreenenter"",""5"",""20869""
""fullscreenexit"",""58"",""424006""
","
","
","""event"",""trial"",""time""
""fullscreenenter"",""5"",""20869""
","""event"",""trial"",""time""
""fullscreenexit"",""58"",""424006""
","","images/earth.jpg","","","","","","","","","","","","","","fixation","","","","","",""
"d3-animate-choice","175","803403","0.0-77.0-0.13","3633","6350","10","Female","false","true","true","true","""event"",""trial"",""time""
""fullscreenenter"",""5"",""20869""
""fullscreenexit"",""58"",""424006""
","
","
","""event"",""trial"",""time""
""fullscreenenter"",""5"",""20869""
","""event"",""trial"",""time""
""fullscreenexit"",""58"",""424006""
","340.89999997615814","","48","","","3000","1","","","images/earth.jpg","images/rocket1","images/rocket2","null","images/rocket1","","1","real","null","","","2",""
"d3-animate-choice","176","805732","0.0-77.0-1.13","3633","6350","10","Female","false","true","true","true","""event"",""trial"",""time""
""fullscreenenter"",""5"",""20869""
""fullscreenexit"",""58"",""424006""
","
","
","""event"",""trial"",""time""
""fullscreenenter"",""5"",""20869""
","""event"",""trial"",""time""
""fullscreenexit"",""58"",""424006""
","323.90000009536743","","48","","","3000","1","","","images/purpleplanet.jpg","images/alien4","images/alien3","images/rocket1","images/alien4","images/nothing.png","2","real","false","0","2023-02-26 19:22:52.965","2","rare"
"two-step-fixation","177","806736","0.0-77.0-2.13","3633","6350","10","Female","false","true","true","true","""event"",""trial"",""time""
""fullscreenenter"",""5"",""20869""
""fullscreenexit"",""58"",""424006""
","
","
","""event"",""trial"",""time""
""fullscreenenter"",""5"",""20869""
","""event"",""trial"",""time""
""fullscreenexit"",""58"",""424006""
","","images/earth.jpg","","","","","","","","","","","","","","fixation","","","","","",""
"d3-animate-choice","178","809100","0.0-77.0-0.14","3633","6350","10","Female","false","true","true","true","""event"",""trial"",""time""
""fullscreenenter"",""5"",""20869""
""fullscreenexit"",""58"",""424006""
","
","
","""event"",""trial"",""time""
""fullscreenenter"",""5"",""20869""
","""event"",""trial"",""time""
""fullscreenexit"",""58"",""424006""
","357.5","","48","","","3000","1","","","images/earth.jpg","images/rocket1","images/rocket2","null","images/rocket1","","1","real","null","","","2",""
"d3-animate-choice","179","811877","0.0-77.0-1.14","3633","6350","10","Female","false","true","true","true","""event"",""trial"",""time""
""fullscreenenter"",""5"",""20869""
""fullscreenexit"",""58"",""424006""
","
","
","""event"",""trial"",""time""
""fullscreenenter"",""5"",""20869""
","""event"",""trial"",""time""
""fullscreenexit"",""58"",""424006""
","771.7999999523163","","49","","","3000","1","","","images/purpleplanet.jpg","images/alien4","images/alien3","images/rocket1","images/alien3","images/nothing.png","2","real","false","0","2023-02-26 19:22:59.109","1","rare"
"two-step-fixation","180","812883","0.0-77.0-2.14","3633","6350","10","Female","false","true","true","true","""event"",""trial"",""time""
""fullscreenenter"",""5"",""20869""
""fullscreenexit"",""58"",""424006""
","
","
","""event"",""trial"",""time""
""fullscreenenter"",""5"",""20869""
","""event"",""trial"",""time""
""fullscreenexit"",""58"",""424006""
","","images/earth.jpg","","","","","","","","","","","","","","fixation","","","","","",""
"d3-animate-choice","181","815372","0.0-77.0-0.15","3633","6350","10","Female","false","true","true","true","""event"",""trial"",""time""
""fullscreenenter"",""5"",""20869""
""fullscreenexit"",""58"",""424006""
","
","
","""event"",""trial"",""time""
""fullscreenenter"",""5"",""20869""
","""event"",""trial"",""time""
""fullscreenexit"",""58"",""424006""
","483","","48","","","3000","1","","","images/earth.jpg","images/rocket1","images/rocket2","null","images/rocket1","","1","real","null","","","2",""
"d3-animate-choice","182","818428","0.0-77.0-1.15","3633","6350","10","Female","false","true","true","true","""event"",""trial"",""time""
""fullscreenenter"",""5"",""20869""
""fullscreenexit"",""58"",""424006""
","
","
","""event"",""trial"",""time""
""fullscreenenter"",""5"",""20869""
","""event"",""trial"",""time""
""fullscreenexit"",""58"",""424006""
","1050","","49","","","3000","1","","","images/redplanet1.jpg","images/alien2","images/alien1","images/rocket1","images/alien1","images/t.png","2","real","true","1","2023-02-26 19:23:05.660","1","common"
"two-step-fixation","183","819433","0.0-77.0-2.15","3633","6350","10","Female","false","true","true","true","""event"",""trial"",""time""
""fullscreenenter"",""5"",""20869""
""fullscreenexit"",""58"",""424006""
","
","
","""event"",""trial"",""time""
""fullscreenenter"",""5"",""20869""
","""event"",""trial"",""time""
""fullscreenexit"",""58"",""424006""
","","images/earth.jpg","","","","","","","","","","","","","","fixation","","","","","",""
"d3-animate-choice","184","822117","0.0-77.0-0.16","3633","6350","10","Female","false","true","true","true","""event"",""trial"",""time""
""fullscreenenter"",""5"",""20869""
""fullscreenexit"",""58"",""424006""
","
","
","""event"",""trial"",""time""
""fullscreenenter"",""5"",""20869""
","""event"",""trial"",""time""
""fullscreenexit"",""58"",""424006""
","678.6000000238419","","49","","","3000","1","","","images/earth.jpg","images/rocket1","images/rocket2","null","images/rocket2","","1","real","null","","","1",""
"d3-animate-choice","185","824860","0.0-77.0-1.16","3633","6350","10","Female","false","true","true","true","""event"",""trial"",""time""
""fullscreenenter"",""5"",""20869""
""fullscreenexit"",""58"",""424006""
","
","
","""event"",""trial"",""time""
""fullscreenenter"",""5"",""20869""
","""event"",""trial"",""time""
""fullscreenexit"",""58"",""424006""
","738.4000000953674","","49","","","3000","1","","","images/purpleplanet.jpg","images/alien4","images/alien3","images/rocket2","images/alien3","images/nothing.png","2","real","true","0","2023-02-26 19:23:12.092","1","common"
"two-step-fixation","186","825865","0.0-77.0-2.16","3633","6350","10","Female","false","true","true","true","""event"",""trial"",""time""
""fullscreenenter"",""5"",""20869""
""fullscreenexit"",""58"",""424006""
","
","
","""event"",""trial"",""time""
""fullscreenenter"",""5"",""20869""
","""event"",""trial"",""time""
""fullscreenexit"",""58"",""424006""
","","images/earth.jpg","","","","","","","","","","","","","","fixation","","","","","",""
"d3-animate-choice","187","828078","0.0-77.0-0.17","3633","6350","10","Female","false","true","true","true","""event"",""trial"",""time""
""fullscreenenter"",""5"",""20869""
""fullscreenexit"",""58"",""424006""
","
","
","""event"",""trial"",""time""
""fullscreenenter"",""5"",""20869""
","""event"",""trial"",""time""
""fullscreenexit"",""58"",""424006""
","205","","48","","","3000","1","","","images/earth.jpg","images/rocket1","images/rocket2","null","images/rocket1","","1","real","null","","","2",""
"d3-animate-choice","188","830668","0.0-77.0-1.17","3633","6350","10","Female","false","true","true","true","""event"",""trial"",""time""
""fullscreenenter"",""5"",""20869""
""fullscreenexit"",""58"",""424006""
","
","
","""event"",""trial"",""time""
""fullscreenenter"",""5"",""20869""
","""event"",""trial"",""time""
""fullscreenexit"",""58"",""424006""
","584.0999999046326","","49","","","3000","1","","","images/redplanet1.jpg","images/alien2","images/alien1","images/rocket1","images/alien1","images/t.png","2","real","true","1","2023-02-26 19:23:17.900","1","common"
"two-step-fixation","189","831672","0.0-77.0-2.17","3633","6350","10","Female","false","true","true","true","""event"",""trial"",""time""
""fullscreenenter"",""5"",""20869""
""fullscreenexit"",""58"",""424006""
","
","
","""event"",""trial"",""time""
""fullscreenenter"",""5"",""20869""
","""event"",""trial"",""time""
""fullscreenexit"",""58"",""424006""
","","images/earth.jpg","","","","","","","","","","","","","","fixation","","","","","",""
"d3-animate-choice","190","834119","0.0-77.0-0.18","3633","6350","10","Female","false","true","true","true","""event"",""trial"",""time""
""fullscreenenter"",""5"",""20869""
""fullscreenexit"",""58"",""424006""
","
","
","""event"",""trial"",""time""
""fullscreenenter"",""5"",""20869""
","""event"",""trial"",""time""
""fullscreenexit"",""58"",""424006""
","441.2999999523163","","49","","","3000","1","","","images/earth.jpg","images/rocket1","images/rocket2","null","images/rocket2","","1","real","null","","","1",""
"d3-animate-choice","191","836710","0.0-77.0-1.18","3633","6350","10","Female","false","true","true","true","""event"",""trial"",""time""
""fullscreenenter"",""5"",""20869""
""fullscreenexit"",""58"",""424006""
","
","
","""event"",""trial"",""time""
""fullscreenenter"",""5"",""20869""
","""event"",""trial"",""time""
""fullscreenexit"",""58"",""424006""
","585.7000000476837","","49","","","3000","1","","","images/redplanet1.jpg","images/alien2","images/alien1","images/rocket2","images/alien1","images/t.png","2","real","false","1","2023-02-26 19:23:23.942","1","rare"
"two-step-fixation","192","837715","0.0-77.0-2.18","3633","6350","10","Female","false","true","true","true","""event"",""trial"",""time""
""fullscreenenter"",""5"",""20869""
""fullscreenexit"",""58"",""424006""
","
","
","""event"",""trial"",""time""
""fullscreenenter"",""5"",""20869""
","""event"",""trial"",""time""
""fullscreenexit"",""58"",""424006""
","","images/earth.jpg","","","","","","","","","","","","","","fixation","","","","","",""
"d3-animate-choice","193","840165","0.0-77.0-0.19","3633","6350","10","Female","false","true","true","true","""event"",""trial"",""time""
""fullscreenenter"",""5"",""20869""
""fullscreenexit"",""58"",""424006""
","
","
","""event"",""trial"",""time""
""fullscreenenter"",""5"",""20869""
","""event"",""trial"",""time""
""fullscreenexit"",""58"",""424006""
","443.60000002384186","","49","","","3000","1","","","images/earth.jpg","images/rocket1","images/rocket2","null","images/rocket2","","1","real","null","","","1",""
"d3-animate-choice","194","843188","0.0-77.0-1.19","3633","6350","10","Female","false","true","true","true","""event"",""trial"",""time""
""fullscreenenter"",""5"",""20869""
""fullscreenexit"",""58"",""424006""
","
","
","""event"",""trial"",""time""
""fullscreenenter"",""5"",""20869""
","""event"",""trial"",""time""
""fullscreenexit"",""58"",""424006""
","473.60000002384186","","192","","","3000","1","1017.4000000953674","49","images/purpleplanet.jpg","images/alien4","images/alien3","images/rocket2","images/alien3","images/t.png","2","real","true","1","2023-02-26 19:23:30.420","","common"
"two-step-fixation","195","844193","0.0-77.0-2.19","3633","6350","10","Female","false","true","true","true","""event"",""trial"",""time""
""fullscreenenter"",""5"",""20869""
""fullscreenexit"",""58"",""424006""
","
","
","""event"",""trial"",""time""
""fullscreenenter"",""5"",""20869""
","""event"",""trial"",""time""
""fullscreenexit"",""58"",""424006""
","","images/earth.jpg","","","","","","","","","","","","","","fixation","","","","","",""
"d3-animate-choice","196","846805","0.0-77.0-0.20","3633","6350","10","Female","false","true","true","true","""event"",""trial"",""time""
""fullscreenenter"",""5"",""20869""
""fullscreenexit"",""58"",""424006""
","
","
","""event"",""trial"",""time""
""fullscreenenter"",""5"",""20869""
","""event"",""trial"",""time""
""fullscreenexit"",""58"",""424006""
","606","","48","","","3000","1","","","images/earth.jpg","images/rocket1","images/rocket2","null","images/rocket1","","1","real","null","","","2",""
"d3-animate-choice","197","849309","0.0-77.0-1.20","3633","6350","10","Female","false","true","true","true","""event"",""trial"",""time""
""fullscreenenter"",""5"",""20869""
""fullscreenexit"",""58"",""424006""
","
","
","""event"",""trial"",""time""
""fullscreenenter"",""5"",""20869""
","""event"",""trial"",""time""
""fullscreenexit"",""58"",""424006""
","499.10000002384186","","49","","","3000","1","","","images/redplanet1.jpg","images/alien2","images/alien1","images/rocket1","images/alien1","images/nothing.png","2","real","true","0","2023-02-26 19:23:36.541","1","common"
"two-step-fixation","198","850315","0.0-77.0-2.20","3633","6350","10","Female","false","true","true","true","""event"",""trial"",""time""
""fullscreenenter"",""5"",""20869""
""fullscreenexit"",""58"",""424006""
","
","
","""event"",""trial"",""time""
""fullscreenenter"",""5"",""20869""
","""event"",""trial"",""time""
""fullscreenexit"",""58"",""424006""
","","images/earth.jpg","","","","","","","","","","","","","","fixation","","","","","",""
"d3-animate-choice","199","852716","0.0-77.0-0.21","3633","6350","10","Female","false","true","true","true","""event"",""trial"",""time""
""fullscreenenter"",""5"",""20869""
""fullscreenexit"",""58"",""424006""
","
","
","""event"",""trial"",""time""
""fullscreenenter"",""5"",""20869""
","""event"",""trial"",""time""
""fullscreenexit"",""58"",""424006""
","394.2999999523163","","49","","","3000","1","","","images/earth.jpg","images/rocket1","images/rocket2","null","images/rocket2","","1","real","null","","","1",""
"d3-animate-choice","200","855061","0.0-77.0-1.21","3633","6350","10","Female","false","true","true","true","""event"",""trial"",""time""
""fullscreenenter"",""5"",""20869""
""fullscreenexit"",""58"",""424006""
","
","
","""event"",""trial"",""time""
""fullscreenenter"",""5"",""20869""
","""event"",""trial"",""time""
""fullscreenexit"",""58"",""424006""
","339.2999999523163","","49","","","3000","1","","","images/redplanet1.jpg","images/alien2","images/alien1","images/rocket2","images/alien1","images/t.png","2","real","false","1","2023-02-26 19:23:42.293","1","rare"
"two-step-fixation","201","856066","0.0-77.0-2.21","3633","6350","10","Female","false","true","true","true","""event"",""trial"",""time""
""fullscreenenter"",""5"",""20869""
""fullscreenexit"",""58"",""424006""
","
","
","""event"",""trial"",""time""
""fullscreenenter"",""5"",""20869""
","""event"",""trial"",""time""
""fullscreenexit"",""58"",""424006""
","","images/earth.jpg","","","","","","","","","","","","","","fixation","","","","","",""
"d3-animate-choice","202","858398","0.0-77.0-0.22","3633","6350","10","Female","false","true","true","true","""event"",""trial"",""time""
""fullscreenenter"",""5"",""20869""
""fullscreenexit"",""58"",""424006""
","
","
","""event"",""trial"",""time""
""fullscreenenter"",""5"",""20869""
","""event"",""trial"",""time""
""fullscreenexit"",""58"",""424006""
","326.3000000715256","","49","","","3000","1","","","images/earth.jpg","images/rocket1","images/rocket2","null","images/rocket2","","1","real","null","","","1",""
"d3-animate-choice","203","861054","0.0-77.0-1.22","3633","6350","10","Female","false","true","true","true","""event"",""trial"",""time""
""fullscreenenter"",""5"",""20869""
""fullscreenexit"",""58"",""424006""
","
","
","""event"",""trial"",""time""
""fullscreenenter"",""5"",""20869""
","""event"",""trial"",""time""
""fullscreenexit"",""58"",""424006""
","650.1000000238419","","48","","","3000","1","","","images/purpleplanet.jpg","images/alien4","images/alien3","images/rocket2","images/alien4","images/t.png","2","real","true","1","2023-02-26 19:23:48.286","2","common"
"two-step-fixation","204","862058","0.0-77.0-2.22","3633","6350","10","Female","false","true","true","true","""event"",""trial"",""time""
""fullscreenenter"",""5"",""20869""
""fullscreenexit"",""58"",""424006""
","
","
","""event"",""trial"",""time""
""fullscreenenter"",""5"",""20869""
","""event"",""trial"",""time""
""fullscreenexit"",""58"",""424006""
","","images/earth.jpg","","","","","","","","","","","","","","fixation","","","","","",""
"d3-animate-choice","205","864478","0.0-77.0-0.23","3633","6350","10","Female","false","true","true","true","""event"",""trial"",""time""
""fullscreenenter"",""5"",""20869""
""fullscreenexit"",""58"",""424006""
","
","
","""event"",""trial"",""time""
""fullscreenenter"",""5"",""20869""
","""event"",""trial"",""time""
""fullscreenexit"",""58"",""424006""
","414.5","","49","","","3000","1","","","images/earth.jpg","images/rocket1","images/rocket2","null","images/rocket2","","1","real","null","","","1",""
"d3-animate-choice","206","867036","0.0-77.0-1.23","3633","6350","10","Female","false","true","true","true","""event"",""trial"",""time""
""fullscreenenter"",""5"",""20869""
""fullscreenexit"",""58"",""424006""
","
","
","""event"",""trial"",""time""
""fullscreenenter"",""5"",""20869""
","""event"",""trial"",""time""
""fullscreenexit"",""58"",""424006""
","553.2000000476837","","49","","","3000","1","","","images/purpleplanet.jpg","images/alien4","images/alien3","images/rocket2","images/alien3","images/t.png","2","real","true","1","2023-02-26 19:23:54.268","1","common"
"two-step-fixation","207","868040","0.0-77.0-2.23","3633","6350","10","Female","false","true","true","true","""event"",""trial"",""time""
""fullscreenenter"",""5"",""20869""
""fullscreenexit"",""58"",""424006""
","
","
","""event"",""trial"",""time""
""fullscreenenter"",""5"",""20869""
","""event"",""trial"",""time""
""fullscreenexit"",""58"",""424006""
","","images/earth.jpg","","","","","","","","","","","","","","fixation","","","","","",""
"d3-animate-choice","208","870405","0.0-77.0-0.24","3633","6350","10","Female","false","true","true","true","""event"",""trial"",""time""
""fullscreenenter"",""5"",""20869""
""fullscreenexit"",""58"",""424006""
","
","
","""event"",""trial"",""time""
""fullscreenenter"",""5"",""20869""
","""event"",""trial"",""time""
""fullscreenexit"",""58"",""424006""
