"trial_type","trial_index","time_elapsed","internal_node_id","participant_id","subject_id","age","gender","rocket_sides","red_planet_first_rocket","red_display_order","purple_display_order","interactions","blur_events","focus_events","fullscreenenter_events","fullscreenexit_events","rt","stimulus","key_press","button_pressed","success","duration","valid_pressed","rts","keys","planet_text","right_text","left_text","center_text","chosen_text","reward_text","trial_stage","practice_trial","transition_type","choice","transition","reward","timestamp"
"pavlovia","0","4","0.0-0.0","3529","6187","12","Female","true","true","true","false","
","
","
","
","
","","","","","","","","","","","","","","","","","","","","","",""
"html-keyboard-response","1","12843","0.0-1.0","3529","6187","12","Female","true","true","true","false","
","
","
","
","
","12837.199999809265","Welcome! Press the space bar to begin.","32","","","","","","","","","","","","","","","","","","",""
"audio-keyboard-response","2","17855","0.0-2.0","3529","6187","12","Female","true","true","true","false","
","
","
","
","
","4901","audio/beep_loop.wav","32","","","","","","","","","","","","","","","","","","",""
"audio-button-response","3","20738","0.0-3.0","3529","6187","12","Female","true","true","true","false","
","
","
","
","
","NaN","audio/fish.mp3","","1","","","","","","","","","","","","","","","","","",""
"audio-button-response","4","23649","0.0-4.0","3529","6187","12","Female","true","true","true","false","""event"",""trial"",""time""
""fullscreenenter"",""5"",""30959""
","
","
","""event"",""trial"",""time""
""fullscreenenter"",""5"",""30959""
","
","NaN","audio/tiger.mp3","","4","","","","","","","","","","","","","","","","","",""
"fullscreen","5","31920","0.0-5.0","3529","6187","12","Female","true","true","true","false","""event"",""trial"",""time""
""fullscreenenter"",""5"",""30959""
","
","
","""event"",""trial"",""time""
""fullscreenenter"",""5"",""30959""
","
","","","","","true","","","","","","","","","","","","","","","","",""
"d3-instructions","6","45279","0.0-6.0","3529","6187","12","Female","true","true","true","false","""event"",""trial"",""time""
""fullscreenenter"",""5"",""30959""
","
","
","""event"",""trial"",""time""
""fullscreenenter"",""5"",""30959""
","
","","","","","","","","","","","","","","","","","","","","","",""
"d3-instructions","7","54383","0.0-7.0","3529","6187","12","Female","true","true","true","false","""event"",""trial"",""time""
""fullscreenenter"",""5"",""30959""
","
","
","""event"",""trial"",""time""
""fullscreenenter"",""5"",""30959""
","
","","","","","","","","","","","","","","","","","","","","","",""
"d3-instructions","8","61287","0.0-8.0","3529","6187","12","Female","true","true","true","false","""event"",""trial"",""time""
""fullscreenenter"",""5"",""30959""
","
","
","""event"",""trial"",""time""
""fullscreenenter"",""5"",""30959""
","
","","","","","","","","","","","","","","","","","","","","","",""
"d3-instructions","9","73552","0.0-9.0","3529","6187","12","Female","true","true","true","false","""event"",""trial"",""time""
""fullscreenenter"",""5"",""30959""
","
","
","""event"",""trial"",""time""
""fullscreenenter"",""5"",""30959""
","
","","","","","","","","","","","","","","","","","","","","","",""
"d3-instructions","10","93295","0.0-10.0","3529","6187","12","Female","true","true","true","false","""event"",""trial"",""time""
""fullscreenenter"",""5"",""30959""
","
","
","""event"",""trial"",""time""
""fullscreenenter"",""5"",""30959""
","
","","","","","","","","","","","","","","","","","","","","","",""
"d3-animate-choice","11","96387","0.0-11.0","3529","6187","12","Female","true","true","true","false","""event"",""trial"",""time""
""fullscreenenter"",""5"",""30959""
","
","
","""event"",""trial"",""time""
""fullscreenenter"",""5"",""30959""
","
","1067.4000000953674","","49","","","3000","1","","","images/tutgreenplanet.jpg","images/tutalien1","images/tutalien2","null","images/tutalien2","","NA","practice","null","","","",""
"d3-animate-choice","12","98540","0.0-12.0","3529","6187","12","Female","true","true","true","false","""event"",""trial"",""time""
""fullscreenenter"",""5"",""30959""
","
","
","""event"",""trial"",""time""
""fullscreenenter"",""5"",""30959""
","
","128.60000038146973","","48","","","3000","1","","","images/tutgreenplanet.jpg","images/tutalien1","images/tutalien2","null","images/tutalien1","","NA","practice","null","","","",""
"d3-animate-choice","13","100610","0.0-13.0","3529","6187","12","Female","true","true","true","false","""event"",""trial"",""time""
""fullscreenenter"",""5"",""30959""
","
","
","""event"",""trial"",""time""
""fullscreenenter"",""5"",""30959""
","
","46.90000009536743","","49","","","3000","1","1878.7999997138977","48","images/tutgreenplanet.jpg","images/tutalien1","images/tutalien2","null","images/tutalien2","","NA","practice","null","","","",""
"d3-animate-choice","14","104620","0.0-14.0","3529","6187","12","Female","true","true","true","false","""event"",""trial"",""time""
""fullscreenenter"",""5"",""30959""
","
","
","""event"",""trial"",""time""
""fullscreenenter"",""5"",""30959""
","
","1985.5","","49","","","3000","1","","","images/tutgreenplanet.jpg","images/tutalien1","images/tutalien2","null","images/tutalien2","","NA","practice","null","","","",""
"d3-instructions","15","110959","0.0-15.0","3529","6187","12","Female","true","true","true","false","""event"",""trial"",""time""
""fullscreenenter"",""5"",""30959""
","
","
","""event"",""trial"",""time""
""fullscreenenter"",""5"",""30959""
","
","","","","","","","","","","","","","","","","","","","","","",""
"d3-instructions","16","118327","0.0-16.0","3529","6187","12","Female","true","true","true","false","""event"",""trial"",""time""
""fullscreenenter"",""5"",""30959""
","
","
","""event"",""trial"",""time""
""fullscreenenter"",""5"",""30959""
","
","","","","","","","","","","","","","","","","","","","","","",""
"d3-instructions","17","127623","0.0-17.0","3529","6187","12","Female","true","true","true","false","""event"",""trial"",""time""
""fullscreenenter"",""5"",""30959""
","
","
","""event"",""trial"",""time""
""fullscreenenter"",""5"",""30959""
","
","","","","","","","","","","","","","","","","","","","","","",""
"d3-instructions","18","140102","0.0-18.0","3529","6187","12","Female","true","true","true","false","""event"",""trial"",""time""
""fullscreenenter"",""5"",""30959""
","
","
","""event"",""trial"",""time""
""fullscreenenter"",""5"",""30959""
","
","","","","","","","","","","","","","","","","","","","","","",""
"d3-instructions","19","155294","0.0-19.0","3529","6187","12","Female","true","true","true","false","""event"",""trial"",""time""
""fullscreenenter"",""5"",""30959""
","
","
","""event"",""trial"",""time""
""fullscreenenter"",""5"",""30959""
","
","","","","","","","","","","","","","","","","","","","","","",""
"d3-animate-choice","20","158020","0.0-20.0","3529","6187","12","Female","true","true","true","false","""event"",""trial"",""time""
""fullscreenenter"",""5"",""30959""
","
","
","""event"",""trial"",""time""
""fullscreenenter"",""5"",""30959""
","
","716.3999996185303","","49","","","3000","1","","","images/tutyellowplanet.jpg","null","images/tutalien3","null","images/tutalien3","images/t.png","NA","practice","null","","","",""
"d3-animate-choice","21","160566","0.0-21.0","3529","6187","12","Female","true","true","true","false","""event"",""trial"",""time""
""fullscreenenter"",""5"",""30959""
","
","
","""event"",""trial"",""time""
""fullscreenenter"",""5"",""30959""
","
","527.6000003814697","","49","","","3000","1","","","images/tutyellowplanet.jpg","null","images/tutalien3","null","images/tutalien3","images/t.png","NA","practice","null","","","",""
"d3-animate-choice","22","163349","0.0-22.0","3529","6187","12","Female","true","true","true","false","""event"",""trial"",""time""
""fullscreenenter"",""5"",""30959""
","
","
","""event"",""trial"",""time""
""fullscreenenter"",""5"",""30959""
","
","773.2999997138977","","49","","","3000","1","","","images/tutyellowplanet.jpg","null","images/tutalien3","null","images/tutalien3","images/t.png","NA","practice","null","","","",""
"d3-animate-choice","23","165950","0.0-23.0","3529","6187","12","Female","true","true","true","false","""event"",""trial"",""time""
""fullscreenenter"",""5"",""30959""
","
","
","""event"",""trial"",""time""
""fullscreenenter"",""5"",""30959""
","
","581.5","","49","","","3000","1","","","images/tutyellowplanet.jpg","null","images/tutalien3","null","images/tutalien3","images/t.png","NA","practice","null","","","",""
"d3-animate-choice","24","168499","0.0-24.0","3529","6187","12","Female","true","true","true","false","""event"",""trial"",""time""
""fullscreenenter"",""5"",""30959""
","
","
","""event"",""trial"",""time""
""fullscreenenter"",""5"",""30959""
","
","533.8000001907349","","49","","","3000","1","","","images/tutyellowplanet.jpg","null","images/tutalien3","null","images/tutalien3","images/nothing.png","NA","practice","null","","","",""
"d3-animate-choice","25","171049","0.0-25.0","3529","6187","12","Female","true","true","true","false","""event"",""trial"",""time""
""fullscreenenter"",""5"",""30959""
","
","
","""event"",""trial"",""time""
""fullscreenenter"",""5"",""30959""
","
","535.6000003814697","","49","","","3000","1","","","images/tutyellowplanet.jpg","null","images/tutalien3","null","images/tutalien3","images/t.png","NA","practice","null","","","",""
"d3-animate-choice","26","173829","0.0-26.0","3529","6187","12","Female","true","true","true","false","""event"",""trial"",""time""
""fullscreenenter"",""5"",""30959""
","
","
","""event"",""trial"",""time""
""fullscreenenter"",""5"",""30959""
","
","761.5999999046326","","49","","","3000","1","","","images/tutyellowplanet.jpg","null","images/tutalien3","null","images/tutalien3","images/nothing.png","NA","practice","null","","","",""
"d3-animate-choice","27","176539","0.0-27.0","3529","6187","12","Female","true","true","true","false","""event"",""trial"",""time""
""fullscreenenter"",""5"",""30959""
","
","
","""event"",""trial"",""time""
""fullscreenenter"",""5"",""30959""
","
","685.2999997138977","","49","","","3000","1","","","images/tutyellowplanet.jpg","null","images/tutalien3","null","images/tutalien3","images/t.png","NA","practice","null","","","",""
"d3-animate-choice","28","179089","0.0-28.0","3529","6187","12","Female","true","true","true","false","""event"",""trial"",""time""
""fullscreenenter"",""5"",""30959""
","
","
","""event"",""trial"",""time""
""fullscreenenter"",""5"",""30959""
","
","535.9000000953674","","49","","","3000","1","","","images/tutyellowplanet.jpg","null","images/tutalien3","null","images/tutalien3","images/t.png","NA","practice","null","","","",""
"d3-animate-choice","29","181950","0.0-29.0","3529","6187","12","Female","true","true","true","false","""event"",""trial"",""time""
""fullscreenenter"",""5"",""30959""
","
","
","""event"",""trial"",""time""
""fullscreenenter"",""5"",""30959""
","
","833.5999999046326","","49","","","3000","1","","","images/tutyellowplanet.jpg","null","images/tutalien3","null","images/tutalien3","images/t.png","NA","practice","null","","","",""
"d3-instructions","30","188278","0.0-30.0","3529","6187","12","Female","true","true","true","false","""event"",""trial"",""time""
""fullscreenenter"",""5"",""30959""
","
","
","""event"",""trial"",""time""
""fullscreenenter"",""5"",""30959""
","
","","","","","","","","","","","","","","","","","","","","","",""
"d3-instructions","31","199997","0.0-31.0","3529","6187","12","Female","true","true","true","false","""event"",""trial"",""time""
""fullscreenenter"",""5"",""30959""
","
","
","""event"",""trial"",""time""
""fullscreenenter"",""5"",""30959""
","
","","","","","","","","","","","","","","","","","","","","","",""
"d3-instructions","32","207413","0.0-32.0","3529","6187","12","Female","true","true","true","false","""event"",""trial"",""time""
""fullscreenenter"",""5"",""30959""
","
","
","""event"",""trial"",""time""
""fullscreenenter"",""5"",""30959""
","
","","","","","","","","","","","","","","","","","","","","","",""
"d3-instructions","33","217325","0.0-33.0","3529","6187","12","Female","true","true","true","false","""event"",""trial"",""time""
""fullscreenenter"",""5"",""30959""
","
","
","""event"",""trial"",""time""
""fullscreenenter"",""5"",""30959""
","
","","","","","","","","","","","","","","","","","","","","","",""
"d3-animate-choice","34","220939","0.0-34.0","3529","6187","12","Female","true","true","true","false","""event"",""trial"",""time""
""fullscreenenter"",""5"",""30959""
","
","
","""event"",""trial"",""time""
""fullscreenenter"",""5"",""30959""
","
","1589.3000001907349","","49","","","3000","1","","","images/tutgreenplanet.jpg","images/tutalien1","images/tutalien2","null","images/tutalien2","images/t.png","NA","practice","null","","","",""
"d3-animate-choice","35","223558","0.0-35.0","3529","6187","12","Female","true","true","true","false","""event"",""trial"",""time""
""fullscreenenter"",""5"",""30959""
","
","
","""event"",""trial"",""time""
""fullscreenenter"",""5"",""30959""
","
","607.5999999046326","","48","","","3000","1","","","images/tutgreenplanet.jpg","images/tutalien1","images/tutalien2","null","images/tutalien1","images/nothing.png","NA","practice","null","","","",""
"d3-animate-choice","36","226458","0.0-36.0","3529","6187","12","Female","true","true","true","false","""event"",""trial"",""time""
""fullscreenenter"",""5"",""30959""
","
","
","""event"",""trial"",""time""
""fullscreenenter"",""5"",""30959""
","
","875.6999998092651","","48","","","3000","1","","","images/tutgreenplanet.jpg","images/tutalien1","images/tutalien2","null","images/tutalien1","images/nothing.png","NA","practice","null","","","",""
"d3-animate-choice","37","229109","0.0-37.0","3529","6187","12","Female","true","true","true","false","""event"",""trial"",""time""
""fullscreenenter"",""5"",""30959""
","
","
","""event"",""trial"",""time""
""fullscreenenter"",""5"",""30959""
","
","631.9000000953674","","49","","","3000","1","","","images/tutgreenplanet.jpg","images/tutalien1","images/tutalien2","null","images/tutalien2","images/t.png","NA","practice","null","","","",""
"d3-animate-choice","38","231656","0.0-38.0","3529","6187","12","Female","true","true","true","false","""event"",""trial"",""time""
""fullscreenenter"",""5"",""30959""
","
","
","""event"",""trial"",""time""
""fullscreenenter"",""5"",""30959""
","
","541.5","","49","","","3000","1","","","images/tutgreenplanet.jpg","images/tutalien1","images/tutalien2","null","images/tutalien2","images/t.png","NA","practice","null","","","",""
"d3-animate-choice","39","234129","0.0-39.0","3529","6187","12","Female","true","true","true","false","""event"",""trial"",""time""
""fullscreenenter"",""5"",""30959""
","
","
","""event"",""trial"",""time""
""fullscreenenter"",""5"",""30959""
","
","466.59999990463257","","49","","","3000","1","","","images/tutgreenplanet.jpg","images/tutalien1","images/tutalien2","null","images/tutalien2","images/t.png","NA","practice","null","","","",""
"d3-animate-choice","40","236639","0.0-40.0","3529","6187","12","Female","true","true","true","false","""event"",""trial"",""time""
""fullscreenenter"",""5"",""30959""
","
","
","""event"",""trial"",""time""
""fullscreenenter"",""5"",""30959""
","
","497.5","","49","","","3000","1","","","images/tutgreenplanet.jpg","images/tutalien1","images/tutalien2","null","images/tutalien2","images/t.png","NA","practice","null","","","",""
"d3-animate-choice","41","239177","0.0-41.0","3529","6187","12","Female","true","true","true","false","""event"",""trial"",""time""
""fullscreenenter"",""5"",""30959""
","
","
","""event"",""trial"",""time""
""fullscreenenter"",""5"",""30959""
","
","531.5","","49","","","3000","1","","","images/tutgreenplanet.jpg","images/tutalien1","images/tutalien2","null","images/tutalien2","images/t.png","NA","practice","null","","","",""
"d3-animate-choice","42","241659","0.0-42.0","3529","6187","12","Female","true","true","true","false","""event"",""trial"",""time""
""fullscreenenter"",""5"",""30959""
","
","
","""event"",""trial"",""time""
""fullscreenenter"",""5"",""30959""
","
","473.19999980926514","","49","","","3000","1","","","images/tutgreenplanet.jpg","images/tutalien1","images/tutalien2","null","images/tutalien2","images/t.png","NA","practice","null","","","",""
"d3-animate-choice","43","244065","0.0-43.0","3529","6187","12","Female","true","true","true","false","""event"",""trial"",""time""
""fullscreenenter"",""5"",""30959""
","
","
","""event"",""trial"",""time""
""fullscreenenter"",""5"",""30959""
","
","399.40000009536743","","49","","","3000","1","","","images/tutgreenplanet.jpg","images/tutalien1","images/tutalien2","null","images/tutalien2","images/t.png","NA","practice","null","","","",""
"d3-instructions","44","256157","0.0-44.0","3529","6187","12","Female","true","true","true","false","""event"",""trial"",""time""
""fullscreenenter"",""5"",""30959""
","
","
","""event"",""trial"",""time""
""fullscreenenter"",""5"",""30959""
","
","","","","","","","","","","","","","","","","","","","","","",""
"d3-instructions","45","262957","0.0-45.0","3529","6187","12","Female","true","true","true","false","""event"",""trial"",""time""
""fullscreenenter"",""5"",""30959""
","
","
","""event"",""trial"",""time""
""fullscreenenter"",""5"",""30959""
","
","","","","","","","","","","","","","","","","","","","","","",""
"d3-instructions","46","267548","0.0-46.0","3529","6187","12","Female","true","true","true","false","""event"",""trial"",""time""
""fullscreenenter"",""5"",""30959""
","
","
","""event"",""trial"",""time""
""fullscreenenter"",""5"",""30959""
","
","","","","","","","","","","","","","","","","","","","","","",""
"d3-instructions","47","284573","0.0-47.0","3529","6187","12","Female","true","true","true","false","""event"",""trial"",""time""
""fullscreenenter"",""5"",""30959""
","
","
","""event"",""trial"",""time""
""fullscreenenter"",""5"",""30959""
","
","","","","","","","","","","","","","","","","","","","","","",""
"d3-instructions","48","290733","0.0-48.0","3529","6187","12","Female","true","true","true","false","""event"",""trial"",""time""
""fullscreenenter"",""5"",""30959""
","
","
","""event"",""trial"",""time""
""fullscreenenter"",""5"",""30959""
","
","","","","","","","","","","","","","","","","","","","","","",""
"d3-instructions","49","301421","0.0-49.0","3529","6187","12","Female","true","true","true","false","""event"",""trial"",""time""
""fullscreenenter"",""5"",""30959""
","
","
","""event"",""trial"",""time""
""fullscreenenter"",""5"",""30959""
","
","","","","","","","","","","","","","","","","","","","","","",""
"d3-instructions","50","310109","0.0-50.0","3529","6187","12","Female","true","true","true","false","""event"",""trial"",""time""
""fullscreenenter"",""5"",""30959""
","
","
","""event"",""trial"",""time""
""fullscreenenter"",""5"",""30959""
","
","","","","","","","","","","","","","","","","","","","","","",""
"d3-instructions","51","312685","0.0-51.0","3529","6187","12","Female","true","true","true","false","""event"",""trial"",""time""
""fullscreenenter"",""5"",""30959""
","
","
","""event"",""trial"",""time""
""fullscreenenter"",""5"",""30959""
","
","","","","","","","","","","","","","","","","","","","","","",""
"d3-instructions","52","315381","0.0-52.0","3529","6187","12","Female","true","true","true","false","""event"",""trial"",""time""
""fullscreenenter"",""5"",""30959""
","
","
","""event"",""trial"",""time""
""fullscreenenter"",""5"",""30959""
","
","","","","","","","","","","","","","","","","","","","","","",""
"d3-instructions","53","328756","0.0-53.0","3529","6187","12","Female","true","true","true","false","""event"",""trial"",""time""
""fullscreenenter"",""5"",""30959""
","
","
","""event"",""trial"",""time""
""fullscreenenter"",""5"",""30959""
","
","","","","","","","","","","","","","","","","","","","","","",""
"d3-instructions","54","342780","0.0-54.0","3529","6187","12","Female","true","true","true","false","""event"",""trial"",""time""
""fullscreenenter"",""5"",""30959""
","
","
","""event"",""trial"",""time""
""fullscreenenter"",""5"",""30959""
","
","","","","","","","","","","","","","","","","","","","","","",""
"d3-instructions","55","352380","0.0-55.0","3529","6187","12","Female","true","true","true","false","""event"",""trial"",""time""
""fullscreenenter"",""5"",""30959""
","
","
","""event"",""trial"",""time""
""fullscreenenter"",""5"",""30959""
","
","","","","","","","","","","","","","","","","","","","","","",""
"d3-instructions","56","360252","0.0-56.0","3529","6187","12","Female","true","true","true","false","""event"",""trial"",""time""
""fullscreenenter"",""5"",""30959""
","
","
","""event"",""trial"",""time""
""fullscreenenter"",""5"",""30959""
","
","","","","","","","","","","","","","","","","","","","","","",""
"d3-instructions","57","370836","0.0-57.0","3529","6187","12","Female","true","true","true","false","""event"",""trial"",""time""
""fullscreenenter"",""5"",""30959""
","
","
","""event"",""trial"",""time""
""fullscreenenter"",""5"",""30959""
","
","","","","","","","","","","","","","","","","","","","","","",""
"d3-instructions","58","381852","0.0-58.0","3529","6187","12","Female","true","true","true","false","""event"",""trial"",""time""
""fullscreenenter"",""5"",""30959""
","
","
","""event"",""trial"",""time""
""fullscreenenter"",""5"",""30959""
","
","","","","","","","","","","","","","","","","","","","","","",""
"d3-instructions","59","386371","0.0-59.0","3529","6187","12","Female","true","true","true","false","""event"",""trial"",""time""
""fullscreenenter"",""5"",""30959""
","
","
","""event"",""trial"",""time""
""fullscreenenter"",""5"",""30959""
","
","","","","","","","","","","","","","","","","","","","","","",""
"d3-instructions","60","393484","0.0-60.0","3529","6187","12","Female","true","true","true","false","""event"",""trial"",""time""
""fullscreenenter"",""5"",""30959""
","
","
","""event"",""trial"",""time""
""fullscreenenter"",""5"",""30959""
","
","","","","","","","","","","","","","","","","","","","","","",""
"d3-animate-choice","61","396487","0.0-61.0-0.0","3529","6187","12","Female","true","true","true","false","""event"",""trial"",""time""
""fullscreenenter"",""5"",""30959""
","
","
","""event"",""trial"",""time""
""fullscreenenter"",""5"",""30959""
","
","986.5","","49","","","3000","1","","","images/earth.jpg","images/tutrocket2","images/tutrocket1","null","images/tutrocket1","","1","practice","null","1","","",""
"d3-animate-choice","62","399547","0.0-61.0-1.0","3529","6187","12","Female","true","true","true","false","""event"",""trial"",""time""
""fullscreenenter"",""5"",""30959""
","
","
","""event"",""trial"",""time""
""fullscreenenter"",""5"",""30959""
","
","1039","","49","","","3000","1","","","images/tutgreenplanet.jpg","images/tutalien2","images/tutalien1","images/tutrocket1","images/tutalien1","images/nothing.png","2","practice","true","1","common","0","2023-02-07 16:31:46.039"
"two-step-fixation","63","400567","0.0-61.0-2.0","3529","6187","12","Female","true","true","true","false","""event"",""trial"",""time""
""fullscreenenter"",""5"",""30959""
","
","
","""event"",""trial"",""time""
""fullscreenenter"",""5"",""30959""
","
","","images/earth.jpg","","","","","","","","","","","","","","fixation","","","","","",""
"d3-animate-choice","64","403047","0.0-61.0-0.1","3529","6187","12","Female","true","true","true","false","""event"",""trial"",""time""
""fullscreenenter"",""5"",""30959""
","
","
","""event"",""trial"",""time""
""fullscreenenter"",""5"",""30959""
","
","472.59999990463257","","48","","","3000","1","","","images/earth.jpg","images/tutrocket2","images/tutrocket1","null","images/tutrocket2","","1","practice","null","2","","",""
"d3-animate-choice","65","405682","0.0-61.0-1.1","3529","6187","12","Female","true","true","true","false","""event"",""trial"",""time""
""fullscreenenter"",""5"",""30959""
","
","
","""event"",""trial"",""time""
""fullscreenenter"",""5"",""30959""
","
","624.6999998092651","","48","","","3000","1","","","images/tutyellowplanet.jpg","images/tutalien4","images/tutalien3","images/tutrocket2","images/tutalien4","images/t.png","2","practice","true","2","common","1","2023-02-07 16:31:52.173"
"two-step-fixation","66","406686","0.0-61.0-2.1","3529","6187","12","Female","true","true","true","false","""event"",""trial"",""time""
""fullscreenenter"",""5"",""30959""
","
","
","""event"",""trial"",""time""
""fullscreenenter"",""5"",""30959""
","
","","images/earth.jpg","","","","","","","","","","","","","","fixation","","","","","",""
"d3-animate-choice","67","409366","0.0-61.0-0.2","3529","6187","12","Female","true","true","true","false","""event"",""trial"",""time""
""fullscreenenter"",""5"",""30959""
","
","
","""event"",""trial"",""time""
""fullscreenenter"",""5"",""30959""
","
","657.5999999046326","","49","","","3000","1","","","images/earth.jpg","images/tutrocket2","images/tutrocket1","null","images/tutrocket1","","1","practice","null","1","","",""
"d3-animate-choice","68","412047","0.0-61.0-1.2","3529","6187","12","Female","true","true","true","false","""event"",""trial"",""time""
""fullscreenenter"",""5"",""30959""
","
","
","""event"",""trial"",""time""
""fullscreenenter"",""5"",""30959""
","
","664.4000000953674","","49","","","3000","1","","","images/tutgreenplanet.jpg","images/tutalien2","images/tutalien1","images/tutrocket1","images/tutalien1","images/nothing.png","2","practice","true","1","common","0","2023-02-07 16:31:58.538"
"two-step-fixation","69","413052","0.0-61.0-2.2","3529","6187","12","Female","true","true","true","false","""event"",""trial"",""time""
""fullscreenenter"",""5"",""30959""
","
","
","""event"",""trial"",""time""
""fullscreenenter"",""5"",""30959""
","
","","images/earth.jpg","","","","","","","","","","","","","","fixation","","","","","",""
"d3-animate-choice","70","415457","0.0-61.0-0.3","3529","6187","12","Female","true","true","true","false","""event"",""trial"",""time""
""fullscreenenter"",""5"",""30959""
","
","
","""event"",""trial"",""time""
""fullscreenenter"",""5"",""30959""
","
","387.30000019073486","","48","","","3000","1","","","images/earth.jpg","images/tutrocket2","images/tutrocket1","null","images/tutrocket2","","1","practice","null","2","","",""
"d3-animate-choice","71","418185","0.0-61.0-1.3","3529","6187","12","Female","true","true","true","false","""event"",""trial"",""time""
""fullscreenenter"",""5"",""30959""
","
","
","""event"",""trial"",""time""
""fullscreenenter"",""5"",""30959""
","
","718.5","","48","","","3000","1","","","images/tutyellowplanet.jpg","images/tutalien4","images/tutalien3","images/tutrocket2","images/tutalien4","images/t.png","2","practice","true","2","common","1","2023-02-07 16:32:04.676"
"two-step-fixation","72","419193","0.0-61.0-2.3","3529","6187","12","Female","true","true","true","false","""event"",""trial"",""time""
""fullscreenenter"",""5"",""30959""
","
","
","""event"",""trial"",""time""
""fullscreenenter"",""5"",""30959""
","
","","images/earth.jpg","","","","","","","","","","","","","","fixation","","","","","",""
"d3-animate-choice","73","422235","0.0-61.0-0.4","3529","6187","12","Female","true","true","true","false","""event"",""trial"",""time""
""fullscreenenter"",""5"",""30959""
","
","
","""event"",""trial"",""time""
""fullscreenenter"",""5"",""30959""
","
","1038.6999998092651","","48","","","3000","1","","","images/earth.jpg","images/tutrocket2","images/tutrocket1","null","images/tutrocket2","","1","practice","null","2","","",""
"d3-animate-choice","74","424913","0.0-61.0-1.4","3529","6187","12","Female","true","true","true","false","""event"",""trial"",""time""
""fullscreenenter"",""5"",""30959""
","
","
","""event"",""trial"",""time""
""fullscreenenter"",""5"",""30959""
","
","668.0999999046326","","48","","","3000","1","","","images/tutyellowplanet.jpg","images/tutalien4","images/tutalien3","images/tutrocket2","images/tutalien4","images/t.png","2","practice","true","2","common","1","2023-02-07 16:32:11.404"
"two-step-fixation","75","425921","0.0-61.0-2.4","3529","6187","12","Female","true","true","true","false","""event"",""trial"",""time""
""fullscreenenter"",""5"",""30959""
","
","
","""event"",""trial"",""time""
""fullscreenenter"",""5"",""30959""
","
","","images/earth.jpg","","","","","","","","","","","","","","fixation","","","","","",""
"d3-animate-choice","76","428458","0.0-61.0-0.5","3529","6187","12","Female","true","true","true","false","""event"",""trial"",""time""
""fullscreenenter"",""5"",""30959""
","
","
","""event"",""trial"",""time""
""fullscreenenter"",""5"",""30959""
","
","526.6999998092651","","48","","","3000","1","","","images/earth.jpg","images/tutrocket2","images/tutrocket1","null","images/tutrocket2","","1","practice","null","2","","",""
"d3-animate-choice","77","430954","0.0-61.0-1.5","3529","6187","12","Female","true","true","true","false","""event"",""trial"",""time""
""fullscreenenter"",""5"",""30959""
","
","
","""event"",""trial"",""time""
""fullscreenenter"",""5"",""30959""
","
","485.5","","48","","","3000","1","","","images/tutyellowplanet.jpg","images/tutalien4","images/tutalien3","images/tutrocket2","images/tutalien4","images/t.png","2","practice","true","2","common","1","2023-02-07 16:32:17.445"
"two-step-fixation","78","431961","0.0-61.0-2.5","3529","6187","12","Female","true","true","true","false","""event"",""trial"",""time""
""fullscreenenter"",""5"",""30959""
","
","
","""event"",""trial"",""time""
""fullscreenenter"",""5"",""30959""
","
","","images/earth.jpg","","","","","","","","","","","","","","fixation","","","","","",""
"d3-animate-choice","79","434578","0.0-61.0-0.6","3529","6187","12","Female","true","true","true","false","""event"",""trial"",""time""
""fullscreenenter"",""5"",""30959""
","
","
","""event"",""trial"",""time""
""fullscreenenter"",""5"",""30959""
","
","606.5","","49","","","3000","1","","","images/earth.jpg","images/tutrocket2","images/tutrocket1","null","images/tutrocket1","","1","practice","null","1","","",""
"d3-animate-choice","80","436993","0.0-61.0-1.6","3529","6187","12","Female","true","true","true","false","""event"",""trial"",""time""
""fullscreenenter"",""5"",""30959""
","
","
","""event"",""trial"",""time""
""fullscreenenter"",""5"",""30959""
","
","405.69999980926514","","49","","","3000","1","","","images/tutgreenplanet.jpg","images/tutalien2","images/tutalien1","images/tutrocket1","images/tutalien1","images/nothing.png","2","practice","true","1","common","0","2023-02-07 16:32:23.485"
"two-step-fixation","81","438002","0.0-61.0-2.6","3529","6187","12","Female","true","true","true","false","""event"",""trial"",""time""
""fullscreenenter"",""5"",""30959""
","
","
","""event"",""trial"",""time""
""fullscreenenter"",""5"",""30959""
","
","","images/earth.jpg","","","","","","","","","","","","","","fixation","","","","","",""
"d3-animate-choice","82","440354","0.0-61.0-0.7","3529","6187","12","Female","true","true","true","false","""event"",""trial"",""time""
""fullscreenenter"",""5"",""30959""
","
","
","""event"",""trial"",""time""
""fullscreenenter"",""5"",""30959""
","
","341","","48","","","3000","1","","","images/earth.jpg","images/tutrocket2","images/tutrocket1","null","images/tutrocket2","","1","practice","null","2","","",""
"d3-animate-choice","83","442729","0.0-61.0-1.7","3529","6187","12","Female","true","true","true","false","""event"",""trial"",""time""
""fullscreenenter"",""5"",""30959""
","
","
","""event"",""trial"",""time""
""fullscreenenter"",""5"",""30959""
","
","365.59999990463257","","48","","","3000","1","","","images/tutyellowplanet.jpg","images/tutalien4","images/tutalien3","images/tutrocket2","images/tutalien4","images/nothing.png","2","practice","true","2","common","0","2023-02-07 16:32:29.221"
"two-step-fixation","84","443737","0.0-61.0-2.7","3529","6187","12","Female","true","true","true","false","""event"",""trial"",""time""
""fullscreenenter"",""5"",""30959""
","
","
","""event"",""trial"",""time""
""fullscreenenter"",""5"",""30959""
","
","","images/earth.jpg","","","","","","","","","","","","","","fixation","","","","","",""
"d3-animate-choice","85","446768","0.0-61.0-0.8","3529","6187","12","Female","true","true","true","false","""event"",""trial"",""time""
""fullscreenenter"",""5"",""30959""
","
","
","""event"",""trial"",""time""
""fullscreenenter"",""5"",""30959""
","
","1022.3999996185303","","48","","","3000","1","","","images/earth.jpg","images/tutrocket2","images/tutrocket1","null","images/tutrocket2","","1","practice","null","2","","",""
"d3-animate-choice","86","449425","0.0-61.0-1.8","3529","6187","12","Female","true","true","true","false","""event"",""trial"",""time""
""fullscreenenter"",""5"",""30959""
","
","
","""event"",""trial"",""time""
""fullscreenenter"",""5"",""30959""
","
","647.2999997138977","","49","","","3000","1","","","images/tutyellowplanet.jpg","images/tutalien4","images/tutalien3","images/tutrocket2","images/tutalien3","images/nothing.png","2","practice","true","1","common","0","2023-02-07 16:32:35.916"
"two-step-fixation","87","450434","0.0-61.0-2.8","3529","6187","12","Female","true","true","true","false","""event"",""trial"",""time""
""fullscreenenter"",""5"",""30959""
","
","
","""event"",""trial"",""time""
""fullscreenenter"",""5"",""30959""
","
","","images/earth.jpg","","","","","","","","","","","","","","fixation","","","","","",""
"d3-animate-choice","88","452865","0.0-61.0-0.9","3529","6187","12","Female","true","true","true","false","""event"",""trial"",""time""
""fullscreenenter"",""5"",""30959""
","
","
","""event"",""trial"",""time""
""fullscreenenter"",""5"",""30959""
","
","421.80000019073486","","49","","","3000","1","","","images/earth.jpg","images/tutrocket2","images/tutrocket1","null","images/tutrocket1","","1","practice","null","1","","",""
"d3-animate-choice","89","455409","0.0-61.0-1.9","3529","6187","12","Female","true","true","true","false","""event"",""trial"",""time""
""fullscreenenter"",""5"",""30959""
","
","
","""event"",""trial"",""time""
""fullscreenenter"",""5"",""30959""
","
","533.4000000953674","","48","","","3000","1","","","images/tutgreenplanet.jpg","images/tutalien2","images/tutalien1","images/tutrocket1","images/tutalien2","images/t.png","2","practice","true","2","common","1","2023-02-07 16:32:41.901"
"two-step-fixation","90","456418","0.0-61.0-2.9","3529","6187","12","Female","true","true","true","false","""event"",""trial"",""time""
""fullscreenenter"",""5"",""30959""
","
","
","""event"",""trial"",""time""
""fullscreenenter"",""5"",""30959""
","
","","images/earth.jpg","","","","","","","","","","","","","","fixation","","","","","",""
"d3-animate-choice","91","458817","0.0-61.0-0.10","3529","6187","12","Female","true","true","true","false","""event"",""trial"",""time""
""fullscreenenter"",""5"",""30959""
","
","
","""event"",""trial"",""time""
""fullscreenenter"",""5"",""30959""
","
","389.5","","49","","","3000","1","","","images/earth.jpg","images/tutrocket2","images/tutrocket1","null","images/tutrocket1","","1","practice","null","1","","",""
"d3-animate-choice","92","461354","0.0-61.0-1.10","3529","6187","12","Female","true","true","true","false","""event"",""trial"",""time""
""fullscreenenter"",""5"",""30959""
","
","
","""event"",""trial"",""time""
""fullscreenenter"",""5"",""30959""
","
","526.3000001907349","","48","","","3000","1","","","images/tutgreenplanet.jpg","images/tutalien2","images/tutalien1","images/tutrocket1","images/tutalien2","images/nothing.png","2","practice","true","2","common","0","2023-02-07 16:32:47.845"
"two-step-fixation","93","462362","0.0-61.0-2.10","3529","6187","12","Female","true","true","true","false","""event"",""trial"",""time""
""fullscreenenter"",""5"",""30959""
","
","
","""event"",""trial"",""time""
""fullscreenenter"",""5"",""30959""
","
","","images/earth.jpg","","","","","","","","","","","","","","fixation","","","","","",""
"d3-animate-choice","94","465466","0.0-61.0-0.11","3529","6187","12","Female","true","true","true","false","""event"",""trial"",""time""
""fullscreenenter"",""5"",""30959""
","
","
","""event"",""trial"",""time""
""fullscreenenter"",""5"",""30959""
","
","549.6999998092651","","50","","","3000","1","1093.5","48","images/earth.jpg","images/tutrocket2","images/tutrocket1","null","images/tutrocket2","","1","practice","null","","","",""
"d3-animate-choice","95","468234","0.0-61.0-1.11","3529","6187","12","Female","true","true","true","false","""event"",""trial"",""time""
""fullscreenenter"",""5"",""30959""
","
","
","""event"",""trial"",""time""
""fullscreenenter"",""5"",""30959""
","
","757.3000001907349","","48","","","3000","1","","","images/tutgreenplanet.jpg","images/tutalien2","images/tutalien1","images/tutrocket2","images/tutalien2","images/nothing.png","2","practice","false","2","rare","0","2023-02-07 16:32:54.725"
"two-step-fixation","96","469242","0.0-61.0-2.11","3529","6187","12","Female","true","true","true","false","""event"",""trial"",""time""
""fullscreenenter"",""5"",""30959""
","
","
","""event"",""trial"",""time""
""fullscreenenter"",""5"",""30959""
","
","","images/earth.jpg","","","","","","","","","","","","","","fixation","","","","","",""
"d3-animate-choice","97","471641","0.0-61.0-0.12","3529","6187","12","Female","true","true","true","false","""event"",""trial"",""time""
""fullscreenenter"",""5"",""30959""
","
","
","""event"",""trial"",""time""
""fullscreenenter"",""5"",""30959""
","
","390","","48","","","3000","1","","","images/earth.jpg","images/tutrocket2","images/tutrocket1","null","images/tutrocket2","","1","practice","null","2","","",""
"d3-animate-choice","98","474081","0.0-61.0-1.12","3529","6187","12","Female","true","true","true","false","""event"",""trial"",""time""
""fullscreenenter"",""5"",""30959""
","
","
","""event"",""trial"",""time""
""fullscreenenter"",""5"",""30959""
","
","430.09999990463257","","49","","","3000","1","","","images/tutgreenplanet.jpg","images/tutalien2","images/tutalien1","images/tutrocket2","images/tutalien1","images/nothing.png","2","practice","false","1","rare","0","2023-02-07 16:33:00.572"
"two-step-fixation","99","475089","0.0-61.0-2.12","3529","6187","12","Female","true","true","true","false","""event"",""trial"",""time""
""fullscreenenter"",""5"",""30959""
","
","
","""event"",""trial"",""time""
""fullscreenenter"",""5"",""30959""
","
","","images/earth.jpg","","","","","","","","","","","","","","fixation","","","","","",""
"d3-animate-choice","100","477481","0.0-61.0-0.13","3529","6187","12","Female","true","true","true","false","""event"",""trial"",""time""
""fullscreenenter"",""5"",""30959""
","
","
","""event"",""trial"",""time""
""fullscreenenter"",""5"",""30959""
","
","382.19999980926514","","49","","","3000","1","","","images/earth.jpg","images/tutrocket2","images/tutrocket1","null","images/tutrocket1","","1","practice","null","1","","",""
"d3-animate-choice","101","480201","0.0-61.0-1.13","3529","6187","12","Female","true","true","true","false","""event"",""trial"",""time""
""fullscreenenter"",""5"",""30959""
","
","
","""event"",""trial"",""time""
""fullscreenenter"",""5"",""30959""
","
","709.3000001907349","","48","","","3000","1","","","images/tutyellowplanet.jpg","images/tutalien4","images/tutalien3","images/tutrocket1","images/tutalien4","images/nothing.png","2","practice","false","2","rare","0","2023-02-07 16:33:06.692"
"two-step-fixation","102","481210","0.0-61.0-2.13","3529","6187","12","Female","true","true","true","false","""event"",""trial"",""time""
""fullscreenenter"",""5"",""30959""
","
","
","""event"",""trial"",""time""
""fullscreenenter"",""5"",""30959""
","
","","images/earth.jpg","","","","","","","","","","","","","","fixation","","","","","",""
"d3-animate-choice","103","483578","0.0-61.0-0.14","3529","6187","12","Female","true","true","true","false","""event"",""trial"",""time""
""fullscreenenter"",""5"",""30959""
","
","
","""event"",""trial"",""time""
""fullscreenenter"",""5"",""30959""
","
","357.5","","49","","","3000","1","","","images/earth.jpg","images/tutrocket2","images/tutrocket1","null","images/tutrocket1","","1","practice","null","1","","",""
"d3-animate-choice","104","486010","0.0-61.0-1.14","3529","6187","12","Female","true","true","true","false","""event"",""trial"",""time""
""fullscreenenter"",""5"",""30959""
","
","
","""event"",""trial"",""time""
""fullscreenenter"",""5"",""30959""
","
","421.7000002861023","","48","","","3000","1","","","images/tutgreenplanet.jpg","images/tutalien2","images/tutalien1","images/tutrocket1","images/tutalien2","images/t.png","2","practice","true","2","common","1","2023-02-07 16:33:12.501"
"two-step-fixation","105","487018","0.0-61.0-2.14","3529","6187","12","Female","true","true","true","false","""event"",""trial"",""time""
""fullscreenenter"",""5"",""30959""
","
","
","""event"",""trial"",""time""
""fullscreenenter"",""5"",""30959""
","
","","images/earth.jpg","","","","","","","","","","","","","","fixation","","","","","",""
"d3-animate-choice","106","489409","0.0-61.0-0.15","3529","6187","12","Female","true","true","true","false","""event"",""trial"",""time""
""fullscreenenter"",""5"",""30959""
","
","
","""event"",""trial"",""time""
""fullscreenenter"",""5"",""30959""
","
","381.69999980926514","","49","","","3000","1","","","images/earth.jpg","images/tutrocket2","images/tutrocket1","null","images/tutrocket1","","1","practice","null","1","","",""
"d3-animate-choice","107","491730","0.0-61.0-1.15","3529","6187","12","Female","true","true","true","false","""event"",""trial"",""time""
""fullscreenenter"",""5"",""30959""
","
","
","""event"",""trial"",""time""
""fullscreenenter"",""5"",""30959""
","
","310","","48","","","3000","1","","","images/tutyellowplanet.jpg","images/tutalien4","images/tutalien3","images/tutrocket1","images/tutalien4","images/nothing.png","2","practice","false","2","rare","0","2023-02-07 16:33:18.221"
"two-step-fixation","108","492734","0.0-61.0-2.15","3529","6187","12","Female","true","true","true","false","""event"",""trial"",""time""
""fullscreenenter"",""5"",""30959""
","
","
","""event"",""trial"",""time""
""fullscreenenter"",""5"",""30959""
","
","","images/earth.jpg","","","","","","","","","","","","","","fixation","","","","","",""
"d3-animate-choice","109","495735","0.0-61.0-0.16","3529","6187","12","Female","true","true","true","false","""event"",""trial"",""time""
""fullscreenenter"",""5"",""30959""
","
","
","""event"",""trial"",""time""
""fullscreenenter"",""5"",""30959""
","
","993.0999999046326","","48","","","3000","1","","","images/earth.jpg","images/tutrocket2","images/tutrocket1","null","images/tutrocket2","","1","practice","null","2","","",""
"d3-animate-choice","110","498250","0.0-61.0-1.16","3529","6187","12","Female","true","true","true","false","""event"",""trial"",""time""
""fullscreenenter"",""5"",""30959""
","
","
","""event"",""trial"",""time""
""fullscreenenter"",""5"",""30959""
","
","504.59999990463257","","49","","","3000","1","","","images/tutyellowplanet.jpg","images/tutalien4","images/tutalien3","images/tutrocket2","images/tutalien3","images/nothing.png","2","practice","true","1","common","0","2023-02-07 16:33:24.741"
"two-step-fixation","111","499258","0.0-61.0-2.16","3529","6187","12","Female","true","true","true","false","""event"",""trial"",""time""
""fullscreenenter"",""5"",""30959""
","
","
","""event"",""trial"",""time""
""fullscreenenter"",""5"",""30959""
","
","","images/earth.jpg","","","","","","","","","","","","","","fixation","","","","","",""
"d3-animate-choice","112","501626","0.0-61.0-0.17","3529","6187","12","Female","true","true","true","false","""event"",""trial"",""time""
""fullscreenenter"",""5"",""30959""
","
","
","""event"",""trial"",""time""
""fullscreenenter"",""5"",""30959""
","
","357.90000009536743","","48","","","3000","1","","","images/earth.jpg","images/tutrocket2","images/tutrocket1","null","images/tutrocket2","","1","practice","null","2","","",""
"d3-animate-choice","113","504026","0.0-61.0-1.17","3529","6187","12","Female","true","true","true","false","""event"",""trial"",""time""
""fullscreenenter"",""5"",""30959""
","
","
","""event"",""trial"",""time""
""fullscreenenter"",""5"",""30959""
","
","389.90000009536743","","49","","","3000","1","","","images/tutgreenplanet.jpg","images/tutalien2","images/tutalien1","images/tutrocket2","images/tutalien1","images/nothing.png","2","practice","false","1","rare","0","2023-02-07 16:33:30.517"
"two-step-fixation","114","505036","0.0-61.0-2.17","3529","6187","12","Female","true","true","true","false","""event"",""trial"",""time""
""fullscreenenter"",""5"",""30959""
","
","
","""event"",""trial"",""time""
""fullscreenenter"",""5"",""30959""
","
","","images/earth.jpg","","","","","","","","","","","","","","fixation","","","","","",""
"d3-animate-choice","115","507482","0.0-61.0-0.18","3529","6187","12","Female","true","true","true","false","""event"",""trial"",""time""
""fullscreenenter"",""5"",""30959""
","
","
","""event"",""trial"",""time""
""fullscreenenter"",""5"",""30959""
","
","432.7999997138977","","49","","","3000","1","","","images/earth.jpg","images/tutrocket2","images/tutrocket1","null","images/tutrocket1","","1","practice","null","1","","",""
"d3-animate-choice","116","509882","0.0-61.0-1.18","3529","6187","12","Female","true","true","true","false","""event"",""trial"",""time""
""fullscreenenter"",""5"",""30959""
","
","
","""event"",""trial"",""time""
""fullscreenenter"",""5"",""30959""
","
","388.90000009536743","","48","","","3000","1","","","images/tutgreenplanet.jpg","images/tutalien2","images/tutalien1","images/tutrocket1","images/tutalien2","images/nothing.png","2","practice","true","2","common","0","2023-02-07 16:33:36.373"
"two-step-fixation","117","510891","0.0-61.0-2.18","3529","6187","12","Female","true","true","true","false","""event"",""trial"",""time""
""fullscreenenter"",""5"",""30959""
","
","
","""event"",""trial"",""time""
""fullscreenenter"",""5"",""30959""
","
","","images/earth.jpg","","","","","","","","","","","","","","fixation","","","","","",""
"d3-animate-choice","118","513241","0.0-61.0-0.19","3529","6187","12","Female","true","true","true","false","""event"",""trial"",""time""
""fullscreenenter"",""5"",""30959""
","
","
","""event"",""trial"",""time""
""fullscreenenter"",""5"",""30959""
","
","341","","49","","","3000","1","","","images/earth.jpg","images/tutrocket2","images/tutrocket1","null","images/tutrocket1","","1","practice","null","1","","",""
"d3-animate-choice","119","515684","0.0-61.0-1.19","3529","6187","12","Female","true","true","true","false","""event"",""trial"",""time""
""fullscreenenter"",""5"",""30959""
","
","
","""event"",""trial"",""time""
""fullscreenenter"",""5"",""30959""
","
","437.90000009536743","","48","","","3000","1","","","images/tutyellowplanet.jpg","images/tutalien4","images/tutalien3","images/tutrocket1","images/tutalien4","images/nothing.png","2","practice","false","2","rare","0","2023-02-07 16:33:42.175"
"two-step-fixation","120","516690","0.0-61.0-2.19","3529","6187","12","Female","true","true","true","false","""event"",""trial"",""time""
""fullscreenenter"",""5"",""30959""
","
","
","""event"",""trial"",""time""
""fullscreenenter"",""5"",""30959""
","
","","images/earth.jpg","","","","","","","","","","","","","","fixation","","","","","",""
"d3-instructions","121","523618","0.0-62.0","3529","6187","12","Female","true","true","true","false","""event"",""trial"",""time""
""fullscreenenter"",""5"",""30959""
","
","
","""event"",""trial"",""time""
""fullscreenenter"",""5"",""30959""
","
","","","","","","","","","","","","","","","","","","","","","",""
"audio-keyboard-response","122","529778","0.0-63.0","3529","6187","12","Female","true","true","true","false","""event"",""trial"",""time""
""fullscreenenter"",""5"",""30959""
","
","
","""event"",""trial"",""time""
""fullscreenenter"",""5"",""30959""
","
","6149","audio/instructions/treasure_feedback.wav","32","","","","","","","","","","","","","","","","","","",""
"d3-instructions","123","548826","0.0-64.0","3529","6187","12","Female","true","true","true","false","""event"",""trial"",""time""
""fullscreenenter"",""5"",""30959""
","
","
","""event"",""trial"",""time""
""fullscreenenter"",""5"",""30959""
","
","","","","","","","","","","","","","","","","","","","","","",""
"d3-instructions","124","562786","0.0-65.0","3529","6187","12","Female","true","true","true","false","""event"",""trial"",""time""
""fullscreenenter"",""5"",""30959""
","
","
","""event"",""trial"",""time""
""fullscreenenter"",""5"",""30959""
","
","","","","","","","","","","","","","","","","","","","","","",""
"d3-instructions","125","580954","0.0-66.0","3529","6187","12","Female","true","true","true","false","""event"",""trial"",""time""
""fullscreenenter"",""5"",""30959""
","
","
","""event"",""trial"",""time""
""fullscreenenter"",""5"",""30959""
","
","","","","","","","","","","","","","","","","","","","","","",""
"d3-instructions","126","594914","0.0-67.0","3529","6187","12","Female","true","true","true","false","""event"",""trial"",""time""
""fullscreenenter"",""5"",""30959""
","
","
","""event"",""trial"",""time""
""fullscreenenter"",""5"",""30959""
","
","","","","","","","","","","","","","","","","","","","","","",""
"d3-instructions","127","600770","0.0-68.0","3529","6187","12","Female","true","true","true","false","""event"",""trial"",""time""
""fullscreenenter"",""5"",""30959""
","
","
","""event"",""trial"",""time""
""fullscreenenter"",""5"",""30959""
","
","","","","","","","","","","","","","","","","","","","","","",""
"instructions-quiz","128","605356","0.0-69.0","3529","6187","12","Female","true","true","true","false","""event"",""trial"",""time""
""fullscreenenter"",""5"",""30959""
","
","
","""event"",""trial"",""time""
""fullscreenenter"",""5"",""30959""
","
","4582.900000095367","audio/quiz/Q1_Prompt.wav","","1","","","","","","","","","","","","","","","","","",""
"audio-keyboard-response","129","614518","0.0-70.0","3529","6187","12","Female","true","true","true","false","""event"",""trial"",""time""
""fullscreenenter"",""5"",""30959""
","
","
","""event"",""trial"",""time""
""fullscreenenter"",""5"",""30959""
","
","null","audio/quiz/Q1_Correct.wav","null","","","","","","","","","","","","","","","","","","",""
"instructions-quiz","130","620883","0.0-71.0","3529","6187","12","Female","true","true","true","false","""event"",""trial"",""time""
""fullscreenenter"",""5"",""30959""
","
","
","""event"",""trial"",""time""
""fullscreenenter"",""5"",""30959""
","
","6363.700000286102","audio/quiz/Q2_Prompt.wav","","0","","","","","","","","","","","","","","","","","",""
"audio-keyboard-response","131","633748","0.0-72.0","3529","6187","12","Female","true","true","true","false","""event"",""trial"",""time""
""fullscreenenter"",""5"",""30959""
","
","
","""event"",""trial"",""time""
""fullscreenenter"",""5"",""30959""
","
","null","audio/quiz/Q2_Correct.wav","null","","","","","","","","","","","","","","","","","","",""
"instructions-quiz","132","637195","0.0-73.0","3529","6187","12","Female","true","true","true","false","""event"",""trial"",""time""
""fullscreenenter"",""5"",""30959""
","
","
","""event"",""trial"",""time""
""fullscreenenter"",""5"",""30959""
","
","3445.5","audio/quiz/Q3_Prompt.wav","","1","","","","","","","","","","","","","","","","","",""
"audio-keyboard-response","133","642988","0.0-74.0","3529","6187","12","Female","true","true","true","false","""event"",""trial"",""time""
""fullscreenenter"",""5"",""30959""
","
","
","""event"",""trial"",""time""
""fullscreenenter"",""5"",""30959""
","
","null","audio/quiz/Q3_Correct.wav","null","","","","","","","","","","","","","","","","","","",""
"d3-instructions","134","657808","0.0-75.0","3529","6187","12","Female","true","true","true","false","""event"",""trial"",""time""
""fullscreenenter"",""5"",""30959""
","
","
","""event"",""trial"",""time""
""fullscreenenter"",""5"",""30959""
","
","","","","","","","","","","","","","","","","","","","","","",""
"pavlovia","135","657813","0.0-76.0","3529","6187","12","Female","true","true","true","false","""event"",""trial"",""time""
""fullscreenenter"",""5"",""30959""
","
","
","""event"",""trial"",""time""
""fullscreenenter"",""5"",""30959""
","
","","","","","","","","","","","","","","","","","","","","","",""
"d3-animate-choice","136","660748","0.0-77.0-0.0","3529","6187","12","Female","true","true","true","false","""event"",""trial"",""time""
""fullscreenenter"",""5"",""30959""
","
","
","""event"",""trial"",""time""
""fullscreenenter"",""5"",""30959""
","
","929.3000001907349","","49","","","3000","1","","","images/earth.jpg","images/rocket2","images/rocket1","null","images/rocket1","","1","real","null","1","","",""
"d3-animate-choice","137","663748","0.0-77.0-1.0","3529","6187","12","Female","true","true","true","false","""event"",""trial"",""time""
""fullscreenenter"",""5"",""30959""
","
","
","""event"",""trial"",""time""
""fullscreenenter"",""5"",""30959""
","
","993.4000000953674","","48","","","3000","1","","","images/purpleplanet.jpg","images/alien4","images/alien3","images/rocket1","images/alien4","images/nothing.png","2","real","false","2","rare","0","2023-02-07 16:36:10.239"
"two-step-fixation","138","664754","0.0-77.0-2.0","3529","6187","12","Female","true","true","true","false","""event"",""trial"",""time""
""fullscreenenter"",""5"",""30959""
","
","
","""event"",""trial"",""time""
""fullscreenenter"",""5"",""30959""
","
","","images/earth.jpg","","","","","","","","","","","","","","fixation","","","","","",""
"d3-animate-choice","139","667154","0.0-77.0-0.1","3529","6187","12","Female","true","true","true","false","""event"",""trial"",""time""
""fullscreenenter"",""5"",""30959""
","
","
","""event"",""trial"",""time""
""fullscreenenter"",""5"",""30959""
","
","387.30000019073486","","49","","","3000","1","","","images/earth.jpg","images/rocket2","images/rocket1","null","images/rocket1","","1","real","null","1","","",""
"d3-animate-choice","140","669626","0.0-77.0-1.1","3529","6187","12","Female","true","true","true","false","""event"",""trial"",""time""
""fullscreenenter"",""5"",""30959""
","
","
","""event"",""trial"",""time""
""fullscreenenter"",""5"",""30959""
","
","459","","49","","","3000","1","","","images/redplanet1.jpg","images/alien2","images/alien1","images/rocket1","images/alien1","images/nothing.png","2","real","true","1","common","0","2023-02-07 16:36:16.117"
"two-step-fixation","141","670631","0.0-77.0-2.1","3529","6187","12","Female","true","true","true","false","""event"",""trial"",""time""
""fullscreenenter"",""5"",""30959""
","
","
","""event"",""trial"",""time""
""fullscreenenter"",""5"",""30959""
","
","","images/earth.jpg","","","","","","","","","","","","","","fixation","","","","","",""
"d3-animate-choice","142","673362","0.0-77.0-0.2","3529","6187","12","Female","true","true","true","false","""event"",""trial"",""time""
""fullscreenenter"",""5"",""30959""
","
","
","""event"",""trial"",""time""
""fullscreenenter"",""5"",""30959""
","
","718.3000001907349","","48","","","3000","1","","","images/earth.jpg","images/rocket2","images/rocket1","null","images/rocket2","","1","real","null","2","","",""
"d3-animate-choice","143","676314","0.0-77.0-1.2","3529","6187","12","Female","true","true","true","false","""event"",""trial"",""time""
""fullscreenenter"",""5"",""30959""
","
","
","""event"",""trial"",""time""
""fullscreenenter"",""5"",""30959""
","
","946.9000000953674","","48","","","3000","1","","","images/purpleplanet.jpg","images/alien4","images/alien3","images/rocket2","images/alien4","images/nothing.png","2","real","true","2","common","0","2023-02-07 16:36:22.805"
"two-step-fixation","144","677322","0.0-77.0-2.2","3529","6187","12","Female","true","true","true","false","""event"",""trial"",""time""
""fullscreenenter"",""5"",""30959""
","
","
","""event"",""trial"",""time""
""fullscreenenter"",""5"",""30959""
","
","","images/earth.jpg","","","","","","","","","","","","","","fixation","","","","","",""
"d3-animate-choice","145","679867","0.0-77.0-0.3","3529","6187","12","Female","true","true","true","false","""event"",""trial"",""time""
""fullscreenenter"",""5"",""30959""
","
","
","""event"",""trial"",""time""
""fullscreenenter"",""5"",""30959""
","
","516","","49","","","3000","1","","","images/earth.jpg","images/rocket2","images/rocket1","null","images/rocket1","","1","real","null","1","","",""
"d3-animate-choice","146","683026","0.0-77.0-1.3","3529","6187","12","Female","true","true","true","false","""event"",""trial"",""time""
""fullscreenenter"",""5"",""30959""
","
","
","""event"",""trial"",""time""
""fullscreenenter"",""5"",""30959""
","
","1146","","48","","","3000","1","","","images/redplanet1.jpg","images/alien2","images/alien1","images/rocket1","images/alien2","images/t.png","2","real","true","2","common","1","2023-02-07 16:36:29.517"
"two-step-fixation","147","684031","0.0-77.0-2.3","3529","6187","12","Female","true","true","true","false","""event"",""trial"",""time""
""fullscreenenter"",""5"",""30959""
","
","
","""event"",""trial"",""time""
""fullscreenenter"",""5"",""30959""
","
","","images/earth.jpg","","","","","","","","","","","","","","fixation","","","","","",""
"d3-animate-choice","148","686397","0.0-77.0-0.4","3529","6187","12","Female","true","true","true","false","""event"",""trial"",""time""
""fullscreenenter"",""5"",""30959""
","
","
","""event"",""trial"",""time""
""fullscreenenter"",""5"",""30959""
","
","358.2000002861023","","49","","","3000","1","","","images/earth.jpg","images/rocket2","images/rocket1","null","images/rocket1","","1","real","null","1","","",""
"d3-animate-choice","149","689082","0.0-77.0-1.4","3529","6187","12","Female","true","true","true","false","""event"",""trial"",""time""
""fullscreenenter"",""5"",""30959""
","
","
","""event"",""trial"",""time""
""fullscreenenter"",""5"",""30959""
","
","671.8000001907349","","48","","","3000","1","","","images/redplanet1.jpg","images/alien2","images/alien1","images/rocket1","images/alien2","images/t.png","2","real","true","2","common","1","2023-02-07 16:36:35.573"
"two-step-fixation","150","690090","0.0-77.0-2.4","3529","6187","12","Female","true","true","true","false","""event"",""trial"",""time""
""fullscreenenter"",""5"",""30959""
","
","
","""event"",""trial"",""time""
""fullscreenenter"",""5"",""30959""
","
","","images/earth.jpg","","","","","","","","","","","","","","fixation","","","","","",""
"d3-animate-choice","151","692490","0.0-77.0-0.5","3529","6187","12","Female","true","true","true","false","""event"",""trial"",""time""
""fullscreenenter"",""5"",""30959""
","
","
","""event"",""trial"",""time""
""fullscreenenter"",""5"",""30959""
","
","387.2999997138977","","49","","","3000","1","","","images/earth.jpg","images/rocket2","images/rocket1","null","images/rocket1","","1","real","null","1","","",""
"d3-animate-choice","152","695418","0.0-77.0-1.5","3529","6187","12","Female","true","true","true","false","""event"",""trial"",""time""
""fullscreenenter"",""5"",""30959""
","
","
","""event"",""trial"",""time""
""fullscreenenter"",""5"",""30959""
","
","922.8000001907349","","48","","","3000","1","","","images/purpleplanet.jpg","images/alien4","images/alien3","images/rocket1","images/alien4","images/t.png","2","real","false","2","rare","1","2023-02-07 16:36:41.909"
"two-step-fixation","153","696426","0.0-77.0-2.5","3529","6187","12","Female","true","true","true","false","""event"",""trial"",""time""
""fullscreenenter"",""5"",""30959""
","
","
","""event"",""trial"",""time""
""fullscreenenter"",""5"",""30959""
","
","","images/earth.jpg","","","","","","","","","","","","","","fixation","","","","","",""
"d3-animate-choice","154","698814","0.0-77.0-0.6","3529","6187","12","Female","true","true","true","false","""event"",""trial"",""time""
""fullscreenenter"",""5"",""30959""
","
","
","""event"",""trial"",""time""
""fullscreenenter"",""5"",""30959""
","
","379","","49","","","3000","1","","","images/earth.jpg","images/rocket2","images/rocket1","null","images/rocket1","","1","real","null","1","","",""
"d3-animate-choice","155","701610","0.0-77.0-1.6","3529","6187","12","Female","true","true","true","false","""event"",""trial"",""time""
""fullscreenenter"",""5"",""30959""
","
","
","""event"",""trial"",""time""
""fullscreenenter"",""5"",""30959""
","
","791.1000003814697","","48","","","3000","1","","","images/redplanet1.jpg","images/alien2","images/alien1","images/rocket1","images/alien2","images/t.png","2","real","true","2","common","1","2023-02-07 16:36:48.101"
"two-step-fixation","156","702614","0.0-77.0-2.6","3529","6187","12","Female","true","true","true","false","""event"",""trial"",""time""
""fullscreenenter"",""5"",""30959""
","
","
","""event"",""trial"",""time""
""fullscreenenter"",""5"",""30959""
","
","","images/earth.jpg","","","","","","","","","","","","","","fixation","","","","","",""
"d3-animate-choice","157","705034","0.0-77.0-0.7","3529","6187","12","Female","true","true","true","false","""event"",""trial"",""time""
""fullscreenenter"",""5"",""30959""
","
","
","""event"",""trial"",""time""
""fullscreenenter"",""5"",""30959""
","
","407.5","","49","","","3000","1","","","images/earth.jpg","images/rocket2","images/rocket1","null","images/rocket1","","1","real","null","1","","",""
"d3-animate-choice","158","707457","0.0-77.0-1.7","3529","6187","12","Female","true","true","true","false","""event"",""trial"",""time""
""fullscreenenter"",""5"",""30959""
","
","
","""event"",""trial"",""time""
""fullscreenenter"",""5"",""30959""
","
","411.40000009536743","","48","","","3000","1","","","images/redplanet1.jpg","images/alien2","images/alien1","images/rocket1","images/alien2","images/t.png","2","real","true","2","common","1","2023-02-07 16:36:53.949"
"two-step-fixation","159","708465","0.0-77.0-2.7","3529","6187","12","Female","true","true","true","false","""event"",""trial"",""time""
""fullscreenenter"",""5"",""30959""
","
","
","""event"",""trial"",""time""
""fullscreenenter"",""5"",""30959""
","
","","images/earth.jpg","","","","","","","","","","","","","","fixation","","","","","",""
"d3-animate-choice","160","710922","0.0-77.0-0.8","3529","6187","12","Female","true","true","true","false","""event"",""trial"",""time""
""fullscreenenter"",""5"",""30959""
","
","
","""event"",""trial"",""time""
""fullscreenenter"",""5"",""30959""
","
","451","","49","","","3000","1","","","images/earth.jpg","images/rocket2","images/rocket1","null","images/rocket1","","1","real","null","1","","",""
"d3-animate-choice","161","713449","0.0-77.0-1.8","3529","6187","12","Female","true","true","true","false","""event"",""trial"",""time""
""fullscreenenter"",""5"",""30959""
","
","
","""event"",""trial"",""time""
""fullscreenenter"",""5"",""30959""
","
","523.5","","48","","","3000","1","","","images/purpleplanet.jpg","images/alien4","images/alien3","images/rocket1","images/alien4","images/t.png","2","real","false","2","rare","1","2023-02-07 16:36:59.941"
"two-step-fixation","162","714459","0.0-77.0-2.8","3529","6187","12","Female","true","true","true","false","""event"",""trial"",""time""
""fullscreenenter"",""5"",""30959""
","
","
","""event"",""trial"",""time""
""fullscreenenter"",""5"",""30959""
","
","","images/earth.jpg","","","","","","","","","","","","","","fixation","","","","","",""
"d3-animate-choice","163","717009","0.0-77.0-0.9","3529","6187","12","Female","true","true","true","false","""event"",""trial"",""time""
""fullscreenenter"",""5"",""30959""
","
","
","""event"",""trial"",""time""
""fullscreenenter"",""5"",""30959""
","
","538.5","","48","","","3000","1","","","images/earth.jpg","images/rocket2","images/rocket1","null","images/rocket2","","1","real","null","2","","",""
"d3-animate-choice","164","719586","0.0-77.0-1.9","3529","6187","12","Female","true","true","true","false","""event"",""trial"",""time""
""fullscreenenter"",""5"",""30959""
","
","
","""event"",""trial"",""time""
""fullscreenenter"",""5"",""30959""
","
","572","","48","","","3000","1","","","images/redplanet1.jpg","images/alien2","images/alien1","images/rocket2","images/alien2","images/t.png","2","real","false","2","rare","1","2023-02-07 16:37:06.077"
"two-step-fixation","165","720593","0.0-77.0-2.9","3529","6187","12","Female","true","true","true","false","""event"",""trial"",""time""
""fullscreenenter"",""5"",""30959""
","
","
","""event"",""trial"",""time""
""fullscreenenter"",""5"",""30959""
","
","","images/earth.jpg","","","","","","","","","","","","","","fixation","","","","","",""
"d3-animate-choice","166","722930","0.0-77.0-0.10","3529","6187","12","Female","true","true","true","false","""event"",""trial"",""time""
""fullscreenenter"",""5"",""30959""
","
","
","""event"",""trial"",""time""
""fullscreenenter"",""5"",""30959""
","
","324.09999990463257","","49","","","3000","1","","","images/earth.jpg","images/rocket2","images/rocket1","null","images/rocket1","","1","real","null","1","","",""
"d3-animate-choice","167","725354","0.0-77.0-1.10","3529","6187","12","Female","true","true","true","false","""event"",""trial"",""time""
""fullscreenenter"",""5"",""30959""
","
","
","""event"",""trial"",""time""
""fullscreenenter"",""5"",""30959""
","
","419.09999990463257","","48","","","3000","1","","","images/redplanet1.jpg","images/alien2","images/alien1","images/rocket1","images/alien2","images/t.png","2","real","true","2","common","1","2023-02-07 16:37:11.845"
"two-step-fixation","168","726362","0.0-77.0-2.10","3529","6187","12","Female","true","true","true","false","""event"",""trial"",""time""
""fullscreenenter"",""5"",""30959""
","
","
","""event"",""trial"",""time""
""fullscreenenter"",""5"",""30959""
","
","","images/earth.jpg","","","","","","","","","","","","","","fixation","","","","","",""
"d3-animate-choice","169","728996","0.0-77.0-0.11","3529","6187","12","Female","true","true","true","false","""event"",""trial"",""time""
""fullscreenenter"",""5"",""30959""
","
","
","""event"",""trial"",""time""
""fullscreenenter"",""5"",""30959""
","
","626.6000003814697","","48","","","3000","1","","","images/earth.jpg","images/rocket2","images/rocket1","null","images/rocket2","","1","real","null","2","","",""
"d3-animate-choice","170","731489","0.0-77.0-1.11","3529","6187","12","Female","true","true","true","false","""event"",""trial"",""time""
""fullscreenenter"",""5"",""30959""
","
","
","""event"",""trial"",""time""
""fullscreenenter"",""5"",""30959""
","
","488.80000019073486","","48","","","3000","1","","","images/purpleplanet.jpg","images/alien4","images/alien3","images/rocket2","images/alien4","images/nothing.png","2","real","true","2","common","0","2023-02-07 16:37:17.980"
"two-step-fixation","171","732497","0.0-77.0-2.11","3529","6187","12","Female","true","true","true","false","""event"",""trial"",""time""
""fullscreenenter"",""5"",""30959""
","
","
","""event"",""trial"",""time""
""fullscreenenter"",""5"",""30959""
","
","","images/earth.jpg","","","","","","","","","","","","","","fixation","","","","","",""
"d3-animate-choice","172","734954","0.0-77.0-0.12","3529","6187","12","Female","true","true","true","false","""event"",""trial"",""time""
""fullscreenenter"",""5"",""30959""
","
","
","""event"",""trial"",""time""
""fullscreenenter"",""5"",""30959""
","
","451.80000019073486","","48","","","3000","1","","","images/earth.jpg","images/rocket2","images/rocket1","null","images/rocket2","","1","real","null","2","","",""
"d3-animate-choice","173","737433","0.0-77.0-1.12","3529","6187","12","Female","true","true","true","false","""event"",""trial"",""time""
""fullscreenenter"",""5"",""30959""
","
","
","""event"",""trial"",""time""
""fullscreenenter"",""5"",""30959""
","
","475.09999990463257","","49","","","3000","1","","","images/purpleplanet.jpg","images/alien4","images/alien3","images/rocket2","images/alien3","images/nothing.png","2","real","true","1","common","0","2023-02-07 16:37:23.925"
"two-step-fixation","174","738442","0.0-77.0-2.12","3529","6187","12","Female","true","true","true","false","""event"",""trial"",""time""
""fullscreenenter"",""5"",""30959""
","
","
","""event"",""trial"",""time""
""fullscreenenter"",""5"",""30959""
","
","","images/earth.jpg","","","","","","","","","","","","","","fixation","","","","","",""
"d3-animate-choice","175","740873","0.0-77.0-0.13","3529","6187","12","Female","true","true","true","false","""event"",""trial"",""time""
""fullscreenenter"",""5"",""30959""
","
","
","""event"",""trial"",""time""
""fullscreenenter"",""5"",""30959""
","
","419.5","","49","","","3000","1","","","images/earth.jpg","images/rocket2","images/rocket1","null","images/rocket1","","1","real","null","1","","",""
"d3-animate-choice","176","743265","0.0-77.0-1.13","3529","6187","12","Female","true","true","true","false","""event"",""trial"",""time""
""fullscreenenter"",""5"",""30959""
","
","
","""event"",""trial"",""time""
""fullscreenenter"",""5"",""30959""
","
","387.7000002861023","","48","","","3000","1","","","images/redplanet1.jpg","images/alien2","images/alien1","images/rocket1","images/alien2","images/t.png","2","real","true","2","common","1","2023-02-07 16:37:29.756"
"two-step-fixation","177","744274","0.0-77.0-2.13","3529","6187","12","Female","true","true","true","false","""event"",""trial"",""time""
""fullscreenenter"",""5"",""30959""
","
","
","""event"",""trial"",""time""
""fullscreenenter"",""5"",""30959""
","
","","images/earth.jpg","","","","","","","","","","","","","","fixation","","","","","",""
"d3-animate-choice","178","746610","0.0-77.0-0.14","3529","6187","12","Female","true","true","true","false","""event"",""trial"",""time""
""fullscreenenter"",""5"",""30959""
","
","
","""event"",""trial"",""time""
""fullscreenenter"",""5"",""30959""
","
","330.90000009536743","","49","","","3000","1","","","images/earth.jpg","images/rocket2","images/rocket1","null","images/rocket1","","1","real","null","1","","",""
"d3-animate-choice","179","748970","0.0-77.0-1.14","3529","6187","12","Female","true","true","true","false","""event"",""trial"",""time""
""fullscreenenter"",""5"",""30959""
","
","
","""event"",""trial"",""time""
""fullscreenenter"",""5"",""30959""
","
","355.5","","48","","","3000","1","","","images/redplanet1.jpg","images/alien2","images/alien1","images/rocket1","images/alien2","images/t.png","2","real","true","2","common","1","2023-02-07 16:37:35.461"
"two-step-fixation","180","749978","0.0-77.0-2.14","3529","6187","12","Female","true","true","true","false","""event"",""trial"",""time""
""fullscreenenter"",""5"",""30959""
","
","
","""event"",""trial"",""time""
""fullscreenenter"",""5"",""30959""
","
","","images/earth.jpg","","","","","","","","","","","","","","fixation","","","","","",""
"d3-animate-choice","181","752379","0.0-77.0-0.15","3529","6187","12","Female","true","true","true","false","""event"",""trial"",""time""
""fullscreenenter"",""5"",""30959""
","
","
","""event"",""trial"",""time""
""fullscreenenter"",""5"",""30959""
","
","395.90000009536743","","49","","","3000","1","","","images/earth.jpg","images/rocket2","images/rocket1","null","images/rocket1","","1","real","null","1","","",""
"d3-animate-choice","182","754770","0.0-77.0-1.15","3529","6187","12","Female","true","true","true","false","""event"",""trial"",""time""
""fullscreenenter"",""5"",""30959""
","
","
","""event"",""trial"",""time""
""fullscreenenter"",""5"",""30959""
","
","385.6000003814697","","48","","","3000","1","","","images/redplanet1.jpg","images/alien2","images/alien1","images/rocket1","images/alien2","images/t.png","2","real","true","2","common","1","2023-02-07 16:37:41.261"
"two-step-fixation","183","755778","0.0-77.0-2.15","3529","6187","12","Female","true","true","true","false","""event"",""trial"",""time""
""fullscreenenter"",""5"",""30959""
","
","
","""event"",""trial"",""time""
""fullscreenenter"",""5"",""30959""
","
","","images/earth.jpg","","","","","","","","","","","","","","fixation","","","","","",""
"d3-animate-choice","184","758242","0.0-77.0-0.16","3529","6187","12","Female","true","true","true","false","""event"",""trial"",""time""
""fullscreenenter"",""5"",""30959""
","
","
","""event"",""trial"",""time""
""fullscreenenter"",""5"",""30959""
","
","459.40000009536743","","49","","","3000","1","","","images/earth.jpg","images/rocket2","images/rocket1","null","images/rocket1","","1","real","null","1","","",""
"d3-animate-choice","185","761074","0.0-77.0-1.16","3529","6187","12","Female","true","true","true","false","""event"",""trial"",""time""
""fullscreenenter"",""5"",""30959""
","
","
","""event"",""trial"",""time""
""fullscreenenter"",""5"",""30959""
","
","826.6999998092651","","48","","","3000","1","","","images/redplanet1.jpg","images/alien2","images/alien1","images/rocket1","images/alien2","images/t.png","2","real","true","2","common","1","2023-02-07 16:37:47.565"
"two-step-fixation","186","762081","0.0-77.0-2.16","3529","6187","12","Female","true","true","true","false","""event"",""trial"",""time""
""fullscreenenter"",""5"",""30959""
","
","
","""event"",""trial"",""time""
""fullscreenenter"",""5"",""30959""
","
","","images/earth.jpg","","","","","","","","","","","","","","fixation","","","","","",""
"d3-animate-choice","187","764490","0.0-77.0-0.17","3529","6187","12","Female","true","true","true","false","""event"",""trial"",""time""
""fullscreenenter"",""5"",""30959""
","
","
","""event"",""trial"",""time""
""fullscreenenter"",""5"",""30959""
","
","396.09999990463257","","49","","","3000","1","","","images/earth.jpg","images/rocket2","images/rocket1","null","images/rocket1","","1","real","null","1","","",""
"d3-animate-choice","188","767114","0.0-77.0-1.17","3529","6187","12","Female","true","true","true","false","""event"",""trial"",""time""
""fullscreenenter"",""5"",""30959""
","
","
","""event"",""trial"",""time""
""fullscreenenter"",""5"",""30959""
","
","619.0999999046326","","48","","","3000","1","","","images/redplanet1.jpg","images/alien2","images/alien1","images/rocket1","images/alien2","images/nothing.png","2","real","true","2","common","0","2023-02-07 16:37:53.605"
"two-step-fixation","189","768122","0.0-77.0-2.17","3529","6187","12","Female","true","true","true","false","""event"",""trial"",""time""
""fullscreenenter"",""5"",""30959""
","
","
","""event"",""trial"",""time""
""fullscreenenter"",""5"",""30959""
","
","","images/earth.jpg","","","","","","","","","","","","","","fixation","","","","","",""
"d3-animate-choice","190","770690","0.0-77.0-0.18","3529","6187","12","Female","true","true","true","false","""event"",""trial"",""time""
""fullscreenenter"",""5"",""30959""
","
","
","""event"",""trial"",""time""
""fullscreenenter"",""5"",""30959""
","
","562.7999997138977","","49","","","3000","1","","","images/earth.jpg","images/rocket2","images/rocket1","null","images/rocket1","","1","real","null","1","","",""
"d3-animate-choice","191","773154","0.0-77.0-1.18","3529","6187","12","Female","true","true","true","false","""event"",""trial"",""time""
""fullscreenenter"",""5"",""30959""
","
","
","""event"",""trial"",""time""
""fullscreenenter"",""5"",""30959""
","
","459","","48","","","3000","1","","","images/redplanet1.jpg","images/alien2","images/alien1","images/rocket1","images/alien2","images/t.png","2","real","true","2","common","1","2023-02-07 16:37:59.645"
"two-step-fixation","192","774162","0.0-77.0-2.18","3529","6187","12","Female","true","true","true","false","""event"",""trial"",""time""
""fullscreenenter"",""5"",""30959""
","
","
","""event"",""trial"",""time""
""fullscreenenter"",""5"",""30959""
","
","","images/earth.jpg","","","","","","","","","","","","","","fixation","","","","","",""
"d3-animate-choice","193","776562","0.0-77.0-0.19","3529","6187","12","Female","true","true","true","false","""event"",""trial"",""time""
""fullscreenenter"",""5"",""30959""
","
","
","""event"",""trial"",""time""
""fullscreenenter"",""5"",""30959""
","
","394.90000009536743","","48","","","3000","1","","","images/earth.jpg","images/rocket2","images/rocket1","null","images/rocket2","","1","real","null","2","","",""
"d3-animate-choice","194","779466","0.0-77.0-1.19","3529","6187","12","Female","true","true","true","false","""event"",""trial"",""time""
""fullscreenenter"",""5"",""30959""
","
","
","""event"",""trial"",""time""
""fullscreenenter"",""5"",""30959""
","
","898.2000002861023","","48","","","3000","1","","","images/redplanet1.jpg","images/alien2","images/alien1","images/rocket2","images/alien2","images/t.png","2","real","false","2","rare","1","2023-02-07 16:38:05.957"
"two-step-fixation","195","780474","0.0-77.0-2.19","3529","6187","12","Female","true","true","true","false","""event"",""trial"",""time""
""fullscreenenter"",""5"",""30959""
","
","
","""event"",""trial"",""time""
""fullscreenenter"",""5"",""30959""
","
","","images/earth.jpg","","","","","","","","","","","","","","fixation","","","","","",""
"d3-animate-choice","196","782826","0.0-77.0-0.20","3529","6187","12","Female","true","true","true","false","""event"",""trial"",""time""
""fullscreenenter"",""5"",""30959""
","
","
","""event"",""trial"",""time""
""fullscreenenter"",""5"",""30959""
","
","346.90000009536743","","48","","","3000","1","","","images/earth.jpg","images/rocket2","images/rocket1","null","images/rocket2","","1","real","null","2","","",""
"d3-animate-choice","197","786274","0.0-77.0-1.20","3529","6187","12","Female","true","true","true","false","""event"",""trial"",""time""
""fullscreenenter"",""5"",""30959""
","
","
","""event"",""trial"",""time""
""fullscreenenter"",""5"",""30959""
","
","1443.0999999046326","","48","","","3000","1","","","images/redplanet1.jpg","images/alien2","images/alien1","images/rocket2","images/alien2","images/t.png","2","real","false","2","rare","1","2023-02-07 16:38:12.765"
"two-step-fixation","198","787279","0.0-77.0-2.20","3529","6187","12","Female","true","true","true","false","""event"",""trial"",""time""
""fullscreenenter"",""5"",""30959""
","
","
","""event"",""trial"",""time""
""fullscreenenter"",""5"",""30959""
","
","","images/earth.jpg","","","","","","","","","","","","","","fixation","","","","","",""
"d3-animate-choice","199","789619","0.0-77.0-0.21","3529","6187","12","Female","true","true","true","false","""event"",""trial"",""time""
""fullscreenenter"",""5"",""30959""
","
","
","""event"",""trial"",""time""
""fullscreenenter"",""5"",""30959""
","
","333.80000019073486","","48","","","3000","1","","","images/earth.jpg","images/rocket2","images/rocket1","null","images/rocket2","","1","real","null","2","","",""
"d3-animate-choice","200","793042","0.0-77.0-1.21","3529","6187","12","Female","true","true","true","false","""event"",""trial"",""time""
""fullscreenenter"",""5"",""30959""
","
","
","""event"",""trial"",""time""
""fullscreenenter"",""5"",""30959""
","
","1417.9000000953674","","49","","","3000","1","","","images/purpleplanet.jpg","images/alien4","images/alien3","images/rocket2","images/alien3","images/nothing.png","2","real","true","1","common","0","2023-02-07 16:38:19.533"
"two-step-fixation","201","794045","0.0-77.0-2.21","3529","6187","12","Female","true","true","true","false","""event"",""trial"",""time""
""fullscreenenter"",""5"",""30959""
","
","
","""event"",""trial"",""time""
""fullscreenenter"",""5"",""30959""
","
","","images/earth.jpg","","","","","","","","","","","","","","fixation","","","","","",""
"d3-animate-choice","202","796426","0.0-77.0-0.22","3529","6187","12","Female","true","true","true","false","""event"",""trial"",""time""
""fullscreenenter"",""5"",""30959""
","
","
","""event"",""trial"",""time""
""fullscreenenter"",""5"",""30959""
","
","375.2000002861023","","48","","","3000","1","","","images/earth.jpg","images/rocket2","images/rocket1","null","images/rocket2","","1","real","null","2","","",""
"d3-animate-choice","203","799682","0.0-77.0-1.22","3529","6187","12","Female","true","true","true","false","""event"",""trial"",""time""
""fullscreenenter"",""5"",""30959""
","
","
","""event"",""trial"",""time""
""fullscreenenter"",""5"",""30959""
","
","1250.3000001907349","","48","","","3000","1","","","images/purpleplanet.jpg","images/alien4","images/alien3","images/rocket2","images/alien4","images/nothing.png","2","real","true","2","common","0","2023-02-07 16:38:26.173"
"two-step-fixation","204","800690","0.0-77.0-2.22","3529","6187","12","Female","true","true","true","false","""event"",""trial"",""time""
""fullscreenenter"",""5"",""30959""
","
","
","""event"",""trial"",""time""
""fullscreenenter"",""5"",""30959""
","
","","images/earth.jpg","","","","","","","","","","","","","","fixation","","","","","",""
"d3-animate-choice","205","803026","0.0-77.0-0.23","3529","6187","12","Female","true","true","true","false","""event"",""trial"",""time""
""fullscreenenter"",""5"",""30959""
","
","
","""event"",""trial"",""time""
""fullscreenenter"",""5"",""30959""
","
","330.80000019073486","","49","","","3000","1","","","images/earth.jpg","images/rocket2","images/rocket1","null","images/rocket1","","1","real","null","1","","",""
"d3-animate-choice","206","805570","0.0-77.0-1.23","3529","6187","12","Female","true","true","true","false","""event"",""trial"",""time""
""fullscreenenter"",""5"",""30959""
","
","
","""event"",""trial"",""time""
""fullscreenenter"",""5"",""30959""
","
","538.8000001907349","","48","","","3000","1","","","images/redplanet1.jpg","images/alien2","images/alien1","images/rocket1","images/alien2","images/t.png","2","real","true","2","common","1","2023-02-07 16:38:32.061"
"two-step-fixation","207","806578","0.0-77.0-2.23","3529","6187","12","Female","true","true","true","false","""event"",""trial"",""time""
""fullscreenenter"",""5"",""30959""
","
","
","""event"",""trial"",""time""
""fullscreenenter"",""5"",""30959""
","
","","images/earth.jpg","","","","","","","","","","","","","","fixation","","","","","",""
"d3-animate-choice","208","808922","0.0-77.0-0.24","3529","6187","12","Female","true","true","true","false","""event"",""trial"",""time""
""fullscreenenter"",""5"",""30959""
","
","
","""event"",""trial"",""time""
""fullscreenenter"",""5"",""30959""
","
","338.8999996185303","","48","","","3000","1","","","images/earth.jpg","images/rocket2","images/rocket1","null","images/rocket2","","1","real","null","2","","",""
"d3-animate-choice","209","812138","0.0-77.0-1.24","3529","6187","12","Female","true","true","true","false","""event"",""trial"",""time""
""fullscreenenter"",""5"",""30959""
","
","
","""event"",""trial"",""time""
""fullscreenenter"",""5"",""30959""
","
","1210.8000001907349","","49","","","3000","1","","","images/purpleplanet.jpg","images/alien4","images/alien3","images/rocket2","images/alien3","images/t.png","2","real","true","1","common","1","2023-02-07 16:38:38.629"
"two-step-fixation","210","813145","0.0-77.0-2.24","3529","6187","12","Female","true","true","true","false","""event"",""trial"",""time""
""fullscreenenter"",""5"",""30959""
","
","
","""event"",""trial"",""time""
""fullscreenenter"",""5"",""30959""
","
","","images/earth.jpg","","","","","","","","","","","","","","fixation","","","","","",""
"d3-animate-choice","211","815602","0.0-77.0-0.25","3529","6187","12","Female","true","true","true","false","""event"",""trial"",""time""
""fullscreenenter"",""5"",""30959""
","
","
","""event"",""trial"",""time""
""fullscreenenter"",""5"",""30959""
","
","451.40000009536743","","49","","","3000","1","","","images/earth.jpg","images/rocket2","images/rocket1","null","images/rocket1","","1","real","null","1","","",""
"d3-animate-choice","212","818945","0.0-77.0-1.25","3529","6187","12","Female","true","true","true","false","""event"",""trial"",""time""
""fullscreenenter"",""5"",""30959""
","
","
","""event"",""trial"",""time""
""fullscreenenter"",""5"",""30959""
","
","1338.2999997138977","","48","","","3000","1","","","images/redplanet1.jpg","images/alien2","images/alien1","images/rocket1","images/alien2","images/t.png","2","real","true","2","common","1","2023-02-07 16:38:45.436"
"two-step-fixation","213","819953","0.0-77.0-2.25","3529","6187","12","Female","true","true","true","false","""event"",""trial"",""time""
""fullscreenenter"",""5"",""30959""
","
","
","""event"",""trial"",""time""
""fullscreenenter"",""5"",""30959""
","
","","images/earth.jpg","","","","","","","","","","","","","","fixation","","","","","",""
"d3-animate-choice","214","822427","0.0-77.0-0.26","3529","6187","12","Female","true","true","true","false","""event"",""trial"",""time""
""fullscreenenter"",""5"",""30959""
","
","
","""event"",""trial"",""time""
""fullscreenenter"",""5"",""30959""
","
","467.40000009536743","","49","","","3000","1","","","images/earth.jpg","images/rocket2","images/rocket1","null","images/rocket1","","1","real","null","1","","",""
"d3-animate-choice","215","824913","0.0-77.0-1.26","3529","6187","12","Female","true","true","true","false","""event"",""trial"",""time""
""fullscreenenter"",""5"",""30959""
","
","
","""event"",""trial"",""time""
""fullscreenenter"",""5"",""30959""
","
","482.69999980926514","","48","","","3000","1","","","images/redplanet1.jpg","images/alien2","images/alien1","images/rocket1","images/alien2","images/nothing.png","2","real","true","2","common","0","2023-02-07 16:38:51.404"
"two-step-fixation","216","825922","0.0-77.0-2.26","3529","6187","12","Female","true","true","true","false","""event"",""trial"",""time""
""fullscreenenter"",""5"",""30959""
","
","
","""event"",""trial"",""time""
""fullscreenenter"",""5"",""30959""
","
","","images/earth.jpg","","","","","","","","","","","","","","fixation","","","","","",""
"d3-animate-choice","217","828522","0.0-77.0-0.27","3529","6187","12","Female","true","true","true","false","""event"",""trial"",""time""
""fullscreenenter"",""5"",""30959""
","
","
","""event"",""trial"",""time""
""fullscreenenter"",""5"",""30959""
","
","595.9000000953674","","48","","","3000","1","","","images/earth.jpg","images/rocket2","images/rocket1","null","images/rocket2","","1","real","null","2","","",""
"d3-animate-choice","218","832451","0.0-77.0-1.27","3529","6187","12","Female","true","true","true","false","""event"",""trial"",""time""
""fullscreenenter"",""5"",""30959""
","
","
","""event"",""trial"",""time""
""fullscreenenter"",""5"",""30959""
","
","1921","","48","","","3000","1","","","images/purpleplanet.jpg","images/alien4","images/alien3","images/rocket2","images/alien4","images/nothing.png","2","real","true","2","common","0","2023-02-07 16:38:58.943"
"two-step-fixation","219","833458","0.0-77.0-2.27","3529","6187","12","Female","true","true","true","false","""event"",""trial"",""time""
""fullscreenenter"",""5"",""30959""
","
","
","""event"",""trial"",""time""
""fullscreenenter"",""5"",""30959""
","
","","images/earth.jpg","","","","","","","","","","","","","","fixation","","","","","",""
"d3-animate-choice","220","835802","0.0-77.0-0.28","3529","6187","12","Female","true","true","true","false","""event"",""trial"",""time""
""fullscreenenter"",""5"",""30959""
","
","
","""event"",""trial"",""time""
""fullscreenenter"",""5"",""30959""
","
","338.5","","49","","","3000","1","","","images/earth.jpg","images/rocket2","images/rocket1","null","images/rocket1","","1","real","null","1","","",""
"d3-animate-choice","221","838394","0.0-77.0-1.28","3529","6187","12","Female","true","true","true","false","""event"",""trial"",""time""
""fullscreenenter"",""5"",""30959""
","
","
","""event"",""trial"",""time""
""fullscreenenter"",""5"",""30959""
","
","586.0999999046326","","48","","","3000","1","","","images/redplanet1.jpg","images/alien2","images/alien1","images/rocket1","images/alien2","images/nothing.png","2","real","true","2","common","0","2023-02-07 16:39:04.885"
"two-step-fixation","222","839402","0.0-77.0-2.28","3529","6187","12","Female","true","true","true","false","""event"",""trial"",""time""
""fullscreenenter"",""5"",""30959""
","
","
","""event"",""trial"",""time""
""fullscreenenter"",""5"",""30959""
","
","","images/earth.jpg","","","","","","","","","","","","","","fixation","","","","","",""
"d3-animate-choice","223","841819","0.0-77.0-0.29","3529","6187","12","Female","true","true","true","false","""event"",""trial"",""time""
""fullscreenenter"",""5"",""30959""
","
","
","""event"",""trial"",""time""
""fullscreenenter"",""5"",""30959""
","
","409.40000009536743","","49","","","3000","1","","","images/earth.jpg","images/rocket2","images/rocket1","null","images/rocket1","","1","real","null","1","","",""
"d3-animate-choice","224","844777","0.0-77.0-1.29","3529","6187","12","Female","true","true","true","false","""event"",""trial"",""time""
""fullscreenenter"",""5"",""30959""
","
","
","""event"",""trial"",""time""
""fullscreenenter"",""5"",""30959""
","
","953.5","","48","","","3000","1","","","images/purpleplanet.jpg","images/alien4","images/alien3","images/rocket1","images/alien4","images/t.png","2","real","false","2","rare","1","2023-02-07 16:39:11.269"
"two-step-fixation","225","845786","0.0-77.0-2.29","3529","6187","12","Female","true","true","true","false","""event"",""trial"",""time""
""fullscreenenter"",""5"",""30959""
","
","
","""event"",""trial"",""time""
""fullscreenenter"",""5"",""30959""
","
","","images/earth.jpg","","","","","","","","","","","","","","fixation","","","","","",""
"d3-animate-choice","226","848786","0.0-77.0-0.30","3529","6187","12","Female","true","true","true","false","""event"",""trial"",""time""
""fullscreenenter"",""5"",""30959""
","
","
","""event"",""trial"",""time""
""fullscreenenter"",""5"",""30959""
","
","994.0999999046326","","48","","","3000","1","","","images/earth.jpg","images/rocket2","images/rocket1","null","images/rocket2","","1","real","null","2","","",""
"d3-animate-choice","227","851490","0.0-77.0-1.30","3529","6187","12","Female","true","true","true","false","""event"",""trial"",""time""
""fullscreenenter"",""5"",""30959""
","
","
","""event"",""trial"",""time""
""fullscreenenter"",""5"",""30959""
","
","697.6999998092651","","48","","","3000","1","","","images/redplanet1.jpg","images/alien2","images/alien1","images/rocket2","images/alien2","images/t.png","2","real","false","2","rare","1","2023-02-07 16:39:17.981"
"two-step-fixation","228","852494","0.0-77.0-2.30","3529","6187","12","Female","true","true","true","false","""event"",""trial"",""time""
""fullscreenenter"",""5"",""30959""
","
","
","""event"",""trial"",""time""
""fullscreenenter"",""5"",""30959""
","
","","images/earth.jpg","","","","","","","","","","","","","","fixation","","","","","",""
"d3-animate-choice","229","855266","0.0-77.0-0.31","3529","6187","12","Female","true","true","true","false","""event"",""trial"",""time""
""fullscreenenter"",""5"",""30959""
","
","
","""event"",""trial"",""time""
""fullscreenenter"",""5"",""30959""
","
","749.2999997138977","","48","","","3000","1","","","images/earth.jpg","images/rocket2","images/rocket1","null","images/rocket2","","1","real","null","2","","",""
"d3-animate-choice","230","858354","0.0-77.0-1.31","3529","6187","12","Female","true","true","true","false","""event"",""trial"",""time""
""fullscreenenter"",""5"",""30959""
","
","
","""event"",""trial"",""time""
""fullscreenenter"",""5"",""30959""
","
","1081.6000003814697","","48","","","3000","1","","","images/purpleplanet.jpg","images/alien4","images/alien3","images/rocket2","images/alien4","images/t.png","2","real","true","2","common","1","2023-02-07 16:39:24.845"
"two-step-fixation","231","859361","0.0-77.0-2.31","3529","6187","12","Female","true","true","true","false","""event"",""trial"",""time""
""fullscreenenter"",""5"",""30959""
","
","
","""event"",""trial"",""time""
""fullscreenenter"",""5"",""30959""
","
","","images/earth.jpg","","","","","","","","","","","","","","fixation","","","","","",""
"d3-animate-choice","232","861723","0.0-77.0-0.32","3529","6187","12","Female","true","true","true","false","""event"",""trial"",""time""
""fullscreenenter"",""5"",""30959""
","
","
","""event"",""trial"",""time""
""fullscreenenter"",""5"",""30959""
","
","355.40000009536743","","48","","","3000","1","","","images/earth.jpg","images/rocket2","images/rocket1","null","images/rocket2","","1","real","null","2","","",""
"d3-animate-choice","233","864274","0.0-77.0-1.32","3529","6187","12","Female","true","true","true","false","""event"",""trial"",""time""
""fullscreenenter"",""5"",""30959""
","
","
","""event"",""trial"",""time""
""fullscreenenter"",""5"",""30959""
","
","545.1999998092651","","48","","","3000","1","","","images/purpleplanet.jpg","images/alien4","images/alien3","images/rocket2","images/alien4","images/nothing.png","2","real","true","2","common","0","2023-02-07 16:39:30.765"
"two-step-fixation","234","865282","0.0-77.0-2.32","3529","6187","12","Female","true","true","true","false","""event"",""trial"",""time""
""fullscreenenter"",""5"",""30959""
","
","
","""event"",""trial"",""time""
""fullscreenenter"",""5"",""30959""
","
","","images/earth.jpg","","","","","","","","","","","","","","fixation","","","","","",""
"d3-animate-choice","235","867650","0.0-77.0-0.33","3529","6187","12","Female","true","true","true","false","""event"",""trial"",""time""
""fullscreenenter"",""5"",""30959""
","
","
","""event"",""trial"",""time""
""fullscreenenter"",""5"",""30959""
","
","362.80000019073486","","49","","","3000","1","","","images/earth.jpg","images/rocket2","images/rocket1","null","images/rocket1","","1","real","null","1","","",""
"d3-animate-choice","236","870658","0.0-77.0-1.33","3529","6187","12","Female","true","true","true","false","""event"",""trial"",""time""
""fullscreenenter"",""5"",""30959""
","
","
","""event"",""trial"",""time""
""fullscreenenter"",""5"",""30959""
","
","1002.4000000953674","","48","","","3000","1","","","images/purpleplanet.jpg","images/alien4","images/alien3","images/rocket1","images/alien4","images/t.png","2","real","false","2","rare","1","2023-02-07 16:39:37.150"
"two-step-fixation","237","871666","0.0-77.0-2.33","3529","6187","12","Female","true","true","true","false","""event"",""trial"",""time""
""fullscreenenter"",""5"",""30959""
","
","
","""event"",""trial"",""time""
""fullscreenenter"",""5"",""30959""
","
","","images/earth.jpg","","","","","","","","","","","","","","fixation","","","","","",""
"d3-animate-choice","238","874058","0.0-77.0-0.34","3529","6187","12","Female","true","true","true","false","""event"",""trial"",""time""
""fullscreenenter"",""5"",""30959""
","
","
","""event"",""trial"",""time""
""fullscreenenter"",""5"",""30959""
","
","385.8999996185303","","49","","","3000","1","","","images/earth.jpg","images/rocket2","images/rocket1","null","images/rocket1","","1","real","null","1","","",""
"d3-animate-choice","239","876753","0.0-77.0-1.34","3529","6187","12","Female","true","true","true","false","""event"",""trial"",""time""
""fullscreenenter"",""5"",""30959""
","
","
","""event"",""trial"",""time""
""fullscreenenter"",""5"",""30959""
","
","689.5999999046326","","48","","","3000","1","","","images/redplanet1.jpg","images/alien2","images/alien1","images/rocket1","images/alien2","images/t.png","2","real","true","2","common","1","2023-02-07 16:39:43.245"
"two-step-fixation","240","877760","0.0-77.0-2.34","3529","6187","12","Female","true","true","true","false","""event"",""trial"",""time""
""fullscreenenter"",""5"",""30959""
","
","
","""event"",""trial"",""time""
""fullscreenenter"",""5"",""30959""
","
","","images/earth.jpg","","","","","","","","","","","","","","fixation","","","","","",""
"d3-animate-choice","241","880242","0.0-77.0-0.35","3529","6187","12","Female","true","true","true","false","""event"",""trial"",""time""
""fullscreenenter"",""5"",""30959""
","
","
","""event"",""trial"",""time""
""fullscreenenter"",""5"",""30959""
","
","475.80000019073486","","49","","","3000","1","","","images/earth.jpg","images/rocket2","images/rocket1","null","images/rocket1","","1","real","null","1","","",""
"d3-animate-choice","242","882682","0.0-77.0-1.35","3529","6187","12","Female","true","true","true","false","""event"",""trial"",""time""
""fullscreenenter"",""5"",""30959""
","
","
","""event"",""trial"",""time""
""fullscreenenter"",""5"",""30959""
","
","433.59999990463257","","48","","","3000","1","","","images/redplanet1.jpg","images/alien2","images/alien1","images/rocket1","images/alien2","images/t.png","2","real","true","2","common","1","2023-02-07 16:39:49.173"
"two-step-fixation","243","883690","0.0-77.0-2.35","3529","6187","12","Female","true","true","true","false","""event"",""trial"",""time""
""fullscreenenter"",""5"",""30959""
","
","
","""event"",""trial"",""time""
""fullscreenenter"",""5"",""30959""
","
","","images/earth.jpg","","","","","","","","","","","","","","fixation","","","","","",""
"d3-animate-choice","244","886138","0.0-77.0-0.36","3529","6187","12","Female","true","true","true","false","""event"",""trial"",""time""
""fullscreenenter"",""5"",""30959""
","
","
","""event"",""trial"",""time""
""fullscreenenter"",""5"",""30959""
","
","442.19999980926514","","49","","","3000","1","","","images/earth.jpg","images/rocket2","images/rocket1","null","images/rocket1","","1","real","null","1","","",""
"d3-animate-choice","245","888689","0.0-77.0-1.36","3529","6187","12","Female","true","true","true","false","""event"",""trial"",""time""
""fullscreenenter"",""5"",""30959""
","
","
","""event"",""trial"",""time""
""fullscreenenter"",""5"",""30959""
","
","545.5999999046326","","48","","","3000","1","","","images/redplanet1.jpg","images/alien2","images/alien1","images/rocket1","images/alien2","images/t.png","2","real","true","2","common","1","2023-02-07 16:39:55.181"
"two-step-fixation","246","889694","0.0-77.0-2.36","3529","6187","12","Female","true","true","true","false","""event"",""trial"",""time""
""fullscreenenter"",""5"",""30959""
","
","
","""event"",""trial"",""time""
