"trial_type","trial_index","time_elapsed","internal_node_id","participant_id","subject_id","age","gender","rocket_sides","red_planet_first_rocket","red_display_order","purple_display_order","interactions","blur_events","focus_events","fullscreenenter_events","fullscreenexit_events","rt","stimulus","key_press","button_pressed","success","duration","valid_pressed","rts","keys","planet_text","right_text","left_text","center_text","chosen_text","reward_text","trial_stage","practice_trial","transition_type","choice","transition","reward","timestamp"
"pavlovia","0","3","0.0-0.0","2148","2380","19","Male","true","true","true","true","
","
","
","
","
","","","","","","","","","","","","","","","","","","","","","",""
"html-keyboard-response","1","14897","0.0-1.0","2148","2380","19","Male","true","true","true","true","
","
","
","
","
","14892.29999999702","Welcome! Press the space bar to begin.","32","","","","","","","","","","","","","","","","","","",""
"audio-keyboard-response","2","18578","0.0-2.0","2148","2380","19","Male","true","true","true","true","
","
","
","
","
","3541","audio/beep_loop.wav","32","","","","","","","","","","","","","","","","","","",""
"audio-button-response","3","22578","0.0-3.0","2148","2380","19","Male","true","true","true","true","
","
","
","
","
","NaN","audio/fish.mp3","","1","","","","","","","","","","","","","","","","","",""
"audio-button-response","4","25496","0.0-4.0","2148","2380","19","Male","true","true","true","true","""event"",""trial"",""time""
""fullscreenenter"",""5"",""28542""
","
","
","""event"",""trial"",""time""
""fullscreenenter"",""5"",""28542""
","
","NaN","audio/tiger.mp3","","4","","","","","","","","","","","","","","","","","",""
"fullscreen","5","29516","0.0-5.0","2148","2380","19","Male","true","true","true","true","""event"",""trial"",""time""
""fullscreenenter"",""5"",""28542""
","
","
","""event"",""trial"",""time""
""fullscreenenter"",""5"",""28542""
","
","","","","","true","","","","","","","","","","","","","","","","",""
"d3-instructions","6","42139","0.0-6.0","2148","2380","19","Male","true","true","true","true","""event"",""trial"",""time""
""fullscreenenter"",""5"",""28542""
","
","
","""event"",""trial"",""time""
""fullscreenenter"",""5"",""28542""
","
","","","","","","","","","","","","","","","","","","","","","",""
"d3-instructions","7","49928","0.0-7.0","2148","2380","19","Male","true","true","true","true","""event"",""trial"",""time""
""fullscreenenter"",""5"",""28542""
","
","
","""event"",""trial"",""time""
""fullscreenenter"",""5"",""28542""
","
","","","","","","","","","","","","","","","","","","","","","",""
"d3-instructions","8","56506","0.0-8.0","2148","2380","19","Male","true","true","true","true","""event"",""trial"",""time""
""fullscreenenter"",""5"",""28542""
","
","
","""event"",""trial"",""time""
""fullscreenenter"",""5"",""28542""
","
","","","","","","","","","","","","","","","","","","","","","",""
"d3-instructions","9","66925","0.0-9.0","2148","2380","19","Male","true","true","true","true","""event"",""trial"",""time""
""fullscreenenter"",""5"",""28542""
","
","
","""event"",""trial"",""time""
""fullscreenenter"",""5"",""28542""
","
","","","","","","","","","","","","","","","","","","","","","",""
"d3-instructions","10","85825","0.0-10.0","2148","2380","19","Male","true","true","true","true","""event"",""trial"",""time""
""fullscreenenter"",""5"",""28542""
","
","
","""event"",""trial"",""time""
""fullscreenenter"",""5"",""28542""
","
","","","","","","","","","","","","","","","","","","","","","",""
"d3-animate-choice","11","88941","0.0-11.0","2148","2380","19","Male","true","true","true","true","""event"",""trial"",""time""
""fullscreenenter"",""5"",""28542""
","
","
","""event"",""trial"",""time""
""fullscreenenter"",""5"",""28542""
","
","1091.5","","49","","","3000","1","2381.2999999970198","48","images/tutgreenplanet.jpg","images/tutalien1","images/tutalien2","null","images/tutalien2","","NA","practice","null","","","",""
"d3-animate-choice","12","91870","0.0-12.0","2148","2380","19","Male","true","true","true","true","""event"",""trial"",""time""
""fullscreenenter"",""5"",""28542""
","
","
","""event"",""trial"",""time""
""fullscreenenter"",""5"",""28542""
","
","919.0999999977648","","48","","","3000","1","","","images/tutgreenplanet.jpg","images/tutalien1","images/tutalien2","null","images/tutalien1","","NA","practice","null","","","",""
"d3-animate-choice","13","94621","0.0-13.0","2148","2380","19","Male","true","true","true","true","""event"",""trial"",""time""
""fullscreenenter"",""5"",""28542""
","
","
","""event"",""trial"",""time""
""fullscreenenter"",""5"",""28542""
","
","739.2000000029802","","48","","","3000","1","","","images/tutgreenplanet.jpg","images/tutalien1","images/tutalien2","null","images/tutalien1","","NA","practice","null","","","",""
"d3-animate-choice","14","96951","0.0-14.0","2148","2380","19","Male","true","true","true","true","""event"",""trial"",""time""
""fullscreenenter"",""5"",""28542""
","
","
","""event"",""trial"",""time""
""fullscreenenter"",""5"",""28542""
","
","304.8999999985099","","49","","","3000","1","","","images/tutgreenplanet.jpg","images/tutalien1","images/tutalien2","null","images/tutalien2","","NA","practice","null","","","",""
"d3-instructions","15","103429","0.0-15.0","2148","2380","19","Male","true","true","true","true","""event"",""trial"",""time""
""fullscreenenter"",""5"",""28542""
","
","
","""event"",""trial"",""time""
""fullscreenenter"",""5"",""28542""
","
","","","","","","","","","","","","","","","","","","","","","",""
"d3-instructions","16","110038","0.0-16.0","2148","2380","19","Male","true","true","true","true","""event"",""trial"",""time""
""fullscreenenter"",""5"",""28542""
","
","
","""event"",""trial"",""time""
""fullscreenenter"",""5"",""28542""
","
","","","","","","","","","","","","","","","","","","","","","",""
"d3-instructions","17","118275","0.0-17.0","2148","2380","19","Male","true","true","true","true","""event"",""trial"",""time""
""fullscreenenter"",""5"",""28542""
","
","
","""event"",""trial"",""time""
""fullscreenenter"",""5"",""28542""
","
","","","","","","","","","","","","","","","","","","","","","",""
"d3-instructions","18","131625","0.0-18.0","2148","2380","19","Male","true","true","true","true","""event"",""trial"",""time""
""fullscreenenter"",""5"",""28542""
","
","
","""event"",""trial"",""time""
""fullscreenenter"",""5"",""28542""
","
","","","","","","","","","","","","","","","","","","","","","",""
"d3-instructions","19","144028","0.0-19.0","2148","2380","19","Male","true","true","true","true","""event"",""trial"",""time""
""fullscreenenter"",""5"",""28542""
","
","
","""event"",""trial"",""time""
""fullscreenenter"",""5"",""28542""
","
","","","","","","","","","","","","","","","","","","","","","",""
"d3-animate-choice","20","147031","0.0-20.0","2148","2380","19","Male","true","true","true","true","""event"",""trial"",""time""
""fullscreenenter"",""5"",""28542""
","
","
","""event"",""trial"",""time""
""fullscreenenter"",""5"",""28542""
","
","987.5","","49","","","3000","1","","","images/tutyellowplanet.jpg","null","images/tutalien3","null","images/tutalien3","images/t.png","NA","practice","null","","","",""
"d3-animate-choice","21","149671","0.0-21.0","2148","2380","19","Male","true","true","true","true","""event"",""trial"",""time""
""fullscreenenter"",""5"",""28542""
","
","
","""event"",""trial"",""time""
""fullscreenenter"",""5"",""28542""
","
","625.8999999985099","","49","","","3000","1","","","images/tutyellowplanet.jpg","null","images/tutalien3","null","images/tutalien3","images/t.png","NA","practice","null","","","",""
"d3-animate-choice","22","152070","0.0-22.0","2148","2380","19","Male","true","true","true","true","""event"",""trial"",""time""
""fullscreenenter"",""5"",""28542""
","
","
","""event"",""trial"",""time""
""fullscreenenter"",""5"",""28542""
","
","393.19999999925494","","49","","","3000","1","","","images/tutyellowplanet.jpg","null","images/tutalien3","null","images/tutalien3","images/nothing.png","NA","practice","null","","","",""
"d3-animate-choice","23","154530","0.0-23.0","2148","2380","19","Male","true","true","true","true","""event"",""trial"",""time""
""fullscreenenter"",""5"",""28542""
","
","
","""event"",""trial"",""time""
""fullscreenenter"",""5"",""28542""
","
","441.5","","49","","","3000","1","","","images/tutyellowplanet.jpg","null","images/tutalien3","null","images/tutalien3","images/nothing.png","NA","practice","null","","","",""
"d3-animate-choice","24","156820","0.0-24.0","2148","2380","19","Male","true","true","true","true","""event"",""trial"",""time""
""fullscreenenter"",""5"",""28542""
","
","
","""event"",""trial"",""time""
""fullscreenenter"",""5"",""28542""
","
","266.70000000298023","","49","","","3000","1","","","images/tutyellowplanet.jpg","null","images/tutalien3","null","images/tutalien3","images/nothing.png","NA","practice","null","","","",""
"d3-animate-choice","25","159611","0.0-25.0","2148","2380","19","Male","true","true","true","true","""event"",""trial"",""time""
""fullscreenenter"",""5"",""28542""
","
","
","""event"",""trial"",""time""
""fullscreenenter"",""5"",""28542""
","
","768.3999999985099","","49","","","3000","1","","","images/tutyellowplanet.jpg","null","images/tutalien3","null","images/tutalien3","images/t.png","NA","practice","null","","","",""
"d3-animate-choice","26","162000","0.0-26.0","2148","2380","19","Male","true","true","true","true","""event"",""trial"",""time""
""fullscreenenter"",""5"",""28542""
","
","
","""event"",""trial"",""time""
""fullscreenenter"",""5"",""28542""
","
","375.1000000014901","","49","","","3000","1","","","images/tutyellowplanet.jpg","null","images/tutalien3","null","images/tutalien3","images/t.png","NA","practice","null","","","",""
"d3-animate-choice","27","164311","0.0-27.0","2148","2380","19","Male","true","true","true","true","""event"",""trial"",""time""
""fullscreenenter"",""5"",""28542""
","
","
","""event"",""trial"",""time""
""fullscreenenter"",""5"",""28542""
","
","295","","49","","","3000","1","","","images/tutyellowplanet.jpg","null","images/tutalien3","null","images/tutalien3","images/nothing.png","NA","practice","null","","","",""
"d3-animate-choice","28","166760","0.0-28.0","2148","2380","19","Male","true","true","true","true","""event"",""trial"",""time""
""fullscreenenter"",""5"",""28542""
","
","
","""event"",""trial"",""time""
""fullscreenenter"",""5"",""28542""
","
","436.0999999977648","","49","","","3000","1","","","images/tutyellowplanet.jpg","null","images/tutalien3","null","images/tutalien3","images/t.png","NA","practice","null","","","",""
"d3-animate-choice","29","169172","0.0-29.0","2148","2380","19","Male","true","true","true","true","""event"",""trial"",""time""
""fullscreenenter"",""5"",""28542""
","
","
","""event"",""trial"",""time""
""fullscreenenter"",""5"",""28542""
","
","406.30000000074506","","49","","","3000","1","1284.1000000014901","49","images/tutyellowplanet.jpg","null","images/tutalien3","null","images/tutalien3","images/t.png","NA","practice","null","","","",""
"d3-instructions","30","176599","0.0-30.0","2148","2380","19","Male","true","true","true","true","""event"",""trial"",""time""
""fullscreenenter"",""5"",""28542""
","
","
","""event"",""trial"",""time""
""fullscreenenter"",""5"",""28542""
","
","","","","","","","","","","","","","","","","","","","","","",""
"d3-instructions","31","188087","0.0-31.0","2148","2380","19","Male","true","true","true","true","""event"",""trial"",""time""
""fullscreenenter"",""5"",""28542""
","
","
","""event"",""trial"",""time""
""fullscreenenter"",""5"",""28542""
","
","","","","","","","","","","","","","","","","","","","","","",""
"d3-instructions","32","196351","0.0-32.0","2148","2380","19","Male","true","true","true","true","""event"",""trial"",""time""
""fullscreenenter"",""5"",""28542""
","
","
","""event"",""trial"",""time""
""fullscreenenter"",""5"",""28542""
","
","","","","","","","","","","","","","","","","","","","","","",""
"d3-instructions","33","206362","0.0-33.0","2148","2380","19","Male","true","true","true","true","""event"",""trial"",""time""
""fullscreenenter"",""5"",""28542""
","
","
","""event"",""trial"",""time""
""fullscreenenter"",""5"",""28542""
","
","","","","","","","","","","","","","","","","","","","","","",""
"d3-animate-choice","34","209679","0.0-34.0","2148","2380","19","Male","true","true","true","true","""event"",""trial"",""time""
""fullscreenenter"",""5"",""28542""
","
","
","""event"",""trial"",""time""
""fullscreenenter"",""5"",""28542""
","
","1304.4000000022352","","49","","","3000","1","","","images/tutgreenplanet.jpg","images/tutalien1","images/tutalien2","null","images/tutalien2","images/t.png","NA","practice","null","","","",""
"d3-animate-choice","35","212515","0.0-35.0","2148","2380","19","Male","true","true","true","true","""event"",""trial"",""time""
""fullscreenenter"",""5"",""28542""
","
","
","""event"",""trial"",""time""
""fullscreenenter"",""5"",""28542""
","
","819.3999999985099","","48","","","3000","1","","","images/tutgreenplanet.jpg","images/tutalien1","images/tutalien2","null","images/tutalien1","images/nothing.png","NA","practice","null","","","",""
"d3-animate-choice","36","214920","0.0-36.0","2148","2380","19","Male","true","true","true","true","""event"",""trial"",""time""
""fullscreenenter"",""5"",""28542""
","
","
","""event"",""trial"",""time""
""fullscreenenter"",""5"",""28542""
","
","383.79999999701977","","49","","","3000","1","","","images/tutgreenplanet.jpg","images/tutalien1","images/tutalien2","null","images/tutalien2","images/t.png","NA","practice","null","","","",""
"d3-animate-choice","37","217309","0.0-37.0","2148","2380","19","Male","true","true","true","true","""event"",""trial"",""time""
""fullscreenenter"",""5"",""28542""
","
","
","""event"",""trial"",""time""
""fullscreenenter"",""5"",""28542""
","
","373.0999999977648","","48","","","3000","1","","","images/tutgreenplanet.jpg","images/tutalien1","images/tutalien2","null","images/tutalien1","images/nothing.png","NA","practice","null","","","",""
"d3-animate-choice","38","219979","0.0-38.0","2148","2380","19","Male","true","true","true","true","""event"",""trial"",""time""
""fullscreenenter"",""5"",""28542""
","
","
","""event"",""trial"",""time""
""fullscreenenter"",""5"",""28542""
","
","648.6999999992549","","49","","","3000","1","","","images/tutgreenplanet.jpg","images/tutalien1","images/tutalien2","null","images/tutalien2","images/t.png","NA","practice","null","","","",""
"d3-animate-choice","39","222479","0.0-39.0","2148","2380","19","Male","true","true","true","true","""event"",""trial"",""time""
""fullscreenenter"",""5"",""28542""
","
","
","""event"",""trial"",""time""
""fullscreenenter"",""5"",""28542""
","
","483.1000000014901","","48","","","3000","1","","","images/tutgreenplanet.jpg","images/tutalien1","images/tutalien2","null","images/tutalien1","images/nothing.png","NA","practice","null","","","",""
"d3-animate-choice","40","225073","0.0-40.0","2148","2380","19","Male","true","true","true","true","""event"",""trial"",""time""
""fullscreenenter"",""5"",""28542""
","
","
","""event"",""trial"",""time""
""fullscreenenter"",""5"",""28542""
","
","589.1999999992549","","49","","","3000","1","","","images/tutgreenplanet.jpg","images/tutalien1","images/tutalien2","null","images/tutalien2","images/t.png","NA","practice","null","","","",""
"d3-animate-choice","41","227509","0.0-41.0","2148","2380","19","Male","true","true","true","true","""event"",""trial"",""time""
""fullscreenenter"",""5"",""28542""
","
","
","""event"",""trial"",""time""
""fullscreenenter"",""5"",""28542""
","
","420.80000000074506","","48","","","3000","1","","","images/tutgreenplanet.jpg","images/tutalien1","images/tutalien2","null","images/tutalien1","images/nothing.png","NA","practice","null","","","",""
"d3-animate-choice","42","229769","0.0-42.0","2148","2380","19","Male","true","true","true","true","""event"",""trial"",""time""
""fullscreenenter"",""5"",""28542""
","
","
","""event"",""trial"",""time""
""fullscreenenter"",""5"",""28542""
","
","246.19999999925494","","49","","","3000","1","","","images/tutgreenplanet.jpg","images/tutalien1","images/tutalien2","null","images/tutalien2","images/t.png","NA","practice","null","","","",""
"d3-animate-choice","43","232269","0.0-43.0","2148","2380","19","Male","true","true","true","true","""event"",""trial"",""time""
""fullscreenenter"",""5"",""28542""
","
","
","""event"",""trial"",""time""
""fullscreenenter"",""5"",""28542""
","
","475.1000000014901","","48","","","3000","1","","","images/tutgreenplanet.jpg","images/tutalien1","images/tutalien2","null","images/tutalien1","images/nothing.png","NA","practice","null","","","",""
"d3-instructions","44","246524","0.0-44.0","2148","2380","19","Male","true","true","true","true","""event"",""trial"",""time""
""fullscreenenter"",""5"",""28542""
","
","
","""event"",""trial"",""time""
""fullscreenenter"",""5"",""28542""
","
","","","","","","","","","","","","","","","","","","","","","",""
"d3-instructions","45","252485","0.0-45.0","2148","2380","19","Male","true","true","true","true","""event"",""trial"",""time""
""fullscreenenter"",""5"",""28542""
","
","
","""event"",""trial"",""time""
""fullscreenenter"",""5"",""28542""
","
","","","","","","","","","","","","","","","","","","","","","",""
"d3-instructions","46","256861","0.0-46.0","2148","2380","19","Male","true","true","true","true","""event"",""trial"",""time""
""fullscreenenter"",""5"",""28542""
","
","
","""event"",""trial"",""time""
""fullscreenenter"",""5"",""28542""
","
","","","","","","","","","","","","","","","","","","","","","",""
"d3-instructions","47","273611","0.0-47.0","2148","2380","19","Male","true","true","true","true","""event"",""trial"",""time""
""fullscreenenter"",""5"",""28542""
","
","
","""event"",""trial"",""time""
""fullscreenenter"",""5"",""28542""
","
","","","","","","","","","","","","","","","","","","","","","",""
"d3-instructions","48","281465","0.0-48.0","2148","2380","19","Male","true","true","true","true","""event"",""trial"",""time""
""fullscreenenter"",""5"",""28542""
","
","
","""event"",""trial"",""time""
""fullscreenenter"",""5"",""28542""
","
","","","","","","","","","","","","","","","","","","","","","",""
"d3-instructions","49","315475","0.0-49.0","2148","2380","19","Male","true","true","true","true","""event"",""trial"",""time""
""fullscreenenter"",""5"",""28542""
","
","
","""event"",""trial"",""time""
""fullscreenenter"",""5"",""28542""
","
","","","","","","","","","","","","","","","","","","","","","",""
"d3-instructions","50","324595","0.0-50.0","2148","2380","19","Male","true","true","true","true","""event"",""trial"",""time""
""fullscreenenter"",""5"",""28542""
","
","
","""event"",""trial"",""time""
""fullscreenenter"",""5"",""28542""
","
","","","","","","","","","","","","","","","","","","","","","",""
"d3-instructions","51","328062","0.0-51.0","2148","2380","19","Male","true","true","true","true","""event"",""trial"",""time""
""fullscreenenter"",""5"",""28542""
","
","
","""event"",""trial"",""time""
""fullscreenenter"",""5"",""28542""
","
","","","","","","","","","","","","","","","","","","","","","",""
"d3-instructions","52","330424","0.0-52.0","2148","2380","19","Male","true","true","true","true","""event"",""trial"",""time""
""fullscreenenter"",""5"",""28542""
","
","
","""event"",""trial"",""time""
""fullscreenenter"",""5"",""28542""
","
","","","","","","","","","","","","","","","","","","","","","",""
"d3-instructions","53","342285","0.0-53.0","2148","2380","19","Male","true","true","true","true","""event"",""trial"",""time""
""fullscreenenter"",""5"",""28542""
","
","
","""event"",""trial"",""time""
""fullscreenenter"",""5"",""28542""
","
","","","","","","","","","","","","","","","","","","","","","",""
"d3-instructions","54","361535","0.0-54.0","2148","2380","19","Male","true","true","true","true","""event"",""trial"",""time""
""fullscreenenter"",""5"",""28542""
","
","
","""event"",""trial"",""time""
""fullscreenenter"",""5"",""28542""
","
","","","","","","","","","","","","","","","","","","","","","",""
"d3-instructions","55","373803","0.0-55.0","2148","2380","19","Male","true","true","true","true","""event"",""trial"",""time""
""fullscreenenter"",""5"",""28542""
","
","
","""event"",""trial"",""time""
""fullscreenenter"",""5"",""28542""
","
","","","","","","","","","","","","","","","","","","","","","",""
"d3-instructions","56","381913","0.0-56.0","2148","2380","19","Male","true","true","true","true","""event"",""trial"",""time""
""fullscreenenter"",""5"",""28542""
","
","
","""event"",""trial"",""time""
""fullscreenenter"",""5"",""28542""
","
","","","","","","","","","","","","","","","","","","","","","",""
"d3-instructions","57","393741","0.0-57.0","2148","2380","19","Male","true","true","true","true","""event"",""trial"",""time""
""fullscreenenter"",""5"",""28542""
","
","
","""event"",""trial"",""time""
""fullscreenenter"",""5"",""28542""
","
","","","","","","","","","","","","","","","","","","","","","",""
"d3-instructions","58","405612","0.0-58.0","2148","2380","19","Male","true","true","true","true","""event"",""trial"",""time""
""fullscreenenter"",""5"",""28542""
","
","
","""event"",""trial"",""time""
""fullscreenenter"",""5"",""28542""
","
","","","","","","","","","","","","","","","","","","","","","",""
"d3-instructions","59","410846","0.0-59.0","2148","2380","19","Male","true","true","true","true","""event"",""trial"",""time""
""fullscreenenter"",""5"",""28542""
","
","
","""event"",""trial"",""time""
""fullscreenenter"",""5"",""28542""
","
","","","","","","","","","","","","","","","","","","","","","",""
"d3-instructions","60","417020","0.0-60.0","2148","2380","19","Male","true","true","true","true","""event"",""trial"",""time""
""fullscreenenter"",""5"",""28542""
","
","
","""event"",""trial"",""time""
""fullscreenenter"",""5"",""28542""
","
","","","","","","","","","","","","","","","","","","","","","",""
"d3-animate-choice","61","420301","0.0-61.0-0.0","2148","2380","19","Male","true","true","true","true","""event"",""trial"",""time""
""fullscreenenter"",""5"",""28542""
","
","
","""event"",""trial"",""time""
""fullscreenenter"",""5"",""28542""
","
","1266.300000000745","","49","","","3000","1","","","images/earth.jpg","images/tutrocket1","images/tutrocket2","null","images/tutrocket2","","1","practice","null","1","","",""
"d3-animate-choice","62","424311","0.0-61.0-1.0","2148","2380","19","Male","true","true","true","true","""event"",""trial"",""time""
""fullscreenenter"",""5"",""28542""
","
","
","""event"",""trial"",""time""
""fullscreenenter"",""5"",""28542""
","
","1986","","49","","","3000","1","","","images/tutyellowplanet.jpg","images/tutalien4","images/tutalien3","images/tutrocket2","images/tutalien3","images/t.png","2","practice","true","1","common","1","2022-07-20 20:33:33.961"
"two-step-fixation","63","425331","0.0-61.0-2.0","2148","2380","19","Male","true","true","true","true","""event"",""trial"",""time""
""fullscreenenter"",""5"",""28542""
","
","
","""event"",""trial"",""time""
""fullscreenenter"",""5"",""28542""
","
","","images/earth.jpg","","","","","","","","","","","","","","fixation","","","","","",""
"d3-animate-choice","64","428281","0.0-61.0-0.1","2148","2380","19","Male","true","true","true","true","""event"",""trial"",""time""
""fullscreenenter"",""5"",""28542""
","
","
","""event"",""trial"",""time""
""fullscreenenter"",""5"",""28542""
","
","938.5","","48","","","3000","1","","","images/earth.jpg","images/tutrocket1","images/tutrocket2","null","images/tutrocket1","","1","practice","null","2","","",""
"d3-animate-choice","65","431501","0.0-61.0-1.1","2148","2380","19","Male","true","true","true","true","""event"",""trial"",""time""
""fullscreenenter"",""5"",""28542""
","
","
","""event"",""trial"",""time""
""fullscreenenter"",""5"",""28542""
","
","1209.800000000745","","48","","","3000","1","","","images/tutyellowplanet.jpg","images/tutalien4","images/tutalien3","images/tutrocket1","images/tutalien4","images/t.png","2","practice","false","2","rare","1","2022-07-20 20:33:41.150"
"two-step-fixation","66","432517","0.0-61.0-2.1","2148","2380","19","Male","true","true","true","true","""event"",""trial"",""time""
""fullscreenenter"",""5"",""28542""
","
","
","""event"",""trial"",""time""
""fullscreenenter"",""5"",""28542""
","
","","images/earth.jpg","","","","","","","","","","","","","","fixation","","","","","",""
"d3-animate-choice","67","434980","0.0-61.0-0.2","2148","2380","19","Male","true","true","true","true","""event"",""trial"",""time""
""fullscreenenter"",""5"",""28542""
","
","
","""event"",""trial"",""time""
""fullscreenenter"",""5"",""28542""
","
","449.8999999985099","","49","","","3000","1","","","images/earth.jpg","images/tutrocket1","images/tutrocket2","null","images/tutrocket2","","1","practice","null","1","","",""
"d3-animate-choice","68","437960","0.0-61.0-1.2","2148","2380","19","Male","true","true","true","true","""event"",""trial"",""time""
""fullscreenenter"",""5"",""28542""
","
","
","""event"",""trial"",""time""
""fullscreenenter"",""5"",""28542""
","
","971.5","","48","","","3000","1","","","images/tutgreenplanet.jpg","images/tutalien2","images/tutalien1","images/tutrocket2","images/tutalien2","images/t.png","2","practice","false","2","rare","1","2022-07-20 20:33:47.610"
"two-step-fixation","69","438980","0.0-61.0-2.2","2148","2380","19","Male","true","true","true","true","""event"",""trial"",""time""
""fullscreenenter"",""5"",""28542""
","
","
","""event"",""trial"",""time""
""fullscreenenter"",""5"",""28542""
","
","","images/earth.jpg","","","","","","","","","","","","","","fixation","","","","","",""
"d3-animate-choice","70","441832","0.0-61.0-0.3","2148","2380","19","Male","true","true","true","true","""event"",""trial"",""time""
""fullscreenenter"",""5"",""28542""
","
","
","""event"",""trial"",""time""
""fullscreenenter"",""5"",""28542""
","
","846.3999999985099","","48","","","3000","1","","","images/earth.jpg","images/tutrocket1","images/tutrocket2","null","images/tutrocket1","","1","practice","null","2","","",""
"d3-animate-choice","71","444872","0.0-61.0-1.3","2148","2380","19","Male","true","true","true","true","""event"",""trial"",""time""
""fullscreenenter"",""5"",""28542""
","
","
","""event"",""trial"",""time""
""fullscreenenter"",""5"",""28542""
","
","1034.199999999255","","49","","","3000","1","","","images/tutgreenplanet.jpg","images/tutalien2","images/tutalien1","images/tutrocket1","images/tutalien1","images/t.png","2","practice","true","1","common","1","2022-07-20 20:33:54.521"
"two-step-fixation","72","445878","0.0-61.0-2.3","2148","2380","19","Male","true","true","true","true","""event"",""trial"",""time""
""fullscreenenter"",""5"",""28542""
","
","
","""event"",""trial"",""time""
""fullscreenenter"",""5"",""28542""
","
","","images/earth.jpg","","","","","","","","","","","","","","fixation","","","","","",""
"d3-animate-choice","73","448820","0.0-61.0-0.4","2148","2380","19","Male","true","true","true","true","""event"",""trial"",""time""
""fullscreenenter"",""5"",""28542""
","
","
","""event"",""trial"",""time""
""fullscreenenter"",""5"",""28542""
","
","936.3000000007451","","49","","","3000","1","","","images/earth.jpg","images/tutrocket1","images/tutrocket2","null","images/tutrocket2","","1","practice","null","1","","",""
"d3-animate-choice","74","452356","0.0-61.0-1.4","2148","2380","19","Male","true","true","true","true","""event"",""trial"",""time""
""fullscreenenter"",""5"",""28542""
","
","
","""event"",""trial"",""time""
""fullscreenenter"",""5"",""28542""
","
","1531.5","","49","","","3000","1","","","images/tutyellowplanet.jpg","images/tutalien4","images/tutalien3","images/tutrocket2","images/tutalien3","images/t.png","2","practice","true","1","common","1","2022-07-20 20:34:02.005"
"two-step-fixation","75","453359","0.0-61.0-2.4","2148","2380","19","Male","true","true","true","true","""event"",""trial"",""time""
""fullscreenenter"",""5"",""28542""
","
","
","""event"",""trial"",""time""
""fullscreenenter"",""5"",""28542""
","
","","images/earth.jpg","","","","","","","","","","","","","","fixation","","","","","",""
"d3-animate-choice","76","455999","0.0-61.0-0.5","2148","2380","19","Male","true","true","true","true","""event"",""trial"",""time""
""fullscreenenter"",""5"",""28542""
","
","
","""event"",""trial"",""time""
""fullscreenenter"",""5"",""28542""
","
","621.5","","49","","","3000","1","","","images/earth.jpg","images/tutrocket1","images/tutrocket2","null","images/tutrocket2","","1","practice","null","1","","",""
"d3-animate-choice","77","458778","0.0-61.0-1.5","2148","2380","19","Male","true","true","true","true","""event"",""trial"",""time""
""fullscreenenter"",""5"",""28542""
","
","
","""event"",""trial"",""time""
""fullscreenenter"",""5"",""28542""
","
","773.6000000014901","","49","","","3000","1","","","images/tutyellowplanet.jpg","images/tutalien4","images/tutalien3","images/tutrocket2","images/tutalien3","images/nothing.png","2","practice","true","1","common","0","2022-07-20 20:34:08.427"
"two-step-fixation","78","459783","0.0-61.0-2.5","2148","2380","19","Male","true","true","true","true","""event"",""trial"",""time""
""fullscreenenter"",""5"",""28542""
","
","
","""event"",""trial"",""time""
""fullscreenenter"",""5"",""28542""
","
","","images/earth.jpg","","","","","","","","","","","","","","fixation","","","","","",""
"d3-animate-choice","79","462156","0.0-61.0-0.6","2148","2380","19","Male","true","true","true","true","""event"",""trial"",""time""
""fullscreenenter"",""5"",""28542""
","
","
","""event"",""trial"",""time""
""fullscreenenter"",""5"",""28542""
","
","367.80000000074506","","48","","","3000","1","","","images/earth.jpg","images/tutrocket1","images/tutrocket2","null","images/tutrocket1","","1","practice","null","2","","",""
"d3-animate-choice","80","464927","0.0-61.0-1.6","2148","2380","19","Male","true","true","true","true","""event"",""trial"",""time""
""fullscreenenter"",""5"",""28542""
","
","
","""event"",""trial"",""time""
""fullscreenenter"",""5"",""28542""
","
","765.8999999985099","","48","","","3000","1","","","images/tutgreenplanet.jpg","images/tutalien2","images/tutalien1","images/tutrocket1","images/tutalien2","images/t.png","2","practice","true","2","common","1","2022-07-20 20:34:14.576"
"two-step-fixation","81","465930","0.0-61.0-2.6","2148","2380","19","Male","true","true","true","true","""event"",""trial"",""time""
""fullscreenenter"",""5"",""28542""
","
","
","""event"",""trial"",""time""
""fullscreenenter"",""5"",""28542""
","
","","images/earth.jpg","","","","","","","","","","","","","","fixation","","","","","",""
"d3-animate-choice","82","468144","0.0-61.0-0.7","2148","2380","19","Male","true","true","true","true","""event"",""trial"",""time""
""fullscreenenter"",""5"",""28542""
","
","
","""event"",""trial"",""time""
""fullscreenenter"",""5"",""28542""
","
","209.5","","49","","","3000","1","","","images/earth.jpg","images/tutrocket1","images/tutrocket2","null","images/tutrocket2","","1","practice","null","1","","",""
"d3-animate-choice","83","471467","0.0-61.0-1.7","2148","2380","19","Male","true","true","true","true","""event"",""trial"",""time""
""fullscreenenter"",""5"",""28542""
","
","
","""event"",""trial"",""time""
""fullscreenenter"",""5"",""28542""
","
","1317.5999999977648","","48","","","3000","1","","","images/tutyellowplanet.jpg","images/tutalien4","images/tutalien3","images/tutrocket2","images/tutalien4","images/t.png","2","practice","true","2","common","1","2022-07-20 20:34:21.116"
"two-step-fixation","84","472473","0.0-61.0-2.7","2148","2380","19","Male","true","true","true","true","""event"",""trial"",""time""
""fullscreenenter"",""5"",""28542""
","
","
","""event"",""trial"",""time""
""fullscreenenter"",""5"",""28542""
","
","","images/earth.jpg","","","","","","","","","","","","","","fixation","","","","","",""
"d3-animate-choice","85","474725","0.0-61.0-0.8","2148","2380","19","Male","true","true","true","true","""event"",""trial"",""time""
""fullscreenenter"",""5"",""28542""
","
","
","""event"",""trial"",""time""
""fullscreenenter"",""5"",""28542""
","
","249","","49","","","3000","1","","","images/earth.jpg","images/tutrocket1","images/tutrocket2","null","images/tutrocket2","","1","practice","null","1","","",""
"d3-animate-choice","86","477834","0.0-61.0-1.8","2148","2380","19","Male","true","true","true","true","""event"",""trial"",""time""
""fullscreenenter"",""5"",""28542""
","
","
","""event"",""trial"",""time""
""fullscreenenter"",""5"",""28542""
","
","1103.800000000745","","48","","","3000","1","","","images/tutyellowplanet.jpg","images/tutalien4","images/tutalien3","images/tutrocket2","images/tutalien4","images/nothing.png","2","practice","true","2","common","0","2022-07-20 20:34:27.483"
"two-step-fixation","87","478840","0.0-61.0-2.8","2148","2380","19","Male","true","true","true","true","""event"",""trial"",""time""
""fullscreenenter"",""5"",""28542""
","
","
","""event"",""trial"",""time""
""fullscreenenter"",""5"",""28542""
","
","","images/earth.jpg","","","","","","","","","","","","","","fixation","","","","","",""
"d3-animate-choice","88","481111","0.0-61.0-0.9","2148","2380","19","Male","true","true","true","true","""event"",""trial"",""time""
""fullscreenenter"",""5"",""28542""
","
","
","""event"",""trial"",""time""
""fullscreenenter"",""5"",""28542""
","
","268.69999999925494","","49","","","3000","1","","","images/earth.jpg","images/tutrocket1","images/tutrocket2","null","images/tutrocket2","","1","practice","null","1","","",""
"d3-animate-choice","89","483686","0.0-61.0-1.9","2148","2380","19","Male","true","true","true","true","""event"",""trial"",""time""
""fullscreenenter"",""5"",""28542""
","
","
","""event"",""trial"",""time""
""fullscreenenter"",""5"",""28542""
","
","555.1999999992549","","49","","","3000","1","","","images/tutgreenplanet.jpg","images/tutalien2","images/tutalien1","images/tutrocket2","images/tutalien1","images/t.png","2","practice","false","1","rare","1","2022-07-20 20:34:33.335"
"two-step-fixation","90","484689","0.0-61.0-2.9","2148","2380","19","Male","true","true","true","true","""event"",""trial"",""time""
""fullscreenenter"",""5"",""28542""
","
","
","""event"",""trial"",""time""
""fullscreenenter"",""5"",""28542""
","
","","images/earth.jpg","","","","","","","","","","","","","","fixation","","","","","",""
"d3-animate-choice","91","487290","0.0-61.0-0.10","2148","2380","19","Male","true","true","true","true","""event"",""trial"",""time""
""fullscreenenter"",""5"",""28542""
","
","
","""event"",""trial"",""time""
""fullscreenenter"",""5"",""28542""
","
","594.5","","49","","","3000","1","","","images/earth.jpg","images/tutrocket1","images/tutrocket2","null","images/tutrocket2","","1","practice","null","1","","",""
"d3-animate-choice","92","489690","0.0-61.0-1.10","2148","2380","19","Male","true","true","true","true","""event"",""trial"",""time""
""fullscreenenter"",""5"",""28542""
","
","
","""event"",""trial"",""time""
""fullscreenenter"",""5"",""28542""
","
","395.5","","49","","","3000","1","","","images/tutyellowplanet.jpg","images/tutalien4","images/tutalien3","images/tutrocket2","images/tutalien3","images/t.png","2","practice","true","1","common","1","2022-07-20 20:34:39.339"
"two-step-fixation","93","490696","0.0-61.0-2.10","2148","2380","19","Male","true","true","true","true","""event"",""trial"",""time""
""fullscreenenter"",""5"",""28542""
","
","
","""event"",""trial"",""time""
""fullscreenenter"",""5"",""28542""
","
","","images/earth.jpg","","","","","","","","","","","","","","fixation","","","","","",""
"d3-animate-choice","94","493183","0.0-61.0-0.11","2148","2380","19","Male","true","true","true","true","""event"",""trial"",""time""
""fullscreenenter"",""5"",""28542""
","
","
","""event"",""trial"",""time""
""fullscreenenter"",""5"",""28542""
","
","481.5","","49","","","3000","1","","","images/earth.jpg","images/tutrocket1","images/tutrocket2","null","images/tutrocket2","","1","practice","null","1","","",""
"d3-animate-choice","95","495707","0.0-61.0-1.11","2148","2380","19","Male","true","true","true","true","""event"",""trial"",""time""
""fullscreenenter"",""5"",""28542""
","
","
","""event"",""trial"",""time""
""fullscreenenter"",""5"",""28542""
","
","518.7000000029802","","49","","","3000","1","","","images/tutyellowplanet.jpg","images/tutalien4","images/tutalien3","images/tutrocket2","images/tutalien3","images/nothing.png","2","practice","true","1","common","0","2022-07-20 20:34:45.356"
"two-step-fixation","96","496712","0.0-61.0-2.11","2148","2380","19","Male","true","true","true","true","""event"",""trial"",""time""
""fullscreenenter"",""5"",""28542""
","
","
","""event"",""trial"",""time""
""fullscreenenter"",""5"",""28542""
","
","","images/earth.jpg","","","","","","","","","","","","","","fixation","","","","","",""
"d3-animate-choice","97","499003","0.0-61.0-0.12","2148","2380","19","Male","true","true","true","true","""event"",""trial"",""time""
""fullscreenenter"",""5"",""28542""
","
","
","""event"",""trial"",""time""
""fullscreenenter"",""5"",""28542""
","
","285.19999999925494","","48","","","3000","1","","","images/earth.jpg","images/tutrocket1","images/tutrocket2","null","images/tutrocket1","","1","practice","null","2","","",""
"d3-animate-choice","98","501743","0.0-61.0-1.12","2148","2380","19","Male","true","true","true","true","""event"",""trial"",""time""
""fullscreenenter"",""5"",""28542""
","
","
","""event"",""trial"",""time""
""fullscreenenter"",""5"",""28542""
","
","734.5","","48","","","3000","1","","","images/tutgreenplanet.jpg","images/tutalien2","images/tutalien1","images/tutrocket1","images/tutalien2","images/nothing.png","2","practice","true","2","common","0","2022-07-20 20:34:51.392"
"two-step-fixation","99","502748","0.0-61.0-2.12","2148","2380","19","Male","true","true","true","true","""event"",""trial"",""time""
""fullscreenenter"",""5"",""28542""
","
","
","""event"",""trial"",""time""
""fullscreenenter"",""5"",""28542""
","
","","images/earth.jpg","","","","","","","","","","","","","","fixation","","","","","",""
"d3-animate-choice","100","505030","0.0-61.0-0.13","2148","2380","19","Male","true","true","true","true","""event"",""trial"",""time""
""fullscreenenter"",""5"",""28542""
","
","
","""event"",""trial"",""time""
""fullscreenenter"",""5"",""28542""
","
","276.5999999977648","","49","","","3000","1","","","images/earth.jpg","images/tutrocket1","images/tutrocket2","null","images/tutrocket2","","1","practice","null","1","","",""
"d3-animate-choice","101","507534","0.0-61.0-1.13","2148","2380","19","Male","true","true","true","true","""event"",""trial"",""time""
""fullscreenenter"",""5"",""28542""
","
","
","""event"",""trial"",""time""
""fullscreenenter"",""5"",""28542""
","
","499.20000000298023","","49","","","3000","1","","","images/tutgreenplanet.jpg","images/tutalien2","images/tutalien1","images/tutrocket2","images/tutalien1","images/t.png","2","practice","false","1","rare","1","2022-07-20 20:34:57.184"
"two-step-fixation","102","508539","0.0-61.0-2.13","2148","2380","19","Male","true","true","true","true","""event"",""trial"",""time""
""fullscreenenter"",""5"",""28542""
","
","
","""event"",""trial"",""time""
""fullscreenenter"",""5"",""28542""
","
","","images/earth.jpg","","","","","","","","","","","","","","fixation","","","","","",""
"d3-animate-choice","103","510811","0.0-61.0-0.14","2148","2380","19","Male","true","true","true","true","""event"",""trial"",""time""
""fullscreenenter"",""5"",""28542""
","
","
","""event"",""trial"",""time""
""fullscreenenter"",""5"",""28542""
","
","265","","48","","","3000","1","","","images/earth.jpg","images/tutrocket1","images/tutrocket2","null","images/tutrocket1","","1","practice","null","2","","",""
"d3-animate-choice","104","513320","0.0-61.0-1.14","2148","2380","19","Male","true","true","true","true","""event"",""trial"",""time""
""fullscreenenter"",""5"",""28542""
","
","
","""event"",""trial"",""time""
""fullscreenenter"",""5"",""28542""
","
","505.69999999925494","","49","","","3000","1","","","images/tutgreenplanet.jpg","images/tutalien2","images/tutalien1","images/tutrocket1","images/tutalien1","images/nothing.png","2","practice","true","1","common","0","2022-07-20 20:35:02.970"
"two-step-fixation","105","514325","0.0-61.0-2.14","2148","2380","19","Male","true","true","true","true","""event"",""trial"",""time""
""fullscreenenter"",""5"",""28542""
","
","
","""event"",""trial"",""time""
""fullscreenenter"",""5"",""28542""
","
","","images/earth.jpg","","","","","","","","","","","","","","fixation","","","","","",""
"d3-animate-choice","106","516675","0.0-61.0-0.15","2148","2380","19","Male","true","true","true","true","""event"",""trial"",""time""
""fullscreenenter"",""5"",""28542""
","
","
","""event"",""trial"",""time""
""fullscreenenter"",""5"",""28542""
","
","345.29999999701977","","48","","","3000","1","","","images/earth.jpg","images/tutrocket1","images/tutrocket2","null","images/tutrocket1","","1","practice","null","2","","",""
"d3-animate-choice","107","519744","0.0-61.0-1.15","2148","2380","19","Male","true","true","true","true","""event"",""trial"",""time""
""fullscreenenter"",""5"",""28542""
","
","
","""event"",""trial"",""time""
""fullscreenenter"",""5"",""28542""
","
","1064.699999999255","","48","","","3000","1","","","images/tutgreenplanet.jpg","images/tutalien2","images/tutalien1","images/tutrocket1","images/tutalien2","images/nothing.png","2","practice","true","2","common","0","2022-07-20 20:35:09.393"
"two-step-fixation","108","520750","0.0-61.0-2.15","2148","2380","19","Male","true","true","true","true","""event"",""trial"",""time""
""fullscreenenter"",""5"",""28542""
","
","
","""event"",""trial"",""time""
""fullscreenenter"",""5"",""28542""
","
","","images/earth.jpg","","","","","","","","","","","","","","fixation","","","","","",""
"d3-animate-choice","109","523088","0.0-61.0-0.16","2148","2380","19","Male","true","true","true","true","""event"",""trial"",""time""
""fullscreenenter"",""5"",""28542""
","
","
","""event"",""trial"",""time""
""fullscreenenter"",""5"",""28542""
","
","333.80000000074506","","49","","","3000","1","","","images/earth.jpg","images/tutrocket1","images/tutrocket2","null","images/tutrocket2","","1","practice","null","1","","",""
"d3-animate-choice","110","525441","0.0-61.0-1.16","2148","2380","19","Male","true","true","true","true","""event"",""trial"",""time""
""fullscreenenter"",""5"",""28542""
","
","
","""event"",""trial"",""time""
""fullscreenenter"",""5"",""28542""
","
","348.20000000298023","","49","","","3000","1","","","images/tutyellowplanet.jpg","images/tutalien4","images/tutalien3","images/tutrocket2","images/tutalien3","images/nothing.png","2","practice","true","1","common","0","2022-07-20 20:35:15.090"
"two-step-fixation","111","526446","0.0-61.0-2.16","2148","2380","19","Male","true","true","true","true","""event"",""trial"",""time""
""fullscreenenter"",""5"",""28542""
","
","
","""event"",""trial"",""time""
""fullscreenenter"",""5"",""28542""
","
","","images/earth.jpg","","","","","","","","","","","","","","fixation","","","","","",""
"d3-animate-choice","112","528465","0.0-61.0-0.17","2148","2380","19","Male","true","true","true","true","""event"",""trial"",""time""
""fullscreenenter"",""5"",""28542""
","
","
","""event"",""trial"",""time""
""fullscreenenter"",""5"",""28542""
","
","13.600000001490116","","48","","","3000","1","","","images/earth.jpg","images/tutrocket1","images/tutrocket2","null","images/tutrocket1","","1","practice","null","2","","",""
"d3-animate-choice","113","530801","0.0-61.0-1.17","2148","2380","19","Male","true","true","true","true","""event"",""trial"",""time""
""fullscreenenter"",""5"",""28542""
","
","
","""event"",""trial"",""time""
""fullscreenenter"",""5"",""28542""
","
","326.4000000022352","","48","","","3000","1","","","images/tutyellowplanet.jpg","images/tutalien4","images/tutalien3","images/tutrocket1","images/tutalien4","images/nothing.png","2","practice","false","2","rare","0","2022-07-20 20:35:20.450"
"two-step-fixation","114","531808","0.0-61.0-2.17","2148","2380","19","Male","true","true","true","true","""event"",""trial"",""time""
""fullscreenenter"",""5"",""28542""
","
","
","""event"",""trial"",""time""
""fullscreenenter"",""5"",""28542""
","
","","images/earth.jpg","","","","","","","","","","","","","","fixation","","","","","",""
"d3-animate-choice","115","534597","0.0-61.0-0.18","2148","2380","19","Male","true","true","true","true","""event"",""trial"",""time""
""fullscreenenter"",""5"",""28542""
","
","
","""event"",""trial"",""time""
""fullscreenenter"",""5"",""28542""
","
","781.8999999985099","","49","","","3000","1","","","images/earth.jpg","images/tutrocket1","images/tutrocket2","null","images/tutrocket2","","1","practice","null","1","","",""
"d3-animate-choice","116","536679","0.0-61.0-1.18","2148","2380","19","Male","true","true","true","true","""event"",""trial"",""time""
""fullscreenenter"",""5"",""28542""
","
","
","""event"",""trial"",""time""
""fullscreenenter"",""5"",""28542""
","
","77.79999999701977","","49","","","3000","1","","","images/tutgreenplanet.jpg","images/tutalien2","images/tutalien1","images/tutrocket2","images/tutalien1","images/t.png","2","practice","false","1","rare","1","2022-07-20 20:35:26.328"
"two-step-fixation","117","537684","0.0-61.0-2.18","2148","2380","19","Male","true","true","true","true","""event"",""trial"",""time""
""fullscreenenter"",""5"",""28542""
","
","
","""event"",""trial"",""time""
""fullscreenenter"",""5"",""28542""
","
","","images/earth.jpg","","","","","","","","","","","","","","fixation","","","","","",""
"d3-animate-choice","118","540270","0.0-61.0-0.19","2148","2380","19","Male","true","true","true","true","""event"",""trial"",""time""
""fullscreenenter"",""5"",""28542""
","
","
","""event"",""trial"",""time""
""fullscreenenter"",""5"",""28542""
","
","578.6999999992549","","49","","","3000","1","","","images/earth.jpg","images/tutrocket1","images/tutrocket2","null","images/tutrocket2","","1","practice","null","1","","",""
"d3-animate-choice","119","543128","0.0-61.0-1.19","2148","2380","19","Male","true","true","true","true","""event"",""trial"",""time""
""fullscreenenter"",""5"",""28542""
","
","
","""event"",""trial"",""time""
""fullscreenenter"",""5"",""28542""
","
","853.8000000007451","","49","","","3000","1","","","images/tutyellowplanet.jpg","images/tutalien4","images/tutalien3","images/tutrocket2","images/tutalien3","images/nothing.png","2","practice","true","1","common","0","2022-07-20 20:35:32.777"
"two-step-fixation","120","544133","0.0-61.0-2.19","2148","2380","19","Male","true","true","true","true","""event"",""trial"",""time""
""fullscreenenter"",""5"",""28542""
","
","
","""event"",""trial"",""time""
""fullscreenenter"",""5"",""28542""
","
","","images/earth.jpg","","","","","","","","","","","","","","fixation","","","","","",""
"d3-instructions","121","549659","0.0-62.0","2148","2380","19","Male","true","true","true","true","""event"",""trial"",""time""
""fullscreenenter"",""5"",""28542""
","
","
","""event"",""trial"",""time""
""fullscreenenter"",""5"",""28542""
","
","","","","","","","","","","","","","","","","","","","","","",""
"audio-keyboard-response","122","553498","0.0-63.0","2148","2380","19","Male","true","true","true","true","""event"",""trial"",""time""
""fullscreenenter"",""5"",""28542""
","
","
","""event"",""trial"",""time""
""fullscreenenter"",""5"",""28542""
","
","3831","audio/instructions/treasure_feedback.wav","32","","","","","","","","","","","","","","","","","","",""
"d3-instructions","123","574101","0.0-64.0","2148","2380","19","Male","true","true","true","true","""event"",""trial"",""time""
""fullscreenenter"",""5"",""28542""
","
","
","""event"",""trial"",""time""
""fullscreenenter"",""5"",""28542""
","
","","","","","","","","","","","","","","","","","","","","","",""
"d3-instructions","124","588971","0.0-65.0","2148","2380","19","Male","true","true","true","true","""event"",""trial"",""time""
""fullscreenenter"",""5"",""28542""
","
","
","""event"",""trial"",""time""
""fullscreenenter"",""5"",""28542""
","
","","","","","","","","","","","","","","","","","","","","","",""
"d3-instructions","125","613011","0.0-66.0","2148","2380","19","Male","true","true","true","true","""event"",""trial"",""time""
""fullscreenenter"",""5"",""28542""
","
","
","""event"",""trial"",""time""
""fullscreenenter"",""5"",""28542""
","
","","","","","","","","","","","","","","","","","","","","","",""
"d3-instructions","126","631291","0.0-67.0","2148","2380","19","Male","true","true","true","true","""event"",""trial"",""time""
""fullscreenenter"",""5"",""28542""
","
","
","""event"",""trial"",""time""
""fullscreenenter"",""5"",""28542""
","
","","","","","","","","","","","","","","","","","","","","","",""
"d3-instructions","127","637424","0.0-68.0","2148","2380","19","Male","true","true","true","true","""event"",""trial"",""time""
""fullscreenenter"",""5"",""28542""
","
","
","""event"",""trial"",""time""
""fullscreenenter"",""5"",""28542""
","
","","","","","","","","","","","","","","","","","","","","","",""
"instructions-quiz","128","640185","0.0-69.0","2148","2380","19","Male","true","true","true","true","""event"",""trial"",""time""
""fullscreenenter"",""5"",""28542""
","
","
","""event"",""trial"",""time""
""fullscreenenter"",""5"",""28542""
","
","2758","audio/quiz/Q1_Prompt.wav","","1","","","","","","","","","","","","","","","","","",""
"audio-keyboard-response","129","649360","0.0-70.0","2148","2380","19","Male","true","true","true","true","""event"",""trial"",""time""
""fullscreenenter"",""5"",""28542""
","
","
","""event"",""trial"",""time""
""fullscreenenter"",""5"",""28542""
","
","null","audio/quiz/Q1_Correct.wav","null","","","","","","","","","","","","","","","","","","",""
"instructions-quiz","130","686961","0.0-71.0","2148","2380","19","Male","true","true","true","true","""event"",""trial"",""time""
""fullscreenenter"",""5"",""28542""
","
","
","""event"",""trial"",""time""
""fullscreenenter"",""5"",""28542""
","
","37597.099999997765","audio/quiz/Q2_Prompt.wav","","1","","","","","","","","","","","","","","","","","",""
"audio-keyboard-response","131","701040","0.0-72.0","2148","2380","19","Male","true","true","true","true","""event"",""trial"",""time""
""fullscreenenter"",""5"",""28542""
","
","
","""event"",""trial"",""time""
""fullscreenenter"",""5"",""28542""
","
","null","audio/quiz/Q2_Incorrect.wav","null","","","","","","","","","","","","","","","","","","",""
"instructions-quiz","132","704545","0.0-73.0","2148","2380","19","Male","true","true","true","true","""event"",""trial"",""time""
""fullscreenenter"",""5"",""28542""
","
","
","""event"",""trial"",""time""
""fullscreenenter"",""5"",""28542""
","
","3500.39999999851","audio/quiz/Q3_Prompt.wav","","1","","","","","","","","","","","","","","","","","",""
"audio-keyboard-response","133","710340","0.0-74.0","2148","2380","19","Male","true","true","true","true","""event"",""trial"",""time""
""fullscreenenter"",""5"",""28542""
","
","
","""event"",""trial"",""time""
""fullscreenenter"",""5"",""28542""
","
","null","audio/quiz/Q3_Correct.wav","null","","","","","","","","","","","","","","","","","","",""
"d3-instructions","134","719808","0.0-75.0","2148","2380","19","Male","true","true","true","true","""event"",""trial"",""time""
""fullscreenenter"",""5"",""28542""
","
","
","""event"",""trial"",""time""
""fullscreenenter"",""5"",""28542""
","
","","","","","","","","","","","","","","","","","","","","","",""
"d3-animate-choice","135","722811","0.0-76.0-0.0","2148","2380","19","Male","true","true","true","true","""event"",""trial"",""time""
""fullscreenenter"",""5"",""28542""
","
","
","""event"",""trial"",""time""
""fullscreenenter"",""5"",""28542""
","
","994.6999999992549","","49","","","3000","1","","","images/earth.jpg","images/rocket2","images/rocket1","null","images/rocket1","","1","real","null","1","","",""
"d3-animate-choice","136","725855","0.0-76.0-1.0","2148","2380","19","Male","true","true","true","true","""event"",""trial"",""time""
""fullscreenenter"",""5"",""28542""
","
","
","""event"",""trial"",""time""
""fullscreenenter"",""5"",""28542""
","
","1038.5","","49","","","3000","1","","","images/redplanet1.jpg","images/alien2","images/alien1","images/rocket1","images/alien1","images/nothing.png","2","real","true","1","common","0","2022-07-20 20:38:35.504"
"two-step-fixation","137","726861","0.0-76.0-2.0","2148","2380","19","Male","true","true","true","true","""event"",""trial"",""time""
""fullscreenenter"",""5"",""28542""
","
","
","""event"",""trial"",""time""
""fullscreenenter"",""5"",""28542""
","
","","images/earth.jpg","","","","","","","","","","","","","","fixation","","","","","",""
"d3-animate-choice","138","729214","0.0-76.0-0.1","2148","2380","19","Male","true","true","true","true","""event"",""trial"",""time""
""fullscreenenter"",""5"",""28542""
","
","
","""event"",""trial"",""time""
""fullscreenenter"",""5"",""28542""
","
","347.8999999985099","","49","","","3000","1","","","images/earth.jpg","images/rocket2","images/rocket1","null","images/rocket1","","1","real","null","1","","",""
"d3-animate-choice","139","732191","0.0-76.0-1.1","2148","2380","19","Male","true","true","true","true","""event"",""trial"",""time""
""fullscreenenter"",""5"",""28542""
","
","
","""event"",""trial"",""time""
""fullscreenenter"",""5"",""28542""
","
","972.6999999992549","","48","","","3000","1","","","images/redplanet1.jpg","images/alien2","images/alien1","images/rocket1","images/alien2","images/nothing.png","2","real","true","2","common","0","2022-07-20 20:38:41.840"
"two-step-fixation","140","733196","0.0-76.0-2.1","2148","2380","19","Male","true","true","true","true","""event"",""trial"",""time""
""fullscreenenter"",""5"",""28542""
","
","
","""event"",""trial"",""time""
""fullscreenenter"",""5"",""28542""
","
","","images/earth.jpg","","","","","","","","","","","","","","fixation","","","","","",""
"d3-animate-choice","141","735539","0.0-76.0-0.2","2148","2380","19","Male","true","true","true","true","""event"",""trial"",""time""
""fullscreenenter"",""5"",""28542""
","
","
","""event"",""trial"",""time""
""fullscreenenter"",""5"",""28542""
","
","325.19999999925494","","49","","","3000","1","","","images/earth.jpg","images/rocket2","images/rocket1","null","images/rocket1","","1","real","null","1","","",""
"d3-animate-choice","142","738479","0.0-76.0-1.2","2148","2380","19","Male","true","true","true","true","""event"",""trial"",""time""
""fullscreenenter"",""5"",""28542""
","
","
","""event"",""trial"",""time""
""fullscreenenter"",""5"",""28542""
","
","925.6000000014901","","49","","","3000","1","","","images/purpleplanet.jpg","images/alien4","images/alien3","images/rocket1","images/alien3","images/nothing.png","2","real","false","1","rare","0","2022-07-20 20:38:48.128"
"two-step-fixation","143","739500","0.0-76.0-2.2","2148","2380","19","Male","true","true","true","true","""event"",""trial"",""time""
""fullscreenenter"",""5"",""28542""
","
","
","""event"",""trial"",""time""
""fullscreenenter"",""5"",""28542""
","
","","images/earth.jpg","","","","","","","","","","","","","","fixation","","","","","",""
"d3-animate-choice","144","741816","0.0-76.0-0.3","2148","2380","19","Male","true","true","true","true","""event"",""trial"",""time""
""fullscreenenter"",""5"",""28542""
","
","
","""event"",""trial"",""time""
""fullscreenenter"",""5"",""28542""
","
","309.69999999925494","","49","","","3000","1","","","images/earth.jpg","images/rocket2","images/rocket1","null","images/rocket1","","1","real","null","1","","",""
"d3-animate-choice","145","744376","0.0-76.0-1.3","2148","2380","19","Male","true","true","true","true","""event"",""trial"",""time""
""fullscreenenter"",""5"",""28542""
","
","
","""event"",""trial"",""time""
""fullscreenenter"",""5"",""28542""
","
","553.5","","48","","","3000","1","","","images/purpleplanet.jpg","images/alien4","images/alien3","images/rocket1","images/alien4","images/t.png","2","real","false","2","rare","1","2022-07-20 20:38:54.025"
"two-step-fixation","146","745382","0.0-76.0-2.3","2148","2380","19","Male","true","true","true","true","""event"",""trial"",""time""
""fullscreenenter"",""5"",""28542""
","
","
","""event"",""trial"",""time""
""fullscreenenter"",""5"",""28542""
","
","","images/earth.jpg","","","","","","","","","","","","","","fixation","","","","","",""
"d3-animate-choice","147","747719","0.0-76.0-0.4","2148","2380","19","Male","true","true","true","true","""event"",""trial"",""time""
""fullscreenenter"",""5"",""28542""
","
","
","""event"",""trial"",""time""
""fullscreenenter"",""5"",""28542""
","
","331.5999999977648","","49","","","3000","1","","","images/earth.jpg","images/rocket2","images/rocket1","null","images/rocket1","","1","real","null","1","","",""
"d3-animate-choice","148","750602","0.0-76.0-1.4","2148","2380","19","Male","true","true","true","true","""event"",""trial"",""time""
""fullscreenenter"",""5"",""28542""
","
","
","""event"",""trial"",""time""
""fullscreenenter"",""5"",""28542""
","
","878","","48","","","3000","1","","","images/redplanet1.jpg","images/alien2","images/alien1","images/rocket1","images/alien2","images/t.png","2","real","true","2","common","1","2022-07-20 20:39:00.251"
"two-step-fixation","149","751607","0.0-76.0-2.4","2148","2380","19","Male","true","true","true","true","""event"",""trial"",""time""
""fullscreenenter"",""5"",""28542""
","
","
","""event"",""trial"",""time""
""fullscreenenter"",""5"",""28542""
","
","","images/earth.jpg","","","","","","","","","","","","","","fixation","","","","","",""
"d3-animate-choice","150","754202","0.0-76.0-0.5","2148","2380","19","Male","true","true","true","true","""event"",""trial"",""time""
""fullscreenenter"",""5"",""28542""
","
","
","""event"",""trial"",""time""
""fullscreenenter"",""5"",""28542""
","
","590.3000000007451","","49","","","3000","1","","","images/earth.jpg","images/rocket2","images/rocket1","null","images/rocket1","","1","real","null","1","","",""
"d3-animate-choice","151","756906","0.0-76.0-1.5","2148","2380","19","Male","true","true","true","true","""event"",""trial"",""time""
""fullscreenenter"",""5"",""28542""
","
","
","""event"",""trial"",""time""
""fullscreenenter"",""5"",""28542""
","
","700.3999999985099","","48","","","3000","1","","","images/redplanet1.jpg","images/alien2","images/alien1","images/rocket1","images/alien2","images/t.png","2","real","true","2","common","1","2022-07-20 20:39:06.556"
"two-step-fixation","152","757912","0.0-76.0-2.5","2148","2380","19","Male","true","true","true","true","""event"",""trial"",""time""
""fullscreenenter"",""5"",""28542""
","
","
","""event"",""trial"",""time""
""fullscreenenter"",""5"",""28542""
","
","","images/earth.jpg","","","","","","","","","","","","","","fixation","","","","","",""
"d3-animate-choice","153","760282","0.0-76.0-0.6","2148","2380","19","Male","true","true","true","true","""event"",""trial"",""time""
""fullscreenenter"",""5"",""28542""
","
","
","""event"",""trial"",""time""
""fullscreenenter"",""5"",""28542""
","
","361.8999999985099","","49","","","3000","1","","","images/earth.jpg","images/rocket2","images/rocket1","null","images/rocket1","","1","real","null","1","","",""
"d3-animate-choice","154","763529","0.0-76.0-1.6","2148","2380","19","Male","true","true","true","true","""event"",""trial"",""time""
""fullscreenenter"",""5"",""28542""
","
","
","""event"",""trial"",""time""
""fullscreenenter"",""5"",""28542""
","
","1243.3999999985099","","49","","","3000","1","","","images/purpleplanet.jpg","images/alien4","images/alien3","images/rocket1","images/alien3","images/t.png","2","real","false","1","rare","1","2022-07-20 20:39:13.178"
"two-step-fixation","155","764534","0.0-76.0-2.6","2148","2380","19","Male","true","true","true","true","""event"",""trial"",""time""
""fullscreenenter"",""5"",""28542""
","
","
","""event"",""trial"",""time""
""fullscreenenter"",""5"",""28542""
","
","","images/earth.jpg","","","","","","","","","","","","","","fixation","","","","","",""
"d3-animate-choice","156","766855","0.0-76.0-0.7","2148","2380","19","Male","true","true","true","true","""event"",""trial"",""time""
""fullscreenenter"",""5"",""28542""
","
","
","""event"",""trial"",""time""
""fullscreenenter"",""5"",""28542""
","
","314.80000000074506","","49","","","3000","1","","","images/earth.jpg","images/rocket2","images/rocket1","null","images/rocket1","","1","real","null","1","","",""
"d3-animate-choice","157","769357","0.0-76.0-1.7","2148","2380","19","Male","true","true","true","true","""event"",""trial"",""time""
""fullscreenenter"",""5"",""28542""
","
","
","""event"",""trial"",""time""
""fullscreenenter"",""5"",""28542""
","
","497.69999999925494","","48","","","3000","1","","","images/redplanet1.jpg","images/alien2","images/alien1","images/rocket1","images/alien2","images/t.png","2","real","true","2","common","1","2022-07-20 20:39:19.006"
"two-step-fixation","158","770362","0.0-76.0-2.7","2148","2380","19","Male","true","true","true","true","""event"",""trial"",""time""
""fullscreenenter"",""5"",""28542""
","
","
","""event"",""trial"",""time""
""fullscreenenter"",""5"",""28542""
","
","","images/earth.jpg","","","","","","","","","","","","","","fixation","","","","","",""
"d3-animate-choice","159","772661","0.0-76.0-0.8","2148","2380","19","Male","true","true","true","true","""event"",""trial"",""time""
""fullscreenenter"",""5"",""28542""
","
","
","""event"",""trial"",""time""
""fullscreenenter"",""5"",""28542""
","
","293.9000000022352","","49","","","3000","1","","","images/earth.jpg","images/rocket2","images/rocket1","null","images/rocket1","","1","real","null","1","","",""
"d3-animate-choice","160","775629","0.0-76.0-1.8","2148","2380","19","Male","true","true","true","true","""event"",""trial"",""time""
""fullscreenenter"",""5"",""28542""
","
","
","""event"",""trial"",""time""
""fullscreenenter"",""5"",""28542""
","
","964.5999999977648","","48","","","3000","1","","","images/purpleplanet.jpg","images/alien4","images/alien3","images/rocket1","images/alien4","images/t.png","2","real","false","2","rare","1","2022-07-20 20:39:25.278"
"two-step-fixation","161","776634","0.0-76.0-2.8","2148","2380","19","Male","true","true","true","true","""event"",""trial"",""time""
""fullscreenenter"",""5"",""28542""
","
","
","""event"",""trial"",""time""
""fullscreenenter"",""5"",""28542""
","
","","images/earth.jpg","","","","","","","","","","","","","","fixation","","","","","",""
"d3-animate-choice","162","778761","0.0-76.0-0.9","2148","2380","19","Male","true","true","true","true","""event"",""trial"",""time""
""fullscreenenter"",""5"",""28542""
","
","
","""event"",""trial"",""time""
""fullscreenenter"",""5"",""28542""
","
","122.30000000074506","","49","","","3000","1","","","images/earth.jpg","images/rocket2","images/rocket1","null","images/rocket1","","1","real","null","1","","",""
"d3-animate-choice","163","781458","0.0-76.0-1.9","2148","2380","19","Male","true","true","true","true","""event"",""trial"",""time""
""fullscreenenter"",""5"",""28542""
","
","
","""event"",""trial"",""time""
""fullscreenenter"",""5"",""28542""
","
","691.3999999985099","","48","","","3000","1","","","images/redplanet1.jpg","images/alien2","images/alien1","images/rocket1","images/alien2","images/t.png","2","real","true","2","common","1","2022-07-20 20:39:31.107"
"two-step-fixation","164","782463","0.0-76.0-2.9","2148","2380","19","Male","true","true","true","true","""event"",""trial"",""time""
""fullscreenenter"",""5"",""28542""
","
","
","""event"",""trial"",""time""
""fullscreenenter"",""5"",""28542""
","
","","images/earth.jpg","","","","","","","","","","","","","","fixation","","","","","",""
"d3-animate-choice","165","784778","0.0-76.0-0.10","2148","2380","19","Male","true","true","true","true","""event"",""trial"",""time""
""fullscreenenter"",""5"",""28542""
","
","
","""event"",""trial"",""time""
""fullscreenenter"",""5"",""28542""
","
","309.19999999925494","","48","","","3000","1","","","images/earth.jpg","images/rocket2","images/rocket1","null","images/rocket2","","1","real","null","2","","",""
"d3-animate-choice","166","788190","0.0-76.0-1.10","2148","2380","19","Male","true","true","true","true","""event"",""trial"",""time""
""fullscreenenter"",""5"",""28542""
","
","
","""event"",""trial"",""time""
""fullscreenenter"",""5"",""28542""
","
","1407.0999999977648","","49","","","3000","1","","","images/purpleplanet.jpg","images/alien4","images/alien3","images/rocket2","images/alien3","images/nothing.png","2","real","true","1","common","0","2022-07-20 20:39:37.839"
"two-step-fixation","167","789196","0.0-76.0-2.10","2148","2380","19","Male","true","true","true","true","""event"",""trial"",""time""
""fullscreenenter"",""5"",""28542""
","
","
","""event"",""trial"",""time""
""fullscreenenter"",""5"",""28542""
","
","","images/earth.jpg","","","","","","","","","","","","","","fixation","","","","","",""
"d3-animate-choice","168","791552","0.0-76.0-0.11","2148","2380","19","Male","true","true","true","true","""event"",""trial"",""time""
""fullscreenenter"",""5"",""28542""
","
","
","""event"",""trial"",""time""
""fullscreenenter"",""5"",""28542""
","
","339.1000000014901","","48","","","3000","1","","","images/earth.jpg","images/rocket2","images/rocket1","null","images/rocket2","","1","real","null","2","","",""
"d3-animate-choice","169","794246","0.0-76.0-1.11","2148","2380","19","Male","true","true","true","true","""event"",""trial"",""time""
""fullscreenenter"",""5"",""28542""
","
","
","""event"",""trial"",""time""
""fullscreenenter"",""5"",""28542""
","
","687.5","","48","","","3000","1","","","images/purpleplanet.jpg","images/alien4","images/alien3","images/rocket2","images/alien4","images/t.png","2","real","true","2","common","1","2022-07-20 20:39:43.896"
"two-step-fixation","170","795253","0.0-76.0-2.11","2148","2380","19","Male","true","true","true","true","""event"",""trial"",""time""
""fullscreenenter"",""5"",""28542""
","
","
","""event"",""trial"",""time""
""fullscreenenter"",""5"",""28542""
","
","","images/earth.jpg","","","","","","","","","","","","","","fixation","","","","","",""
"d3-animate-choice","171","797563","0.0-76.0-0.12","2148","2380","19","Male","true","true","true","true","""event"",""trial"",""time""
""fullscreenenter"",""5"",""28542""
","
","
","""event"",""trial"",""time""
""fullscreenenter"",""5"",""28542""
","
","305.19999999925494","","48","","","3000","1","","","images/earth.jpg","images/rocket2","images/rocket1","null","images/rocket2","","1","real","null","2","","",""
"d3-animate-choice","172","800794","0.0-76.0-1.12","2148","2380","19","Male","true","true","true","true","""event"",""trial"",""time""
""fullscreenenter"",""5"",""28542""
","
","
","""event"",""trial"",""time""
""fullscreenenter"",""5"",""28542""
","
","1226.6000000014901","","48","","","3000","1","","","images/redplanet1.jpg","images/alien2","images/alien1","images/rocket2","images/alien2","images/nothing.png","2","real","false","2","rare","0","2022-07-20 20:39:50.443"
"two-step-fixation","173","801798","0.0-76.0-2.12","2148","2380","19","Male","true","true","true","true","""event"",""trial"",""time""
""fullscreenenter"",""5"",""28542""
","
","
","""event"",""trial"",""time""
""fullscreenenter"",""5"",""28542""
","
","","images/earth.jpg","","","","","","","","","","","","","","fixation","","","","","",""
"d3-animate-choice","174","804187","0.0-76.0-0.13","2148","2380","19","Male","true","true","true","true","""event"",""trial"",""time""
""fullscreenenter"",""5"",""28542""
","
","
","""event"",""trial"",""time""
""fullscreenenter"",""5"",""28542""
","
","383.9000000022352","","48","","","3000","1","","","images/earth.jpg","images/rocket2","images/rocket1","null","images/rocket2","","1","real","null","2","","",""
"d3-animate-choice","175","806949","0.0-76.0-1.13","2148","2380","19","Male","true","true","true","true","""event"",""trial"",""time""
""fullscreenenter"",""5"",""28542""
","
","
","""event"",""trial"",""time""
""fullscreenenter"",""5"",""28542""
","
","757.3000000007451","","48","","","3000","1","","","images/purpleplanet.jpg","images/alien4","images/alien3","images/rocket2","images/alien4","images/t.png","2","real","true","2","common","1","2022-07-20 20:39:56.598"
"two-step-fixation","176","807954","0.0-76.0-2.13","2148","2380","19","Male","true","true","true","true","""event"",""trial"",""time""
""fullscreenenter"",""5"",""28542""
","
","
","""event"",""trial"",""time""
""fullscreenenter"",""5"",""28542""
","
","","images/earth.jpg","","","","","","","","","","","","","","fixation","","","","","",""
"d3-animate-choice","177","810275","0.0-76.0-0.14","2148","2380","19","Male","true","true","true","true","""event"",""trial"",""time""
""fullscreenenter"",""5"",""28542""
","
","
","""event"",""trial"",""time""
""fullscreenenter"",""5"",""28542""
","
","316.3999999985099","","48","","","3000","1","","","images/earth.jpg","images/rocket2","images/rocket1","null","images/rocket2","","1","real","null","2","","",""
"d3-animate-choice","178","812765","0.0-76.0-1.14","2148","2380","19","Male","true","true","true","true","""event"",""trial"",""time""
""fullscreenenter"",""5"",""28542""
","
","
","""event"",""trial"",""time""
""fullscreenenter"",""5"",""28542""
","
","486.29999999701977","","48","","","3000","1","","","images/purpleplanet.jpg","images/alien4","images/alien3","images/rocket2","images/alien4","images/t.png","2","real","true","2","common","1","2022-07-20 20:40:02.415"
"two-step-fixation","179","813770","0.0-76.0-2.14","2148","2380","19","Male","true","true","true","true","""event"",""trial"",""time""
""fullscreenenter"",""5"",""28542""
","
","
","""event"",""trial"",""time""
""fullscreenenter"",""5"",""28542""
","
","","images/earth.jpg","","","","","","","","","","","","","","fixation","","","","","",""
"d3-animate-choice","180","816013","0.0-76.0-0.15","2148","2380","19","Male","true","true","true","true","""event"",""trial"",""time""
""fullscreenenter"",""5"",""28542""
","
","
","""event"",""trial"",""time""
""fullscreenenter"",""5"",""28542""
","
","237.80000000074506","","48","","","3000","1","","","images/earth.jpg","images/rocket2","images/rocket1","null","images/rocket2","","1","real","null","2","","",""
"d3-animate-choice","181","818921","0.0-76.0-1.15","2148","2380","19","Male","true","true","true","true","""event"",""trial"",""time""
""fullscreenenter"",""5"",""28542""
","
","
","""event"",""trial"",""time""
""fullscreenenter"",""5"",""28542""
","
","904","","49","","","3000","1","","","images/redplanet1.jpg","images/alien2","images/alien1","images/rocket2","images/alien1","images/t.png","2","real","false","1","rare","1","2022-07-20 20:40:08.570"
"two-step-fixation","182","819925","0.0-76.0-2.15","2148","2380","19","Male","true","true","true","true","""event"",""trial"",""time""
""fullscreenenter"",""5"",""28542""
","
","
","""event"",""trial"",""time""
""fullscreenenter"",""5"",""28542""
","
","","images/earth.jpg","","","","","","","","","","","","","","fixation","","","","","",""
"d3-animate-choice","183","822225","0.0-76.0-0.16","2148","2380","19","Male","true","true","true","true","""event"",""trial"",""time""
""fullscreenenter"",""5"",""28542""
","
","
","""event"",""trial"",""time""
""fullscreenenter"",""5"",""28542""
","
","294.8999999985099","","48","","","3000","1","","","images/earth.jpg","images/rocket2","images/rocket1","null","images/rocket2","","1","real","null","2","","",""
"d3-animate-choice","184","824931","0.0-76.0-1.16","2148","2380","19","Male","true","true","true","true","""event"",""trial"",""time""
""fullscreenenter"",""5"",""28542""
","
","
","""event"",""trial"",""time""
""fullscreenenter"",""5"",""28542""
","
","700","","48","","","3000","1","","","images/purpleplanet.jpg","images/alien4","images/alien3","images/rocket2","images/alien4","images/t.png","2","real","true","2","common","1","2022-07-20 20:40:14.580"
"two-step-fixation","185","825935","0.0-76.0-2.16","2148","2380","19","Male","true","true","true","true","""event"",""trial"",""time""
""fullscreenenter"",""5"",""28542""
","
","
","""event"",""trial"",""time""
""fullscreenenter"",""5"",""28542""
","
","","images/earth.jpg","","","","","","","","","","","","","","fixation","","","","","",""
"d3-animate-choice","186","828263","0.0-76.0-0.17","2148","2380","19","Male","true","true","true","true","""event"",""trial"",""time""
""fullscreenenter"",""5"",""28542""
","
","
","""event"",""trial"",""time""
""fullscreenenter"",""5"",""28542""
","
","321.69999999925494","","48","","","3000","1","","","images/earth.jpg","images/rocket2","images/rocket1","null","images/rocket2","","1","real","null","2","","",""
"d3-animate-choice","187","830655","0.0-76.0-1.17","2148","2380","19","Male","true","true","true","true","""event"",""trial"",""time""
""fullscreenenter"",""5"",""28542""
","
","
","""event"",""trial"",""time""
""fullscreenenter"",""5"",""28542""
","
","387.3999999985099","","48","","","3000","1","","","images/purpleplanet.jpg","images/alien4","images/alien3","images/rocket2","images/alien4","images/nothing.png","2","real","true","2","common","0","2022-07-20 20:40:20.304"
"two-step-fixation","188","831660","0.0-76.0-2.17","2148","2380","19","Male","true","true","true","true","""event"",""trial"",""time""
""fullscreenenter"",""5"",""28542""
","
","
","""event"",""trial"",""time""
""fullscreenenter"",""5"",""28542""
","
","","images/earth.jpg","","","","","","","","","","","","","","fixation","","","","","",""
"d3-animate-choice","189","833899","0.0-76.0-0.18","2148","2380","19","Male","true","true","true","true","""event"",""trial"",""time""
""fullscreenenter"",""5"",""28542""
","
","
","""event"",""trial"",""time""
""fullscreenenter"",""5"",""28542""
","
","233.80000000074506","","48","","","3000","1","","","images/earth.jpg","images/rocket2","images/rocket1","null","images/rocket2","","1","real","null","2","","",""
"d3-animate-choice","190","836419","0.0-76.0-1.18","2148","2380","19","Male","true","true","true","true","""event"",""trial"",""time""
""fullscreenenter"",""5"",""28542""
","
","
","""event"",""trial"",""time""
""fullscreenenter"",""5"",""28542""
","
","515.4000000022352","","48","","","3000","1","","","images/purpleplanet.jpg","images/alien4","images/alien3","images/rocket2","images/alien4","images/nothing.png","2","real","true","2","common","0","2022-07-20 20:40:26.068"
"two-step-fixation","191","837424","0.0-76.0-2.18","2148","2380","19","Male","true","true","true","true","""event"",""trial"",""time""
""fullscreenenter"",""5"",""28542""
","
","
","""event"",""trial"",""time""
""fullscreenenter"",""5"",""28542""
","
","","images/earth.jpg","","","","","","","","","","","","","","fixation","","","","","",""
"d3-animate-choice","192","839735","0.0-76.0-0.19","2148","2380","19","Male","true","true","true","true","""event"",""trial"",""time""
""fullscreenenter"",""5"",""28542""
","
","
","""event"",""trial"",""time""
""fullscreenenter"",""5"",""28542""
","
","305.69999999925494","","48","","","3000","1","","","images/earth.jpg","images/rocket2","images/rocket1","null","images/rocket2","","1","real","null","2","","",""
"d3-animate-choice","193","842130","0.0-76.0-1.19","2148","2380","19","Male","true","true","true","true","""event"",""trial"",""time""
""fullscreenenter"",""5"",""28542""
","
","
","""event"",""trial"",""time""
""fullscreenenter"",""5"",""28542""
","
","390.19999999925494","","48","","","3000","1","","","images/purpleplanet.jpg","images/alien4","images/alien3","images/rocket2","images/alien4","images/nothing.png","2","real","true","2","common","0","2022-07-20 20:40:31.779"
"two-step-fixation","194","843135","0.0-76.0-2.19","2148","2380","19","Male","true","true","true","true","""event"",""trial"",""time""
""fullscreenenter"",""5"",""28542""
","
","
","""event"",""trial"",""time""
""fullscreenenter"",""5"",""28542""
","
","","images/earth.jpg","","","","","","","","","","","","","","fixation","","","","","",""
"d3-animate-choice","195","845450","0.0-76.0-0.20","2148","2380","19","Male","true","true","true","true","""event"",""trial"",""time""
""fullscreenenter"",""5"",""28542""
","
","
","""event"",""trial"",""time""
""fullscreenenter"",""5"",""28542""
","
","309.19999999925494","","48","","","3000","1","","","images/earth.jpg","images/rocket2","images/rocket1","null","images/rocket2","","1","real","null","2","","",""
"d3-animate-choice","196","847788","0.0-76.0-1.20","2148","2380","19","Male","true","true","true","true","""event"",""trial"",""time""
""fullscreenenter"",""5"",""28542""
","
","
","""event"",""trial"",""time""
""fullscreenenter"",""5"",""28542""
","
","333.5999999977648","","49","","","3000","1","","","images/purpleplanet.jpg","images/alien4","images/alien3","images/rocket2","images/alien3","images/nothing.png","2","real","true","1","common","0","2022-07-20 20:40:37.438"
"two-step-fixation","197","848794","0.0-76.0-2.20","2148","2380","19","Male","true","true","true","true","""event"",""trial"",""time""
""fullscreenenter"",""5"",""28542""
","
","
","""event"",""trial"",""time""
""fullscreenenter"",""5"",""28542""
","
","","images/earth.jpg","","","","","","","","","","","","","","fixation","","","","","",""
"d3-animate-choice","198","851066","0.0-76.0-0.21","2148","2380","19","Male","true","true","true","true","""event"",""trial"",""time""
""fullscreenenter"",""5"",""28542""
","
","
","""event"",""trial"",""time""
""fullscreenenter"",""5"",""28542""
","
","266.80000000074506","","49","","","3000","1","","","images/earth.jpg","images/rocket2","images/rocket1","null","images/rocket1","","1","real","null","1","","",""
"d3-animate-choice","199","854580","0.0-76.0-1.21","2148","2380","19","Male","true","true","true","true","""event"",""trial"",""time""
""fullscreenenter"",""5"",""28542""
","
","
","""event"",""trial"",""time""
""fullscreenenter"",""5"",""28542""
","
","1509.5","","48","","","3000","1","","","images/purpleplanet.jpg","images/alien4","images/alien3","images/rocket1","images/alien4","images/t.png","2","real","false","2","rare","1","2022-07-20 20:40:44.229"
"two-step-fixation","200","855591","0.0-76.0-2.21","2148","2380","19","Male","true","true","true","true","""event"",""trial"",""time""
""fullscreenenter"",""5"",""28542""
","
","
","""event"",""trial"",""time""
""fullscreenenter"",""5"",""28542""
","
","","images/earth.jpg","","","","","","","","","","","","","","fixation","","","","","",""
"d3-animate-choice","201","857920","0.0-76.0-0.22","2148","2380","19","Male","true","true","true","true","""event"",""trial"",""time""
""fullscreenenter"",""5"",""28542""
","
","
","""event"",""trial"",""time""
""fullscreenenter"",""5"",""28542""
","
","322.6000000014901","","49","","","3000","1","","","images/earth.jpg","images/rocket2","images/rocket1","null","images/rocket1","","1","real","null","1","","",""
"d3-animate-choice","202","861532","0.0-76.0-1.22","2148","2380","19","Male","true","true","true","true","""event"",""trial"",""time""
""fullscreenenter"",""5"",""28542""
","
","
","""event"",""trial"",""time""
""fullscreenenter"",""5"",""28542""
","
","1606.8999999985099","","49","","","3000","1","","","images/redplanet1.jpg","images/alien2","images/alien1","images/rocket1","images/alien1","images/nothing.png","2","real","true","1","common","0","2022-07-20 20:40:51.181"
"two-step-fixation","203","862537","0.0-76.0-2.22","2148","2380","19","Male","true","true","true","true","""event"",""trial"",""time""
""fullscreenenter"",""5"",""28542""
","
","
","""event"",""trial"",""time""
""fullscreenenter"",""5"",""28542""
","
","","images/earth.jpg","","","","","","","","","","","","","","fixation","","","","","",""
"d3-animate-choice","204","864627","0.0-76.0-0.23","2148","2380","19","Male","true","true","true","true","""event"",""trial"",""time""
""fullscreenenter"",""5"",""28542""
","
","
","""event"",""trial"",""time""
""fullscreenenter"",""5"",""28542""
","
","84.30000000074506","","49","","","3000","1","","","images/earth.jpg","images/rocket2","images/rocket1","null","images/rocket1","","1","real","null","1","","",""
"d3-animate-choice","205","867598","0.0-76.0-1.23","2148","2380","19","Male","true","true","true","true","""event"",""trial"",""time""
""fullscreenenter"",""5"",""28542""
","
","
","""event"",""trial"",""time""
""fullscreenenter"",""5"",""28542""
","
","967.7999999970198","","48","","","3000","1","","","images/purpleplanet.jpg","images/alien4","images/alien3","images/rocket1","images/alien4","images/nothing.png","2","real","false","2","rare","0","2022-07-20 20:40:57.248"
"two-step-fixation","206","868604","0.0-76.0-2.23","2148","2380","19","Male","true","true","true","true","""event"",""trial"",""time""
""fullscreenenter"",""5"",""28542""
","
","
","""event"",""trial"",""time""
""fullscreenenter"",""5"",""28542""
","
","","images/earth.jpg","","","","","","","","","","","","","","fixation","","","","","",""
"d3-animate-choice","207","870981","0.0-76.0-0.24","2148","2380","19","Male","true","true","true","true","""event"",""trial"",""time""
""fullscreenenter"",""5"",""28542""
","
","
","""event"",""trial"",""time""
""fullscreenenter"",""5"",""28542""
","
","370.80000000074506","","49","","","3000","1","","","images/earth.jpg","images/rocket2","images/rocket1","null","images/rocket1","","1","real","null","1","","",""
"d3-animate-choice","208","873919","0.0-76.0-1.24","2148","2380","19","Male","true","true","true","true","""event"",""trial"",""time""
""fullscreenenter"",""5"",""28542""
","
","
","""event"",""trial"",""time""
""fullscreenenter"",""5"",""28542""
","
","934.3000000007451","","49","","","3000","1","","","images/purpleplanet.jpg","images/alien4","images/alien3","images/rocket1","images/alien3","images/t.png","2","real","false","1","rare","1","2022-07-20 20:41:03.568"
"two-step-fixation","209","874924","0.0-76.0-2.24","2148","2380","19","Male","true","true","true","true","""event"",""trial"",""time""
""fullscreenenter"",""5"",""28542""
","
","
","""event"",""trial"",""time""
""fullscreenenter"",""5"",""28542""
","
","","images/earth.jpg","","","","","","","","","","","","","","fixation","","","","","",""
"d3-animate-choice","210","877327","0.0-76.0-0.25","2148","2380","19","Male","true","true","true","true","""event"",""trial"",""time""
""fullscreenenter"",""5"",""28542""
","
","
","""event"",""trial"",""time""
""fullscreenenter"",""5"",""28542""
","
","397.4000000022352","","49","","","3000","1","","","images/earth.jpg","images/rocket2","images/rocket1","null","images/rocket1","","1","real","null","1","","",""
"d3-animate-choice","211","880564","0.0-76.0-1.25","2148","2380","19","Male","true","true","true","true","""event"",""trial"",""time""
""fullscreenenter"",""5"",""28542""
","
","
","""event"",""trial"",""time""
""fullscreenenter"",""5"",""28542""
","
","1232.300000000745","","48","","","3000","1","","","images/redplanet1.jpg","images/alien2","images/alien1","images/rocket1","images/alien2","images/nothing.png","2","real","true","2","common","0","2022-07-20 20:41:10.213"
"two-step-fixation","212","881569","0.0-76.0-2.25","2148","2380","19","Male","true","true","true","true","""event"",""trial"",""time""
""fullscreenenter"",""5"",""28542""
","
","
","""event"",""trial"",""time""
""fullscreenenter"",""5"",""28542""
","
","","images/earth.jpg","","","","","","","","","","","","","","fixation","","","","","",""
"d3-animate-choice","213","883781","0.0-76.0-0.26","2148","2380","19","Male","true","true","true","true","""event"",""trial"",""time""
""fullscreenenter"",""5"",""28542""
","
","
","""event"",""trial"",""time""
""fullscreenenter"",""5"",""28542""
","
","207.20000000298023","","49","","","3000","1","","","images/earth.jpg","images/rocket2","images/rocket1","null","images/rocket1","","1","real","null","1","","",""
"d3-animate-choice","214","886267","0.0-76.0-1.26","2148","2380","19","Male","true","true","true","true","""event"",""trial"",""time""
""fullscreenenter"",""5"",""28542""
","
","
","""event"",""trial"",""time""
""fullscreenenter"",""5"",""28542""
","
","482.8999999985099","","49","","","3000","1","","","images/purpleplanet.jpg","images/alien4","images/alien3","images/rocket1","images/alien3","images/nothing.png","2","real","false","1","rare","0","2022-07-20 20:41:15.917"
"two-step-fixation","215","887273","0.0-76.0-2.26","2148","2380","19","Male","true","true","true","true","""event"",""trial"",""time""
""fullscreenenter"",""5"",""28542""
","
","
","""event"",""trial"",""time""
""fullscreenenter"",""5"",""28542""
","
","","images/earth.jpg","","","","","","","","","","","","","","fixation","","","","","",""
"d3-animate-choice","216","889610","0.0-76.0-0.27","2148","2380","19","Male","true","true","true","true","""event"",""trial"",""time""
""fullscreenenter"",""5"",""28542""
","
","
","""event"",""trial"",""time""
""fullscreenenter"",""5"",""28542""
","
","331.80000000074506","","49","","","3000","1","","","images/earth.jpg","images/rocket2","images/rocket1","null","images/rocket1","","1","real","null","1","","",""
"d3-animate-choice","217","892524","0.0-76.0-1.27","2148","2380","19","Male","true","true","true","true","""event"",""trial"",""time""
""fullscreenenter"",""5"",""28542""
","
","
","""event"",""trial"",""time""
""fullscreenenter"",""5"",""28542""
","
","907.8000000007451","","49","","","3000","1","","","images/redplanet1.jpg","images/alien2","images/alien1","images/rocket1","images/alien1","images/t.png","2","real","true","1","common","1","2022-07-20 20:41:22.173"
"two-step-fixation","218","893530","0.0-76.0-2.27","2148","2380","19","Male","true","true","true","true","""event"",""trial"",""time""
""fullscreenenter"",""5"",""28542""
","
","
","""event"",""trial"",""time""
""fullscreenenter"",""5"",""28542""
","
","","images/earth.jpg","","","","","","","","","","","","","","fixation","","","","","",""
"d3-animate-choice","219","895887","0.0-76.0-0.28","2148","2380","19","Male","true","true","true","true","""event"",""trial"",""time""
""fullscreenenter"",""5"",""28542""
","
","
","""event"",""trial"",""time""
""fullscreenenter"",""5"",""28542""
","
","350.30000000074506","","49","","","3000","1","","","images/earth.jpg","images/rocket2","images/rocket1","null","images/rocket1","","1","real","null","1","","",""
"d3-animate-choice","220","898303","0.0-76.0-1.28","2148","2380","19","Male","true","true","true","true","""event"",""trial"",""time""
""fullscreenenter"",""5"",""28542""
","
","
","""event"",""trial"",""time""
""fullscreenenter"",""5"",""28542""
","
","412.19999999925494","","48","","","3000","1","","","images/purpleplanet.jpg","images/alien4","images/alien3","images/rocket1","images/alien4","images/t.png","2","real","false","2","rare","1","2022-07-20 20:41:27.952"
"two-step-fixation","221","899308","0.0-76.0-2.28","2148","2380","19","Male","true","true","true","true","""event"",""trial"",""time""
""fullscreenenter"",""5"",""28542""
","
","
","""event"",""trial"",""time""
""fullscreenenter"",""5"",""28542""
","
","","images/earth.jpg","","","","","","","","","","","","","","fixation","","","","","",""
"d3-animate-choice","222","902018","0.0-76.0-0.29","2148","2380","19","Male","true","true","true","true","""event"",""trial"",""time""
""fullscreenenter"",""5"",""28542""
","
","
","""event"",""trial"",""time""
""fullscreenenter"",""5"",""28542""
","
","706","","48","","","3000","1","","","images/earth.jpg","images/rocket2","images/rocket1","null","images/rocket2","","1","real","null","2","","",""
"d3-animate-choice","223","904405","0.0-76.0-1.29","2148","2380","19","Male","true","true","true","true","""event"",""trial"",""time""
""fullscreenenter"",""5"",""28542""
","
","
","""event"",""trial"",""time""
""fullscreenenter"",""5"",""28542""
","
","382.0999999977648","","48","","","3000","1","","","images/redplanet1.jpg","images/alien2","images/alien1","images/rocket2","images/alien2","images/nothing.png","2","real","false","2","rare","0","2022-07-20 20:41:34.054"
"two-step-fixation","224","905409","0.0-76.0-2.29","2148","2380","19","Male","true","true","true","true","""event"",""trial"",""time""
""fullscreenenter"",""5"",""28542""
","
","
","""event"",""trial"",""time""
""fullscreenenter"",""5"",""28542""
","
","","images/earth.jpg","","","","","","","","","","","","","","fixation","","","","","",""
"d3-animate-choice","225","907683","0.0-76.0-0.30","2148","2380","19","Male","true","true","true","true","""event"",""trial"",""time""
""fullscreenenter"",""5"",""28542""
","
","
","""event"",""trial"",""time""
""fullscreenenter"",""5"",""28542""
","
","269.3999999985099","","48","","","3000","1","","","images/earth.jpg","images/rocket2","images/rocket1","null","images/rocket2","","1","real","null","2","","",""
"d3-animate-choice","226","910051","0.0-76.0-1.30","2148","2380","19","Male","true","true","true","true","""event"",""trial"",""time""
""fullscreenenter"",""5"",""28542""
","
","
","""event"",""trial"",""time""
""fullscreenenter"",""5"",""28542""
","
","364","","49","","","3000","1","","","images/purpleplanet.jpg","images/alien4","images/alien3","images/rocket2","images/alien3","images/nothing.png","2","real","true","1","common","0","2022-07-20 20:41:39.700"
"two-step-fixation","227","911056","0.0-76.0-2.30","2148","2380","19","Male","true","true","true","true","""event"",""trial"",""time""
""fullscreenenter"",""5"",""28542""
","
","
","""event"",""trial"",""time""
""fullscreenenter"",""5"",""28542""
","
","","images/earth.jpg","","","","","","","","","","","","","","fixation","","","","","",""
"d3-animate-choice","228","913594","0.0-76.0-0.31","2148","2380","19","Male","true","true","true","true","""event"",""trial"",""time""
""fullscreenenter"",""5"",""28542""
","
","
","""event"",""trial"",""time""
""fullscreenenter"",""5"",""28542""
","
","533","","49","","","3000","1","","","images/earth.jpg","images/rocket2","images/rocket1","null","images/rocket1","","1","real","null","1","","",""
"d3-animate-choice","229","916429","0.0-76.0-1.31","2148","2380","19","Male","true","true","true","true","""event"",""trial"",""time""
""fullscreenenter"",""5"",""28542""
","
","
","""event"",""trial"",""time""
""fullscreenenter"",""5"",""28542""
","
","831.0999999977648","","48","","","3000","1","","","images/purpleplanet.jpg","images/alien4","images/alien3","images/rocket1","images/alien4","images/t.png","2","real","false","2","rare","1","2022-07-20 20:41:46.078"
"two-step-fixation","230","917434","0.0-76.0-2.31","2148","2380","19","Male","true","true","true","true","""event"",""trial"",""time""
""fullscreenenter"",""5"",""28542""
","
","
","""event"",""trial"",""time""
""fullscreenenter"",""5"",""28542""
","
","","images/earth.jpg","","","","","","","","","","","","","","fixation","","","","","",""
"d3-animate-choice","231","919949","0.0-76.0-0.32","2148","2380","19","Male","true","true","true","true","""event"",""trial"",""time""
""fullscreenenter"",""5"",""28542""
","
","
","""event"",""trial"",""time""
""fullscreenenter"",""5"",""28542""
","
","509.69999999925494","","49","","","3000","1","","","images/earth.jpg","images/rocket2","images/rocket1","null","images/rocket1","","1","real","null","1","","",""
"d3-animate-choice","232","922717","0.0-76.0-1.32","2148","2380","19","Male","true","true","true","true","""event"",""trial"",""time""
""fullscreenenter"",""5"",""28542""
","
","
","""event"",""trial"",""time""
""fullscreenenter"",""5"",""28542""
","
","763.8000000007451","","48","","","3000","1","","","images/purpleplanet.jpg","images/alien4","images/alien3","images/rocket1","images/alien4","images/t.png","2","real","false","2","rare","1","2022-07-20 20:41:52.366"
"two-step-fixation","233","923721","0.0-76.0-2.32","2148","2380","19","Male","true","true","true","true","""event"",""trial"",""time""
""fullscreenenter"",""5"",""28542""
","
","
","""event"",""trial"",""time""
""fullscreenenter"",""5"",""28542""
","
","","images/earth.jpg","","","","","","","","","","","","","","fixation","","","","","",""
"d3-animate-choice","234","926064","0.0-76.0-0.33","2148","2380","19","Male","true","true","true","true","""event"",""trial"",""time""
""fullscreenenter"",""5"",""28542""
","
","
","""event"",""trial"",""time""
""fullscreenenter"",""5"",""28542""
","
","337.4000000022352","","49","","","3000","1","","","images/earth.jpg","images/rocket2","images/rocket1","null","images/rocket1","","1","real","null","1","","",""
"d3-animate-choice","235","928601","0.0-76.0-1.33","2148","2380","19","Male","true","true","true","true","""event"",""trial"",""time""
""fullscreenenter"",""5"",""28542""
","
","
","""event"",""trial"",""time""
""fullscreenenter"",""5"",""28542""
","
","532.6000000014901","","49","","","3000","1","","","images/purpleplanet.jpg","images/alien4","images/alien3","images/rocket1","images/alien3","images/t.png","2","real","false","1","rare","1","2022-07-20 20:41:58.250"
"two-step-fixation","236","929607","0.0-76.0-2.33","2148","2380","19","Male","true","true","true","true","""event"",""trial"",""time""
""fullscreenenter"",""5"",""28542""
","
","
","""event"",""trial"",""time""
""fullscreenenter"",""5"",""28542""
","
","","images/earth.jpg","","","","","","","","","","","","","","fixation","","","","","",""
"d3-animate-choice","237","932528","0.0-76.0-0.34","2148","2380","19","Male","true","true","true","true","""event"",""trial"",""time""
""fullscreenenter"",""5"",""28542""
","
","
","""event"",""trial"",""time""
""fullscreenenter"",""5"",""28542""
","
","914.8999999985099","","48","","","3000","1","","","images/earth.jpg","images/rocket2","images/rocket1","null","images/rocket2","","1","real","null","2","","",""
"d3-animate-choice","238","935345","0.0-76.0-1.34","2148","2380","19","Male","true","true","true","true","""event"",""trial"",""time""
""fullscreenenter"",""5"",""28542""
","
","
","""event"",""trial"",""time""
""fullscreenenter"",""5"",""28542""
","
","813","","48","","","3000","1","","","images/purpleplanet.jpg","images/alien4","images/alien3","images/rocket2","images/alien4","images/nothing.png","2","real","true","2","common","0","2022-07-20 20:42:04.994"
"two-step-fixation","239","936350","0.0-76.0-2.34","2148","2380","19","Male","true","true","true","true","""event"",""trial"",""time""
""fullscreenenter"",""5"",""28542""
","
","
","""event"",""trial"",""time""
""fullscreenenter"",""5"",""28542""
","
","","images/earth.jpg","","","","","","","","","","","","","","fixation","","","","","",""
"d3-animate-choice","240","939173","0.0-76.0-0.35","2148","2380","19","Male","true","true","true","true","""event"",""trial"",""time""
""fullscreenenter"",""5"",""28542""
","
","
","""event"",""trial"",""time""
""fullscreenenter"",""5"",""28542""
","
","817","","49","","","3000","1","","","images/earth.jpg","images/rocket2","images/rocket1","null","images/rocket1","","1","real","null","1","","",""
"d3-animate-choice","241","942545","0.0-76.0-1.35","2148","2380","19","Male","true","true","true","true","""event"",""trial"",""time""
""fullscreenenter"",""5"",""28542""
","
","
","""event"",""trial"",""time""
""fullscreenenter"",""5"",""28542""
","
","1368.1000000014901","","49","","","3000","1","","","images/redplanet1.jpg","images/alien2","images/alien1","images/rocket1","images/alien1","images/t.png","2","real","true","1","common","1","2022-07-20 20:42:12.194"
"two-step-fixation","242","943549","0.0-76.0-2.35","2148","2380","19","Male","true","true","true","true","""event"",""trial"",""time""
""fullscreenenter"",""5"",""28542""
","
","
","""event"",""trial"",""time""
""fullscreenenter"",""5"",""28542""
","
","","images/earth.jpg","","","","","","","","","","","","","","fixation","","","","","",""
"d3-animate-choice","243","945754","0.0-76.0-0.36","2148","2380","19","Male","true","true","true","true","""event"",""trial"",""time""
""fullscreenenter"",""5"",""28542""
","
","
","""event"",""trial"",""time""
""fullscreenenter"",""5"",""28542""
","
","199.69999999925494","","48","","","3000","1","","","images/earth.jpg","images/rocket2","images/rocket1","null","images/rocket2","","1","real","null","2","","",""
"d3-animate-choice","244","949017","0.0-76.0-1.36","2148","2380","19","Male","true","true","true","true","""event"",""trial"",""time""
""fullscreenenter"",""5"",""28542""
","
","
","""event"",""trial"",""time""
""fullscreenenter"",""5"",""28542""
","
","1259.699999999255","","49","","","3000","1","","","images/redplanet1.jpg","images/alien2","images/alien1","images/rocket2","images/alien1","images/nothing.png","2","real","false","1","rare","0","2022-07-20 20:42:18.666"
"two-step-fixation","245","950022","0.0-76.0-2.36","2148","2380","19","Male","true","true","true","true","""event"",""trial"",""time""
""fullscreenenter"",""5"",""28542""
","
","
","""event"",""trial"",""time""
""fullscreenenter"",""5"",""28542""
","
","","images/earth.jpg","","","","","","","","","","","","","","fixation","","","","","",""
"d3-animate-choice","246","952237","0.0-76.0-0.37","2148","2380","19","Male","true","true","true","true","""event"",""trial"",""time""
""fullscreenenter"",""5"",""28542""
","
","
","""event"",""trial"",""time""
""fullscreenenter"",""5"",""28542""
","
","210","","49","","","3000","1","","","images/earth.jpg","images/rocket2","images/rocket1","null","images/rocket1","","1","real","null","1","","",""
"d3-animate-choice","247","954697","0.0-76.0-1.37","2148","2380","19","Male","true","true","true","true","""event"",""trial"",""time""
""fullscreenenter"",""5"",""28542""
","
","
","""event"",""trial"",""time""
""fullscreenenter"",""5"",""28542""
","
