"trial_type","trial_index","time_elapsed","internal_node_id","participant_id","subject_id","age","gender","rocket_sides","red_planet_first_rocket","red_display_order","purple_display_order","interactions","blur_events","focus_events","fullscreenenter_events","fullscreenexit_events","rt","stimulus","key_press","button_pressed","success","duration","valid_pressed","rts","keys","planet_text","right_text","left_text","center_text","chosen_text","reward_text","trial_stage","practice_trial","transition_type","choice","transition","reward","timestamp"
"pavlovia","0","2","0.0-0.0","3596","6339","14","Female","true","false","false","true","""event"",""trial"",""time""
""blur"",""1"",""2109""
""focus"",""1"",""8584""
","""event"",""trial"",""time""
""blur"",""1"",""2109""
","""event"",""trial"",""time""
""focus"",""1"",""8584""
","
","
","","","","","","","","","","","","","","","","","","","","","",""
"html-keyboard-response","1","9347","0.0-1.0","3596","6339","14","Female","true","false","false","true","""event"",""trial"",""time""
""blur"",""1"",""2109""
""focus"",""1"",""8584""
","""event"",""trial"",""time""
""blur"",""1"",""2109""
","""event"",""trial"",""time""
""focus"",""1"",""8584""
","
","
","9343.799999952316","Welcome! Press the space bar to begin.","32","","","","","","","","","","","","","","","","","","",""
"audio-keyboard-response","2","12090","0.0-2.0","3596","6339","14","Female","true","false","false","true","""event"",""trial"",""time""
""blur"",""1"",""2109""
""focus"",""1"",""8584""
","""event"",""trial"",""time""
""blur"",""1"",""2109""
","""event"",""trial"",""time""
""focus"",""1"",""8584""
","
","
","2701","audio/beep_loop.wav","32","","","","","","","","","","","","","","","","","","",""
"audio-button-response","3","13483","0.0-3.0","3596","6339","14","Female","true","false","false","true","""event"",""trial"",""time""
""blur"",""1"",""2109""
""focus"",""1"",""8584""
","""event"",""trial"",""time""
""blur"",""1"",""2109""
","""event"",""trial"",""time""
""focus"",""1"",""8584""
","
","
","NaN","audio/fish.mp3","","1","","","","","","","","","","","","","","","","","",""
"audio-button-response","4","15355","0.0-4.0","3596","6339","14","Female","true","false","false","true","""event"",""trial"",""time""
""blur"",""1"",""2109""
""focus"",""1"",""8584""
""fullscreenenter"",""5"",""18166""
","""event"",""trial"",""time""
""blur"",""1"",""2109""
","""event"",""trial"",""time""
""focus"",""1"",""8584""
","""event"",""trial"",""time""
""fullscreenenter"",""5"",""18166""
","
","NaN","audio/tiger.mp3","","4","","","","","","","","","","","","","","","","","",""
"fullscreen","5","19159","0.0-5.0","3596","6339","14","Female","true","false","false","true","""event"",""trial"",""time""
""blur"",""1"",""2109""
""focus"",""1"",""8584""
""fullscreenenter"",""5"",""18166""
","""event"",""trial"",""time""
""blur"",""1"",""2109""
","""event"",""trial"",""time""
""focus"",""1"",""8584""
","""event"",""trial"",""time""
""fullscreenenter"",""5"",""18166""
","
","","","","","true","","","","","","","","","","","","","","","","",""
"d3-instructions","6","21482","0.0-6.0","3596","6339","14","Female","true","false","false","true","""event"",""trial"",""time""
""blur"",""1"",""2109""
""focus"",""1"",""8584""
""fullscreenenter"",""5"",""18166""
","""event"",""trial"",""time""
""blur"",""1"",""2109""
","""event"",""trial"",""time""
""focus"",""1"",""8584""
","""event"",""trial"",""time""
""fullscreenenter"",""5"",""18166""
","
","","","","","","","","","","","","","","","","","","","","","",""
"d3-instructions","7","23266","0.0-7.0","3596","6339","14","Female","true","false","false","true","""event"",""trial"",""time""
""blur"",""1"",""2109""
""focus"",""1"",""8584""
""fullscreenenter"",""5"",""18166""
","""event"",""trial"",""time""
""blur"",""1"",""2109""
","""event"",""trial"",""time""
""focus"",""1"",""8584""
","""event"",""trial"",""time""
""fullscreenenter"",""5"",""18166""
","
","","","","","","","","","","","","","","","","","","","","","",""
"d3-instructions","8","24651","0.0-8.0","3596","6339","14","Female","true","false","false","true","""event"",""trial"",""time""
""blur"",""1"",""2109""
""focus"",""1"",""8584""
""fullscreenenter"",""5"",""18166""
","""event"",""trial"",""time""
""blur"",""1"",""2109""
","""event"",""trial"",""time""
""focus"",""1"",""8584""
","""event"",""trial"",""time""
""fullscreenenter"",""5"",""18166""
","
","","","","","","","","","","","","","","","","","","","","","",""
"d3-instructions","9","26146","0.0-9.0","3596","6339","14","Female","true","false","false","true","""event"",""trial"",""time""
""blur"",""1"",""2109""
""focus"",""1"",""8584""
""fullscreenenter"",""5"",""18166""
","""event"",""trial"",""time""
""blur"",""1"",""2109""
","""event"",""trial"",""time""
""focus"",""1"",""8584""
","""event"",""trial"",""time""
""fullscreenenter"",""5"",""18166""
","
","","","","","","","","","","","","","","","","","","","","","",""
"d3-instructions","10","30283","0.0-10.0","3596","6339","14","Female","true","false","false","true","""event"",""trial"",""time""
""blur"",""1"",""2109""
""focus"",""1"",""8584""
""fullscreenenter"",""5"",""18166""
","""event"",""trial"",""time""
""blur"",""1"",""2109""
","""event"",""trial"",""time""
""focus"",""1"",""8584""
","""event"",""trial"",""time""
""fullscreenenter"",""5"",""18166""
","
","","","","","","","","","","","","","","","","","","","","","",""
"d3-animate-choice","11","45682","0.0-11.0","3596","6339","14","Female","true","false","false","true","""event"",""trial"",""time""
""blur"",""1"",""2109""
""focus"",""1"",""8584""
""fullscreenenter"",""5"",""18166""
","""event"",""trial"",""time""
""blur"",""1"",""2109""
","""event"",""trial"",""time""
""focus"",""1"",""8584""
","""event"",""trial"",""time""
""fullscreenenter"",""5"",""18166""
","
","1222.8999999761581","","97","","","3000","1","1988.7999999523163,2748.6999999284744,3428.7999999523163,4172.5,4788.799999952316,5620.699999928474,5644.599999904633,6308.699999928474,7572.799999952316,9125.699999928474,9764.699999928474,10012.599999904633,10516.899999976158,11405.399999976158,12332.799999952316,13380.599999904633","96,97,96,97,96,97,96,96,96,144,45,35,144,144,144,48","images/tutgreenplanet.jpg","images/tutalien1","images/tutalien2","null","images/tutalien1","","NA","practice","null","","","",""
"d3-animate-choice","12","48392","0.0-12.0","3596","6339","14","Female","true","false","false","true","""event"",""trial"",""time""
""blur"",""1"",""2109""
""focus"",""1"",""8584""
""fullscreenenter"",""5"",""18166""
","""event"",""trial"",""time""
""blur"",""1"",""2109""
","""event"",""trial"",""time""
""focus"",""1"",""8584""
","""event"",""trial"",""time""
""fullscreenenter"",""5"",""18166""
","
","694.2999999523163","","49","","","3000","1","","","images/tutgreenplanet.jpg","images/tutalien1","images/tutalien2","null","images/tutalien2","","NA","practice","null","","","",""
"d3-animate-choice","13","50881","0.0-13.0","3596","6339","14","Female","true","false","false","true","""event"",""trial"",""time""
""blur"",""1"",""2109""
""focus"",""1"",""8584""
""fullscreenenter"",""5"",""18166""
","""event"",""trial"",""time""
""blur"",""1"",""2109""
","""event"",""trial"",""time""
""focus"",""1"",""8584""
","""event"",""trial"",""time""
""fullscreenenter"",""5"",""18166""
","
","480","","48","","","3000","1","","","images/tutgreenplanet.jpg","images/tutalien1","images/tutalien2","null","images/tutalien1","","NA","practice","null","","","",""
"d3-animate-choice","14","53341","0.0-14.0","3596","6339","14","Female","true","false","false","true","""event"",""trial"",""time""
""blur"",""1"",""2109""
""focus"",""1"",""8584""
""fullscreenenter"",""5"",""18166""
","""event"",""trial"",""time""
""blur"",""1"",""2109""
","""event"",""trial"",""time""
""focus"",""1"",""8584""
","""event"",""trial"",""time""
""fullscreenenter"",""5"",""18166""
","
","447.1999999284744","","49","","","3000","1","","","images/tutgreenplanet.jpg","images/tutalien1","images/tutalien2","null","images/tutalien2","","NA","practice","null","","","",""
"d3-instructions","15","60042","0.0-15.0","3596","6339","14","Female","true","false","false","true","""event"",""trial"",""time""
""blur"",""1"",""2109""
""focus"",""1"",""8584""
""fullscreenenter"",""5"",""18166""
","""event"",""trial"",""time""
""blur"",""1"",""2109""
","""event"",""trial"",""time""
""focus"",""1"",""8584""
","""event"",""trial"",""time""
""fullscreenenter"",""5"",""18166""
","
","","","","","","","","","","","","","","","","","","","","","",""
"d3-instructions","16","66754","0.0-16.0","3596","6339","14","Female","true","false","false","true","""event"",""trial"",""time""
""blur"",""1"",""2109""
""focus"",""1"",""8584""
""fullscreenenter"",""5"",""18166""
","""event"",""trial"",""time""
""blur"",""1"",""2109""
","""event"",""trial"",""time""
""focus"",""1"",""8584""
","""event"",""trial"",""time""
""fullscreenenter"",""5"",""18166""
","
","","","","","","","","","","","","","","","","","","","","","",""
"d3-instructions","17","74427","0.0-17.0","3596","6339","14","Female","true","false","false","true","""event"",""trial"",""time""
""blur"",""1"",""2109""
""focus"",""1"",""8584""
""fullscreenenter"",""5"",""18166""
","""event"",""trial"",""time""
""blur"",""1"",""2109""
","""event"",""trial"",""time""
""focus"",""1"",""8584""
","""event"",""trial"",""time""
""fullscreenenter"",""5"",""18166""
","
","","","","","","","","","","","","","","","","","","","","","",""
"d3-instructions","18","86626","0.0-18.0","3596","6339","14","Female","true","false","false","true","""event"",""trial"",""time""
""blur"",""1"",""2109""
""focus"",""1"",""8584""
""fullscreenenter"",""5"",""18166""
","""event"",""trial"",""time""
""blur"",""1"",""2109""
","""event"",""trial"",""time""
""focus"",""1"",""8584""
","""event"",""trial"",""time""
""fullscreenenter"",""5"",""18166""
","
","","","","","","","","","","","","","","","","","","","","","",""
"d3-instructions","19","99706","0.0-19.0","3596","6339","14","Female","true","false","false","true","""event"",""trial"",""time""
""blur"",""1"",""2109""
""focus"",""1"",""8584""
""fullscreenenter"",""5"",""18166""
","""event"",""trial"",""time""
""blur"",""1"",""2109""
","""event"",""trial"",""time""
""focus"",""1"",""8584""
","""event"",""trial"",""time""
""fullscreenenter"",""5"",""18166""
","
","","","","","","","","","","","","","","","","","","","","","",""
"d3-animate-choice","20","102368","0.0-20.0","3596","6339","14","Female","true","false","false","true","""event"",""trial"",""time""
""blur"",""1"",""2109""
""focus"",""1"",""8584""
""fullscreenenter"",""5"",""18166""
","""event"",""trial"",""time""
""blur"",""1"",""2109""
","""event"",""trial"",""time""
""focus"",""1"",""8584""
","""event"",""trial"",""time""
""fullscreenenter"",""5"",""18166""
","
","644.5999999046326","","49","","","3000","1","","","images/tutyellowplanet.jpg","null","images/tutalien3","null","images/tutalien3","images/t.png","NA","practice","null","","","",""
"d3-animate-choice","21","104985","0.0-21.0","3596","6339","14","Female","true","false","false","true","""event"",""trial"",""time""
""blur"",""1"",""2109""
""focus"",""1"",""8584""
""fullscreenenter"",""5"",""18166""
","""event"",""trial"",""time""
""blur"",""1"",""2109""
","""event"",""trial"",""time""
""focus"",""1"",""8584""
","""event"",""trial"",""time""
""fullscreenenter"",""5"",""18166""
","
","608","","49","","","3000","1","","","images/tutyellowplanet.jpg","null","images/tutalien3","null","images/tutalien3","images/t.png","NA","practice","null","","","",""
"d3-animate-choice","22","107458","0.0-22.0","3596","6339","14","Female","true","false","false","true","""event"",""trial"",""time""
""blur"",""1"",""2109""
""focus"",""1"",""8584""
""fullscreenenter"",""5"",""18166""
","""event"",""trial"",""time""
""blur"",""1"",""2109""
","""event"",""trial"",""time""
""focus"",""1"",""8584""
","""event"",""trial"",""time""
""fullscreenenter"",""5"",""18166""
","
","454.60000002384186","","49","","","3000","1","","","images/tutyellowplanet.jpg","null","images/tutalien3","null","images/tutalien3","images/t.png","NA","practice","null","","","",""
"d3-animate-choice","23","109885","0.0-23.0","3596","6339","14","Female","true","false","false","true","""event"",""trial"",""time""
""blur"",""1"",""2109""
""focus"",""1"",""8584""
""fullscreenenter"",""5"",""18166""
","""event"",""trial"",""time""
""blur"",""1"",""2109""
","""event"",""trial"",""time""
""focus"",""1"",""8584""
","""event"",""trial"",""time""
""fullscreenenter"",""5"",""18166""
","
","413.7000000476837","","49","","","3000","1","","","images/tutyellowplanet.jpg","null","images/tutalien3","null","images/tutalien3","images/t.png","NA","practice","null","","","",""
"d3-animate-choice","24","112795","0.0-24.0","3596","6339","14","Female","true","false","false","true","""event"",""trial"",""time""
""blur"",""1"",""2109""
""focus"",""1"",""8584""
""fullscreenenter"",""5"",""18166""
","""event"",""trial"",""time""
""blur"",""1"",""2109""
","""event"",""trial"",""time""
""focus"",""1"",""8584""
","""event"",""trial"",""time""
""fullscreenenter"",""5"",""18166""
","
","890.3999999761581","","49","","","3000","1","","","images/tutyellowplanet.jpg","null","images/tutalien3","null","images/tutalien3","images/t.png","NA","practice","null","","","",""
"d3-animate-choice","25","115253","0.0-25.0","3596","6339","14","Female","true","false","false","true","""event"",""trial"",""time""
""blur"",""1"",""2109""
""focus"",""1"",""8584""
""fullscreenenter"",""5"",""18166""
","""event"",""trial"",""time""
""blur"",""1"",""2109""
","""event"",""trial"",""time""
""focus"",""1"",""8584""
","""event"",""trial"",""time""
""fullscreenenter"",""5"",""18166""
","
","436.10000002384186","","49","","","3000","1","","","images/tutyellowplanet.jpg","null","images/tutalien3","null","images/tutalien3","images/nothing.png","NA","practice","null","","","",""
"d3-animate-choice","26","117851","0.0-26.0","3596","6339","14","Female","true","false","false","true","""event"",""trial"",""time""
""blur"",""1"",""2109""
""focus"",""1"",""8584""
""fullscreenenter"",""5"",""18166""
","""event"",""trial"",""time""
""blur"",""1"",""2109""
","""event"",""trial"",""time""
""focus"",""1"",""8584""
","""event"",""trial"",""time""
""fullscreenenter"",""5"",""18166""
","
","586.1000000238419","","49","","","3000","1","","","images/tutyellowplanet.jpg","null","images/tutalien3","null","images/tutalien3","images/t.png","NA","practice","null","","","",""
"d3-animate-choice","27","120610","0.0-27.0","3596","6339","14","Female","true","false","false","true","""event"",""trial"",""time""
""blur"",""1"",""2109""
""focus"",""1"",""8584""
""fullscreenenter"",""5"",""18166""
","""event"",""trial"",""time""
""blur"",""1"",""2109""
","""event"",""trial"",""time""
""focus"",""1"",""8584""
","""event"",""trial"",""time""
""fullscreenenter"",""5"",""18166""
","
","748.6999999284744","","49","","","3000","1","","","images/tutyellowplanet.jpg","null","images/tutalien3","null","images/tutalien3","images/nothing.png","NA","practice","null","","","",""
"d3-animate-choice","28","123435","0.0-28.0","3596","6339","14","Female","true","false","false","true","""event"",""trial"",""time""
""blur"",""1"",""2109""
""focus"",""1"",""8584""
""fullscreenenter"",""5"",""18166""
","""event"",""trial"",""time""
""blur"",""1"",""2109""
","""event"",""trial"",""time""
""focus"",""1"",""8584""
","""event"",""trial"",""time""
""fullscreenenter"",""5"",""18166""
","
","805.2999999523163","","49","","","3000","1","","","images/tutyellowplanet.jpg","null","images/tutalien3","null","images/tutalien3","images/t.png","NA","practice","null","","","",""
"d3-animate-choice","29","126104","0.0-29.0","3596","6339","14","Female","true","false","false","true","""event"",""trial"",""time""
""blur"",""1"",""2109""
""focus"",""1"",""8584""
""fullscreenenter"",""5"",""18166""
","""event"",""trial"",""time""
""blur"",""1"",""2109""
","""event"",""trial"",""time""
""focus"",""1"",""8584""
","""event"",""trial"",""time""
""fullscreenenter"",""5"",""18166""
","
","652.1000000238419","","49","","","3000","1","","","images/tutyellowplanet.jpg","null","images/tutalien3","null","images/tutalien3","images/t.png","NA","practice","null","","","",""
"d3-instructions","30","131633","0.0-30.0","3596","6339","14","Female","true","false","false","true","""event"",""trial"",""time""
""blur"",""1"",""2109""
""focus"",""1"",""8584""
""fullscreenenter"",""5"",""18166""
","""event"",""trial"",""time""
""blur"",""1"",""2109""
","""event"",""trial"",""time""
""focus"",""1"",""8584""
","""event"",""trial"",""time""
""fullscreenenter"",""5"",""18166""
","
","","","","","","","","","","","","","","","","","","","","","",""
"d3-instructions","31","140569","0.0-31.0","3596","6339","14","Female","true","false","false","true","""event"",""trial"",""time""
""blur"",""1"",""2109""
""focus"",""1"",""8584""
""fullscreenenter"",""5"",""18166""
","""event"",""trial"",""time""
""blur"",""1"",""2109""
","""event"",""trial"",""time""
""focus"",""1"",""8584""
","""event"",""trial"",""time""
""fullscreenenter"",""5"",""18166""
","
","","","","","","","","","","","","","","","","","","","","","",""
"d3-instructions","32","146673","0.0-32.0","3596","6339","14","Female","true","false","false","true","""event"",""trial"",""time""
""blur"",""1"",""2109""
""focus"",""1"",""8584""
""fullscreenenter"",""5"",""18166""
","""event"",""trial"",""time""
""blur"",""1"",""2109""
","""event"",""trial"",""time""
""focus"",""1"",""8584""
","""event"",""trial"",""time""
""fullscreenenter"",""5"",""18166""
","
","","","","","","","","","","","","","","","","","","","","","",""
"d3-instructions","33","152713","0.0-33.0","3596","6339","14","Female","true","false","false","true","""event"",""trial"",""time""
""blur"",""1"",""2109""
""focus"",""1"",""8584""
""fullscreenenter"",""5"",""18166""
","""event"",""trial"",""time""
""blur"",""1"",""2109""
","""event"",""trial"",""time""
""focus"",""1"",""8584""
","""event"",""trial"",""time""
""fullscreenenter"",""5"",""18166""
","
","","","","","","","","","","","","","","","","","","","","","",""
"d3-animate-choice","34","155953","0.0-34.0","3596","6339","14","Female","true","false","false","true","""event"",""trial"",""time""
""blur"",""1"",""2109""
""focus"",""1"",""8584""
""fullscreenenter"",""5"",""18166""
","""event"",""trial"",""time""
""blur"",""1"",""2109""
","""event"",""trial"",""time""
""focus"",""1"",""8584""
","""event"",""trial"",""time""
""fullscreenenter"",""5"",""18166""
","
","1229.6000000238419","","49","","","3000","1","","","images/tutgreenplanet.jpg","images/tutalien1","images/tutalien2","null","images/tutalien2","images/t.png","NA","practice","null","","","",""
"d3-animate-choice","35","158521","0.0-35.0","3596","6339","14","Female","true","false","false","true","""event"",""trial"",""time""
""blur"",""1"",""2109""
""focus"",""1"",""8584""
""fullscreenenter"",""5"",""18166""
","""event"",""trial"",""time""
""blur"",""1"",""2109""
","""event"",""trial"",""time""
""focus"",""1"",""8584""
","""event"",""trial"",""time""
""fullscreenenter"",""5"",""18166""
","
","550.5","","49","","","3000","1","","","images/tutgreenplanet.jpg","images/tutalien1","images/tutalien2","null","images/tutalien2","images/nothing.png","NA","practice","null","","","",""
"d3-animate-choice","36","161173","0.0-36.0","3596","6339","14","Female","true","false","false","true","""event"",""trial"",""time""
""blur"",""1"",""2109""
""focus"",""1"",""8584""
""fullscreenenter"",""5"",""18166""
","""event"",""trial"",""time""
""blur"",""1"",""2109""
","""event"",""trial"",""time""
""focus"",""1"",""8584""
","""event"",""trial"",""time""
""fullscreenenter"",""5"",""18166""
","
","629.8000000715256","","48","","","3000","1","","","images/tutgreenplanet.jpg","images/tutalien1","images/tutalien2","null","images/tutalien1","images/nothing.png","NA","practice","null","","","",""
"d3-animate-choice","37","163707","0.0-37.0","3596","6339","14","Female","true","false","false","true","""event"",""trial"",""time""
""blur"",""1"",""2109""
""focus"",""1"",""8584""
""fullscreenenter"",""5"",""18166""
","""event"",""trial"",""time""
""blur"",""1"",""2109""
","""event"",""trial"",""time""
""focus"",""1"",""8584""
","""event"",""trial"",""time""
""fullscreenenter"",""5"",""18166""
","
","522","","48","","","3000","1","","","images/tutgreenplanet.jpg","images/tutalien1","images/tutalien2","null","images/tutalien1","images/nothing.png","NA","practice","null","","","",""
"d3-animate-choice","38","166056","0.0-38.0","3596","6339","14","Female","true","false","false","true","""event"",""trial"",""time""
""blur"",""1"",""2109""
""focus"",""1"",""8584""
""fullscreenenter"",""5"",""18166""
","""event"",""trial"",""time""
""blur"",""1"",""2109""
","""event"",""trial"",""time""
""focus"",""1"",""8584""
","""event"",""trial"",""time""
""fullscreenenter"",""5"",""18166""
","
","340.2000000476837","","49","","","3000","1","","","images/tutgreenplanet.jpg","images/tutalien1","images/tutalien2","null","images/tutalien2","images/t.png","NA","practice","null","","","",""
"d3-animate-choice","39","168587","0.0-39.0","3596","6339","14","Female","true","false","false","true","""event"",""trial"",""time""
""blur"",""1"",""2109""
""focus"",""1"",""8584""
""fullscreenenter"",""5"",""18166""
","""event"",""trial"",""time""
""blur"",""1"",""2109""
","""event"",""trial"",""time""
""focus"",""1"",""8584""
","""event"",""trial"",""time""
""fullscreenenter"",""5"",""18166""
","
","511.39999997615814","","49","","","3000","1","","","images/tutgreenplanet.jpg","images/tutalien1","images/tutalien2","null","images/tutalien2","images/t.png","NA","practice","null","","","",""
"d3-animate-choice","40","171024","0.0-40.0","3596","6339","14","Female","true","false","false","true","""event"",""trial"",""time""
""blur"",""1"",""2109""
""focus"",""1"",""8584""
""fullscreenenter"",""5"",""18166""
","""event"",""trial"",""time""
""blur"",""1"",""2109""
","""event"",""trial"",""time""
""focus"",""1"",""8584""
","""event"",""trial"",""time""
""fullscreenenter"",""5"",""18166""
","
","427.7999999523163","","49","","","3000","1","","","images/tutgreenplanet.jpg","images/tutalien1","images/tutalien2","null","images/tutalien2","images/t.png","NA","practice","null","","","",""
"d3-animate-choice","41","173464","0.0-41.0","3596","6339","14","Female","true","false","false","true","""event"",""trial"",""time""
""blur"",""1"",""2109""
""focus"",""1"",""8584""
""fullscreenenter"",""5"",""18166""
","""event"",""trial"",""time""
""blur"",""1"",""2109""
","""event"",""trial"",""time""
""focus"",""1"",""8584""
","""event"",""trial"",""time""
""fullscreenenter"",""5"",""18166""
","
","431.3000000715256","","49","","","3000","1","","","images/tutgreenplanet.jpg","images/tutalien1","images/tutalien2","null","images/tutalien2","images/t.png","NA","practice","null","","","",""
"d3-animate-choice","42","175885","0.0-42.0","3596","6339","14","Female","true","false","false","true","""event"",""trial"",""time""
""blur"",""1"",""2109""
""focus"",""1"",""8584""
""fullscreenenter"",""5"",""18166""
","""event"",""trial"",""time""
""blur"",""1"",""2109""
","""event"",""trial"",""time""
""focus"",""1"",""8584""
","""event"",""trial"",""time""
""fullscreenenter"",""5"",""18166""
","
","398.89999997615814","","49","","","3000","1","","","images/tutgreenplanet.jpg","images/tutalien1","images/tutalien2","null","images/tutalien2","images/nothing.png","NA","practice","null","","","",""
"d3-animate-choice","43","178237","0.0-43.0","3596","6339","14","Female","true","false","false","true","""event"",""trial"",""time""
""blur"",""1"",""2109""
""focus"",""1"",""8584""
""fullscreenenter"",""5"",""18166""
","""event"",""trial"",""time""
""blur"",""1"",""2109""
","""event"",""trial"",""time""
""focus"",""1"",""8584""
","""event"",""trial"",""time""
""fullscreenenter"",""5"",""18166""
","
","337.6999999284744","","49","","","3000","1","","","images/tutgreenplanet.jpg","images/tutalien1","images/tutalien2","null","images/tutalien2","images/nothing.png","NA","practice","null","","","",""
"d3-instructions","44","190305","0.0-44.0","3596","6339","14","Female","true","false","false","true","""event"",""trial"",""time""
""blur"",""1"",""2109""
""focus"",""1"",""8584""
""fullscreenenter"",""5"",""18166""
","""event"",""trial"",""time""
""blur"",""1"",""2109""
","""event"",""trial"",""time""
""focus"",""1"",""8584""
","""event"",""trial"",""time""
""fullscreenenter"",""5"",""18166""
","
","","","","","","","","","","","","","","","","","","","","","",""
"d3-instructions","45","195401","0.0-45.0","3596","6339","14","Female","true","false","false","true","""event"",""trial"",""time""
""blur"",""1"",""2109""
""focus"",""1"",""8584""
""fullscreenenter"",""5"",""18166""
","""event"",""trial"",""time""
""blur"",""1"",""2109""
","""event"",""trial"",""time""
""focus"",""1"",""8584""
","""event"",""trial"",""time""
""fullscreenenter"",""5"",""18166""
","
","","","","","","","","","","","","","","","","","","","","","",""
"d3-instructions","46","197521","0.0-46.0","3596","6339","14","Female","true","false","false","true","""event"",""trial"",""time""
""blur"",""1"",""2109""
""focus"",""1"",""8584""
""fullscreenenter"",""5"",""18166""
","""event"",""trial"",""time""
""blur"",""1"",""2109""
","""event"",""trial"",""time""
""focus"",""1"",""8584""
","""event"",""trial"",""time""
""fullscreenenter"",""5"",""18166""
","
","","","","","","","","","","","","","","","","","","","","","",""
"d3-instructions","47","213424","0.0-47.0","3596","6339","14","Female","true","false","false","true","""event"",""trial"",""time""
""blur"",""1"",""2109""
""focus"",""1"",""8584""
""fullscreenenter"",""5"",""18166""
","""event"",""trial"",""time""
""blur"",""1"",""2109""
","""event"",""trial"",""time""
""focus"",""1"",""8584""
","""event"",""trial"",""time""
""fullscreenenter"",""5"",""18166""
","
","","","","","","","","","","","","","","","","","","","","","",""
"d3-instructions","48","218945","0.0-48.0","3596","6339","14","Female","true","false","false","true","""event"",""trial"",""time""
""blur"",""1"",""2109""
""focus"",""1"",""8584""
""fullscreenenter"",""5"",""18166""
","""event"",""trial"",""time""
""blur"",""1"",""2109""
","""event"",""trial"",""time""
""focus"",""1"",""8584""
","""event"",""trial"",""time""
""fullscreenenter"",""5"",""18166""
","
","","","","","","","","","","","","","","","","","","","","","",""
"d3-instructions","49","228323","0.0-49.0","3596","6339","14","Female","true","false","false","true","""event"",""trial"",""time""
""blur"",""1"",""2109""
""focus"",""1"",""8584""
""fullscreenenter"",""5"",""18166""
","""event"",""trial"",""time""
""blur"",""1"",""2109""
","""event"",""trial"",""time""
""focus"",""1"",""8584""
","""event"",""trial"",""time""
""fullscreenenter"",""5"",""18166""
","
","","","","","","","","","","","","","","","","","","","","","",""
"d3-instructions","50","233945","0.0-50.0","3596","6339","14","Female","true","false","false","true","""event"",""trial"",""time""
""blur"",""1"",""2109""
""focus"",""1"",""8584""
""fullscreenenter"",""5"",""18166""
","""event"",""trial"",""time""
""blur"",""1"",""2109""
","""event"",""trial"",""time""
""focus"",""1"",""8584""
","""event"",""trial"",""time""
""fullscreenenter"",""5"",""18166""
","
","","","","","","","","","","","","","","","","","","","","","",""
"d3-instructions","51","235657","0.0-51.0","3596","6339","14","Female","true","false","false","true","""event"",""trial"",""time""
""blur"",""1"",""2109""
""focus"",""1"",""8584""
""fullscreenenter"",""5"",""18166""
","""event"",""trial"",""time""
""blur"",""1"",""2109""
","""event"",""trial"",""time""
""focus"",""1"",""8584""
","""event"",""trial"",""time""
""fullscreenenter"",""5"",""18166""
","
","","","","","","","","","","","","","","","","","","","","","",""
"d3-instructions","52","237553","0.0-52.0","3596","6339","14","Female","true","false","false","true","""event"",""trial"",""time""
""blur"",""1"",""2109""
""focus"",""1"",""8584""
""fullscreenenter"",""5"",""18166""
","""event"",""trial"",""time""
""blur"",""1"",""2109""
","""event"",""trial"",""time""
""focus"",""1"",""8584""
","""event"",""trial"",""time""
""fullscreenenter"",""5"",""18166""
","
","","","","","","","","","","","","","","","","","","","","","",""
"d3-instructions","53","249009","0.0-53.0","3596","6339","14","Female","true","false","false","true","""event"",""trial"",""time""
""blur"",""1"",""2109""
""focus"",""1"",""8584""
""fullscreenenter"",""5"",""18166""
","""event"",""trial"",""time""
""blur"",""1"",""2109""
","""event"",""trial"",""time""
""focus"",""1"",""8584""
","""event"",""trial"",""time""
""fullscreenenter"",""5"",""18166""
","
","","","","","","","","","","","","","","","","","","","","","",""
"d3-instructions","54","260697","0.0-54.0","3596","6339","14","Female","true","false","false","true","""event"",""trial"",""time""
""blur"",""1"",""2109""
""focus"",""1"",""8584""
""fullscreenenter"",""5"",""18166""
","""event"",""trial"",""time""
""blur"",""1"",""2109""
","""event"",""trial"",""time""
""focus"",""1"",""8584""
","""event"",""trial"",""time""
""fullscreenenter"",""5"",""18166""
","
","","","","","","","","","","","","","","","","","","","","","",""
"d3-instructions","55","265897","0.0-55.0","3596","6339","14","Female","true","false","false","true","""event"",""trial"",""time""
""blur"",""1"",""2109""
""focus"",""1"",""8584""
""fullscreenenter"",""5"",""18166""
","""event"",""trial"",""time""
""blur"",""1"",""2109""
","""event"",""trial"",""time""
""focus"",""1"",""8584""
","""event"",""trial"",""time""
""fullscreenenter"",""5"",""18166""
","
","","","","","","","","","","","","","","","","","","","","","",""
"d3-instructions","56","273273","0.0-56.0","3596","6339","14","Female","true","false","false","true","""event"",""trial"",""time""
""blur"",""1"",""2109""
""focus"",""1"",""8584""
""fullscreenenter"",""5"",""18166""
","""event"",""trial"",""time""
""blur"",""1"",""2109""
","""event"",""trial"",""time""
""focus"",""1"",""8584""
","""event"",""trial"",""time""
""fullscreenenter"",""5"",""18166""
","
","","","","","","","","","","","","","","","","","","","","","",""
"d3-instructions","57","278649","0.0-57.0","3596","6339","14","Female","true","false","false","true","""event"",""trial"",""time""
""blur"",""1"",""2109""
""focus"",""1"",""8584""
""fullscreenenter"",""5"",""18166""
","""event"",""trial"",""time""
""blur"",""1"",""2109""
","""event"",""trial"",""time""
""focus"",""1"",""8584""
","""event"",""trial"",""time""
""fullscreenenter"",""5"",""18166""
","
","","","","","","","","","","","","","","","","","","","","","",""
"d3-instructions","58","288296","0.0-58.0","3596","6339","14","Female","true","false","false","true","""event"",""trial"",""time""
""blur"",""1"",""2109""
""focus"",""1"",""8584""
""fullscreenenter"",""5"",""18166""
","""event"",""trial"",""time""
""blur"",""1"",""2109""
","""event"",""trial"",""time""
""focus"",""1"",""8584""
","""event"",""trial"",""time""
""fullscreenenter"",""5"",""18166""
","
","","","","","","","","","","","","","","","","","","","","","",""
"d3-instructions","59","292224","0.0-59.0","3596","6339","14","Female","true","false","false","true","""event"",""trial"",""time""
""blur"",""1"",""2109""
""focus"",""1"",""8584""
""fullscreenenter"",""5"",""18166""
","""event"",""trial"",""time""
""blur"",""1"",""2109""
","""event"",""trial"",""time""
""focus"",""1"",""8584""
","""event"",""trial"",""time""
""fullscreenenter"",""5"",""18166""
","
","","","","","","","","","","","","","","","","","","","","","",""
"d3-instructions","60","298201","0.0-60.0","3596","6339","14","Female","true","false","false","true","""event"",""trial"",""time""
""blur"",""1"",""2109""
""focus"",""1"",""8584""
""fullscreenenter"",""5"",""18166""
","""event"",""trial"",""time""
""blur"",""1"",""2109""
","""event"",""trial"",""time""
""focus"",""1"",""8584""
","""event"",""trial"",""time""
""fullscreenenter"",""5"",""18166""
","
","","","","","","","","","","","","","","","","","","","","","",""
"d3-animate-choice","61","301416","0.0-61.0-0.0","3596","6339","14","Female","true","false","false","true","""event"",""trial"",""time""
""blur"",""1"",""2109""
""focus"",""1"",""8584""
""fullscreenenter"",""5"",""18166""
","""event"",""trial"",""time""
""blur"",""1"",""2109""
","""event"",""trial"",""time""
""focus"",""1"",""8584""
","""event"",""trial"",""time""
""fullscreenenter"",""5"",""18166""
","
","1203.9000000953674","","48","","","3000","1","","","images/earth.jpg","images/tutrocket1","images/tutrocket2","null","images/tutrocket1","","1","practice","null","2","","",""
"d3-animate-choice","62","304596","0.0-61.0-1.0","3596","6339","14","Female","true","false","false","true","""event"",""trial"",""time""
""blur"",""1"",""2109""
""focus"",""1"",""8584""
""fullscreenenter"",""5"",""18166""
","""event"",""trial"",""time""
""blur"",""1"",""2109""
","""event"",""trial"",""time""
""focus"",""1"",""8584""
","""event"",""trial"",""time""
""fullscreenenter"",""5"",""18166""
","
","1172.5","","49","","","3000","1","","","images/tutyellowplanet.jpg","images/tutalien4","images/tutalien3","images/tutrocket1","images/tutalien3","images/nothing.png","2","practice","true","1","common","0","2023-02-20 21:41:27.037"
"two-step-fixation","63","305609","0.0-61.0-2.0","3596","6339","14","Female","true","false","false","true","""event"",""trial"",""time""
""blur"",""1"",""2109""
""focus"",""1"",""8584""
""fullscreenenter"",""5"",""18166""
","""event"",""trial"",""time""
""blur"",""1"",""2109""
","""event"",""trial"",""time""
""focus"",""1"",""8584""
","""event"",""trial"",""time""
""fullscreenenter"",""5"",""18166""
","
","","images/earth.jpg","","","","","","","","","","","","","","fixation","","","","","",""
"d3-animate-choice","64","308312","0.0-61.0-0.1","3596","6339","14","Female","true","false","false","true","""event"",""trial"",""time""
""blur"",""1"",""2109""
""focus"",""1"",""8584""
""fullscreenenter"",""5"",""18166""
","""event"",""trial"",""time""
""blur"",""1"",""2109""
","""event"",""trial"",""time""
""focus"",""1"",""8584""
","""event"",""trial"",""time""
""fullscreenenter"",""5"",""18166""
","
","685","","49","","","3000","1","","","images/earth.jpg","images/tutrocket1","images/tutrocket2","null","images/tutrocket2","","1","practice","null","1","","",""
"d3-animate-choice","65","311231","0.0-61.0-1.1","3596","6339","14","Female","true","false","false","true","""event"",""trial"",""time""
""blur"",""1"",""2109""
""focus"",""1"",""8584""
""fullscreenenter"",""5"",""18166""
","""event"",""trial"",""time""
""blur"",""1"",""2109""
","""event"",""trial"",""time""
""focus"",""1"",""8584""
","""event"",""trial"",""time""
""fullscreenenter"",""5"",""18166""
","
","901.3999999761581","","49","","","3000","1","","","images/tutyellowplanet.jpg","images/tutalien4","images/tutalien3","images/tutrocket2","images/tutalien3","images/nothing.png","2","practice","false","1","rare","0","2023-02-20 21:41:33.672"
"two-step-fixation","66","312251","0.0-61.0-2.1","3596","6339","14","Female","true","false","false","true","""event"",""trial"",""time""
""blur"",""1"",""2109""
""focus"",""1"",""8584""
""fullscreenenter"",""5"",""18166""
","""event"",""trial"",""time""
""blur"",""1"",""2109""
","""event"",""trial"",""time""
""focus"",""1"",""8584""
","""event"",""trial"",""time""
""fullscreenenter"",""5"",""18166""
","
","","images/earth.jpg","","","","","","","","","","","","","","fixation","","","","","",""
"d3-animate-choice","67","314725","0.0-61.0-0.2","3596","6339","14","Female","true","false","false","true","""event"",""trial"",""time""
""blur"",""1"",""2109""
""focus"",""1"",""8584""
""fullscreenenter"",""5"",""18166""
","""event"",""trial"",""time""
""blur"",""1"",""2109""
","""event"",""trial"",""time""
""focus"",""1"",""8584""
","""event"",""trial"",""time""
""fullscreenenter"",""5"",""18166""
","
","466.10000002384186","","48","","","3000","1","","","images/earth.jpg","images/tutrocket1","images/tutrocket2","null","images/tutrocket1","","1","practice","null","2","","",""
"d3-animate-choice","68","317732","0.0-61.0-1.2","3596","6339","14","Female","true","false","false","true","""event"",""trial"",""time""
""blur"",""1"",""2109""
""focus"",""1"",""8584""
""fullscreenenter"",""5"",""18166""
","""event"",""trial"",""time""
""blur"",""1"",""2109""
","""event"",""trial"",""time""
""focus"",""1"",""8584""
","""event"",""trial"",""time""
""fullscreenenter"",""5"",""18166""
","
","992.6000000238419","","49","","","3000","1","","","images/tutgreenplanet.jpg","images/tutalien2","images/tutalien1","images/tutrocket1","images/tutalien1","images/t.png","2","practice","false","1","rare","1","2023-02-20 21:41:40.173"
"two-step-fixation","69","318745","0.0-61.0-2.2","3596","6339","14","Female","true","false","false","true","""event"",""trial"",""time""
""blur"",""1"",""2109""
""focus"",""1"",""8584""
""fullscreenenter"",""5"",""18166""
","""event"",""trial"",""time""
""blur"",""1"",""2109""
","""event"",""trial"",""time""
""focus"",""1"",""8584""
","""event"",""trial"",""time""
""fullscreenenter"",""5"",""18166""
","
","","images/earth.jpg","","","","","","","","","","","","","","fixation","","","","","",""
"d3-animate-choice","70","321253","0.0-61.0-0.3","3596","6339","14","Female","true","false","false","true","""event"",""trial"",""time""
""blur"",""1"",""2109""
""focus"",""1"",""8584""
""fullscreenenter"",""5"",""18166""
","""event"",""trial"",""time""
""blur"",""1"",""2109""
","""event"",""trial"",""time""
""focus"",""1"",""8584""
","""event"",""trial"",""time""
""fullscreenenter"",""5"",""18166""
","
","493.5","","49","","","3000","1","","","images/earth.jpg","images/tutrocket1","images/tutrocket2","null","images/tutrocket2","","1","practice","null","1","","",""
"d3-animate-choice","71","324304","0.0-61.0-1.3","3596","6339","14","Female","true","false","false","true","""event"",""trial"",""time""
""blur"",""1"",""2109""
""focus"",""1"",""8584""
""fullscreenenter"",""5"",""18166""
","""event"",""trial"",""time""
""blur"",""1"",""2109""
","""event"",""trial"",""time""
""focus"",""1"",""8584""
","""event"",""trial"",""time""
""fullscreenenter"",""5"",""18166""
","
","1032.7999999523163","","48","","","3000","1","","","images/tutgreenplanet.jpg","images/tutalien2","images/tutalien1","images/tutrocket2","images/tutalien2","images/nothing.png","2","practice","true","2","common","0","2023-02-20 21:41:46.745"
"two-step-fixation","72","325318","0.0-61.0-2.3","3596","6339","14","Female","true","false","false","true","""event"",""trial"",""time""
""blur"",""1"",""2109""
""focus"",""1"",""8584""
""fullscreenenter"",""5"",""18166""
","""event"",""trial"",""time""
""blur"",""1"",""2109""
","""event"",""trial"",""time""
""focus"",""1"",""8584""
","""event"",""trial"",""time""
""fullscreenenter"",""5"",""18166""
","
","","images/earth.jpg","","","","","","","","","","","","","","fixation","","","","","",""
"d3-animate-choice","73","328241","0.0-61.0-0.4","3596","6339","14","Female","true","false","false","true","""event"",""trial"",""time""
""blur"",""1"",""2109""
""focus"",""1"",""8584""
""fullscreenenter"",""5"",""18166""
","""event"",""trial"",""time""
""blur"",""1"",""2109""
","""event"",""trial"",""time""
""focus"",""1"",""8584""
","""event"",""trial"",""time""
""fullscreenenter"",""5"",""18166""
","
","910.5","","48","","","3000","1","","","images/earth.jpg","images/tutrocket1","images/tutrocket2","null","images/tutrocket1","","1","practice","null","2","","",""
"d3-animate-choice","74","331313","0.0-61.0-1.4","3596","6339","14","Female","true","false","false","true","""event"",""trial"",""time""
""blur"",""1"",""2109""
""focus"",""1"",""8584""
""fullscreenenter"",""5"",""18166""
","""event"",""trial"",""time""
""blur"",""1"",""2109""
","""event"",""trial"",""time""
""focus"",""1"",""8584""
","""event"",""trial"",""time""
""fullscreenenter"",""5"",""18166""
","
","1060.8000000715256","","49","","","3000","1","","","images/tutgreenplanet.jpg","images/tutalien2","images/tutalien1","images/tutrocket1","images/tutalien1","images/t.png","2","practice","false","1","rare","1","2023-02-20 21:41:53.754"
"two-step-fixation","75","332320","0.0-61.0-2.4","3596","6339","14","Female","true","false","false","true","""event"",""trial"",""time""
""blur"",""1"",""2109""
""focus"",""1"",""8584""
""fullscreenenter"",""5"",""18166""
","""event"",""trial"",""time""
""blur"",""1"",""2109""
","""event"",""trial"",""time""
""focus"",""1"",""8584""
","""event"",""trial"",""time""
""fullscreenenter"",""5"",""18166""
","
","","images/earth.jpg","","","","","","","","","","","","","","fixation","","","","","",""
"d3-animate-choice","76","334785","0.0-61.0-0.5","3596","6339","14","Female","true","false","false","true","""event"",""trial"",""time""
""blur"",""1"",""2109""
""focus"",""1"",""8584""
""fullscreenenter"",""5"",""18166""
","""event"",""trial"",""time""
""blur"",""1"",""2109""
","""event"",""trial"",""time""
""focus"",""1"",""8584""
","""event"",""trial"",""time""
""fullscreenenter"",""5"",""18166""
","
","452.5","","49","","","3000","1","","","images/earth.jpg","images/tutrocket1","images/tutrocket2","null","images/tutrocket2","","1","practice","null","1","","",""
"d3-animate-choice","77","337440","0.0-61.0-1.5","3596","6339","14","Female","true","false","false","true","""event"",""trial"",""time""
""blur"",""1"",""2109""
""focus"",""1"",""8584""
""fullscreenenter"",""5"",""18166""
","""event"",""trial"",""time""
""blur"",""1"",""2109""
","""event"",""trial"",""time""
""focus"",""1"",""8584""
","""event"",""trial"",""time""
""fullscreenenter"",""5"",""18166""
","
","644.2000000476837","","48","","","3000","1","","","images/tutyellowplanet.jpg","images/tutalien4","images/tutalien3","images/tutrocket2","images/tutalien4","images/t.png","2","practice","false","2","rare","1","2023-02-20 21:41:59.881"
"two-step-fixation","78","338449","0.0-61.0-2.5","3596","6339","14","Female","true","false","false","true","""event"",""trial"",""time""
""blur"",""1"",""2109""
""focus"",""1"",""8584""
""fullscreenenter"",""5"",""18166""
","""event"",""trial"",""time""
""blur"",""1"",""2109""
","""event"",""trial"",""time""
""focus"",""1"",""8584""
","""event"",""trial"",""time""
""fullscreenenter"",""5"",""18166""
","
","","images/earth.jpg","","","","","","","","","","","","","","fixation","","","","","",""
"d3-animate-choice","79","340912","0.0-61.0-0.6","3596","6339","14","Female","true","false","false","true","""event"",""trial"",""time""
""blur"",""1"",""2109""
""focus"",""1"",""8584""
""fullscreenenter"",""5"",""18166""
","""event"",""trial"",""time""
""blur"",""1"",""2109""
","""event"",""trial"",""time""
""focus"",""1"",""8584""
","""event"",""trial"",""time""
""fullscreenenter"",""5"",""18166""
","
","453","","49","","","3000","1","","","images/earth.jpg","images/tutrocket1","images/tutrocket2","null","images/tutrocket2","","1","practice","null","1","","",""
"d3-animate-choice","80","343912","0.0-61.0-1.6","3596","6339","14","Female","true","false","false","true","""event"",""trial"",""time""
""blur"",""1"",""2109""
""focus"",""1"",""8584""
""fullscreenenter"",""5"",""18166""
","""event"",""trial"",""time""
""blur"",""1"",""2109""
","""event"",""trial"",""time""
""focus"",""1"",""8584""
","""event"",""trial"",""time""
""fullscreenenter"",""5"",""18166""
","
","989.7000000476837","","48","","","3000","1","","","images/tutgreenplanet.jpg","images/tutalien2","images/tutalien1","images/tutrocket2","images/tutalien2","images/t.png","2","practice","true","2","common","1","2023-02-20 21:42:06.353"
"two-step-fixation","81","344921","0.0-61.0-2.6","3596","6339","14","Female","true","false","false","true","""event"",""trial"",""time""
""blur"",""1"",""2109""
""focus"",""1"",""8584""
""fullscreenenter"",""5"",""18166""
","""event"",""trial"",""time""
""blur"",""1"",""2109""
","""event"",""trial"",""time""
""focus"",""1"",""8584""
","""event"",""trial"",""time""
""fullscreenenter"",""5"",""18166""
","
","","images/earth.jpg","","","","","","","","","","","","","","fixation","","","","","",""
"d3-animate-choice","82","347448","0.0-61.0-0.7","3596","6339","14","Female","true","false","false","true","""event"",""trial"",""time""
""blur"",""1"",""2109""
""focus"",""1"",""8584""
""fullscreenenter"",""5"",""18166""
","""event"",""trial"",""time""
""blur"",""1"",""2109""
","""event"",""trial"",""time""
""focus"",""1"",""8584""
","""event"",""trial"",""time""
""fullscreenenter"",""5"",""18166""
","
","516.1000000238419","","49","","","3000","1","","","images/earth.jpg","images/tutrocket1","images/tutrocket2","null","images/tutrocket2","","1","practice","null","1","","",""
"d3-animate-choice","83","350608","0.0-61.0-1.7","3596","6339","14","Female","true","false","false","true","""event"",""trial"",""time""
""blur"",""1"",""2109""
""focus"",""1"",""8584""
""fullscreenenter"",""5"",""18166""
","""event"",""trial"",""time""
""blur"",""1"",""2109""
","""event"",""trial"",""time""
""focus"",""1"",""8584""
","""event"",""trial"",""time""
""fullscreenenter"",""5"",""18166""
","
","1148.7999999523163","","48","","","3000","1","","","images/tutyellowplanet.jpg","images/tutalien4","images/tutalien3","images/tutrocket2","images/tutalien4","images/t.png","2","practice","false","2","rare","1","2023-02-20 21:42:13.049"
"two-step-fixation","84","351612","0.0-61.0-2.7","3596","6339","14","Female","true","false","false","true","""event"",""trial"",""time""
""blur"",""1"",""2109""
""focus"",""1"",""8584""
""fullscreenenter"",""5"",""18166""
","""event"",""trial"",""time""
""blur"",""1"",""2109""
","""event"",""trial"",""time""
""focus"",""1"",""8584""
","""event"",""trial"",""time""
""fullscreenenter"",""5"",""18166""
","
","","images/earth.jpg","","","","","","","","","","","","","","fixation","","","","","",""
"d3-animate-choice","85","354121","0.0-61.0-0.8","3596","6339","14","Female","true","false","false","true","""event"",""trial"",""time""
""blur"",""1"",""2109""
""focus"",""1"",""8584""
""fullscreenenter"",""5"",""18166""
","""event"",""trial"",""time""
""blur"",""1"",""2109""
","""event"",""trial"",""time""
""focus"",""1"",""8584""
","""event"",""trial"",""time""
""fullscreenenter"",""5"",""18166""
","
","496.89999997615814","","48","","","3000","1","","","images/earth.jpg","images/tutrocket1","images/tutrocket2","null","images/tutrocket1","","1","practice","null","2","","",""
"d3-animate-choice","86","357192","0.0-61.0-1.8","3596","6339","14","Female","true","false","false","true","""event"",""trial"",""time""
""blur"",""1"",""2109""
""focus"",""1"",""8584""
""fullscreenenter"",""5"",""18166""
","""event"",""trial"",""time""
""blur"",""1"",""2109""
","""event"",""trial"",""time""
""focus"",""1"",""8584""
","""event"",""trial"",""time""
""fullscreenenter"",""5"",""18166""
","
","1060.1999999284744","","48","","","3000","1","","","images/tutyellowplanet.jpg","images/tutalien4","images/tutalien3","images/tutrocket1","images/tutalien4","images/nothing.png","2","practice","true","2","common","0","2023-02-20 21:42:19.633"
"two-step-fixation","87","358200","0.0-61.0-2.8","3596","6339","14","Female","true","false","false","true","""event"",""trial"",""time""
""blur"",""1"",""2109""
""focus"",""1"",""8584""
""fullscreenenter"",""5"",""18166""
","""event"",""trial"",""time""
""blur"",""1"",""2109""
","""event"",""trial"",""time""
""focus"",""1"",""8584""
","""event"",""trial"",""time""
""fullscreenenter"",""5"",""18166""
","
","","images/earth.jpg","","","","","","","","","","","","","","fixation","","","","","",""
"d3-animate-choice","88","360769","0.0-61.0-0.9","3596","6339","14","Female","true","false","false","true","""event"",""trial"",""time""
""blur"",""1"",""2109""
""focus"",""1"",""8584""
""fullscreenenter"",""5"",""18166""
","""event"",""trial"",""time""
""blur"",""1"",""2109""
","""event"",""trial"",""time""
""focus"",""1"",""8584""
","""event"",""trial"",""time""
""fullscreenenter"",""5"",""18166""
","
","556.3999999761581","","48","","","3000","1","","","images/earth.jpg","images/tutrocket1","images/tutrocket2","null","images/tutrocket1","","1","practice","null","2","","",""
"d3-animate-choice","89","363577","0.0-61.0-1.9","3596","6339","14","Female","true","false","false","true","""event"",""trial"",""time""
""blur"",""1"",""2109""
""focus"",""1"",""8584""
""fullscreenenter"",""5"",""18166""
","""event"",""trial"",""time""
""blur"",""1"",""2109""
","""event"",""trial"",""time""
""focus"",""1"",""8584""
","""event"",""trial"",""time""
""fullscreenenter"",""5"",""18166""
","
","795.7999999523163","","48","","","3000","1","","","images/tutgreenplanet.jpg","images/tutalien2","images/tutalien1","images/tutrocket1","images/tutalien2","images/nothing.png","2","practice","false","2","rare","0","2023-02-20 21:42:26.018"
"two-step-fixation","90","364584","0.0-61.0-2.9","3596","6339","14","Female","true","false","false","true","""event"",""trial"",""time""
""blur"",""1"",""2109""
""focus"",""1"",""8584""
""fullscreenenter"",""5"",""18166""
","""event"",""trial"",""time""
""blur"",""1"",""2109""
","""event"",""trial"",""time""
""focus"",""1"",""8584""
","""event"",""trial"",""time""
""fullscreenenter"",""5"",""18166""
","
","","images/earth.jpg","","","","","","","","","","","","","","fixation","","","","","",""
"d3-animate-choice","91","367040","0.0-61.0-0.10","3596","6339","14","Female","true","false","false","true","""event"",""trial"",""time""
""blur"",""1"",""2109""
""focus"",""1"",""8584""
""fullscreenenter"",""5"",""18166""
","""event"",""trial"",""time""
""blur"",""1"",""2109""
","""event"",""trial"",""time""
""focus"",""1"",""8584""
","""event"",""trial"",""time""
""fullscreenenter"",""5"",""18166""
","
","444.5","","49","","","3000","1","","","images/earth.jpg","images/tutrocket1","images/tutrocket2","null","images/tutrocket2","","1","practice","null","1","","",""
"d3-animate-choice","92","369544","0.0-61.0-1.10","3596","6339","14","Female","true","false","false","true","""event"",""trial"",""time""
""blur"",""1"",""2109""
""focus"",""1"",""8584""
""fullscreenenter"",""5"",""18166""
","""event"",""trial"",""time""
""blur"",""1"",""2109""
","""event"",""trial"",""time""
""focus"",""1"",""8584""
","""event"",""trial"",""time""
""fullscreenenter"",""5"",""18166""
","
","493","","49","","","3000","1","","","images/tutyellowplanet.jpg","images/tutalien4","images/tutalien3","images/tutrocket2","images/tutalien3","images/nothing.png","2","practice","false","1","rare","0","2023-02-20 21:42:31.985"
"two-step-fixation","93","370553","0.0-61.0-2.10","3596","6339","14","Female","true","false","false","true","""event"",""trial"",""time""
""blur"",""1"",""2109""
""focus"",""1"",""8584""
""fullscreenenter"",""5"",""18166""
","""event"",""trial"",""time""
""blur"",""1"",""2109""
","""event"",""trial"",""time""
""focus"",""1"",""8584""
","""event"",""trial"",""time""
""fullscreenenter"",""5"",""18166""
","
","","images/earth.jpg","","","","","","","","","","","","","","fixation","","","","","",""
"d3-animate-choice","94","372991","0.0-61.0-0.11","3596","6339","14","Female","true","false","false","true","""event"",""trial"",""time""
""blur"",""1"",""2109""
""focus"",""1"",""8584""
""fullscreenenter"",""5"",""18166""
","""event"",""trial"",""time""
""blur"",""1"",""2109""
","""event"",""trial"",""time""
""focus"",""1"",""8584""
","""event"",""trial"",""time""
""fullscreenenter"",""5"",""18166""
","
","427.89999997615814","","48","","","3000","1","","","images/earth.jpg","images/tutrocket1","images/tutrocket2","null","images/tutrocket1","","1","practice","null","2","","",""
"d3-animate-choice","95","375536","0.0-61.0-1.11","3596","6339","14","Female","true","false","false","true","""event"",""trial"",""time""
""blur"",""1"",""2109""
""focus"",""1"",""8584""
""fullscreenenter"",""5"",""18166""
","""event"",""trial"",""time""
""blur"",""1"",""2109""
","""event"",""trial"",""time""
""focus"",""1"",""8584""
","""event"",""trial"",""time""
""fullscreenenter"",""5"",""18166""
","
","533.1999999284744","","48","","","3000","1","","","images/tutyellowplanet.jpg","images/tutalien4","images/tutalien3","images/tutrocket1","images/tutalien4","images/t.png","2","practice","true","2","common","1","2023-02-20 21:42:37.978"
"two-step-fixation","96","376545","0.0-61.0-2.11","3596","6339","14","Female","true","false","false","true","""event"",""trial"",""time""
""blur"",""1"",""2109""
""focus"",""1"",""8584""
""fullscreenenter"",""5"",""18166""
","""event"",""trial"",""time""
""blur"",""1"",""2109""
","""event"",""trial"",""time""
""focus"",""1"",""8584""
","""event"",""trial"",""time""
""fullscreenenter"",""5"",""18166""
","
","","images/earth.jpg","","","","","","","","","","","","","","fixation","","","","","",""
"d3-animate-choice","97","379128","0.0-61.0-0.12","3596","6339","14","Female","true","false","false","true","""event"",""trial"",""time""
""blur"",""1"",""2109""
""focus"",""1"",""8584""
""fullscreenenter"",""5"",""18166""
","""event"",""trial"",""time""
""blur"",""1"",""2109""
","""event"",""trial"",""time""
""focus"",""1"",""8584""
","""event"",""trial"",""time""
""fullscreenenter"",""5"",""18166""
","
","572","","49","","","3000","1","","","images/earth.jpg","images/tutrocket1","images/tutrocket2","null","images/tutrocket2","","1","practice","null","1","","",""
"d3-animate-choice","98","381873","0.0-61.0-1.12","3596","6339","14","Female","true","false","false","true","""event"",""trial"",""time""
""blur"",""1"",""2109""
""focus"",""1"",""8584""
""fullscreenenter"",""5"",""18166""
","""event"",""trial"",""time""
""blur"",""1"",""2109""
","""event"",""trial"",""time""
""focus"",""1"",""8584""
","""event"",""trial"",""time""
""fullscreenenter"",""5"",""18166""
","
","732.2000000476837","","49","","","3000","1","","","images/tutgreenplanet.jpg","images/tutalien2","images/tutalien1","images/tutrocket2","images/tutalien1","images/t.png","2","practice","true","1","common","1","2023-02-20 21:42:44.314"
"two-step-fixation","99","382880","0.0-61.0-2.12","3596","6339","14","Female","true","false","false","true","""event"",""trial"",""time""
""blur"",""1"",""2109""
""focus"",""1"",""8584""
""fullscreenenter"",""5"",""18166""
","""event"",""trial"",""time""
""blur"",""1"",""2109""
","""event"",""trial"",""time""
""focus"",""1"",""8584""
","""event"",""trial"",""time""
""fullscreenenter"",""5"",""18166""
","
","","images/earth.jpg","","","","","","","","","","","","","","fixation","","","","","",""
"d3-animate-choice","100","385248","0.0-61.0-0.13","3596","6339","14","Female","true","false","false","true","""event"",""trial"",""time""
""blur"",""1"",""2109""
""focus"",""1"",""8584""
""fullscreenenter"",""5"",""18166""
","""event"",""trial"",""time""
""blur"",""1"",""2109""
","""event"",""trial"",""time""
""focus"",""1"",""8584""
","""event"",""trial"",""time""
""fullscreenenter"",""5"",""18166""
","
","356.3000000715256","","49","","","3000","1","","","images/earth.jpg","images/tutrocket1","images/tutrocket2","null","images/tutrocket2","","1","practice","null","1","","",""
"d3-animate-choice","101","387841","0.0-61.0-1.13","3596","6339","14","Female","true","false","false","true","""event"",""trial"",""time""
""blur"",""1"",""2109""
""focus"",""1"",""8584""
""fullscreenenter"",""5"",""18166""
","""event"",""trial"",""time""
""blur"",""1"",""2109""
","""event"",""trial"",""time""
""focus"",""1"",""8584""
","""event"",""trial"",""time""
""fullscreenenter"",""5"",""18166""
","
","579.8999999761581","","49","","","3000","1","","","images/tutgreenplanet.jpg","images/tutalien2","images/tutalien1","images/tutrocket2","images/tutalien1","images/nothing.png","2","practice","true","1","common","0","2023-02-20 21:42:50.282"
"two-step-fixation","102","388848","0.0-61.0-2.13","3596","6339","14","Female","true","false","false","true","""event"",""trial"",""time""
""blur"",""1"",""2109""
""focus"",""1"",""8584""
""fullscreenenter"",""5"",""18166""
","""event"",""trial"",""time""
""blur"",""1"",""2109""
","""event"",""trial"",""time""
""focus"",""1"",""8584""
","""event"",""trial"",""time""
""fullscreenenter"",""5"",""18166""
","
","","images/earth.jpg","","","","","","","","","","","","","","fixation","","","","","",""
"d3-animate-choice","103","391273","0.0-61.0-0.14","3596","6339","14","Female","true","false","false","true","""event"",""trial"",""time""
""blur"",""1"",""2109""
""focus"",""1"",""8584""
""fullscreenenter"",""5"",""18166""
","""event"",""trial"",""time""
""blur"",""1"",""2109""
","""event"",""trial"",""time""
""focus"",""1"",""8584""
","""event"",""trial"",""time""
""fullscreenenter"",""5"",""18166""
","
","412.5","","48","","","3000","1","","","images/earth.jpg","images/tutrocket1","images/tutrocket2","null","images/tutrocket1","","1","practice","null","2","","",""
"d3-animate-choice","104","393832","0.0-61.0-1.14","3596","6339","14","Female","true","false","false","true","""event"",""trial"",""time""
""blur"",""1"",""2109""
""focus"",""1"",""8584""
""fullscreenenter"",""5"",""18166""
","""event"",""trial"",""time""
""blur"",""1"",""2109""
","""event"",""trial"",""time""
""focus"",""1"",""8584""
","""event"",""trial"",""time""
""fullscreenenter"",""5"",""18166""
","
","547.7000000476837","","48","","","3000","1","","","images/tutgreenplanet.jpg","images/tutalien2","images/tutalien1","images/tutrocket1","images/tutalien2","images/t.png","2","practice","false","2","rare","1","2023-02-20 21:42:56.273"
"two-step-fixation","105","394841","0.0-61.0-2.14","3596","6339","14","Female","true","false","false","true","""event"",""trial"",""time""
""blur"",""1"",""2109""
""focus"",""1"",""8584""
""fullscreenenter"",""5"",""18166""
","""event"",""trial"",""time""
""blur"",""1"",""2109""
","""event"",""trial"",""time""
""focus"",""1"",""8584""
","""event"",""trial"",""time""
""fullscreenenter"",""5"",""18166""
","
","","images/earth.jpg","","","","","","","","","","","","","","fixation","","","","","",""
"d3-animate-choice","106","397296","0.0-61.0-0.15","3596","6339","14","Female","true","false","false","true","""event"",""trial"",""time""
""blur"",""1"",""2109""
""focus"",""1"",""8584""
""fullscreenenter"",""5"",""18166""
","""event"",""trial"",""time""
""blur"",""1"",""2109""
","""event"",""trial"",""time""
""focus"",""1"",""8584""
","""event"",""trial"",""time""
""fullscreenenter"",""5"",""18166""
","
","443.7000000476837","","49","","","3000","1","","","images/earth.jpg","images/tutrocket1","images/tutrocket2","null","images/tutrocket2","","1","practice","null","1","","",""
"d3-animate-choice","107","399801","0.0-61.0-1.15","3596","6339","14","Female","true","false","false","true","""event"",""trial"",""time""
""blur"",""1"",""2109""
""focus"",""1"",""8584""
""fullscreenenter"",""5"",""18166""
","""event"",""trial"",""time""
""blur"",""1"",""2109""
","""event"",""trial"",""time""
""focus"",""1"",""8584""
","""event"",""trial"",""time""
""fullscreenenter"",""5"",""18166""
","
","492.5","","49","","","3000","1","","","images/tutyellowplanet.jpg","images/tutalien4","images/tutalien3","images/tutrocket2","images/tutalien3","images/t.png","2","practice","false","1","rare","1","2023-02-20 21:43:02.242"
"two-step-fixation","108","400809","0.0-61.0-2.15","3596","6339","14","Female","true","false","false","true","""event"",""trial"",""time""
""blur"",""1"",""2109""
""focus"",""1"",""8584""
""fullscreenenter"",""5"",""18166""
","""event"",""trial"",""time""
""blur"",""1"",""2109""
","""event"",""trial"",""time""
""focus"",""1"",""8584""
","""event"",""trial"",""time""
""fullscreenenter"",""5"",""18166""
","
","","images/earth.jpg","","","","","","","","","","","","","","fixation","","","","","",""
"d3-animate-choice","109","403336","0.0-61.0-0.16","3596","6339","14","Female","true","false","false","true","""event"",""trial"",""time""
""blur"",""1"",""2109""
""focus"",""1"",""8584""
""fullscreenenter"",""5"",""18166""
","""event"",""trial"",""time""
""blur"",""1"",""2109""
","""event"",""trial"",""time""
""focus"",""1"",""8584""
","""event"",""trial"",""time""
""fullscreenenter"",""5"",""18166""
","
","515.6000000238419","","48","","","3000","1","","","images/earth.jpg","images/tutrocket1","images/tutrocket2","null","images/tutrocket1","","1","practice","null","2","","",""
"d3-animate-choice","110","405841","0.0-61.0-1.16","3596","6339","14","Female","true","false","false","true","""event"",""trial"",""time""
""blur"",""1"",""2109""
""focus"",""1"",""8584""
""fullscreenenter"",""5"",""18166""
","""event"",""trial"",""time""
""blur"",""1"",""2109""
","""event"",""trial"",""time""
""focus"",""1"",""8584""
","""event"",""trial"",""time""
""fullscreenenter"",""5"",""18166""
","
","491.89999997615814","","48","","","3000","1","","","images/tutyellowplanet.jpg","images/tutalien4","images/tutalien3","images/tutrocket1","images/tutalien4","images/t.png","2","practice","true","2","common","1","2023-02-20 21:43:08.282"
"two-step-fixation","111","406848","0.0-61.0-2.16","3596","6339","14","Female","true","false","false","true","""event"",""trial"",""time""
""blur"",""1"",""2109""
""focus"",""1"",""8584""
""fullscreenenter"",""5"",""18166""
","""event"",""trial"",""time""
""blur"",""1"",""2109""
","""event"",""trial"",""time""
""focus"",""1"",""8584""
","""event"",""trial"",""time""
""fullscreenenter"",""5"",""18166""
","
","","images/earth.jpg","","","","","","","","","","","","","","fixation","","","","","",""
"d3-animate-choice","112","409296","0.0-61.0-0.17","3596","6339","14","Female","true","false","false","true","""event"",""trial"",""time""
""blur"",""1"",""2109""
""focus"",""1"",""8584""
""fullscreenenter"",""5"",""18166""
","""event"",""trial"",""time""
""blur"",""1"",""2109""
","""event"",""trial"",""time""
""focus"",""1"",""8584""
","""event"",""trial"",""time""
""fullscreenenter"",""5"",""18166""
","
","435.6999999284744","","48","","","3000","1","","","images/earth.jpg","images/tutrocket1","images/tutrocket2","null","images/tutrocket1","","1","practice","null","2","","",""
"d3-animate-choice","113","411776","0.0-61.0-1.17","3596","6339","14","Female","true","false","false","true","""event"",""trial"",""time""
""blur"",""1"",""2109""
""focus"",""1"",""8584""
""fullscreenenter"",""5"",""18166""
","""event"",""trial"",""time""
""blur"",""1"",""2109""
","""event"",""trial"",""time""
""focus"",""1"",""8584""
","""event"",""trial"",""time""
""fullscreenenter"",""5"",""18166""
","
","468.6999999284744","","48","","","3000","1","","","images/tutyellowplanet.jpg","images/tutalien4","images/tutalien3","images/tutrocket1","images/tutalien4","images/t.png","2","practice","true","2","common","1","2023-02-20 21:43:14.217"
"two-step-fixation","114","412784","0.0-61.0-2.17","3596","6339","14","Female","true","false","false","true","""event"",""trial"",""time""
""blur"",""1"",""2109""
""focus"",""1"",""8584""
""fullscreenenter"",""5"",""18166""
","""event"",""trial"",""time""
""blur"",""1"",""2109""
","""event"",""trial"",""time""
""focus"",""1"",""8584""
","""event"",""trial"",""time""
""fullscreenenter"",""5"",""18166""
","
","","images/earth.jpg","","","","","","","","","","","","","","fixation","","","","","",""
"d3-animate-choice","115","415136","0.0-61.0-0.18","3596","6339","14","Female","true","false","false","true","""event"",""trial"",""time""
""blur"",""1"",""2109""
""focus"",""1"",""8584""
""fullscreenenter"",""5"",""18166""
","""event"",""trial"",""time""
""blur"",""1"",""2109""
","""event"",""trial"",""time""
""focus"",""1"",""8584""
","""event"",""trial"",""time""
""fullscreenenter"",""5"",""18166""
","
","341.09999990463257","","49","","","3000","1","","","images/earth.jpg","images/tutrocket1","images/tutrocket2","null","images/tutrocket2","","1","practice","null","1","","",""
"d3-animate-choice","116","418240","0.0-61.0-1.18","3596","6339","14","Female","true","false","false","true","""event"",""trial"",""time""
""blur"",""1"",""2109""
""focus"",""1"",""8584""
""fullscreenenter"",""5"",""18166""
","""event"",""trial"",""time""
""blur"",""1"",""2109""
","""event"",""trial"",""time""
""focus"",""1"",""8584""
","""event"",""trial"",""time""
""fullscreenenter"",""5"",""18166""
","
","1092.1000000238419","","49","","","3000","1","","","images/tutyellowplanet.jpg","images/tutalien4","images/tutalien3","images/tutrocket2","images/tutalien3","images/nothing.png","2","practice","false","1","rare","0","2023-02-20 21:43:20.681"
"two-step-fixation","117","419246","0.0-61.0-2.18","3596","6339","14","Female","true","false","false","true","""event"",""trial"",""time""
""blur"",""1"",""2109""
""focus"",""1"",""8584""
""fullscreenenter"",""5"",""18166""
","""event"",""trial"",""time""
""blur"",""1"",""2109""
","""event"",""trial"",""time""
""focus"",""1"",""8584""
","""event"",""trial"",""time""
""fullscreenenter"",""5"",""18166""
","
","","images/earth.jpg","","","","","","","","","","","","","","fixation","","","","","",""
"d3-animate-choice","118","421664","0.0-61.0-0.19","3596","6339","14","Female","true","false","false","true","""event"",""trial"",""time""
""blur"",""1"",""2109""
""focus"",""1"",""8584""
""fullscreenenter"",""5"",""18166""
","""event"",""trial"",""time""
""blur"",""1"",""2109""
","""event"",""trial"",""time""
""focus"",""1"",""8584""
","""event"",""trial"",""time""
""fullscreenenter"",""5"",""18166""
","
","405.90000009536743","","48","","","3000","1","","","images/earth.jpg","images/tutrocket1","images/tutrocket2","null","images/tutrocket1","","1","practice","null","2","","",""
"d3-animate-choice","119","424408","0.0-61.0-1.19","3596","6339","14","Female","true","false","false","true","""event"",""trial"",""time""
""blur"",""1"",""2109""
""focus"",""1"",""8584""
""fullscreenenter"",""5"",""18166""
","""event"",""trial"",""time""
""blur"",""1"",""2109""
","""event"",""trial"",""time""
""focus"",""1"",""8584""
","""event"",""trial"",""time""
""fullscreenenter"",""5"",""18166""
","
","732.2000000476837","","48","","","3000","1","","","images/tutgreenplanet.jpg","images/tutalien2","images/tutalien1","images/tutrocket1","images/tutalien2","images/t.png","2","practice","false","2","rare","1","2023-02-20 21:43:26.849"
"two-step-fixation","120","425417","0.0-61.0-2.19","3596","6339","14","Female","true","false","false","true","""event"",""trial"",""time""
""blur"",""1"",""2109""
""focus"",""1"",""8584""
""fullscreenenter"",""5"",""18166""
","""event"",""trial"",""time""
""blur"",""1"",""2109""
","""event"",""trial"",""time""
""focus"",""1"",""8584""
","""event"",""trial"",""time""
""fullscreenenter"",""5"",""18166""
","
","","images/earth.jpg","","","","","","","","","","","","","","fixation","","","","","",""
"d3-instructions","121","431399","0.0-62.0","3596","6339","14","Female","true","false","false","true","""event"",""trial"",""time""
""blur"",""1"",""2109""
""focus"",""1"",""8584""
""fullscreenenter"",""5"",""18166""
","""event"",""trial"",""time""
""blur"",""1"",""2109""
","""event"",""trial"",""time""
""focus"",""1"",""8584""
","""event"",""trial"",""time""
""fullscreenenter"",""5"",""18166""
","
","","","","","","","","","","","","","","","","","","","","","",""
"audio-keyboard-response","122","436055","0.0-63.0","3596","6339","14","Female","true","false","false","true","""event"",""trial"",""time""
""blur"",""1"",""2109""
""focus"",""1"",""8584""
""fullscreenenter"",""5"",""18166""
","""event"",""trial"",""time""
""blur"",""1"",""2109""
","""event"",""trial"",""time""
""focus"",""1"",""8584""
","""event"",""trial"",""time""
""fullscreenenter"",""5"",""18166""
","
","4651","audio/instructions/treasure_feedback.wav","32","","","","","","","","","","","","","","","","","","",""
"d3-instructions","123","447598","0.0-64.0","3596","6339","14","Female","true","false","false","true","""event"",""trial"",""time""
""blur"",""1"",""2109""
""focus"",""1"",""8584""
""fullscreenenter"",""5"",""18166""
","""event"",""trial"",""time""
""blur"",""1"",""2109""
","""event"",""trial"",""time""
""focus"",""1"",""8584""
","""event"",""trial"",""time""
""fullscreenenter"",""5"",""18166""
","
","","","","","","","","","","","","","","","","","","","","","",""
"d3-instructions","124","460703","0.0-65.0","3596","6339","14","Female","true","false","false","true","""event"",""trial"",""time""
""blur"",""1"",""2109""
""focus"",""1"",""8584""
""fullscreenenter"",""5"",""18166""
","""event"",""trial"",""time""
""blur"",""1"",""2109""
","""event"",""trial"",""time""
""focus"",""1"",""8584""
","""event"",""trial"",""time""
""fullscreenenter"",""5"",""18166""
","
","","","","","","","","","","","","","","","","","","","","","",""
"d3-instructions","125","473295","0.0-66.0","3596","6339","14","Female","true","false","false","true","""event"",""trial"",""time""
""blur"",""1"",""2109""
""focus"",""1"",""8584""
""fullscreenenter"",""5"",""18166""
","""event"",""trial"",""time""
""blur"",""1"",""2109""
","""event"",""trial"",""time""
""focus"",""1"",""8584""
","""event"",""trial"",""time""
""fullscreenenter"",""5"",""18166""
","
","","","","","","","","","","","","","","","","","","","","","",""
"d3-instructions","126","483214","0.0-67.0","3596","6339","14","Female","true","false","false","true","""event"",""trial"",""time""
""blur"",""1"",""2109""
""focus"",""1"",""8584""
""fullscreenenter"",""5"",""18166""
","""event"",""trial"",""time""
""blur"",""1"",""2109""
","""event"",""trial"",""time""
""focus"",""1"",""8584""
","""event"",""trial"",""time""
""fullscreenenter"",""5"",""18166""
","
","","","","","","","","","","","","","","","","","","","","","",""
"d3-instructions","127","486589","0.0-68.0","3596","6339","14","Female","true","false","false","true","""event"",""trial"",""time""
""blur"",""1"",""2109""
""focus"",""1"",""8584""
""fullscreenenter"",""5"",""18166""
","""event"",""trial"",""time""
""blur"",""1"",""2109""
","""event"",""trial"",""time""
""focus"",""1"",""8584""
","""event"",""trial"",""time""
""fullscreenenter"",""5"",""18166""
","
","","","","","","","","","","","","","","","","","","","","","",""
"instructions-quiz","128","489718","0.0-69.0","3596","6339","14","Female","true","false","false","true","""event"",""trial"",""time""
""blur"",""1"",""2109""
""focus"",""1"",""8584""
""fullscreenenter"",""5"",""18166""
","""event"",""trial"",""time""
""blur"",""1"",""2109""
","""event"",""trial"",""time""
""focus"",""1"",""8584""
","""event"",""trial"",""time""
""fullscreenenter"",""5"",""18166""
","
","3126.399999976158","audio/quiz/Q1_Prompt.wav","","1","","","","","","","","","","","","","","","","","",""
"audio-keyboard-response","129","491101","0.0-70.0","3596","6339","14","Female","true","false","false","true","""event"",""trial"",""time""
""blur"",""1"",""2109""
""focus"",""1"",""8584""
""fullscreenenter"",""5"",""18166""
","""event"",""trial"",""time""
""blur"",""1"",""2109""
","""event"",""trial"",""time""
""focus"",""1"",""8584""
","""event"",""trial"",""time""
""fullscreenenter"",""5"",""18166""
","
","1381","audio/quiz/Q1_Correct.wav","32","","","","","","","","","","","","","","","","","","",""
"instructions-quiz","130","494310","0.0-71.0","3596","6339","14","Female","true","false","false","true","""event"",""trial"",""time""
""blur"",""1"",""2109""
""focus"",""1"",""8584""
""fullscreenenter"",""5"",""18166""
","""event"",""trial"",""time""
""blur"",""1"",""2109""
","""event"",""trial"",""time""
""focus"",""1"",""8584""
","""event"",""trial"",""time""
""fullscreenenter"",""5"",""18166""
","
","3206.600000023842","audio/quiz/Q2_Prompt.wav","","0","","","","","","","","","","","","","","","","","",""
"audio-keyboard-response","131","496086","0.0-72.0","3596","6339","14","Female","true","false","false","true","""event"",""trial"",""time""
""blur"",""1"",""2109""
""focus"",""1"",""8584""
""fullscreenenter"",""5"",""18166""
","""event"",""trial"",""time""
""blur"",""1"",""2109""
","""event"",""trial"",""time""
""focus"",""1"",""8584""
","""event"",""trial"",""time""
""fullscreenenter"",""5"",""18166""
","
","1768","audio/quiz/Q2_Correct.wav","32","","","","","","","","","","","","","","","","","","",""
"instructions-quiz","132","498326","0.0-73.0","3596","6339","14","Female","true","false","false","true","""event"",""trial"",""time""
""blur"",""1"",""2109""
""focus"",""1"",""8584""
""fullscreenenter"",""5"",""18166""
","""event"",""trial"",""time""
""blur"",""1"",""2109""
","""event"",""trial"",""time""
""focus"",""1"",""8584""
","""event"",""trial"",""time""
""fullscreenenter"",""5"",""18166""
","
","2238.2999999523163","audio/quiz/Q3_Prompt.wav","","1","","","","","","","","","","","","","","","","","",""
"audio-keyboard-response","133","503766","0.0-74.0","3596","6339","14","Female","true","false","false","true","""event"",""trial"",""time""
""blur"",""1"",""2109""
""focus"",""1"",""8584""
""fullscreenenter"",""5"",""18166""
","""event"",""trial"",""time""
""blur"",""1"",""2109""
","""event"",""trial"",""time""
""focus"",""1"",""8584""
","""event"",""trial"",""time""
""fullscreenenter"",""5"",""18166""
","
","5429","audio/quiz/Q3_Correct.wav","32","","","","","","","","","","","","","","","","","","",""
"d3-instructions","134","514902","0.0-75.0","3596","6339","14","Female","true","false","false","true","""event"",""trial"",""time""
""blur"",""1"",""2109""
""focus"",""1"",""8584""
""fullscreenenter"",""5"",""18166""
","""event"",""trial"",""time""
""blur"",""1"",""2109""
","""event"",""trial"",""time""
""focus"",""1"",""8584""
","""event"",""trial"",""time""
""fullscreenenter"",""5"",""18166""
","
","","","","","","","","","","","","","","","","","","","","","",""
"pavlovia","135","514907","0.0-76.0","3596","6339","14","Female","true","false","false","true","""event"",""trial"",""time""
""blur"",""1"",""2109""
""focus"",""1"",""8584""
""fullscreenenter"",""5"",""18166""
","""event"",""trial"",""time""
""blur"",""1"",""2109""
","""event"",""trial"",""time""
""focus"",""1"",""8584""
","""event"",""trial"",""time""
""fullscreenenter"",""5"",""18166""
","
","","","","","","","","","","","","","","","","","","","","","",""
"d3-animate-choice","136","518056","0.0-77.0-0.0","3596","6339","14","Female","true","false","false","true","""event"",""trial"",""time""
""blur"",""1"",""2109""
""focus"",""1"",""8584""
""fullscreenenter"",""5"",""18166""
","""event"",""trial"",""time""
""blur"",""1"",""2109""
","""event"",""trial"",""time""
""focus"",""1"",""8584""
","""event"",""trial"",""time""
""fullscreenenter"",""5"",""18166""
","
","1142.3000000715256","","48","","","3000","1","","","images/earth.jpg","images/rocket2","images/rocket1","null","images/rocket2","","1","real","null","2","","",""
"d3-animate-choice","137","520775","0.0-77.0-1.0","3596","6339","14","Female","true","false","false","true","""event"",""trial"",""time""
""blur"",""1"",""2109""
""focus"",""1"",""8584""
""fullscreenenter"",""5"",""18166""
","""event"",""trial"",""time""
""blur"",""1"",""2109""
","""event"",""trial"",""time""
""focus"",""1"",""8584""
","""event"",""trial"",""time""
""fullscreenenter"",""5"",""18166""
","
","714.2000000476837","","48","","","3000","1","","","images/redplanet1.jpg","images/alien2","images/alien1","images/rocket2","images/alien2","images/t.png","2","real","true","2","common","1","2023-02-20 21:45:03.217"
"two-step-fixation","138","521779","0.0-77.0-2.0","3596","6339","14","Female","true","false","false","true","""event"",""trial"",""time""
""blur"",""1"",""2109""
""focus"",""1"",""8584""
""fullscreenenter"",""5"",""18166""
","""event"",""trial"",""time""
""blur"",""1"",""2109""
","""event"",""trial"",""time""
""focus"",""1"",""8584""
","""event"",""trial"",""time""
""fullscreenenter"",""5"",""18166""
","
","","images/earth.jpg","","","","","","","","","","","","","","fixation","","","","","",""
"d3-animate-choice","139","524199","0.0-77.0-0.1","3596","6339","14","Female","true","false","false","true","""event"",""trial"",""time""
""blur"",""1"",""2109""
""focus"",""1"",""8584""
""fullscreenenter"",""5"",""18166""
","""event"",""trial"",""time""
""blur"",""1"",""2109""
","""event"",""trial"",""time""
""focus"",""1"",""8584""
","""event"",""trial"",""time""
""fullscreenenter"",""5"",""18166""
","
","414.90000009536743","","49","","","3000","1","","","images/earth.jpg","images/rocket2","images/rocket1","null","images/rocket1","","1","real","null","1","","",""
"d3-animate-choice","140","526664","0.0-77.0-1.1","3596","6339","14","Female","true","false","false","true","""event"",""trial"",""time""
""blur"",""1"",""2109""
""focus"",""1"",""8584""
""fullscreenenter"",""5"",""18166""
","""event"",""trial"",""time""
""blur"",""1"",""2109""
","""event"",""trial"",""time""
""focus"",""1"",""8584""
","""event"",""trial"",""time""
""fullscreenenter"",""5"",""18166""
","
","459.2000000476837","","49","","","3000","1","","","images/purpleplanet.jpg","images/alien4","images/alien3","images/rocket1","images/alien3","images/nothing.png","2","real","true","1","common","0","2023-02-20 21:45:09.105"
"two-step-fixation","141","527679","0.0-77.0-2.1","3596","6339","14","Female","true","false","false","true","""event"",""trial"",""time""
""blur"",""1"",""2109""
""focus"",""1"",""8584""
""fullscreenenter"",""5"",""18166""
","""event"",""trial"",""time""
""blur"",""1"",""2109""
","""event"",""trial"",""time""
""focus"",""1"",""8584""
","""event"",""trial"",""time""
""fullscreenenter"",""5"",""18166""
","
","","images/earth.jpg","","","","","","","","","","","","","","fixation","","","","","",""
"d3-animate-choice","142","530048","0.0-77.0-0.2","3596","6339","14","Female","true","false","false","true","""event"",""trial"",""time""
""blur"",""1"",""2109""
""focus"",""1"",""8584""
""fullscreenenter"",""5"",""18166""
","""event"",""trial"",""time""
""blur"",""1"",""2109""
","""event"",""trial"",""time""
""focus"",""1"",""8584""
","""event"",""trial"",""time""
""fullscreenenter"",""5"",""18166""
","
","363","","49","","","3000","1","","","images/earth.jpg","images/rocket2","images/rocket1","null","images/rocket1","","1","real","null","1","","",""
"d3-animate-choice","143","532693","0.0-77.0-1.2","3596","6339","14","Female","true","false","false","true","""event"",""trial"",""time""
""blur"",""1"",""2109""
""focus"",""1"",""8584""
""fullscreenenter"",""5"",""18166""
","""event"",""trial"",""time""
""blur"",""1"",""2109""
","""event"",""trial"",""time""
""focus"",""1"",""8584""
","""event"",""trial"",""time""
""fullscreenenter"",""5"",""18166""
","
","634.2000000476837","","49","","","3000","1","","","images/purpleplanet.jpg","images/alien4","images/alien3","images/rocket1","images/alien3","images/nothing.png","2","real","true","1","common","0","2023-02-20 21:45:15.134"
"two-step-fixation","144","533704","0.0-77.0-2.2","3596","6339","14","Female","true","false","false","true","""event"",""trial"",""time""
""blur"",""1"",""2109""
""focus"",""1"",""8584""
""fullscreenenter"",""5"",""18166""
","""event"",""trial"",""time""
""blur"",""1"",""2109""
","""event"",""trial"",""time""
""focus"",""1"",""8584""
","""event"",""trial"",""time""
""fullscreenenter"",""5"",""18166""
","
","","images/earth.jpg","","","","","","","","","","","","","","fixation","","","","","",""
"d3-animate-choice","145","536160","0.0-77.0-0.3","3596","6339","14","Female","true","false","false","true","""event"",""trial"",""time""
""blur"",""1"",""2109""
""focus"",""1"",""8584""
""fullscreenenter"",""5"",""18166""
","""event"",""trial"",""time""
""blur"",""1"",""2109""
","""event"",""trial"",""time""
""focus"",""1"",""8584""
","""event"",""trial"",""time""
""fullscreenenter"",""5"",""18166""
","
","450.39999997615814","","48","","","3000","1","","","images/earth.jpg","images/rocket2","images/rocket1","null","images/rocket2","","1","real","null","2","","",""
"d3-animate-choice","146","538632","0.0-77.0-1.3","3596","6339","14","Female","true","false","false","true","""event"",""trial"",""time""
""blur"",""1"",""2109""
""focus"",""1"",""8584""
""fullscreenenter"",""5"",""18166""
","""event"",""trial"",""time""
""blur"",""1"",""2109""
","""event"",""trial"",""time""
""focus"",""1"",""8584""
","""event"",""trial"",""time""
""fullscreenenter"",""5"",""18166""
","
","466.39999997615814","","48","","","3000","1","","","images/redplanet1.jpg","images/alien2","images/alien1","images/rocket2","images/alien2","images/t.png","2","real","true","2","common","1","2023-02-20 21:45:21.073"
"two-step-fixation","147","539640","0.0-77.0-2.3","3596","6339","14","Female","true","false","false","true","""event"",""trial"",""time""
""blur"",""1"",""2109""
""focus"",""1"",""8584""
""fullscreenenter"",""5"",""18166""
","""event"",""trial"",""time""
""blur"",""1"",""2109""
","""event"",""trial"",""time""
""focus"",""1"",""8584""
","""event"",""trial"",""time""
""fullscreenenter"",""5"",""18166""
","
","","images/earth.jpg","","","","","","","","","","","","","","fixation","","","","","",""
"d3-animate-choice","148","542063","0.0-77.0-0.4","3596","6339","14","Female","true","false","false","true","""event"",""trial"",""time""
""blur"",""1"",""2109""
""focus"",""1"",""8584""
""fullscreenenter"",""5"",""18166""
","""event"",""trial"",""time""
""blur"",""1"",""2109""
","""event"",""trial"",""time""
""focus"",""1"",""8584""
","""event"",""trial"",""time""
""fullscreenenter"",""5"",""18166""
","
","418.5","","49","","","3000","1","","","images/earth.jpg","images/rocket2","images/rocket1","null","images/rocket1","","1","real","null","1","","",""
"d3-animate-choice","149","545104","0.0-77.0-1.4","3596","6339","14","Female","true","false","false","true","""event"",""trial"",""time""
""blur"",""1"",""2109""
""focus"",""1"",""8584""
""fullscreenenter"",""5"",""18166""
","""event"",""trial"",""time""
""blur"",""1"",""2109""
","""event"",""trial"",""time""
""focus"",""1"",""8584""
","""event"",""trial"",""time""
""fullscreenenter"",""5"",""18166""
","
","1035.7000000476837","","48","","","3000","1","","","images/redplanet1.jpg","images/alien2","images/alien1","images/rocket1","images/alien2","images/nothing.png","2","real","false","2","rare","0","2023-02-20 21:45:27.545"
"two-step-fixation","150","546111","0.0-77.0-2.4","3596","6339","14","Female","true","false","false","true","""event"",""trial"",""time""
""blur"",""1"",""2109""
""focus"",""1"",""8584""
""fullscreenenter"",""5"",""18166""
","""event"",""trial"",""time""
""blur"",""1"",""2109""
","""event"",""trial"",""time""
""focus"",""1"",""8584""
","""event"",""trial"",""time""
""fullscreenenter"",""5"",""18166""
","
","","images/earth.jpg","","","","","","","","","","","","","","fixation","","","","","",""
"d3-animate-choice","151","548736","0.0-77.0-0.5","3596","6339","14","Female","true","false","false","true","""event"",""trial"",""time""
""blur"",""1"",""2109""
""focus"",""1"",""8584""
""fullscreenenter"",""5"",""18166""
","""event"",""trial"",""time""
""blur"",""1"",""2109""
","""event"",""trial"",""time""
""focus"",""1"",""8584""
","""event"",""trial"",""time""
""fullscreenenter"",""5"",""18166""
","
","618.7999999523163","","49","","","3000","1","","","images/earth.jpg","images/rocket2","images/rocket1","null","images/rocket1","","1","real","null","1","","",""
"d3-animate-choice","152","551647","0.0-77.0-1.5","3596","6339","14","Female","true","false","false","true","""event"",""trial"",""time""
""blur"",""1"",""2109""
""focus"",""1"",""8584""
""fullscreenenter"",""5"",""18166""
","""event"",""trial"",""time""
""blur"",""1"",""2109""
","""event"",""trial"",""time""
""focus"",""1"",""8584""
","""event"",""trial"",""time""
""fullscreenenter"",""5"",""18166""
","
","906.1999999284744","","49","","","3000","1","","","images/redplanet1.jpg","images/alien2","images/alien1","images/rocket1","images/alien1","images/t.png","2","real","false","1","rare","1","2023-02-20 21:45:34.088"
"two-step-fixation","153","552656","0.0-77.0-2.5","3596","6339","14","Female","true","false","false","true","""event"",""trial"",""time""
""blur"",""1"",""2109""
""focus"",""1"",""8584""
""fullscreenenter"",""5"",""18166""
","""event"",""trial"",""time""
""blur"",""1"",""2109""
","""event"",""trial"",""time""
""focus"",""1"",""8584""
","""event"",""trial"",""time""
""fullscreenenter"",""5"",""18166""
","
","","images/earth.jpg","","","","","","","","","","","","","","fixation","","","","","",""
"d3-animate-choice","154","555160","0.0-77.0-0.6","3596","6339","14","Female","true","false","false","true","""event"",""trial"",""time""
""blur"",""1"",""2109""
""focus"",""1"",""8584""
""fullscreenenter"",""5"",""18166""
","""event"",""trial"",""time""
""blur"",""1"",""2109""
","""event"",""trial"",""time""
""focus"",""1"",""8584""
","""event"",""trial"",""time""
""fullscreenenter"",""5"",""18166""
","
","497.8000000715256","","49","","","3000","1","","","images/earth.jpg","images/rocket2","images/rocket1","null","images/rocket1","","1","real","null","1","","",""
"d3-animate-choice","155","558464","0.0-77.0-1.6","3596","6339","14","Female","true","false","false","true","""event"",""trial"",""time""
""blur"",""1"",""2109""
""focus"",""1"",""8584""
""fullscreenenter"",""5"",""18166""
","""event"",""trial"",""time""
""blur"",""1"",""2109""
","""event"",""trial"",""time""
""focus"",""1"",""8584""
","""event"",""trial"",""time""
""fullscreenenter"",""5"",""18166""
","
","1298.5","","48","","","3000","1","","","images/purpleplanet.jpg","images/alien4","images/alien3","images/rocket1","images/alien4","images/t.png","2","real","true","2","common","1","2023-02-20 21:45:40.905"
"two-step-fixation","156","559472","0.0-77.0-2.6","3596","6339","14","Female","true","false","false","true","""event"",""trial"",""time""
""blur"",""1"",""2109""
""focus"",""1"",""8584""
""fullscreenenter"",""5"",""18166""
","""event"",""trial"",""time""
""blur"",""1"",""2109""
","""event"",""trial"",""time""
""focus"",""1"",""8584""
","""event"",""trial"",""time""
""fullscreenenter"",""5"",""18166""
","
","","images/earth.jpg","","","","","","","","","","","","","","fixation","","","","","",""
"d3-animate-choice","157","561912","0.0-77.0-0.7","3596","6339","14","Female","true","false","false","true","""event"",""trial"",""time""
""blur"",""1"",""2109""
""focus"",""1"",""8584""
""fullscreenenter"",""5"",""18166""
","""event"",""trial"",""time""
""blur"",""1"",""2109""
","""event"",""trial"",""time""
""focus"",""1"",""8584""
","""event"",""trial"",""time""
""fullscreenenter"",""5"",""18166""
","
","433.40000009536743","","48","","","3000","1","","","images/earth.jpg","images/rocket2","images/rocket1","null","images/rocket2","","1","real","null","2","","",""
"d3-animate-choice","158","564496","0.0-77.0-1.7","3596","6339","14","Female","true","false","false","true","""event"",""trial"",""time""
""blur"",""1"",""2109""
""focus"",""1"",""8584""
""fullscreenenter"",""5"",""18166""
","""event"",""trial"",""time""
""blur"",""1"",""2109""
","""event"",""trial"",""time""
""focus"",""1"",""8584""
","""event"",""trial"",""time""
""fullscreenenter"",""5"",""18166""
","
","578","","49","","","3000","1","","","images/purpleplanet.jpg","images/alien4","images/alien3","images/rocket2","images/alien3","images/t.png","2","real","false","1","rare","1","2023-02-20 21:45:46.937"
"two-step-fixation","159","565503","0.0-77.0-2.7","3596","6339","14","Female","true","false","false","true","""event"",""trial"",""time""
""blur"",""1"",""2109""
""focus"",""1"",""8584""
""fullscreenenter"",""5"",""18166""
","""event"",""trial"",""time""
""blur"",""1"",""2109""
","""event"",""trial"",""time""
""focus"",""1"",""8584""
","""event"",""trial"",""time""
""fullscreenenter"",""5"",""18166""
","
","","images/earth.jpg","","","","","","","","","","","","","","fixation","","","","","",""
"d3-animate-choice","160","567895","0.0-77.0-0.8","3596","6339","14","Female","true","false","false","true","""event"",""trial"",""time""
""blur"",""1"",""2109""
""focus"",""1"",""8584""
""fullscreenenter"",""5"",""18166""
","""event"",""trial"",""time""
""blur"",""1"",""2109""
","""event"",""trial"",""time""
""focus"",""1"",""8584""
","""event"",""trial"",""time""
""fullscreenenter"",""5"",""18166""
","
","387","","49","","","3000","1","","","images/earth.jpg","images/rocket2","images/rocket1","null","images/rocket1","","1","real","null","1","","",""
"d3-animate-choice","161","570327","0.0-77.0-1.8","3596","6339","14","Female","true","false","false","true","""event"",""trial"",""time""
""blur"",""1"",""2109""
""focus"",""1"",""8584""
""fullscreenenter"",""5"",""18166""
","""event"",""trial"",""time""
""blur"",""1"",""2109""
","""event"",""trial"",""time""
""focus"",""1"",""8584""
","""event"",""trial"",""time""
""fullscreenenter"",""5"",""18166""
","
","427.2000000476837","","48","","","3000","1","","","images/purpleplanet.jpg","images/alien4","images/alien3","images/rocket1","images/alien4","images/t.png","2","real","true","2","common","1","2023-02-20 21:45:52.768"
"two-step-fixation","162","571335","0.0-77.0-2.8","3596","6339","14","Female","true","false","false","true","""event"",""trial"",""time""
""blur"",""1"",""2109""
""focus"",""1"",""8584""
""fullscreenenter"",""5"",""18166""
","""event"",""trial"",""time""
""blur"",""1"",""2109""
","""event"",""trial"",""time""
""focus"",""1"",""8584""
","""event"",""trial"",""time""
""fullscreenenter"",""5"",""18166""
","
","","images/earth.jpg","","","","","","","","","","","","","","fixation","","","","","",""
"d3-animate-choice","163","573759","0.0-77.0-0.9","3596","6339","14","Female","true","false","false","true","""event"",""trial"",""time""
""blur"",""1"",""2109""
""focus"",""1"",""8584""
""fullscreenenter"",""5"",""18166""
","""event"",""trial"",""time""
""blur"",""1"",""2109""
","""event"",""trial"",""time""
""focus"",""1"",""8584""
","""event"",""trial"",""time""
""fullscreenenter"",""5"",""18166""
","
","418.8000000715256","","48","","","3000","1","","","images/earth.jpg","images/rocket2","images/rocket1","null","images/rocket2","","1","real","null","2","","",""
"d3-animate-choice","164","576287","0.0-77.0-1.9","3596","6339","14","Female","true","false","false","true","""event"",""trial"",""time""
""blur"",""1"",""2109""
""focus"",""1"",""8584""
""fullscreenenter"",""5"",""18166""
","""event"",""trial"",""time""
""blur"",""1"",""2109""
","""event"",""trial"",""time""
""focus"",""1"",""8584""
","""event"",""trial"",""time""
""fullscreenenter"",""5"",""18166""
","
","522.7000000476837","","49","","","3000","1","","","images/redplanet1.jpg","images/alien2","images/alien1","images/rocket2","images/alien1","images/t.png","2","real","true","1","common","1","2023-02-20 21:45:58.728"
"two-step-fixation","165","577295","0.0-77.0-2.9","3596","6339","14","Female","true","false","false","true","""event"",""trial"",""time""
""blur"",""1"",""2109""
""focus"",""1"",""8584""
""fullscreenenter"",""5"",""18166""
","""event"",""trial"",""time""
""blur"",""1"",""2109""
","""event"",""trial"",""time""
""focus"",""1"",""8584""
","""event"",""trial"",""time""
""fullscreenenter"",""5"",""18166""
","
","","images/earth.jpg","","","","","","","","","","","","","","fixation","","","","","",""
"d3-animate-choice","166","579744","0.0-77.0-0.10","3596","6339","14","Female","true","false","false","true","""event"",""trial"",""time""
""blur"",""1"",""2109""
""focus"",""1"",""8584""
""fullscreenenter"",""5"",""18166""
","""event"",""trial"",""time""
""blur"",""1"",""2109""
","""event"",""trial"",""time""
""focus"",""1"",""8584""
","""event"",""trial"",""time""
""fullscreenenter"",""5"",""18166""
","
","443","","49","","","3000","1","","","images/earth.jpg","images/rocket2","images/rocket1","null","images/rocket1","","1","real","null","1","","",""
"d3-animate-choice","167","582256","0.0-77.0-1.10","3596","6339","14","Female","true","false","false","true","""event"",""trial"",""time""
""blur"",""1"",""2109""
""focus"",""1"",""8584""
""fullscreenenter"",""5"",""18166""
","""event"",""trial"",""time""
""blur"",""1"",""2109""
","""event"",""trial"",""time""
""focus"",""1"",""8584""
","""event"",""trial"",""time""
""fullscreenenter"",""5"",""18166""
","
","506.39999997615814","","48","","","3000","1","","","images/purpleplanet.jpg","images/alien4","images/alien3","images/rocket1","images/alien4","images/t.png","2","real","true","2","common","1","2023-02-20 21:46:04.697"
"two-step-fixation","168","583263","0.0-77.0-2.10","3596","6339","14","Female","true","false","false","true","""event"",""trial"",""time""
""blur"",""1"",""2109""
""focus"",""1"",""8584""
""fullscreenenter"",""5"",""18166""
","""event"",""trial"",""time""
""blur"",""1"",""2109""
","""event"",""trial"",""time""
""focus"",""1"",""8584""
","""event"",""trial"",""time""
""fullscreenenter"",""5"",""18166""
","
","","images/earth.jpg","","","","","","","","","","","","","","fixation","","","","","",""
"d3-animate-choice","169","585872","0.0-77.0-0.11","3596","6339","14","Female","true","false","false","true","""event"",""trial"",""time""
""blur"",""1"",""2109""
""focus"",""1"",""8584""
""fullscreenenter"",""5"",""18166""
","""event"",""trial"",""time""
""blur"",""1"",""2109""
","""event"",""trial"",""time""
""focus"",""1"",""8584""
","""event"",""trial"",""time""
""fullscreenenter"",""5"",""18166""
","
","602.2000000476837","","48","","","3000","1","","","images/earth.jpg","images/rocket2","images/rocket1","null","images/rocket2","","1","real","null","2","","",""
"d3-animate-choice","170","588368","0.0-77.0-1.11","3596","6339","14","Female","true","false","false","true","""event"",""trial"",""time""
""blur"",""1"",""2109""
""focus"",""1"",""8584""
""fullscreenenter"",""5"",""18166""
","""event"",""trial"",""time""
""blur"",""1"",""2109""
","""event"",""trial"",""time""
""focus"",""1"",""8584""
","""event"",""trial"",""time""
""fullscreenenter"",""5"",""18166""
","
","490","","49","","","3000","1","","","images/purpleplanet.jpg","images/alien4","images/alien3","images/rocket2","images/alien3","images/nothing.png","2","real","false","1","rare","0","2023-02-20 21:46:10.809"
"two-step-fixation","171","589376","0.0-77.0-2.11","3596","6339","14","Female","true","false","false","true","""event"",""trial"",""time""
""blur"",""1"",""2109""
""focus"",""1"",""8584""
""fullscreenenter"",""5"",""18166""
","""event"",""trial"",""time""
""blur"",""1"",""2109""
","""event"",""trial"",""time""
""focus"",""1"",""8584""
","""event"",""trial"",""time""
""fullscreenenter"",""5"",""18166""
","
","","images/earth.jpg","","","","","","","","","","","","","","fixation","","","","","",""
"d3-animate-choice","172","591912","0.0-77.0-0.12","3596","6339","14","Female","true","false","false","true","""event"",""trial"",""time""
""blur"",""1"",""2109""
""focus"",""1"",""8584""
""fullscreenenter"",""5"",""18166""
","""event"",""trial"",""time""
""blur"",""1"",""2109""
","""event"",""trial"",""time""
""focus"",""1"",""8584""
","""event"",""trial"",""time""
""fullscreenenter"",""5"",""18166""
","
","530.3999999761581","","48","","","3000","1","","","images/earth.jpg","images/rocket2","images/rocket1","null","images/rocket2","","1","real","null","2","","",""
"d3-animate-choice","173","594487","0.0-77.0-1.12","3596","6339","14","Female","true","false","false","true","""event"",""trial"",""time""
""blur"",""1"",""2109""
""focus"",""1"",""8584""
""fullscreenenter"",""5"",""18166""
","""event"",""trial"",""time""
""blur"",""1"",""2109""
","""event"",""trial"",""time""
""focus"",""1"",""8584""
","""event"",""trial"",""time""
""fullscreenenter"",""5"",""18166""
","
","569.2999999523163","","49","","","3000","1","","","images/purpleplanet.jpg","images/alien4","images/alien3","images/rocket2","images/alien3","images/t.png","2","real","false","1","rare","1","2023-02-20 21:46:16.929"
"two-step-fixation","174","595496","0.0-77.0-2.12","3596","6339","14","Female","true","false","false","true","""event"",""trial"",""time""
""blur"",""1"",""2109""
""focus"",""1"",""8584""
""fullscreenenter"",""5"",""18166""
","""event"",""trial"",""time""
""blur"",""1"",""2109""
","""event"",""trial"",""time""
""focus"",""1"",""8584""
","""event"",""trial"",""time""
""fullscreenenter"",""5"",""18166""
","
","","images/earth.jpg","","","","","","","","","","","","","","fixation","","","","","",""
"d3-animate-choice","175","598192","0.0-77.0-0.13","3596","6339","14","Female","true","false","false","true","""event"",""trial"",""time""
""blur"",""1"",""2109""
""focus"",""1"",""8584""
""fullscreenenter"",""5"",""18166""
","""event"",""trial"",""time""
""blur"",""1"",""2109""
","""event"",""trial"",""time""
""focus"",""1"",""8584""
","""event"",""trial"",""time""
""fullscreenenter"",""5"",""18166""
","
","689.3999999761581","","49","","","3000","1","","","images/earth.jpg","images/rocket2","images/rocket1","null","images/rocket1","","1","real","null","1","","",""
"d3-animate-choice","176","601057","0.0-77.0-1.13","3596","6339","14","Female","true","false","false","true","""event"",""trial"",""time""
""blur"",""1"",""2109""
""focus"",""1"",""8584""
""fullscreenenter"",""5"",""18166""
","""event"",""trial"",""time""
""blur"",""1"",""2109""
","""event"",""trial"",""time""
""focus"",""1"",""8584""
","""event"",""trial"",""time""
""fullscreenenter"",""5"",""18166""
","
","857.4000000953674","","48","","","3000","1","","","images/redplanet1.jpg","images/alien2","images/alien1","images/rocket1","images/alien2","images/t.png","2","real","false","2","rare","1","2023-02-20 21:46:23.498"
"two-step-fixation","177","602064","0.0-77.0-2.13","3596","6339","14","Female","true","false","false","true","""event"",""trial"",""time""
""blur"",""1"",""2109""
""focus"",""1"",""8584""
""fullscreenenter"",""5"",""18166""
","""event"",""trial"",""time""
""blur"",""1"",""2109""
","""event"",""trial"",""time""
""focus"",""1"",""8584""
","""event"",""trial"",""time""
""fullscreenenter"",""5"",""18166""
","
","","images/earth.jpg","","","","","","","","","","","","","","fixation","","","","","",""
"d3-animate-choice","178","604856","0.0-77.0-0.14","3596","6339","14","Female","true","false","false","true","""event"",""trial"",""time""
