"trial_type","trial_index","time_elapsed","internal_node_id","participant_id","subject_id","age","gender","rocket_sides","red_planet_first_rocket","red_display_order","purple_display_order","interactions","blur_events","focus_events","fullscreenenter_events","fullscreenexit_events","rt","stimulus","key_press","button_pressed","success","duration","valid_pressed","rts","keys","planet_text","right_text","left_text","center_text","chosen_text","reward_text","trial_stage","practice_trial","transition_type","choice","transition","reward","timestamp"
"pavlovia","0","6","0.0-0.0","923","681","13","Male","false","true","true","false","
","
","
","
","
","","","","","","","","","","","","","","","","","","","","","",""
"html-keyboard-response","1","4614","0.0-1.0","923","681","13","Male","false","true","true","false","
","
","
","
","
","4606.800000000745","Welcome! Press the space bar to begin.","32","","","","","","","","","","","","","","","","","","",""
"audio-keyboard-response","2","9353","0.0-2.0","923","681","13","Male","false","true","true","false","
","
","
","
","
","4171","audio/beep_loop.wav","32","","","","","","","","","","","","","","","","","","",""
"audio-button-response","3","11992","0.0-3.0","923","681","13","Male","false","true","true","false","
","
","
","
","
","NaN","audio/fish.mp3","","1","","","","","","","","","","","","","","","","","",""
"audio-button-response","4","15056","0.0-4.0","923","681","13","Male","false","true","true","false","""event"",""trial"",""time""
""fullscreenenter"",""5"",""18122""
","
","
","""event"",""trial"",""time""
""fullscreenenter"",""5"",""18122""
","
","NaN","audio/tiger.mp3","","4","","","","","","","","","","","","","","","","","",""
"fullscreen","5","19055","0.0-5.0","923","681","13","Male","false","true","true","false","""event"",""trial"",""time""
""fullscreenenter"",""5"",""18122""
","
","
","""event"",""trial"",""time""
""fullscreenenter"",""5"",""18122""
","
","","","","","true","","","","","","","","","","","","","","","","",""
"d3-instructions","6","33232","0.0-6.0","923","681","13","Male","false","true","true","false","""event"",""trial"",""time""
""fullscreenenter"",""5"",""18122""
","
","
","""event"",""trial"",""time""
""fullscreenenter"",""5"",""18122""
","
","","","","","","","","","","","","","","","","","","","","","",""
"d3-instructions","7","40320","0.0-7.0","923","681","13","Male","false","true","true","false","""event"",""trial"",""time""
""fullscreenenter"",""5"",""18122""
","
","
","""event"",""trial"",""time""
""fullscreenenter"",""5"",""18122""
","
","","","","","","","","","","","","","","","","","","","","","",""
"d3-instructions","8","45661","0.0-8.0","923","681","13","Male","false","true","true","false","""event"",""trial"",""time""
""fullscreenenter"",""5"",""18122""
","
","
","""event"",""trial"",""time""
""fullscreenenter"",""5"",""18122""
","
","","","","","","","","","","","","","","","","","","","","","",""
"d3-instructions","9","56567","0.0-9.0","923","681","13","Male","false","true","true","false","""event"",""trial"",""time""
""fullscreenenter"",""5"",""18122""
","
","
","""event"",""trial"",""time""
""fullscreenenter"",""5"",""18122""
","
","","","","","","","","","","","","","","","","","","","","","",""
"d3-instructions","10","64327","0.0-10.0","923","681","13","Male","false","true","true","false","""event"",""trial"",""time""
""fullscreenenter"",""5"",""18122""
","
","
","""event"",""trial"",""time""
""fullscreenenter"",""5"",""18122""
","
","","","","","","","","","","","","","","","","","","","","","",""
"d3-animate-choice","11","69828","0.0-11.0","923","681","13","Male","false","true","true","false","""event"",""trial"",""time""
""fullscreenenter"",""5"",""18122""
","
","
","""event"",""trial"",""time""
""fullscreenenter"",""5"",""18122""
","
","3489.89999999851","","49","","","3000","1","5253.89999999851","48","images/tutgreenplanet.jpg","images/tutalien1","images/tutalien2","null","images/tutalien2","","NA","practice","null","","","",""
"d3-animate-choice","12","73037","0.0-12.0","923","681","13","Male","false","true","true","false","""event"",""trial"",""time""
""fullscreenenter"",""5"",""18122""
","
","
","""event"",""trial"",""time""
""fullscreenenter"",""5"",""18122""
","
","1197.699999999255","","48","","","3000","1","","","images/tutgreenplanet.jpg","images/tutalien1","images/tutalien2","null","images/tutalien1","","NA","practice","null","","","",""
"d3-animate-choice","13","76511","0.0-13.0","923","681","13","Male","false","true","true","false","""event"",""trial"",""time""
""fullscreenenter"",""5"",""18122""
","
","
","""event"",""trial"",""time""
""fullscreenenter"",""5"",""18122""
","
","1461.9000000022352","","49","","","3000","1","","","images/tutgreenplanet.jpg","images/tutalien1","images/tutalien2","null","images/tutalien2","","NA","practice","null","","","",""
"d3-animate-choice","14","78951","0.0-14.0","923","681","13","Male","false","true","true","false","""event"",""trial"",""time""
""fullscreenenter"",""5"",""18122""
","
","
","""event"",""trial"",""time""
""fullscreenenter"",""5"",""18122""
","
","420.30000000074506","","49","","","3000","1","2306.89999999851","48","images/tutgreenplanet.jpg","images/tutalien1","images/tutalien2","null","images/tutalien2","","NA","practice","null","","","",""
"d3-instructions","15","88431","0.0-15.0","923","681","13","Male","false","true","true","false","""event"",""trial"",""time""
""fullscreenenter"",""5"",""18122""
","
","
","""event"",""trial"",""time""
""fullscreenenter"",""5"",""18122""
","
","","","","","","","","","","","","","","","","","","","","","",""
"d3-instructions","16","96208","0.0-16.0","923","681","13","Male","false","true","true","false","""event"",""trial"",""time""
""fullscreenenter"",""5"",""18122""
","
","
","""event"",""trial"",""time""
""fullscreenenter"",""5"",""18122""
","
","","","","","","","","","","","","","","","","","","","","","",""
"d3-instructions","17","103879","0.0-17.0","923","681","13","Male","false","true","true","false","""event"",""trial"",""time""
""fullscreenenter"",""5"",""18122""
","
","
","""event"",""trial"",""time""
""fullscreenenter"",""5"",""18122""
","
","","","","","","","","","","","","","","","","","","","","","",""
"d3-instructions","18","109072","0.0-18.0","923","681","13","Male","false","true","true","false","""event"",""trial"",""time""
""fullscreenenter"",""5"",""18122""
","
","
","""event"",""trial"",""time""
""fullscreenenter"",""5"",""18122""
","
","","","","","","","","","","","","","","","","","","","","","",""
"d3-instructions","19","117025","0.0-19.0","923","681","13","Male","false","true","true","false","""event"",""trial"",""time""
""fullscreenenter"",""5"",""18122""
","
","
","""event"",""trial"",""time""
""fullscreenenter"",""5"",""18122""
","
","","","","","","","","","","","","","","","","","","","","","",""
"d3-animate-choice","20","120085","0.0-20.0","923","681","13","Male","false","true","true","false","""event"",""trial"",""time""
""fullscreenenter"",""5"",""18122""
","
","
","""event"",""trial"",""time""
""fullscreenenter"",""5"",""18122""
","
","1040.5","","49","","","3000","1","","","images/tutyellowplanet.jpg","null","images/tutalien3","null","images/tutalien3","images/t.png","NA","practice","null","","","",""
"d3-animate-choice","21","122419","0.0-21.0","923","681","13","Male","false","true","true","false","""event"",""trial"",""time""
""fullscreenenter"",""5"",""18122""
","
","
","""event"",""trial"",""time""
""fullscreenenter"",""5"",""18122""
","
","315.70000000298023","","49","","","3000","1","","","images/tutyellowplanet.jpg","null","images/tutalien3","null","images/tutalien3","images/t.png","NA","practice","null","","","",""
"d3-animate-choice","22","124559","0.0-22.0","923","681","13","Male","false","true","true","false","""event"",""trial"",""time""
""fullscreenenter"",""5"",""18122""
","
","
","""event"",""trial"",""time""
""fullscreenenter"",""5"",""18122""
","
","127","","49","","","3000","1","2017.7999999970198","49","images/tutyellowplanet.jpg","null","images/tutalien3","null","images/tutalien3","images/t.png","NA","practice","null","","","",""
"d3-animate-choice","23","126964","0.0-23.0","923","681","13","Male","false","true","true","false","""event"",""trial"",""time""
""fullscreenenter"",""5"",""18122""
","
","
","""event"",""trial"",""time""
""fullscreenenter"",""5"",""18122""
","
","389.79999999701977","","49","","","3000","1","","","images/tutyellowplanet.jpg","null","images/tutalien3","null","images/tutalien3","images/nothing.png","NA","practice","null","","","",""
"d3-animate-choice","24","129086","0.0-24.0","923","681","13","Male","false","true","true","false","""event"",""trial"",""time""
""fullscreenenter"",""5"",""18122""
","
","
","""event"",""trial"",""time""
""fullscreenenter"",""5"",""18122""
","
","106.19999999925494","","49","","","3000","1","","","images/tutyellowplanet.jpg","null","images/tutalien3","null","images/tutalien3","images/t.png","NA","practice","null","","","",""
"d3-animate-choice","25","131184","0.0-25.0","923","681","13","Male","false","true","true","false","""event"",""trial"",""time""
""fullscreenenter"",""5"",""18122""
","
","
","""event"",""trial"",""time""
""fullscreenenter"",""5"",""18122""
","
","89.10000000149012","","49","","","3000","1","1961.6000000014901","49","images/tutyellowplanet.jpg","null","images/tutalien3","null","images/tutalien3","images/t.png","NA","practice","null","","","",""
"d3-animate-choice","26","133545","0.0-26.0","923","681","13","Male","false","true","true","false","""event"",""trial"",""time""
""fullscreenenter"",""5"",""18122""
","
","
","""event"",""trial"",""time""
""fullscreenenter"",""5"",""18122""
","
","351.9000000022352","","49","","","3000","1","","","images/tutyellowplanet.jpg","null","images/tutalien3","null","images/tutalien3","images/t.png","NA","practice","null","","","",""
"d3-animate-choice","27","135609","0.0-27.0","923","681","13","Male","false","true","true","false","""event"",""trial"",""time""
""fullscreenenter"",""5"",""18122""
","
","
","""event"",""trial"",""time""
""fullscreenenter"",""5"",""18122""
","
","44.400000002235174","","49","","","3000","1","1828.300000000745","49","images/tutyellowplanet.jpg","null","images/tutalien3","null","images/tutalien3","images/t.png","NA","practice","null","","","",""
"d3-animate-choice","28","137643","0.0-28.0","923","681","13","Male","false","true","true","false","""event"",""trial"",""time""
""fullscreenenter"",""5"",""18122""
","
","
","""event"",""trial"",""time""
""fullscreenenter"",""5"",""18122""
","
","22.599999997764826","","49","","","3000","1","816.6999999992549,981.3999999985099,1131.0999999977648,1301.8999999985099,1458.800000000745,1611.699999999255,1758.699999999255,1909.199999999255","49,49,49,49,49,49,49,49","images/tutyellowplanet.jpg","null","images/tutalien3","null","images/tutalien3","images/t.png","NA","practice","null","","","",""
"d3-animate-choice","29","139678","0.0-29.0","923","681","13","Male","false","true","true","false","""event"",""trial"",""time""
""fullscreenenter"",""5"",""18122""
","
","
","""event"",""trial"",""time""
""fullscreenenter"",""5"",""18122""
","
","25","","49","","","3000","1","185.19999999925494,1198.0999999977648,1353.3999999985099,1639.0999999977648,1794.5,1950.699999999255","49,49,49,49,49,49","images/tutyellowplanet.jpg","null","images/tutalien3","null","images/tutalien3","images/t.png","NA","practice","null","","","",""
"d3-instructions","30","144553","0.0-30.0","923","681","13","Male","false","true","true","false","""event"",""trial"",""time""
""fullscreenenter"",""5"",""18122""
","
","
","""event"",""trial"",""time""
""fullscreenenter"",""5"",""18122""
","
","","","","","","","","","","","","","","","","","","","","","",""
"d3-instructions","31","148323","0.0-31.0","923","681","13","Male","false","true","true","false","""event"",""trial"",""time""
""fullscreenenter"",""5"",""18122""
","
","
","""event"",""trial"",""time""
""fullscreenenter"",""5"",""18122""
","
","","","","","","","","","","","","","","","","","","","","","",""
"d3-instructions","32","151475","0.0-32.0","923","681","13","Male","false","true","true","false","""event"",""trial"",""time""
""fullscreenenter"",""5"",""18122""
","
","
","""event"",""trial"",""time""
""fullscreenenter"",""5"",""18122""
","
","","","","","","","","","","","","","","","","","","","","","",""
"d3-instructions","33","154403","0.0-33.0","923","681","13","Male","false","true","true","false","""event"",""trial"",""time""
""fullscreenenter"",""5"",""18122""
","
","
","""event"",""trial"",""time""
""fullscreenenter"",""5"",""18122""
","
","","","","","","","","","","","","","","","","","","","","","",""
"d3-animate-choice","34","157656","0.0-34.0","923","681","13","Male","false","true","true","false","""event"",""trial"",""time""
""fullscreenenter"",""5"",""18122""
","
","
","""event"",""trial"",""time""
""fullscreenenter"",""5"",""18122""
","
","1236.300000000745","","49","","","3000","1","","","images/tutgreenplanet.jpg","images/tutalien1","images/tutalien2","null","images/tutalien2","images/t.png","NA","practice","null","","","",""
"d3-animate-choice","35","160257","0.0-35.0","923","681","13","Male","false","true","true","false","""event"",""trial"",""time""
""fullscreenenter"",""5"",""18122""
","
","
","""event"",""trial"",""time""
""fullscreenenter"",""5"",""18122""
","
","584","","48","","","3000","1","1305.699999999255","48","images/tutgreenplanet.jpg","images/tutalien1","images/tutalien2","null","images/tutalien1","images/t.png","NA","practice","null","","","",""
"d3-animate-choice","36","162610","0.0-36.0","923","681","13","Male","false","true","true","false","""event"",""trial"",""time""
""fullscreenenter"",""5"",""18122""
","
","
","""event"",""trial"",""time""
""fullscreenenter"",""5"",""18122""
","
","344.5","","48","","","3000","1","","","images/tutgreenplanet.jpg","images/tutalien1","images/tutalien2","null","images/tutalien1","images/nothing.png","NA","practice","null","","","",""
"d3-animate-choice","37","164935","0.0-37.0","923","681","13","Male","false","true","true","false","""event"",""trial"",""time""
""fullscreenenter"",""5"",""18122""
","
","
","""event"",""trial"",""time""
""fullscreenenter"",""5"",""18122""
","
","320.6000000014901","","48","","","3000","1","","","images/tutgreenplanet.jpg","images/tutalien1","images/tutalien2","null","images/tutalien1","images/nothing.png","NA","practice","null","","","",""
"d3-animate-choice","38","167014","0.0-38.0","923","681","13","Male","false","true","true","false","""event"",""trial"",""time""
""fullscreenenter"",""5"",""18122""
","
","
","""event"",""trial"",""time""
""fullscreenenter"",""5"",""18122""
","
","65.70000000298023","","49","","","3000","1","867.5,2065.2000000029802","48,49","images/tutgreenplanet.jpg","images/tutalien1","images/tutalien2","null","images/tutalien2","images/t.png","NA","practice","null","","","",""
"d3-animate-choice","39","169445","0.0-39.0","923","681","13","Male","false","true","true","false","""event"",""trial"",""time""
""fullscreenenter"",""5"",""18122""
","
","
","""event"",""trial"",""time""
""fullscreenenter"",""5"",""18122""
","
","418.3999999985099","","49","","","3000","1","","","images/tutgreenplanet.jpg","images/tutalien1","images/tutalien2","null","images/tutalien2","images/t.png","NA","practice","null","","","",""
"d3-animate-choice","40","171503","0.0-40.0","923","681","13","Male","false","true","true","false","""event"",""trial"",""time""
""fullscreenenter"",""5"",""18122""
","
","
","""event"",""trial"",""time""
""fullscreenenter"",""5"",""18122""
","
","43.19999999925494","","48","","","3000","1","","","images/tutgreenplanet.jpg","images/tutalien1","images/tutalien2","null","images/tutalien1","images/nothing.png","NA","practice","null","","","",""
"d3-animate-choice","41","173561","0.0-41.0","923","681","13","Male","false","true","true","false","""event"",""trial"",""time""
""fullscreenenter"",""5"",""18122""
","
","
","""event"",""trial"",""time""
""fullscreenenter"",""5"",""18122""
","
","49.400000002235174","","48","","","3000","1","","","images/tutgreenplanet.jpg","images/tutalien1","images/tutalien2","null","images/tutalien1","images/t.png","NA","practice","null","","","",""
"d3-animate-choice","42","176049","0.0-42.0","923","681","13","Male","false","true","true","false","""event"",""trial"",""time""
""fullscreenenter"",""5"",""18122""
","
","
","""event"",""trial"",""time""
""fullscreenenter"",""5"",""18122""
","
","484.80000000074506","","49","","","3000","1","2137.10000000149,2280.400000002235,2460.60000000149","48,49,48","images/tutgreenplanet.jpg","images/tutalien1","images/tutalien2","null","images/tutalien2","images/t.png","NA","practice","null","","","",""
"d3-animate-choice","43","178172","0.0-43.0","923","681","13","Male","false","true","true","false","""event"",""trial"",""time""
""fullscreenenter"",""5"",""18122""
","
","
","""event"",""trial"",""time""
""fullscreenenter"",""5"",""18122""
","
","117.60000000149012","","49","","","3000","1","217.90000000223517,383.19999999925494,448.5,636.1999999992549,789.5,874.6000000014901,1050,1130,1290.4000000022352,1335.699999999255,1546.4000000022352,1571.199999999255,1741.5,1832.699999999255,1932.699999999255,2062.199999999255,2102.400000002235","48,49,48,48,49,48,49,48,49,48,48,49,48,49,48,49,48","images/tutgreenplanet.jpg","images/tutalien1","images/tutalien2","null","images/tutalien2","images/t.png","NA","practice","null","","","",""
"d3-instructions","44","187665","0.0-44.0","923","681","13","Male","false","true","true","false","""event"",""trial"",""time""
""fullscreenenter"",""5"",""18122""
","
","
","""event"",""trial"",""time""
""fullscreenenter"",""5"",""18122""
","
","","","","","","","","","","","","","","","","","","","","","",""
"d3-instructions","45","190306","0.0-45.0","923","681","13","Male","false","true","true","false","""event"",""trial"",""time""
""fullscreenenter"",""5"",""18122""
","
","
","""event"",""trial"",""time""
""fullscreenenter"",""5"",""18122""
","
","","","","","","","","","","","","","","","","","","","","","",""
"d3-instructions","46","192558","0.0-46.0","923","681","13","Male","false","true","true","false","""event"",""trial"",""time""
""fullscreenenter"",""5"",""18122""
","
","
","""event"",""trial"",""time""
""fullscreenenter"",""5"",""18122""
","
","","","","","","","","","","","","","","","","","","","","","",""
"d3-instructions","47","197478","0.0-47.0","923","681","13","Male","false","true","true","false","""event"",""trial"",""time""
""fullscreenenter"",""5"",""18122""
","
","
","""event"",""trial"",""time""
""fullscreenenter"",""5"",""18122""
","
","","","","","","","","","","","","","","","","","","","","","",""
"d3-instructions","48","200576","0.0-48.0","923","681","13","Male","false","true","true","false","""event"",""trial"",""time""
""fullscreenenter"",""5"",""18122""
","
","
","""event"",""trial"",""time""
""fullscreenenter"",""5"",""18122""
","
","","","","","","","","","","","","","","","","","","","","","",""
"d3-instructions","49","205534","0.0-49.0","923","681","13","Male","false","true","true","false","""event"",""trial"",""time""
""fullscreenenter"",""5"",""18122""
","
","
","""event"",""trial"",""time""
""fullscreenenter"",""5"",""18122""
","
","","","","","","","","","","","","","","","","","","","","","",""
"d3-instructions","50","208854","0.0-50.0","923","681","13","Male","false","true","true","false","""event"",""trial"",""time""
""fullscreenenter"",""5"",""18122""
","
","
","""event"",""trial"",""time""
""fullscreenenter"",""5"",""18122""
","
","","","","","","","","","","","","","","","","","","","","","",""
"d3-instructions","51","210638","0.0-51.0","923","681","13","Male","false","true","true","false","""event"",""trial"",""time""
""fullscreenenter"",""5"",""18122""
","
","
","""event"",""trial"",""time""
""fullscreenenter"",""5"",""18122""
","
","","","","","","","","","","","","","","","","","","","","","",""
"d3-instructions","52","212298","0.0-52.0","923","681","13","Male","false","true","true","false","""event"",""trial"",""time""
""fullscreenenter"",""5"",""18122""
","
","
","""event"",""trial"",""time""
""fullscreenenter"",""5"",""18122""
","
","","","","","","","","","","","","","","","","","","","","","",""
"d3-instructions","53","220147","0.0-53.0","923","681","13","Male","false","true","true","false","""event"",""trial"",""time""
""fullscreenenter"",""5"",""18122""
","
","
","""event"",""trial"",""time""
""fullscreenenter"",""5"",""18122""
","
","","","","","","","","","","","","","","","","","","","","","",""
"d3-instructions","54","230958","0.0-54.0","923","681","13","Male","false","true","true","false","""event"",""trial"",""time""
""fullscreenenter"",""5"",""18122""
","
","
","""event"",""trial"",""time""
""fullscreenenter"",""5"",""18122""
","
","","","","","","","","","","","","","","","","","","","","","",""
"d3-instructions","55","235553","0.0-55.0","923","681","13","Male","false","true","true","false","""event"",""trial"",""time""
""fullscreenenter"",""5"",""18122""
","
","
","""event"",""trial"",""time""
""fullscreenenter"",""5"",""18122""
","
","","","","","","","","","","","","","","","","","","","","","",""
"d3-instructions","56","240477","0.0-56.0","923","681","13","Male","false","true","true","false","""event"",""trial"",""time""
""fullscreenenter"",""5"",""18122""
","
","
","""event"",""trial"",""time""
""fullscreenenter"",""5"",""18122""
","
","","","","","","","","","","","","","","","","","","","","","",""
"d3-instructions","57","245549","0.0-57.0","923","681","13","Male","false","true","true","false","""event"",""trial"",""time""
""fullscreenenter"",""5"",""18122""
","
","
","""event"",""trial"",""time""
""fullscreenenter"",""5"",""18122""
","
","","","","","","","","","","","","","","","","","","","","","",""
"d3-instructions","58","254192","0.0-58.0","923","681","13","Male","false","true","true","false","""event"",""trial"",""time""
""fullscreenenter"",""5"",""18122""
","
","
","""event"",""trial"",""time""
""fullscreenenter"",""5"",""18122""
","
","","","","","","","","","","","","","","","","","","","","","",""
"d3-instructions","59","257960","0.0-59.0","923","681","13","Male","false","true","true","false","""event"",""trial"",""time""
""fullscreenenter"",""5"",""18122""
","
","
","""event"",""trial"",""time""
""fullscreenenter"",""5"",""18122""
","
","","","","","","","","","","","","","","","","","","","","","",""
"d3-instructions","60","260786","0.0-60.0","923","681","13","Male","false","true","true","false","""event"",""trial"",""time""
""fullscreenenter"",""5"",""18122""
","
","
","""event"",""trial"",""time""
""fullscreenenter"",""5"",""18122""
","
","","","","","","","","","","","","","","","","","","","","","",""
"d3-animate-choice","61","263765","0.0-61.0-0.0","923","681","13","Male","false","true","true","false","""event"",""trial"",""time""
""fullscreenenter"",""5"",""18122""
","
","
","""event"",""trial"",""time""
""fullscreenenter"",""5"",""18122""
","
","974.1999999992549","","49","","","3000","1","","","images/earth.jpg","images/tutrocket1","images/tutrocket2","null","images/tutrocket2","","1","practice","null","1","","",""
"d3-animate-choice","62","266897","0.0-61.0-1.0","923","681","13","Male","false","true","true","false","""event"",""trial"",""time""
""fullscreenenter"",""5"",""18122""
","
","
","""event"",""trial"",""time""
""fullscreenenter"",""5"",""18122""
","
","1111.4000000022352","","49","","","3000","1","","","images/tutyellowplanet.jpg","images/tutalien4","images/tutalien3","images/tutrocket2","images/tutalien3","images/t.png","2","practice","true","1","common","1","2022-02-09 01:25:03.399"
"two-step-fixation","63","267916","0.0-61.0-2.0","923","681","13","Male","false","true","true","false","""event"",""trial"",""time""
""fullscreenenter"",""5"",""18122""
","
","
","""event"",""trial"",""time""
""fullscreenenter"",""5"",""18122""
","
","","images/earth.jpg","","","","","","","","","","","","","","fixation","","","","","",""
"d3-animate-choice","64","270259","0.0-61.0-0.1","923","681","13","Male","false","true","true","false","""event"",""trial"",""time""
""fullscreenenter"",""5"",""18122""
","
","
","""event"",""trial"",""time""
""fullscreenenter"",""5"",""18122""
","
","338.9000000022352","","48","","","3000","1","","","images/earth.jpg","images/tutrocket1","images/tutrocket2","null","images/tutrocket1","","1","practice","null","2","","",""
"d3-animate-choice","65","272742","0.0-61.0-1.1","923","681","13","Male","false","true","true","false","""event"",""trial"",""time""
""fullscreenenter"",""5"",""18122""
","
","
","""event"",""trial"",""time""
""fullscreenenter"",""5"",""18122""
","
","480.20000000298023","","48","","","3000","1","","","images/tutgreenplanet.jpg","images/tutalien2","images/tutalien1","images/tutrocket1","images/tutalien2","images/nothing.png","2","practice","true","2","common","0","2022-02-09 01:25:09.245"
"two-step-fixation","66","273746","0.0-61.0-2.1","923","681","13","Male","false","true","true","false","""event"",""trial"",""time""
""fullscreenenter"",""5"",""18122""
","
","
","""event"",""trial"",""time""
""fullscreenenter"",""5"",""18122""
","
","","images/earth.jpg","","","","","","","","","","","","","","fixation","","","","","",""
"d3-animate-choice","67","275910","0.0-61.0-0.2","923","681","13","Male","false","true","true","false","""event"",""trial"",""time""
""fullscreenenter"",""5"",""18122""
","
","
","""event"",""trial"",""time""
""fullscreenenter"",""5"",""18122""
","
","153.69999999925494","","49","","","3000","1","","","images/earth.jpg","images/tutrocket1","images/tutrocket2","null","images/tutrocket2","","1","practice","null","1","","",""
"d3-animate-choice","68","278089","0.0-61.0-1.2","923","681","13","Male","false","true","true","false","""event"",""trial"",""time""
""fullscreenenter"",""5"",""18122""
","
","
","""event"",""trial"",""time""
""fullscreenenter"",""5"",""18122""
","
","175","","48","","","3000","1","","","images/tutyellowplanet.jpg","images/tutalien4","images/tutalien3","images/tutrocket2","images/tutalien4","images/nothing.png","2","practice","true","2","common","0","2022-02-09 01:25:14.591"
"two-step-fixation","69","279092","0.0-61.0-2.2","923","681","13","Male","false","true","true","false","""event"",""trial"",""time""
""fullscreenenter"",""5"",""18122""
","
","
","""event"",""trial"",""time""
""fullscreenenter"",""5"",""18122""
","
","","images/earth.jpg","","","","","","","","","","","","","","fixation","","","","","",""
"d3-animate-choice","70","281255","0.0-61.0-0.3","923","681","13","Male","false","true","true","false","""event"",""trial"",""time""
""fullscreenenter"",""5"",""18122""
","
","
","""event"",""trial"",""time""
""fullscreenenter"",""5"",""18122""
","
","158.80000000074506","","48","","","3000","1","","","images/earth.jpg","images/tutrocket1","images/tutrocket2","null","images/tutrocket1","","1","practice","null","2","","",""
"d3-animate-choice","71","283665","0.0-61.0-1.3","923","681","13","Male","false","true","true","false","""event"",""trial"",""time""
""fullscreenenter"",""5"",""18122""
","
","
","""event"",""trial"",""time""
""fullscreenenter"",""5"",""18122""
","
","405.79999999701977","","49","","","3000","1","","","images/tutgreenplanet.jpg","images/tutalien2","images/tutalien1","images/tutrocket1","images/tutalien1","images/nothing.png","2","practice","true","1","common","0","2022-02-09 01:25:20.167"
"two-step-fixation","72","284668","0.0-61.0-2.3","923","681","13","Male","false","true","true","false","""event"",""trial"",""time""
""fullscreenenter"",""5"",""18122""
","
","
","""event"",""trial"",""time""
""fullscreenenter"",""5"",""18122""
","
","","images/earth.jpg","","","","","","","","","","","","","","fixation","","","","","",""
"d3-animate-choice","73","286673","0.0-61.0-0.4","923","681","13","Male","false","true","true","false","""event"",""trial"",""time""
""fullscreenenter"",""5"",""18122""
","
","
","""event"",""trial"",""time""
""fullscreenenter"",""5"",""18122""
","
","0.19999999925494194","","49","","","3000","1","263.1000000014901,519.4000000022352,739.3000000007451,925.6999999992549,1115,1311.6000000014901,1531.699999999255,1731.699999999255,1947.9000000022352","49,49,49,49,49,49,49,49,49","images/earth.jpg","images/tutrocket1","images/tutrocket2","null","images/tutrocket2","","1","practice","null","1","","",""
"d3-animate-choice","74","288852","0.0-61.0-1.4","923","681","13","Male","false","true","true","false","""event"",""trial"",""time""
""fullscreenenter"",""5"",""18122""
","
","
","""event"",""trial"",""time""
""fullscreenenter"",""5"",""18122""
","
","163.80000000074506","","49","","","3000","1","404.6000000014901,660.9000000022352","49,49","images/tutgreenplanet.jpg","images/tutalien2","images/tutalien1","images/tutrocket2","images/tutalien1","images/nothing.png","2","practice","false","1","rare","0","2022-02-09 01:25:25.354"
"two-step-fixation","75","289868","0.0-61.0-2.4","923","681","13","Male","false","true","true","false","""event"",""trial"",""time""
""fullscreenenter"",""5"",""18122""
","
","
","""event"",""trial"",""time""
""fullscreenenter"",""5"",""18122""
","
","","images/earth.jpg","","","","","","","","","","","","","","fixation","","","","","",""
"d3-animate-choice","76","291976","0.0-61.0-0.5","923","681","13","Male","false","true","true","false","""event"",""trial"",""time""
""fullscreenenter"",""5"",""18122""
","
","
","""event"",""trial"",""time""
""fullscreenenter"",""5"",""18122""
","
","100.59999999776483","","49","","","3000","1","351.5,1588.8999999985099,1909.5","49,49,49","images/earth.jpg","images/tutrocket1","images/tutrocket2","null","images/tutrocket2","","1","practice","null","1","","",""
"d3-animate-choice","77","294088","0.0-61.0-1.5","923","681","13","Male","false","true","true","false","""event"",""trial"",""time""
""fullscreenenter"",""5"",""18122""
","
","
","""event"",""trial"",""time""
""fullscreenenter"",""5"",""18122""
","
","105.10000000149012","","49","","","3000","1","325.6000000014901,537.6000000014901,1994.4000000022352","49,49,48","images/tutgreenplanet.jpg","images/tutalien2","images/tutalien1","images/tutrocket2","images/tutalien1","images/nothing.png","2","practice","false","1","rare","0","2022-02-09 01:25:30.590"
"two-step-fixation","78","295091","0.0-61.0-2.5","923","681","13","Male","false","true","true","false","""event"",""trial"",""time""
""fullscreenenter"",""5"",""18122""
","
","
","""event"",""trial"",""time""
""fullscreenenter"",""5"",""18122""
","
","","images/earth.jpg","","","","","","","","","","","","","","fixation","","","","","",""
"d3-animate-choice","79","297204","0.0-61.0-0.6","923","681","13","Male","false","true","true","false","""event"",""trial"",""time""
""fullscreenenter"",""5"",""18122""
","
","
","""event"",""trial"",""time""
""fullscreenenter"",""5"",""18122""
","
","108.89999999850988","","49","","","3000","1","345.5,2063.39999999851","49,48","images/earth.jpg","images/tutrocket1","images/tutrocket2","null","images/tutrocket2","","1","practice","null","1","","",""
"d3-animate-choice","80","299396","0.0-61.0-1.6","923","681","13","Male","false","true","true","false","""event"",""trial"",""time""
""fullscreenenter"",""5"",""18122""
","
","
","""event"",""trial"",""time""
""fullscreenenter"",""5"",""18122""
","
","186.59999999776483","","48","","","3000","1","","","images/tutyellowplanet.jpg","images/tutalien4","images/tutalien3","images/tutrocket2","images/tutalien4","images/t.png","2","practice","true","2","common","1","2022-02-09 01:25:35.898"
"two-step-fixation","81","300401","0.0-61.0-2.6","923","681","13","Male","false","true","true","false","""event"",""trial"",""time""
""fullscreenenter"",""5"",""18122""
","
","
","""event"",""trial"",""time""
""fullscreenenter"",""5"",""18122""
","
","","images/earth.jpg","","","","","","","","","","","","","","fixation","","","","","",""
"d3-animate-choice","82","302457","0.0-61.0-0.7","923","681","13","Male","false","true","true","false","""event"",""trial"",""time""
""fullscreenenter"",""5"",""18122""
","
","
","""event"",""trial"",""time""
""fullscreenenter"",""5"",""18122""
","
","51.80000000074506","","48","","","3000","1","290.5","48","images/earth.jpg","images/tutrocket1","images/tutrocket2","null","images/tutrocket1","","1","practice","null","2","","",""
"d3-animate-choice","83","304762","0.0-61.0-1.7","923","681","13","Male","false","true","true","false","""event"",""trial"",""time""
""fullscreenenter"",""5"",""18122""
","
","
","""event"",""trial"",""time""
""fullscreenenter"",""5"",""18122""
","
","299.8999999985099","","49","","","3000","1","","","images/tutyellowplanet.jpg","images/tutalien4","images/tutalien3","images/tutrocket1","images/tutalien3","images/nothing.png","2","practice","false","1","rare","0","2022-02-09 01:25:41.264"
"two-step-fixation","84","305766","0.0-61.0-2.7","923","681","13","Male","false","true","true","false","""event"",""trial"",""time""
""fullscreenenter"",""5"",""18122""
","
","
","""event"",""trial"",""time""
""fullscreenenter"",""5"",""18122""
","
","","images/earth.jpg","","","","","","","","","","","","","","fixation","","","","","",""
"d3-animate-choice","85","307823","0.0-61.0-0.8","923","681","13","Male","false","true","true","false","""event"",""trial"",""time""
""fullscreenenter"",""5"",""18122""
","
","
","""event"",""trial"",""time""
""fullscreenenter"",""5"",""18122""
","
","52.600000001490116","","48","","","3000","1","293.70000000298023,563.4000000022352,819","48,48,48","images/earth.jpg","images/tutrocket1","images/tutrocket2","null","images/tutrocket1","","1","practice","null","2","","",""
"d3-animate-choice","86","310464","0.0-61.0-1.8","923","681","13","Male","false","true","true","false","""event"",""trial"",""time""
""fullscreenenter"",""5"",""18122""
","
","
","""event"",""trial"",""time""
""fullscreenenter"",""5"",""18122""
","
","636.1999999992549","","49","","","3000","1","","","images/tutgreenplanet.jpg","images/tutalien2","images/tutalien1","images/tutrocket1","images/tutalien1","images/nothing.png","2","practice","true","1","common","0","2022-02-09 01:25:46.966"
"two-step-fixation","87","311468","0.0-61.0-2.8","923","681","13","Male","false","true","true","false","""event"",""trial"",""time""
""fullscreenenter"",""5"",""18122""
","
","
","""event"",""trial"",""time""
""fullscreenenter"",""5"",""18122""
","
","","images/earth.jpg","","","","","","","","","","","","","","fixation","","","","","",""
"d3-animate-choice","88","313878","0.0-61.0-0.9","923","681","13","Male","false","true","true","false","""event"",""trial"",""time""
""fullscreenenter"",""5"",""18122""
","
","
","""event"",""trial"",""time""
""fullscreenenter"",""5"",""18122""
","
","405.19999999925494","","49","","","3000","1","","","images/earth.jpg","images/tutrocket1","images/tutrocket2","null","images/tutrocket2","","1","practice","null","1","","",""
"d3-animate-choice","89","316594","0.0-61.0-1.9","923","681","13","Male","false","true","true","false","""event"",""trial"",""time""
""fullscreenenter"",""5"",""18122""
","
","
","""event"",""trial"",""time""
""fullscreenenter"",""5"",""18122""
","
","709.8999999985099","","49","","","3000","1","","","images/tutyellowplanet.jpg","images/tutalien4","images/tutalien3","images/tutrocket2","images/tutalien3","images/t.png","2","practice","true","1","common","1","2022-02-09 01:25:53.096"
"two-step-fixation","90","317600","0.0-61.0-2.9","923","681","13","Male","false","true","true","false","""event"",""trial"",""time""
""fullscreenenter"",""5"",""18122""
","
","
","""event"",""trial"",""time""
""fullscreenenter"",""5"",""18122""
","
","","images/earth.jpg","","","","","","","","","","","","","","fixation","","","","","",""
"d3-animate-choice","91","319658","0.0-61.0-0.10","923","681","13","Male","false","true","true","false","""event"",""trial"",""time""
""fullscreenenter"",""5"",""18122""
","
","
","""event"",""trial"",""time""
""fullscreenenter"",""5"",""18122""
","
","51.79999999701977","","48","","","3000","1","259.19999999925494","48","images/earth.jpg","images/tutrocket1","images/tutrocket2","null","images/tutrocket1","","1","practice","null","2","","",""
"d3-animate-choice","92","322175","0.0-61.0-1.10","923","681","13","Male","false","true","true","false","""event"",""trial"",""time""
""fullscreenenter"",""5"",""18122""
","
","
","""event"",""trial"",""time""
""fullscreenenter"",""5"",""18122""
","
","512.6000000014901","","49","","","3000","1","","","images/tutgreenplanet.jpg","images/tutalien2","images/tutalien1","images/tutrocket1","images/tutalien1","images/t.png","2","practice","true","1","common","1","2022-02-09 01:25:58.677"
"two-step-fixation","93","323178","0.0-61.0-2.10","923","681","13","Male","false","true","true","false","""event"",""trial"",""time""
""fullscreenenter"",""5"",""18122""
","
","
","""event"",""trial"",""time""
""fullscreenenter"",""5"",""18122""
","
","","images/earth.jpg","","","","","","","","","","","","","","fixation","","","","","",""
"d3-animate-choice","94","325398","0.0-61.0-0.11","923","681","13","Male","false","true","true","false","""event"",""trial"",""time""
""fullscreenenter"",""5"",""18122""
","
","
","""event"",""trial"",""time""
""fullscreenenter"",""5"",""18122""
","
","215.5","","48","","","3000","1","2004.800000000745","32","images/earth.jpg","images/tutrocket1","images/tutrocket2","null","images/tutrocket1","","1","practice","null","2","","",""
"d3-animate-choice","95","327461","0.0-61.0-1.11","923","681","13","Male","false","true","true","false","""event"",""trial"",""time""
""fullscreenenter"",""5"",""18122""
","
","
","""event"",""trial"",""time""
""fullscreenenter"",""5"",""18122""
","
","59.100000001490116","","48","","","3000","1","","","images/tutgreenplanet.jpg","images/tutalien2","images/tutalien1","images/tutrocket1","images/tutalien2","images/t.png","2","practice","true","2","common","1","2022-02-09 01:26:03.963"
"two-step-fixation","96","328464","0.0-61.0-2.11","923","681","13","Male","false","true","true","false","""event"",""trial"",""time""
""fullscreenenter"",""5"",""18122""
","
","
","""event"",""trial"",""time""
""fullscreenenter"",""5"",""18122""
","
","","images/earth.jpg","","","","","","","","","","","","","","fixation","","","","","",""
"d3-animate-choice","97","330679","0.0-61.0-0.12","923","681","13","Male","false","true","true","false","""event"",""trial"",""time""
""fullscreenenter"",""5"",""18122""
","
","
","""event"",""trial"",""time""
""fullscreenenter"",""5"",""18122""
","
","210.69999999925494","","49","","","3000","1","","","images/earth.jpg","images/tutrocket1","images/tutrocket2","null","images/tutrocket2","","1","practice","null","1","","",""
"d3-animate-choice","98","333861","0.0-61.0-1.12","923","681","13","Male","false","true","true","false","""event"",""trial"",""time""
""fullscreenenter"",""5"",""18122""
","
","
","""event"",""trial"",""time""
""fullscreenenter"",""5"",""18122""
","
","1174.6000000014901","","49","","","3000","1","","","images/tutyellowplanet.jpg","images/tutalien4","images/tutalien3","images/tutrocket2","images/tutalien3","images/t.png","2","practice","true","1","common","1","2022-02-09 01:26:10.363"
"two-step-fixation","99","334865","0.0-61.0-2.12","923","681","13","Male","false","true","true","false","""event"",""trial"",""time""
""fullscreenenter"",""5"",""18122""
","
","
","""event"",""trial"",""time""
""fullscreenenter"",""5"",""18122""
","
","","images/earth.jpg","","","","","","","","","","","","","","fixation","","","","","",""
"d3-animate-choice","100","337133","0.0-61.0-0.13","923","681","13","Male","false","true","true","false","""event"",""trial"",""time""
""fullscreenenter"",""5"",""18122""
","
","
","""event"",""trial"",""time""
""fullscreenenter"",""5"",""18122""
","
","264.19999999925494","","48","","","3000","1","1350.699999999255,1596.8999999985099,1857.0999999977648,2077.599999997765","49,49,49,49","images/earth.jpg","images/tutrocket1","images/tutrocket2","null","images/tutrocket1","","1","practice","null","2","","",""
"d3-animate-choice","101","339369","0.0-61.0-1.13","923","681","13","Male","false","true","true","false","""event"",""trial"",""time""
""fullscreenenter"",""5"",""18122""
","
","
","""event"",""trial"",""time""
""fullscreenenter"",""5"",""18122""
","
","230.90000000223517","","49","","","3000","1","505.69999999925494,2080.10000000149","49,49","images/tutgreenplanet.jpg","images/tutalien2","images/tutalien1","images/tutrocket1","images/tutalien1","images/nothing.png","2","practice","true","1","common","0","2022-02-09 01:26:15.872"
"two-step-fixation","102","340374","0.0-61.0-2.13","923","681","13","Male","false","true","true","false","""event"",""trial"",""time""
""fullscreenenter"",""5"",""18122""
","
","
","""event"",""trial"",""time""
""fullscreenenter"",""5"",""18122""
","
","","images/earth.jpg","","","","","","","","","","","","","","fixation","","","","","",""
"d3-animate-choice","103","342479","0.0-61.0-0.14","923","681","13","Male","false","true","true","false","""event"",""trial"",""time""
""fullscreenenter"",""5"",""18122""
","
","
","""event"",""trial"",""time""
""fullscreenenter"",""5"",""18122""
","
","101.80000000074506","","49","","","3000","1","322.3999999985099,498.8999999985099,708.5,954.3000000007451,1189.300000000745,1334.5999999977648,1575.3999999985099,1730.8999999985099,1897.199999999255,2086.39999999851","49,49,48,48,48,48,48,48,48,48","images/earth.jpg","images/tutrocket1","images/tutrocket2","null","images/tutrocket2","","1","practice","null","1","","",""
"d3-animate-choice","104","344649","0.0-61.0-1.14","923","681","13","Male","false","true","true","false","""event"",""trial"",""time""
""fullscreenenter"",""5"",""18122""
","
","
","""event"",""trial"",""time""
""fullscreenenter"",""5"",""18122""
","
","164.30000000074506","","48","","","3000","1","342.30000000074506,502.6000000014901,697.6999999992549","48,48,48","images/tutyellowplanet.jpg","images/tutalien4","images/tutalien3","images/tutrocket2","images/tutalien4","images/nothing.png","2","practice","true","2","common","0","2022-02-09 01:26:21.151"
"two-step-fixation","105","345652","0.0-61.0-2.14","923","681","13","Male","false","true","true","false","""event"",""trial"",""time""
""fullscreenenter"",""5"",""18122""
","
","
","""event"",""trial"",""time""
""fullscreenenter"",""5"",""18122""
","
","","images/earth.jpg","","","","","","","","","","","","","","fixation","","","","","",""
"d3-animate-choice","106","347747","0.0-61.0-0.15","923","681","13","Male","false","true","true","false","""event"",""trial"",""time""
""fullscreenenter"",""5"",""18122""
","
","
","""event"",""trial"",""time""
""fullscreenenter"",""5"",""18122""
","
","91.19999999925494","","49","","","3000","1","155.69999999925494,270.5,337.80000000074506,471,491.6000000014901,670.4000000022352,693,883.9000000022352,922,1172.800000000745,1182.699999999255,1439.300000000745,1453.300000000745","48,49,48,49,48,49,48,49,48,49,48,48,49","images/earth.jpg","images/tutrocket1","images/tutrocket2","null","images/tutrocket2","","1","practice","null","1","","",""
"d3-animate-choice","107","349755","0.0-61.0-1.15","923","681","13","Male","false","true","true","false","""event"",""trial"",""time""
""fullscreenenter"",""5"",""18122""
","
","
","""event"",""trial"",""time""
""fullscreenenter"",""5"",""18122""
","
","0.19999999925494194","","48","","","3000","1","7.5,1185.0999999977648,1200,1401.7999999970198,1448.2999999970198,1641.8999999985099,1791.7999999970198,1846.5","49,48,49,48,49,48,49,48","images/tutyellowplanet.jpg","images/tutalien4","images/tutalien3","images/tutrocket2","images/tutalien4","images/t.png","2","practice","true","2","common","1","2022-02-09 01:26:26.257"
"two-step-fixation","108","350759","0.0-61.0-2.15","923","681","13","Male","false","true","true","false","""event"",""trial"",""time""
""fullscreenenter"",""5"",""18122""
","
","
","""event"",""trial"",""time""
""fullscreenenter"",""5"",""18122""
","
","","images/earth.jpg","","","","","","","","","","","","","","fixation","","","","","",""
"d3-animate-choice","109","352783","0.0-61.0-0.16","923","681","13","Male","false","true","true","false","""event"",""trial"",""time""
""fullscreenenter"",""5"",""18122""
","
","
","""event"",""trial"",""time""
""fullscreenenter"",""5"",""18122""
","
","20.700000002980232","","48","","","3000","1","130.5,265.4000000022352,366.1000000014901,491.5,585.9000000022352,737.1000000014901,912,1141.300000000745,1369.2000000029802,1849.2000000029802,1894.5","49,48,49,48,49,48,48,49,48,48,49","images/earth.jpg","images/tutrocket1","images/tutrocket2","null","images/tutrocket1","","1","practice","null","2","","",""
"d3-animate-choice","110","354980","0.0-61.0-1.16","923","681","13","Male","false","true","true","false","""event"",""trial"",""time""
""fullscreenenter"",""5"",""18122""
","
","
","""event"",""trial"",""time""
""fullscreenenter"",""5"",""18122""
","
","190.89999999850988","","48","","","3000","1","716.8999999985099,806.1999999992549,1072,1327.300000000745,1337.5,1843.699999999255,1933.800000000745","48,49,48,49,48,48,49","images/tutgreenplanet.jpg","images/tutalien2","images/tutalien1","images/tutrocket1","images/tutalien2","images/nothing.png","2","practice","true","2","common","0","2022-02-09 01:26:31.483"
"two-step-fixation","111","355985","0.0-61.0-2.16","923","681","13","Male","false","true","true","false","""event"",""trial"",""time""
""fullscreenenter"",""5"",""18122""
","
","
","""event"",""trial"",""time""
""fullscreenenter"",""5"",""18122""
","
","","images/earth.jpg","","","","","","","","","","","","","","fixation","","","","","",""
"d3-animate-choice","112","358092","0.0-61.0-0.17","923","681","13","Male","false","true","true","false","""event"",""trial"",""time""
""fullscreenenter"",""5"",""18122""
","
","
","""event"",""trial"",""time""
""fullscreenenter"",""5"",""18122""
","
","100.5","","48","","","3000","1","225.60000000149012,471.3999999985099,726.8000000007451,1003.3000000007451,1253.199999999255,1489.5,1733.8999999985099,1854.199999999255,2099.60000000149","49,48,48,49,48,48,49,48,49","images/earth.jpg","images/tutrocket1","images/tutrocket2","null","images/tutrocket1","","1","practice","null","2","","",""
"d3-animate-choice","113","360226","0.0-61.0-1.17","923","681","13","Male","false","true","true","false","""event"",""trial"",""time""
""fullscreenenter"",""5"",""18122""
","
","
","""event"",""trial"",""time""
""fullscreenenter"",""5"",""18122""
","
","129.40000000223517","","48","","","3000","1","389.4000000022352,624.9000000022352,877,1337.800000000745,1436.5,1737.300000000745,1972.7000000029802","49,48,49,48,49,49,48","images/tutgreenplanet.jpg","images/tutalien2","images/tutalien1","images/tutrocket1","images/tutalien2","images/t.png","2","practice","true","2","common","1","2022-02-09 01:26:36.729"
"two-step-fixation","114","361230","0.0-61.0-2.17","923","681","13","Male","false","true","true","false","""event"",""trial"",""time""
""fullscreenenter"",""5"",""18122""
","
","
","""event"",""trial"",""time""
""fullscreenenter"",""5"",""18122""
","
","","images/earth.jpg","","","","","","","","","","","","","","fixation","","","","","",""
"d3-animate-choice","115","363392","0.0-61.0-0.18","923","681","13","Male","false","true","true","false","""event"",""trial"",""time""
""fullscreenenter"",""5"",""18122""
","
","
","""event"",""trial"",""time""
""fullscreenenter"",""5"",""18122""
","
","158.10000000149012","","49","","","3000","1","307.69999999925494,413.1000000014901,700.3000000007451,1025.699999999255,1155.699999999255,1786.9000000022352,2017.800000000745","49,48,49,48,48,49,49","images/earth.jpg","images/tutrocket1","images/tutrocket2","null","images/tutrocket2","","1","practice","null","1","","",""
"d3-animate-choice","116","365518","0.0-61.0-1.18","923","681","13","Male","false","true","true","false","""event"",""trial"",""time""
""fullscreenenter"",""5"",""18122""
","
","
","""event"",""trial"",""time""
""fullscreenenter"",""5"",""18122""
","
","120.90000000223517","","49","","","3000","1","352.30000000074506,501.4000000022352,757,882.6000000014901,1117.9000000022352,1343.6000000014901,1625.300000000745,1709.800000000745,1894.800000000745,2111.400000002235","49,48,49,48,49,48,48,49,48,48","images/tutyellowplanet.jpg","images/tutalien4","images/tutalien3","images/tutrocket2","images/tutalien3","images/nothing.png","2","practice","true","1","common","0","2022-02-09 01:26:42.020"
"two-step-fixation","117","366522","0.0-61.0-2.18","923","681","13","Male","false","true","true","false","""event"",""trial"",""time""
""fullscreenenter"",""5"",""18122""
","
","
","""event"",""trial"",""time""
""fullscreenenter"",""5"",""18122""
","
","","images/earth.jpg","","","","","","","","","","","","","","fixation","","","","","",""
"d3-animate-choice","118","368544","0.0-61.0-0.19","923","681","13","Male","false","true","true","false","""event"",""trial"",""time""
""fullscreenenter"",""5"",""18122""
","
","
","""event"",""trial"",""time""
""fullscreenenter"",""5"",""18122""
","
","18.5","","48","","","3000","1","258.1000000014901,293.1000000014901,469.19999999925494,979.6999999992549","48,49,48,49","images/earth.jpg","images/tutrocket1","images/tutrocket2","null","images/tutrocket1","","1","practice","null","2","","",""
"d3-animate-choice","119","371140","0.0-61.0-1.19","923","681","13","Male","false","true","true","false","""event"",""trial"",""time""
""fullscreenenter"",""5"",""18122""
","
","
","""event"",""trial"",""time""
""fullscreenenter"",""5"",""18122""
","
","592.8999999985099","","48","","","3000","1","1180.199999999255,1814.5","49,49","images/tutgreenplanet.jpg","images/tutalien2","images/tutalien1","images/tutrocket1","images/tutalien2","images/nothing.png","2","practice","true","2","common","0","2022-02-09 01:26:47.642"
"two-step-fixation","120","372144","0.0-61.0-2.19","923","681","13","Male","false","true","true","false","""event"",""trial"",""time""
""fullscreenenter"",""5"",""18122""
","
","
","""event"",""trial"",""time""
""fullscreenenter"",""5"",""18122""
","
","","images/earth.jpg","","","","","","","","","","","","","","fixation","","","","","",""
"d3-instructions","121","377106","0.0-62.0","923","681","13","Male","false","true","true","false","""event"",""trial"",""time""
""fullscreenenter"",""5"",""18122""
","
","
","""event"",""trial"",""time""
""fullscreenenter"",""5"",""18122""
","
","","","","","","","","","","","","","","","","","","","","","",""
"audio-keyboard-response","122","380525","0.0-63.0","923","681","13","Male","false","true","true","false","""event"",""trial"",""time""
""fullscreenenter"",""5"",""18122""
","
","
","""event"",""trial"",""time""
""fullscreenenter"",""5"",""18122""
","
","3419","audio/instructions/treasure_feedback.wav","32","","","","","","","","","","","","","","","","","","",""
"d3-instructions","123","396199","0.0-64.0","923","681","13","Male","false","true","true","false","""event"",""trial"",""time""
""fullscreenenter"",""5"",""18122""
","
","
","""event"",""trial"",""time""
""fullscreenenter"",""5"",""18122""
","
","","","","","","","","","","","","","","","","","","","","","",""
"d3-instructions","124","408848","0.0-65.0","923","681","13","Male","false","true","true","false","""event"",""trial"",""time""
""fullscreenenter"",""5"",""18122""
","
","
","""event"",""trial"",""time""
""fullscreenenter"",""5"",""18122""
","
","","","","","","","","","","","","","","","","","","","","","",""
"d3-instructions","125","426622","0.0-66.0","923","681","13","Male","false","true","true","false","""event"",""trial"",""time""
""fullscreenenter"",""5"",""18122""
","
","
","""event"",""trial"",""time""
""fullscreenenter"",""5"",""18122""
","
","","","","","","","","","","","","","","","","","","","","","",""
"d3-instructions","126","440708","0.0-67.0","923","681","13","Male","false","true","true","false","""event"",""trial"",""time""
""fullscreenenter"",""5"",""18122""
","
","
","""event"",""trial"",""time""
""fullscreenenter"",""5"",""18122""
","
","","","","","","","","","","","","","","","","","","","","","",""
"d3-instructions","127","449009","0.0-68.0","923","681","13","Male","false","true","true","false","""event"",""trial"",""time""
""fullscreenenter"",""5"",""18122""
","
","
","""event"",""trial"",""time""
""fullscreenenter"",""5"",""18122""
","
","","","","","","","","","","","","","","","","","","","","","",""
"instructions-quiz","128","454146","0.0-69.0","923","681","13","Male","false","true","true","false","""event"",""trial"",""time""
""fullscreenenter"",""5"",""18122""
","
","
","""event"",""trial"",""time""
""fullscreenenter"",""5"",""18122""
","
","5133.89999999851","audio/quiz/Q1_Prompt.wav","","1","","","","","","","","","","","","","","","","","",""
"audio-keyboard-response","129","455740","0.0-70.0","923","681","13","Male","false","true","true","false","""event"",""trial"",""time""
""fullscreenenter"",""5"",""18122""
","
","
","""event"",""trial"",""time""
""fullscreenenter"",""5"",""18122""
","
","1589","audio/quiz/Q1_Correct.wav","32","","","","","","","","","","","","","","","","","","",""
"instructions-quiz","130","461261","0.0-71.0","923","681","13","Male","false","true","true","false","""event"",""trial"",""time""
""fullscreenenter"",""5"",""18122""
","
","
","""event"",""trial"",""time""
""fullscreenenter"",""5"",""18122""
","
","5518.89999999851","audio/quiz/Q2_Prompt.wav","","0","","","","","","","","","","","","","","","","","",""
"audio-keyboard-response","131","461463","0.0-72.0","923","681","13","Male","false","true","true","false","""event"",""trial"",""time""
""fullscreenenter"",""5"",""18122""
","
","
","""event"",""trial"",""time""
""fullscreenenter"",""5"",""18122""
","
","189","audio/quiz/Q2_Correct.wav","32","","","","","","","","","","","","","","","","","","",""
"instructions-quiz","132","465297","0.0-73.0","923","681","13","Male","false","true","true","false","""event"",""trial"",""time""
""fullscreenenter"",""5"",""18122""
","
","
","""event"",""trial"",""time""
""fullscreenenter"",""5"",""18122""
","
","3830","audio/quiz/Q3_Prompt.wav","","1","","","","","","","","","","","","","","","","","",""
"audio-keyboard-response","133","466502","0.0-74.0","923","681","13","Male","false","true","true","false","""event"",""trial"",""time""
""fullscreenenter"",""5"",""18122""
","
","
","""event"",""trial"",""time""
""fullscreenenter"",""5"",""18122""
","
","1200","audio/quiz/Q3_Correct.wav","32","","","","","","","","","","","","","","","","","","",""
"d3-instructions","134","469423","0.0-75.0","923","681","13","Male","false","true","true","false","""event"",""trial"",""time""
""fullscreenenter"",""5"",""18122""
","
","
","""event"",""trial"",""time""
""fullscreenenter"",""5"",""18122""
","
","","","","","","","","","","","","","","","","","","","","","",""
"d3-animate-choice","135","472715","0.0-76.0-0.0","923","681","13","Male","false","true","true","false","""event"",""trial"",""time""
""fullscreenenter"",""5"",""18122""
","
","
","""event"",""trial"",""time""
""fullscreenenter"",""5"",""18122""
","
","1287.0999999977648","","49","","","3000","1","","","images/earth.jpg","images/rocket1","images/rocket2","null","images/rocket2","","1","real","null","1","","",""
"d3-animate-choice","136","475532","0.0-76.0-1.0","923","681","13","Male","false","true","true","false","""event"",""trial"",""time""
""fullscreenenter"",""5"",""18122""
","
","
","""event"",""trial"",""time""
""fullscreenenter"",""5"",""18122""
","
","812.6999999992549","","48","","","3000","1","","","images/purpleplanet.jpg","images/alien4","images/alien3","images/rocket2","images/alien4","images/t.png","2","real","true","2","common","1","2022-02-09 01:28:32.034"
"two-step-fixation","137","476537","0.0-76.0-2.0","923","681","13","Male","false","true","true","false","""event"",""trial"",""time""
""fullscreenenter"",""5"",""18122""
","
","
","""event"",""trial"",""time""
""fullscreenenter"",""5"",""18122""
","
","","images/earth.jpg","","","","","","","","","","","","","","fixation","","","","","",""
"d3-animate-choice","138","479020","0.0-76.0-0.1","923","681","13","Male","false","true","true","false","""event"",""trial"",""time""
""fullscreenenter"",""5"",""18122""
","
","
","""event"",""trial"",""time""
""fullscreenenter"",""5"",""18122""
","
","465.29999999701977","","49","","","3000","1","","","images/earth.jpg","images/rocket1","images/rocket2","null","images/rocket2","","1","real","null","1","","",""
"d3-animate-choice","139","481448","0.0-76.0-1.1","923","681","13","Male","false","true","true","false","""event"",""trial"",""time""
""fullscreenenter"",""5"",""18122""
","
","
","""event"",""trial"",""time""
""fullscreenenter"",""5"",""18122""
","
","421.8999999985099","","49","","","3000","1","","","images/purpleplanet.jpg","images/alien4","images/alien3","images/rocket2","images/alien3","images/t.png","2","real","true","1","common","1","2022-02-09 01:28:37.950"
"two-step-fixation","140","482452","0.0-76.0-2.1","923","681","13","Male","false","true","true","false","""event"",""trial"",""time""
""fullscreenenter"",""5"",""18122""
","
","
","""event"",""trial"",""time""
""fullscreenenter"",""5"",""18122""
","
","","images/earth.jpg","","","","","","","","","","","","","","fixation","","","","","",""
"d3-animate-choice","141","485037","0.0-76.0-0.2","923","681","13","Male","false","true","true","false","""event"",""trial"",""time""
""fullscreenenter"",""5"",""18122""
","
","
","""event"",""trial"",""time""
""fullscreenenter"",""5"",""18122""
","
","579.6000000014901","","48","","","3000","1","614.3999999985099","49","images/earth.jpg","images/rocket1","images/rocket2","null","images/rocket1","","1","real","null","2","","",""
"d3-animate-choice","142","487841","0.0-76.0-1.2","923","681","13","Male","false","true","true","false","""event"",""trial"",""time""
""fullscreenenter"",""5"",""18122""
","
","
","""event"",""trial"",""time""
""fullscreenenter"",""5"",""18122""
","
","796.2000000029802","","49","","","3000","1","","","images/redplanet1.jpg","images/alien2","images/alien1","images/rocket1","images/alien1","images/nothing.png","2","real","true","1","common","0","2022-02-09 01:28:44.344"
"two-step-fixation","143","488848","0.0-76.0-2.2","923","681","13","Male","false","true","true","false","""event"",""trial"",""time""
""fullscreenenter"",""5"",""18122""
","
","
","""event"",""trial"",""time""
""fullscreenenter"",""5"",""18122""
","
","","images/earth.jpg","","","","","","","","","","","","","","fixation","","","","","",""
"d3-animate-choice","144","491086","0.0-76.0-0.3","923","681","13","Male","false","true","true","false","""event"",""trial"",""time""
""fullscreenenter"",""5"",""18122""
","
","
","""event"",""trial"",""time""
""fullscreenenter"",""5"",""18122""
","
","232.60000000149012","","48","","","3000","1","1000,1223.9000000022352,1649.800000000745,1866.5,2081.699999999255","48,48,48,48,48","images/earth.jpg","images/rocket1","images/rocket2","null","images/rocket1","","1","real","null","2","","",""
"d3-animate-choice","145","493131","0.0-76.0-1.3","923","681","13","Male","false","true","true","false","""event"",""trial"",""time""
""fullscreenenter"",""5"",""18122""
","
","
","""event"",""trial"",""time""
""fullscreenenter"",""5"",""18122""
","
","39.19999999925494","","48","","","3000","1","209.59999999776483,394.80000000074506,586.1999999992549","48,48,48","images/redplanet1.jpg","images/alien2","images/alien1","images/rocket1","images/alien2","images/t.png","2","real","true","2","common","1","2022-02-09 01:28:49.633"
"two-step-fixation","146","494135","0.0-76.0-2.3","923","681","13","Male","false","true","true","false","""event"",""trial"",""time""
""fullscreenenter"",""5"",""18122""
","
","
","""event"",""trial"",""time""
""fullscreenenter"",""5"",""18122""
","
","","images/earth.jpg","","","","","","","","","","","","","","fixation","","","","","",""
"d3-animate-choice","147","496401","0.0-76.0-0.4","923","681","13","Male","false","true","true","false","""event"",""trial"",""time""
""fullscreenenter"",""5"",""18122""
","
","
","""event"",""trial"",""time""
""fullscreenenter"",""5"",""18122""
","
","262.19999999925494","","49","","","3000","1","1711.199999999255,1865.800000000745,2001.5999999977648,2051.300000000745,2202.300000000745,2241.800000000745","49,48,49,48,49,48","images/earth.jpg","images/rocket1","images/rocket2","null","images/rocket2","","1","real","null","1","","",""
"d3-animate-choice","148","498522","0.0-76.0-1.4","923","681","13","Male","false","true","true","false","""event"",""trial"",""time""
""fullscreenenter"",""5"",""18122""
","
","
","""event"",""trial"",""time""
""fullscreenenter"",""5"",""18122""
","
","109.89999999850988","","48","","","3000","1","121.09999999776483,285.5,295.80000000074506,425.80000000074506,440.80000000074506,556","49,48,49,48,49,48","images/purpleplanet.jpg","images/alien4","images/alien3","images/rocket2","images/alien4","images/t.png","2","real","true","2","common","1","2022-02-09 01:28:55.024"
"two-step-fixation","149","499526","0.0-76.0-2.4","923","681","13","Male","false","true","true","false","""event"",""trial"",""time""
""fullscreenenter"",""5"",""18122""
","
","
","""event"",""trial"",""time""
""fullscreenenter"",""5"",""18122""
","
","","images/earth.jpg","","","","","","","","","","","","","","fixation","","","","","",""
"d3-animate-choice","150","502054","0.0-76.0-0.5","923","681","13","Male","false","true","true","false","""event"",""trial"",""time""
""fullscreenenter"",""5"",""18122""
","
","
","""event"",""trial"",""time""
""fullscreenenter"",""5"",""18122""
","
","523.9000000022352","","49","","","3000","1","1536,2238","48,48","images/earth.jpg","images/rocket1","images/rocket2","null","images/rocket2","","1","real","null","1","","",""
"d3-animate-choice","151","504080","0.0-76.0-1.5","923","681","13","Male","false","true","true","false","""event"",""trial"",""time""
""fullscreenenter"",""5"",""18122""
","
","
","""event"",""trial"",""time""
""fullscreenenter"",""5"",""18122""
","
","19.399999998509884","","49","","","3000","1","226.09999999776483,630.6999999992549,937.3999999985099,1813.7999999970198","48,48,48,49","images/redplanet1.jpg","images/alien2","images/alien1","images/rocket2","images/alien1","images/t.png","2","real","false","1","rare","1","2022-02-09 01:29:00.582"
"two-step-fixation","152","505085","0.0-76.0-2.5","923","681","13","Male","false","true","true","false","""event"",""trial"",""time""
""fullscreenenter"",""5"",""18122""
","
","
","""event"",""trial"",""time""
""fullscreenenter"",""5"",""18122""
","
","","images/earth.jpg","","","","","","","","","","","","","","fixation","","","","","",""
"d3-animate-choice","153","507347","0.0-76.0-0.6","923","681","13","Male","false","true","true","false","""event"",""trial"",""time""
""fullscreenenter"",""5"",""18122""
","
","
","""event"",""trial"",""time""
""fullscreenenter"",""5"",""18122""
","
","256.5","","49","","","3000","1","442.19999999925494,722.5,948.3000000007451,1179.3999999985099,1409,1645,2176.699999999255","49,49,48,49,49,48,49","images/earth.jpg","images/rocket1","images/rocket2","null","images/rocket2","","1","real","null","1","","",""
"d3-animate-choice","154","509692","0.0-76.0-1.6","923","681","13","Male","false","true","true","false","""event"",""trial"",""time""
""fullscreenenter"",""5"",""18122""
","
","
","""event"",""trial"",""time""
""fullscreenenter"",""5"",""18122""
","
","338.5","","48","","","3000","1","819.5,1311.699999999255,1781.699999999255,2002.300000000745,2202.900000002235","48,48,49,48,49","images/purpleplanet.jpg","images/alien4","images/alien3","images/rocket2","images/alien4","images/t.png","2","real","true","2","common","1","2022-02-09 01:29:06.194"
"two-step-fixation","155","510696","0.0-76.0-2.6","923","681","13","Male","false","true","true","false","""event"",""trial"",""time""
""fullscreenenter"",""5"",""18122""
","
","
","""event"",""trial"",""time""
""fullscreenenter"",""5"",""18122""
","
","","images/earth.jpg","","","","","","","","","","","","","","fixation","","","","","",""
"d3-animate-choice","156","512918","0.0-76.0-0.7","923","681","13","Male","false","true","true","false","""event"",""trial"",""time""
""fullscreenenter"",""5"",""18122""
","
","
","""event"",""trial"",""time""
""fullscreenenter"",""5"",""18122""
","
","217.89999999850988","","48","","","3000","1","695,1181.3999999985099,1406.8999999985099,1596.8999999985099,1706.2999999970198,1933.2999999970198,2192.5","48,49,49,48,49,48,48","images/earth.jpg","images/rocket1","images/rocket2","null","images/rocket1","","1","real","null","2","","",""
"d3-animate-choice","157","515089","0.0-76.0-1.7","923","681","13","Male","false","true","true","false","""event"",""trial"",""time""
""fullscreenenter"",""5"",""18122""
","
","
","""event"",""trial"",""time""
""fullscreenenter"",""5"",""18122""
","
","166.39999999850988","","49","","","3000","1","261.69999999925494,532.8999999985099,777.8000000007451,1003.3000000007451,1103.699999999255,1334.1000000014901,1644.8999999985099,1961","48,48,48,49,48,48,48,48","images/purpleplanet.jpg","images/alien4","images/alien3","images/rocket1","images/alien3","images/nothing.png","2","real","false","1","rare","0","2022-02-09 01:29:11.591"
"two-step-fixation","158","516093","0.0-76.0-2.7","923","681","13","Male","false","true","true","false","""event"",""trial"",""time""
""fullscreenenter"",""5"",""18122""
","
","
","""event"",""trial"",""time""
""fullscreenenter"",""5"",""18122""
","
","","images/earth.jpg","","","","","","","","","","","","","","fixation","","","","","",""
"d3-animate-choice","159","518126","0.0-76.0-0.8","923","681","13","Male","false","true","true","false","""event"",""trial"",""time""
""fullscreenenter"",""5"",""18122""
","
","
","""event"",""trial"",""time""
""fullscreenenter"",""5"",""18122""
","
","28","","49","","","3000","1","564.3000000007451,900,1150.699999999255","48,49,48","images/earth.jpg","images/rocket1","images/rocket2","null","images/rocket2","","1","real","null","1","","",""
"d3-animate-choice","160","520861","0.0-76.0-1.8","923","681","13","Male","false","true","true","false","""event"",""trial"",""time""
""fullscreenenter"",""5"",""18122""
","
","
","""event"",""trial"",""time""
""fullscreenenter"",""5"",""18122""
","
","730.2000000029802","","48","","","3000","1","1016.3000000007451,1472,1697.300000000745,1963.300000000745,2439.5,2656.2000000029802","49,48,48,49,48,48","images/purpleplanet.jpg","images/alien4","images/alien3","images/rocket2","images/alien4","images/t.png","2","real","true","2","common","1","2022-02-09 01:29:17.363"
"two-step-fixation","161","521865","0.0-76.0-2.8","923","681","13","Male","false","true","true","false","""event"",""trial"",""time""
""fullscreenenter"",""5"",""18122""
","
","
","""event"",""trial"",""time""
""fullscreenenter"",""5"",""18122""
","
","","images/earth.jpg","","","","","","","","","","","","","","fixation","","","","","",""
"d3-animate-choice","162","524239","0.0-76.0-0.9","923","681","13","Male","false","true","true","false","""event"",""trial"",""time""
""fullscreenenter"",""5"",""18122""
","
","
","""event"",""trial"",""time""
""fullscreenenter"",""5"",""18122""
","
","369.30000000074506","","48","","","3000","1","1196.6000000014901,1391.6000000014901,1592.4000000022352,1722.5,1837.9000000022352,2068.2000000029802,2158.5,2288.900000002235","48,49,48,49,48,48,49,48","images/earth.jpg","images/rocket1","images/rocket2","null","images/rocket1","","1","real","null","2","","",""
"d3-animate-choice","163","526407","0.0-76.0-1.9","923","681","13","Male","false","true","true","false","""event"",""trial"",""time""
""fullscreenenter"",""5"",""18122""
","
","
","""event"",""trial"",""time""
""fullscreenenter"",""5"",""18122""
","
","161.19999999925494","","48","","","3000","1","286.3999999985099,357.69999999925494,596.6999999992549,862.6999999992549,1152.8999999985099,1433.300000000745,1669.3999999985099,1779.0999999977648,2115","49,48,48,48,48,48,48,49,48","images/redplanet1.jpg","images/alien2","images/alien1","images/rocket1","images/alien2","images/t.png","2","real","true","2","common","1","2022-02-09 01:29:22.909"
"two-step-fixation","164","527412","0.0-76.0-2.9","923","681","13","Male","false","true","true","false","""event"",""trial"",""time""
""fullscreenenter"",""5"",""18122""
","
","
","""event"",""trial"",""time""
""fullscreenenter"",""5"",""18122""
","
","","images/earth.jpg","","","","","","","","","","","","","","fixation","","","","","",""
"d3-animate-choice","165","529743","0.0-76.0-0.10","923","681","13","Male","false","true","true","false","""event"",""trial"",""time""
""fullscreenenter"",""5"",""18122""
","
","
","""event"",""trial"",""time""
""fullscreenenter"",""5"",""18122""
","
","325.6000000014901","","48","","","3000","1","567.8000000007451,836.1000000014901,1037.9000000022352,1172.2000000029802,1397.300000000745,1533.800000000745,1848.7000000029802,2094.900000002235,2269.5","48,48,48,48,48,48,48,48,48","images/earth.jpg","images/rocket1","images/rocket2","null","images/rocket1","","1","real","null","2","","",""
"d3-animate-choice","166","531806","0.0-76.0-1.10","923","681","13","Male","false","true","true","false","""event"",""trial"",""time""
""fullscreenenter"",""5"",""18122""
","
","
","""event"",""trial"",""time""
""fullscreenenter"",""5"",""18122""
","
","58.80000000074506","","48","","","3000","1","319.30000000074506,589.6000000014901,1054.3999999985099,1321.300000000745,1446.6000000014901,1735.1000000014901,1999.300000000745","48,48,48,48,48,48,48","images/redplanet1.jpg","images/alien2","images/alien1","images/rocket1","images/alien2","images/t.png","2","real","true","2","common","1","2022-02-09 01:29:28.309"
"two-step-fixation","167","532810","0.0-76.0-2.10","923","681","13","Male","false","true","true","false","""event"",""trial"",""time""
""fullscreenenter"",""5"",""18122""
","
","
","""event"",""trial"",""time""
""fullscreenenter"",""5"",""18122""
","
","","images/earth.jpg","","","","","","","","","","","","","","fixation","","","","","",""
"d3-animate-choice","168","534933","0.0-76.0-0.11","923","681","13","Male","false","true","true","false","""event"",""trial"",""time""
""fullscreenenter"",""5"",""18122""
","
","
","""event"",""trial"",""time""
""fullscreenenter"",""5"",""18122""
","
","118.39999999850988","","48","","","3000","1","280.69999999925494,564.5999999977648,820.3999999985099,910.2999999970198,1206.699999999255,1357.2999999970198,1782.2999999970198,2048.7999999970198","49,48,48,49,48,48,48,49","images/earth.jpg","images/rocket1","images/rocket2","null","images/rocket1","","1","real","null","2","","",""
"d3-animate-choice","169","537164","0.0-76.0-1.11","923","681","13","Male","false","true","true","false","""event"",""trial"",""time""
""fullscreenenter"",""5"",""18122""
","
","
","""event"",""trial"",""time""
""fullscreenenter"",""5"",""18122""
","
","225.40000000223517","","48","","","3000","1","375.9000000022352,636.5,861.9000000022352,1017.6000000014901,1182.699999999255,1353.1000000014901,1638.699999999255,1890.300000000745","49,48,48,48,49,48,48,49","images/redplanet1.jpg","images/alien2","images/alien1","images/rocket1","images/alien2","images/nothing.png","2","real","true","2","common","0","2022-02-09 01:29:33.666"
"two-step-fixation","170","538169","0.0-76.0-2.11","923","681","13","Male","false","true","true","false","""event"",""trial"",""time""
""fullscreenenter"",""5"",""18122""
","
","
","""event"",""trial"",""time""
""fullscreenenter"",""5"",""18122""
","
","","images/earth.jpg","","","","","","","","","","","","","","fixation","","","","","",""
"d3-animate-choice","171","540311","0.0-76.0-0.12","923","681","13","Male","false","true","true","false","""event"",""trial"",""time""
""fullscreenenter"",""5"",""18122""
","
","
","""event"",""trial"",""time""
""fullscreenenter"",""5"",""18122""
","
","136.59999999776483","","49","","","3000","1","487.29999999701977,674.6999999992549,1014,1284.2999999970198,1581.199999999255,1715.199999999255,1991.699999999255","49,49,48,49,48,49,48","images/earth.jpg","images/rocket1","images/rocket2","null","images/rocket2","","1","real","null","1","","",""
"d3-animate-choice","172","542776","0.0-76.0-1.12","923","681","13","Male","false","true","true","false","""event"",""trial"",""time""
""fullscreenenter"",""5"",""18122""
","
","
","""event"",""trial"",""time""
""fullscreenenter"",""5"",""18122""
","
","236","","9","","","3000","1","460.69999999925494","48","images/purpleplanet.jpg","images/alien4","images/alien3","images/rocket2","images/alien4","images/t.png","2","real","true","","common","1","2022-02-09 01:29:39.278"
"two-step-fixation","173","543780","0.0-76.0-2.12","923","681","13","Male","false","true","true","false","""event"",""trial"",""time""
""fullscreenenter"",""5"",""18122""
","
","
","""event"",""trial"",""time""
""fullscreenenter"",""5"",""18122""
","
","","images/earth.jpg","","","","","","","","","","","","","","fixation","","","","","",""
"d3-animate-choice","174","547291","0.0-76.0-0.13","923","681","13","Male","false","true","true","false","""event"",""trial"",""time""
""fullscreenenter"",""5"",""18122""
","
","
","""event"",""trial"",""time""
""fullscreenenter"",""5"",""18122""
","
","1176.6000000014901","","9","","","3000","1","1506.6000000014901,3005.400000002235","49,48","images/earth.jpg","images/rocket1","images/rocket2","null","images/rocket2","","1","real","null","","","",""
"d3-animate-choice","175","551298","0.0-76.0-1.13","923","681","13","Male","false","true","true","false","""event"",""trial"",""time""
""fullscreenenter"",""5"",""18122""
","
","
","""event"",""trial"",""time""
""fullscreenenter"",""5"",""18122""
","
","2276.2000000029802","","49","","","3000","1","","","images/redplanet1.jpg","images/alien2","images/alien1","images/rocket2","images/alien1","images/nothing.png","2","real","false","1","rare","0","2022-02-09 01:29:47.800"
"two-step-fixation","176","552302","0.0-76.0-2.13","923","681","13","Male","false","true","true","false","""event"",""trial"",""time""
""fullscreenenter"",""5"",""18122""
","
","
","""event"",""trial"",""time""
""fullscreenenter"",""5"",""18122""
","
","","images/earth.jpg","","","","","","","","","","","","","","fixation","","","","","",""
"d3-animate-choice","177","554709","0.0-76.0-0.14","923","681","13","Male","false","true","true","false","""event"",""trial"",""time""
""fullscreenenter"",""5"",""18122""
","
","
","""event"",""trial"",""time""
""fullscreenenter"",""5"",""18122""
","
","402.6000000014901","","48","","","3000","1","2221.400000002235","49","images/earth.jpg","images/rocket1","images/rocket2","null","images/rocket1","","1","real","null","2","","",""
"d3-animate-choice","178","557289","0.0-76.0-1.14","923","681","13","Male","false","true","true","false","""event"",""trial"",""time""
""fullscreenenter"",""5"",""18122""
","
","
","""event"",""trial"",""time""
""fullscreenenter"",""5"",""18122""
","
","575.6000000014901","","49","","","3000","1","","","images/purpleplanet.jpg","images/alien4","images/alien3","images/rocket1","images/alien3","images/t.png","2","real","false","1","rare","1","2022-02-09 01:29:53.791"
"two-step-fixation","179","558292","0.0-76.0-2.14","923","681","13","Male","false","true","true","false","""event"",""trial"",""time""
""fullscreenenter"",""5"",""18122""
","
","
","""event"",""trial"",""time""
""fullscreenenter"",""5"",""18122""
","
","","images/earth.jpg","","","","","","","","","","","","","","fixation","","","","","",""
"d3-animate-choice","180","560657","0.0-76.0-0.15","923","681","13","Male","false","true","true","false","""event"",""trial"",""time""
""fullscreenenter"",""5"",""18122""
","
","
","""event"",""trial"",""time""
""fullscreenenter"",""5"",""18122""
","
","360.8999999985099","","49","","","3000","1","","","images/earth.jpg","images/rocket1","images/rocket2","null","images/rocket2","","1","real","null","1","","",""
"d3-animate-choice","181","563916","0.0-76.0-1.15","923","681","13","Male","false","true","true","false","""event"",""trial"",""time""
""fullscreenenter"",""5"",""18122""
","
","
","""event"",""trial"",""time""
""fullscreenenter"",""5"",""18122""
","
","1255.199999999255","","48","","","3000","1","","","images/purpleplanet.jpg","images/alien4","images/alien3","images/rocket2","images/alien4","images/nothing.png","2","real","true","2","common","0","2022-02-09 01:30:00.418"
"two-step-fixation","182","564919","0.0-76.0-2.15","923","681","13","Male","false","true","true","false","""event"",""trial"",""time""
""fullscreenenter"",""5"",""18122""
","
","
","""event"",""trial"",""time""
""fullscreenenter"",""5"",""18122""
","
","","images/earth.jpg","","","","","","","","","","","","","","fixation","","","","","",""
"d3-animate-choice","183","566968","0.0-76.0-0.16","923","681","13","Male","false","true","true","false","""event"",""trial"",""time""
""fullscreenenter"",""5"",""18122""
","
","
","""event"",""trial"",""time""
""fullscreenenter"",""5"",""18122""
","
","43.600000001490116","","49","","","3000","1","","","images/earth.jpg","images/rocket1","images/rocket2","null","images/rocket2","","1","real","null","1","","",""
"d3-animate-choice","184","569509","0.0-76.0-1.16","923","681","13","Male","false","true","true","false","""event"",""trial"",""time""
""fullscreenenter"",""5"",""18122""
","
","
","""event"",""trial"",""time""
""fullscreenenter"",""5"",""18122""
","
","536.8999999985099","","49","","","3000","1","","","images/purpleplanet.jpg","images/alien4","images/alien3","images/rocket2","images/alien3","images/nothing.png","2","real","true","1","common","0","2022-02-09 01:30:06.011"
"two-step-fixation","185","570513","0.0-76.0-2.16","923","681","13","Male","false","true","true","false","""event"",""trial"",""time""
""fullscreenenter"",""5"",""18122""
","
","
","""event"",""trial"",""time""
""fullscreenenter"",""5"",""18122""
","
","","images/earth.jpg","","","","","","","","","","","","","","fixation","","","","","",""
"d3-animate-choice","186","572605","0.0-76.0-0.17","923","681","13","Male","false","true","true","false","""event"",""trial"",""time""
""fullscreenenter"",""5"",""18122""
","
","
","""event"",""trial"",""time""
""fullscreenenter"",""5"",""18122""
","
","88.20000000298023","","48","","","3000","1","308.30000000074506,423.4000000022352,507.70000000298023,623.5,657.9000000022352","48,49,48,49,48","images/earth.jpg","images/rocket1","images/rocket2","null","images/rocket1","","1","real","null","2","","",""
"d3-animate-choice","187","574845","0.0-76.0-1.17","923","681","13","Male","false","true","true","false","""event"",""trial"",""time""
""fullscreenenter"",""5"",""18122""
","
","
","""event"",""trial"",""time""
""fullscreenenter"",""5"",""18122""
","
","236.40000000223517","","49","","","3000","1","251,460.5,480.30000000074506,651,711.1000000014901","48,48,49,48,49","images/redplanet1.jpg","images/alien2","images/alien1","images/rocket1","images/alien1","images/nothing.png","2","real","true","1","common","0","2022-02-09 01:30:11.347"
"two-step-fixation","188","575852","0.0-76.0-2.17","923","681","13","Male","false","true","true","false","""event"",""trial"",""time""
""fullscreenenter"",""5"",""18122""
","
","
","""event"",""trial"",""time""
""fullscreenenter"",""5"",""18122""
","
","","images/earth.jpg","","","","","","","","","","","","","","fixation","","","","","",""
"d3-animate-choice","189","577945","0.0-76.0-0.18","923","681","13","Male","false","true","true","false","""event"",""trial"",""time""
""fullscreenenter"",""5"",""18122""
","
","
","""event"",""trial"",""time""
""fullscreenenter"",""5"",""18122""
","
","88.60000000149012","","48","","","3000","1","204.10000000149012,349.19999999925494,474.3999999985099,615.1999999992549,785.1000000014901,920.8000000007451,1045.5,1186.1000000014901,1297.300000000745,1457.5,1989.800000000745","49,48,49,48,49,48,49,48,49,48,48","images/earth.jpg","images/rocket1","images/rocket2","null","images/rocket1","","1","real","null","2","","",""
"d3-animate-choice","190","579974","0.0-76.0-1.18","923","681","13","Male","false","true","true","false","""event"",""trial"",""time""
""fullscreenenter"",""5"",""18122""
","
","
","""event"",""trial"",""time""
""fullscreenenter"",""5"",""18122""
","
","24.899999998509884","","49","","","3000","1","180,310.3999999985099,461.1000000014901,746.6000000014901,1057.1000000014901,1067.199999999255,1823.300000000745,1919.199999999255","48,49,48,49,48,187,48,49","images/redplanet1.jpg","images/alien2","images/alien1","images/rocket1","images/alien1","images/t.png","2","real","true","1","common","1","2022-02-09 01:30:16.476"
"two-step-fixation","191","580977","0.0-76.0-2.18","923","681","13","Male","false","true","true","false","""event"",""trial"",""time""
""fullscreenenter"",""5"",""18122""
","
","
","""event"",""trial"",""time""
""fullscreenenter"",""5"",""18122""
","
","","images/earth.jpg","","","","","","","","","","","","","","fixation","","","","","",""
"d3-animate-choice","192","583441","0.0-76.0-0.19","923","681","13","Male","false","true","true","false","""event"",""trial"",""time""
""fullscreenenter"",""5"",""18122""
","
","
","""event"",""trial"",""time""
""fullscreenenter"",""5"",""18122""
","
","459.80000000074506","","48","","","3000","1","1276.5999999977648,1757.3999999985099,2038.0999999977648,2290.39999999851","48,49,48,49","images/earth.jpg","images/rocket1","images/rocket2","null","images/rocket1","","1","real","null","2","","",""
"d3-animate-choice","193","586042","0.0-76.0-1.19","923","681","13","Male","false","true","true","false","""event"",""trial"",""time""
""fullscreenenter"",""5"",""18122""
","
","
","""event"",""trial"",""time""
""fullscreenenter"",""5"",""18122""
","
","597.0999999977648","","48","","","3000","1","758.6999999992549,802.3999999985099,937.6999999992549,1017.5,1189.300000000745,1368,1528.3999999985099,1709,1783.8999999985099,1834.199999999255,2034.5999999977648,2119.699999999255,2420.800000000745,2510.5,2555.699999999255","49,48,49,48,48,49,48,48,49,48,48,49,48,49,48","images/redplanet1.jpg","images/alien2","images/alien1","images/rocket1","images/alien2","images/t.png","2","real","true","2","common","1","2022-02-09 01:30:22.544"
"two-step-fixation","194","587045","0.0-76.0-2.19","923","681","13","Male","false","true","true","false","""event"",""trial"",""time""
""fullscreenenter"",""5"",""18122""
","
","
","""event"",""trial"",""time""
""fullscreenenter"",""5"",""18122""
","
","","images/earth.jpg","","","","","","","","","","","","","","fixation","","","","","",""
"d3-animate-choice","195","589054","0.0-76.0-0.20","923","681","13","Male","false","true","true","false","""event"",""trial"",""time""
""fullscreenenter"",""5"",""18122""
","
","
","""event"",""trial"",""time""
""fullscreenenter"",""5"",""18122""
","
","5.099999997764826","","48","","","3000","1","144.09999999776483,173.89999999850988,339.19999999925494,559.7999999970198,669.5999999977648,700,845.2999999970198,1241.2999999970198,1281,1351.2999999970198,1641.7999999970198,1672.0999999977648,1772.199999999255,1957.3999999985099","49,48,49,48,49,48,49,48,49,48,48,49,48,48","images/earth.jpg","images/rocket1","images/rocket2","null","images/rocket1","","1","real","null","2","","",""
"d3-animate-choice","196","591103","0.0-76.0-1.20","923","681","13","Male","false","true","true","false","""event"",""trial"",""time""
""fullscreenenter"",""5"",""18122""
","
","
","""event"",""trial"",""time""
""fullscreenenter"",""5"",""18122""
","
","45.599999997764826","","49","","","3000","1","164.30000000074506,244.39999999850988,350.0999999977648,446.0999999977648,500.0999999977648,655.0999999977648,735.3000000007451,850.6999999992549,883.5999999977648,1026.5,1036,1171.300000000745,1216.300000000745,1357.699999999255,1401.699999999255,1538.300000000745,1588,1717.300000000745,1747.699999999255,1912.800000000745,1989","48,49,48,49,48,49,48,49,48,49,48,48,49,48,49,48,49,48,49,48,49","images/purpleplanet.jpg","images/alien4","images/alien3","images/rocket1","images/alien3","images/t.png","2","real","false","1","rare","1","2022-02-09 01:30:27.605"
"two-step-fixation","197","592106","0.0-76.0-2.20","923","681","13","Male","false","true","true","false","""event"",""trial"",""time""
""fullscreenenter"",""5"",""18122""
","
","
","""event"",""trial"",""time""
""fullscreenenter"",""5"",""18122""
","
","","images/earth.jpg","","","","","","","","","","","","","","fixation","","","","","",""
"d3-animate-choice","198","594153","0.0-76.0-0.21","923","681","13","Male","false","true","true","false","""event"",""trial"",""time""
""fullscreenenter"",""5"",""18122""
","
","
","""event"",""trial"",""time""
""fullscreenenter"",""5"",""18122""
","
","41.5","","48","","","3000","1","116.5,413.5,422.8999999985099,532.7999999970198,558,699,1048.3999999985099,1088.3999999985099,1148.7999999970198,1359.199999999255,1519.699999999255,1624.5,1709.7999999970198,1870,2005.3999999985099","49,48,49,48,49,48,48,49,48,48,48,49,48,48,49","images/earth.jpg","images/rocket1","images/rocket2","null","images/rocket1","","1","real","null","2","","",""
"d3-animate-choice","199","596270","0.0-76.0-1.21","923","681","13","Male","false","true","true","false","""event"",""trial"",""time""
""fullscreenenter"",""5"",""18122""
","
","
","""event"",""trial"",""time""
""fullscreenenter"",""5"",""18122""
","
","110.10000000149012","","48","","","3000","1","275.20000000298023,1302.9000000022352,1642.800000000745,1813.5","48,48,49,48","images/purpleplanet.jpg","images/alien4","images/alien3","images/rocket1","images/alien4","images/nothing.png","2","real","false","2","rare","0","2022-02-09 01:30:32.772"
"two-step-fixation","200","597274","0.0-76.0-2.21","923","681","13","Male","false","true","true","false","""event"",""trial"",""time""
""fullscreenenter"",""5"",""18122""
","
","
","""event"",""trial"",""time""
""fullscreenenter"",""5"",""18122""
","
","","images/earth.jpg","","","","","","","","","","","","","","fixation","","","","","",""
"d3-animate-choice","201","599982","0.0-76.0-0.22","923","681","13","Male","false","true","true","false","""event"",""trial"",""time""
""fullscreenenter"",""5"",""18122""
","
","
","""event"",""trial"",""time""
""fullscreenenter"",""5"",""18122""
","
","700.4000000022352","","49","","","3000","1","865.3000000007451,1045.6000000014901,1366.9000000022352,1553.2000000029802,1721.9000000022352,1847.2000000029802,2027.6000000014901,2167.800000000745,2278.400000002235,2318.300000000745,2655.300000000745","49,49,48,49,48,48,49,48,49,48,48","images/earth.jpg","images/rocket1","images/rocket2","null","images/rocket2","","1","real","null","1","","",""
"d3-animate-choice","202","602097","0.0-76.0-1.22","923","681","13","Male","false","true","true","false","""event"",""trial"",""time""
""fullscreenenter"",""5"",""18122""
","
","
","""event"",""trial"",""time""
""fullscreenenter"",""5"",""18122""
","
","109.60000000149012","","49","","","3000","1","410.5,594.1000000014901,739.6999999992549,1060.4000000022352,1230.800000000745,1396,1742.5,2057.699999999255","48,49,48,48,49,48,48,48","images/purpleplanet.jpg","images/alien4","images/alien3","images/rocket2","images/alien3","images/t.png","2","real","true","1","common","1","2022-02-09 01:30:38.599"
"two-step-fixation","203","603101","0.0-76.0-2.22","923","681","13","Male","false","true","true","false","""event"",""trial"",""time""
""fullscreenenter"",""5"",""18122""
","
","
","""event"",""trial"",""time""
""fullscreenenter"",""5"",""18122""
","
","","images/earth.jpg","","","","","","","","","","","","","","fixation","","","","","",""
"d3-animate-choice","204","605392","0.0-76.0-0.23","923","681","13","Male","false","true","true","false","""event"",""trial"",""time""
""fullscreenenter"",""5"",""18122""
","
","
","""event"",""trial"",""time""
""fullscreenenter"",""5"",""18122""
","
","286.69999999925494","","48","","","3000","1","451.69999999925494,647.3000000007451,968.9000000022352,1218.4000000022352,1283.6000000014901,1369.800000000745,1554.800000000745,1679.800000000745,1834.5,1981.9000000022352,2095.10000000149,2135.300000000745,2275.900000002235","49,48,48,48,49,48,48,49,48,48,49,48,49","images/earth.jpg","images/rocket1","images/rocket2","null","images/rocket1","","1","real","null","2","","",""
"d3-animate-choice","205","607446","0.0-76.0-1.23","923","681","13","Male","false","true","true","false","""event"",""trial"",""time""
""fullscreenenter"",""5"",""18122""
","
","
","""event"",""trial"",""time""
""fullscreenenter"",""5"",""18122""
","
","50.099999997764826","","48","","","3000","1","235.5,417.5,436.0999999977648,636.0999999977648,671.3000000007451,856.5999999977648,906.6999999992549,1083.300000000745,1127.300000000745,1343.199999999255,1553.0999999977648,1803.800000000745","48,49,48,48,49,48,49,48,49,49,48,49","images/redplanet1.jpg","images/alien2","images/alien1","images/rocket1","images/alien2","images/nothing.png","2","real","true","2","common","0","2022-02-09 01:30:43.949"
"two-step-fixation","206","608450","0.0-76.0-2.23","923","681","13","Male","false","true","true","false","""event"",""trial"",""time""
""fullscreenenter"",""5"",""18122""
","
","
","""event"",""trial"",""time""
""fullscreenenter"",""5"",""18122""
","
","","images/earth.jpg","","","","","","","","","","","","","","fixation","","","","","",""
"d3-animate-choice","207","610547","0.0-76.0-0.24","923","681","13","Male","false","true","true","false","""event"",""trial"",""time""
""fullscreenenter"",""5"",""18122""
","
","
","""event"",""trial"",""time""
""fullscreenenter"",""5"",""18122""
","
","93.39999999850988","","49","","","3000","1","317.79999999701977,544,743.7999999970198,934.6999999992549,1109.3999999985099,1214.699999999255,1380.0999999977648,1550.3999999985099,1695.7999999970198,2012","49,49,49,49,48,49,48,49,48,48","images/earth.jpg","images/rocket1","images/rocket2","null","images/rocket2","","1","real","null","1","","",""
"d3-animate-choice","208","612748","0.0-76.0-1.24","923","681","13","Male","false","true","true","false","""event"",""trial"",""time""
""fullscreenenter"",""5"",""18122""
","
","
","""event"",""trial"",""time""
""fullscreenenter"",""5"",""18122""
","
","196","","49","","","3000","1","455.6000000014901,641.1999999992549,911.8000000007451,1122,1323,1482.8999999985099,1513.1000000014901,1643.6000000014901,1723.199999999255,1839.3999999985099,1893.699999999255,1998.800000000745,2094.60000000149","48,48,49,48,48,49,48,49,48,49,48,49,48","images/redplanet1.jpg","images/alien2","images/alien1","images/rocket2","images/alien1","images/t.png","2","real","false","1","rare","1","2022-02-09 01:30:49.250"
"two-step-fixation","209","613753","0.0-76.0-2.24","923","681","13","Male","false","true","true","false","""event"",""trial"",""time""
""fullscreenenter"",""5"",""18122""
","
","
","""event"",""trial"",""time""
""fullscreenenter"",""5"",""18122""
","
","","images/earth.jpg","","","","","","","","","","","","","","fixation","","","","","",""
"d3-animate-choice","210","615898","0.0-76.0-0.25","923","681","13","Male","false","true","true","false","""event"",""trial"",""time""
""fullscreenenter"",""5"",""18122""
","
","
","""event"",""trial"",""time""
""fullscreenenter"",""5"",""18122""
","
","140.89999999850988","","48","","","3000","1","336.8999999985099,575.3000000007451,757,868.8000000007451,957.3000000007451,1072.5,1138.5999999977648,1258,1343.199999999255,1448.5,1555.3999999985099,1679.5999999977648,1879.3999999985099,2045.199999999255","49,49,48,49,48,49,48,49,48,49,48,49,48,48","images/earth.jpg","images/rocket1","images/rocket2","null","images/rocket1","","1","real","null","2","","",""
"d3-animate-choice","211","618053","0.0-76.0-1.25","923","681","13","Male","false","true","true","false","""event"",""trial"",""time""
""fullscreenenter"",""5"",""18122""
","
","
","""event"",""trial"",""time""
""fullscreenenter"",""5"",""18122""
","
","150.19999999925494","","49","","","3000","1","470.69999999925494,671,901.6999999992549,1122.5999999977648,1768.800000000745,2135.5","48,49,48,49,48,49","images/redplanet1.jpg","images/alien2","images/alien1","images/rocket1","images/alien1","images/t.png","2","real","true","1","common","1","2022-02-09 01:30:54.555"
"two-step-fixation","212","619057","0.0-76.0-2.25","923","681","13","Male","false","true","true","false","""event"",""trial"",""time""
""fullscreenenter"",""5"",""18122""
","
","
","""event"",""trial"",""time""
""fullscreenenter"",""5"",""18122""
","
","","images/earth.jpg","","","","","","","","","","","","","","fixation","","","","","",""
"d3-animate-choice","213","621421","0.0-76.0-0.26","923","681","13","Male","false","true","true","false","""event"",""trial"",""time""
""fullscreenenter"",""5"",""18122""
","
","
","""event"",""trial"",""time""
""fullscreenenter"",""5"",""18122""
","
","358.6000000014901","","48","","","3000","1","393.19999999925494,499.30000000074506,523.3000000007451,628.6000000014901,698.8000000007451,799.1999999992549,914.1000000014901,964.3000000007451,1134.6000000014901,1315.1000000014901,1547,1796.199999999255,2066.60000000149","49,48,49,48,49,48,49,48,48,48,48,48,49","images/earth.jpg","images/rocket1","images/rocket2","null","images/rocket1","","1","real","null","2","","",""
"d3-animate-choice","214","623811","0.0-76.0-1.26","923","681","13","Male","false","true","true","false","""event"",""trial"",""time""
""fullscreenenter"",""5"",""18122""
","
","
","""event"",""trial"",""time""
""fullscreenenter"",""5"",""18122""
","
","385.29999999701977","","49","","","3000","1","414.19999999925494,1276","48,48","images/redplanet1.jpg","images/alien2","images/alien1","images/rocket1","images/alien1","images/t.png","2","real","true","1","common","1","2022-02-09 01:31:00.313"
"two-step-fixation","215","624815","0.0-76.0-2.26","923","681","13","Male","false","true","true","false","""event"",""trial"",""time""
""fullscreenenter"",""5"",""18122""
","
","
","""event"",""trial"",""time""
""fullscreenenter"",""5"",""18122""
","
","","images/earth.jpg","","","","","","","","","","","","","","fixation","","","","","",""
"d3-animate-choice","216","626870","0.0-76.0-0.27","923","681","13","Male","false","true","true","false","""event"",""trial"",""time""
""fullscreenenter"",""5"",""18122""
","
","
","""event"",""trial"",""time""
""fullscreenenter"",""5"",""18122""
","
","51.19999999925494","","49","","","3000","1","","","images/earth.jpg","images/rocket1","images/rocket2","null","images/rocket2","","1","real","null","1","","",""
"d3-animate-choice","217","629111","0.0-76.0-1.27","923","681","13","Male","false","true","true","false","""event"",""trial"",""time""
""fullscreenenter"",""5"",""18122""
","
","
","""event"",""trial"",""time""
""fullscreenenter"",""5"",""18122""
","
","237.60000000149012","","48","","","3000","1","","","images/purpleplanet.jpg","images/alien4","images/alien3","images/rocket2","images/alien4","images/nothing.png","2","real","true","2","common","0","2022-02-09 01:31:05.613"
"two-step-fixation","218","630116","0.0-76.0-2.27","923","681","13","Male","false","true","true","false","""event"",""trial"",""time""
""fullscreenenter"",""5"",""18122""
","
","
","""event"",""trial"",""time""
""fullscreenenter"",""5"",""18122""
","
","","images/earth.jpg","","","","","","","","","","","","","","fixation","","","","","",""
"d3-animate-choice","219","632202","0.0-76.0-0.28","923","681","13","Male","false","true","true","false","""event"",""trial"",""time""
""fullscreenenter"",""5"",""18122""
","
","
","""event"",""trial"",""time""
""fullscreenenter"",""5"",""18122""
","
","82.69999999925494","","48","","","3000","1","251.5,447.1000000014901","48,48","images/earth.jpg","images/rocket1","images/rocket2","null","images/rocket1","","1","real","null","2","","",""
"d3-animate-choice","220","634602","0.0-76.0-1.28","923","681","13","Male","false","true","true","false","""event"",""trial"",""time""
""fullscreenenter"",""5"",""18122""
","
","
","""event"",""trial"",""time""
""fullscreenenter"",""5"",""18122""
","
","395.19999999925494","","49","","","3000","1","","","images/redplanet1.jpg","images/alien2","images/alien1","images/rocket1","images/alien1","images/nothing.png","2","real","true","1","common","0","2022-02-09 01:31:11.104"
"two-step-fixation","221","635606","0.0-76.0-2.28","923","681","13","Male","false","true","true","false","""event"",""trial"",""time""
""fullscreenenter"",""5"",""18122""
","
","
","""event"",""trial"",""time""
""fullscreenenter"",""5"",""18122""
","
","","images/earth.jpg","","","","","","","","","","","","","","fixation","","","","","",""
"d3-animate-choice","222","637779","0.0-76.0-0.29","923","681","13","Male","false","true","true","false","""event"",""trial"",""time""
""fullscreenenter"",""5"",""18122""
","
","
","""event"",""trial"",""time""
""fullscreenenter"",""5"",""18122""
","
","169.29999999701977","","48","","","3000","1","374.79999999701977,755.7999999970198,997.3999999985099,1201.8999999985099,1393.0999999977648,1597.8999999985099,1794.2999999970198,1969.699999999255","48,49,49,49,49,49,49,49","images/earth.jpg","images/rocket1","images/rocket2","null","images/rocket1","","1","real","null","2","","",""
"d3-animate-choice","223","639984","0.0-76.0-1.29","923","681","13","Male","false","true","true","false","""event"",""trial"",""time""
""fullscreenenter"",""5"",""18122""
","
","
","""event"",""trial"",""time""
""fullscreenenter"",""5"",""18122""
","
","201.90000000223517","","49","","","3000","1","413.30000000074506","49","images/redplanet1.jpg","images/alien2","images/alien1","images/rocket1","images/alien1","images/t.png","2","real","true","1","common","1","2022-02-09 01:31:16.487"
"two-step-fixation","224","640989","0.0-76.0-2.29","923","681","13","Male","false","true","true","false","""event"",""trial"",""time""
""fullscreenenter"",""5"",""18122""
","
","
","""event"",""trial"",""time""
""fullscreenenter"",""5"",""18122""
","
","","images/earth.jpg","","","","","","","","","","","","","","fixation","","","","","",""
"d3-animate-choice","225","644125","0.0-76.0-0.30","923","681","13","Male","false","true","true","false","""event"",""trial"",""time""
""fullscreenenter"",""5"",""18122""
","
","
