"trial_type","trial_index","time_elapsed","internal_node_id","participant_id","subject_id","age","gender","rocket_sides","red_planet_first_rocket","red_display_order","purple_display_order","interactions","blur_events","focus_events","fullscreenenter_events","fullscreenexit_events","rt","stimulus","key_press","button_pressed","success","duration","valid_pressed","rts","keys","planet_text","right_text","left_text","center_text","chosen_text","reward_text","trial_stage","practice_trial","transition_type","choice","transition","reward","timestamp"
"pavlovia","0","3","0.0-0.0","401","814","9","Female","true","false","false","false","
","
","
","
","
","","","","","","","","","","","","","","","","","","","","","",""
"html-keyboard-response","1","1383","0.0-1.0","401","814","9","Female","true","false","false","false","
","
","
","
","
","1378.8999999761581","Welcome! Press the space bar to begin.","32","","","","","","","","","","","","","","","","","","",""
"audio-keyboard-response","2","4829","0.0-2.0","401","814","9","Female","true","false","false","false","""event"",""trial"",""time""
""blur"",""3"",""10864""
""focus"",""3"",""10864""
""blur"",""3"",""10864""
""focus"",""3"",""11051""
","""event"",""trial"",""time""
""blur"",""3"",""10864""
""blur"",""3"",""10864""
","""event"",""trial"",""time""
""focus"",""3"",""10864""
""focus"",""3"",""11051""
","
","
","3175","audio/beep_loop.wav","32","","","","","","","","","","","","","","","","","","",""
"audio-button-response","3","12056","0.0-3.0","401","814","9","Female","true","false","false","false","""event"",""trial"",""time""
""blur"",""3"",""10864""
""focus"",""3"",""10864""
""blur"",""3"",""10864""
""focus"",""3"",""11051""
","""event"",""trial"",""time""
""blur"",""3"",""10864""
""blur"",""3"",""10864""
","""event"",""trial"",""time""
""focus"",""3"",""10864""
""focus"",""3"",""11051""
","
","
","NaN","audio/fish.mp3","","1","","","","","","","","","","","","","","","","","",""
"audio-button-response","4","14587","0.0-4.0","401","814","9","Female","true","false","false","false","""event"",""trial"",""time""
""blur"",""3"",""10864""
""focus"",""3"",""10864""
""blur"",""3"",""10864""
""focus"",""3"",""11051""
""fullscreenenter"",""5"",""16977""
","""event"",""trial"",""time""
""blur"",""3"",""10864""
""blur"",""3"",""10864""
","""event"",""trial"",""time""
""focus"",""3"",""10864""
""focus"",""3"",""11051""
","""event"",""trial"",""time""
""fullscreenenter"",""5"",""16977""
","
","NaN","audio/tiger.mp3","","4","","","","","","","","","","","","","","","","","",""
"fullscreen","5","17942","0.0-5.0","401","814","9","Female","true","false","false","false","""event"",""trial"",""time""
""blur"",""3"",""10864""
""focus"",""3"",""10864""
""blur"",""3"",""10864""
""focus"",""3"",""11051""
""fullscreenenter"",""5"",""16977""
","""event"",""trial"",""time""
""blur"",""3"",""10864""
""blur"",""3"",""10864""
","""event"",""trial"",""time""
""focus"",""3"",""10864""
""focus"",""3"",""11051""
","""event"",""trial"",""time""
""fullscreenenter"",""5"",""16977""
","
","","","","","true","","","","","","","","","","","","","","","","",""
"d3-instructions","6","31581","0.0-6.0","401","814","9","Female","true","false","false","false","""event"",""trial"",""time""
""blur"",""3"",""10864""
""focus"",""3"",""10864""
""blur"",""3"",""10864""
""focus"",""3"",""11051""
""fullscreenenter"",""5"",""16977""
","""event"",""trial"",""time""
""blur"",""3"",""10864""
""blur"",""3"",""10864""
","""event"",""trial"",""time""
""focus"",""3"",""10864""
""focus"",""3"",""11051""
","""event"",""trial"",""time""
""fullscreenenter"",""5"",""16977""
","
","","","","","","","","","","","","","","","","","","","","","",""
"d3-instructions","7","40378","0.0-7.0","401","814","9","Female","true","false","false","false","""event"",""trial"",""time""
""blur"",""3"",""10864""
""focus"",""3"",""10864""
""blur"",""3"",""10864""
""focus"",""3"",""11051""
""fullscreenenter"",""5"",""16977""
","""event"",""trial"",""time""
""blur"",""3"",""10864""
""blur"",""3"",""10864""
","""event"",""trial"",""time""
""focus"",""3"",""10864""
""focus"",""3"",""11051""
","""event"",""trial"",""time""
""fullscreenenter"",""5"",""16977""
","
","","","","","","","","","","","","","","","","","","","","","",""
"d3-instructions","8","47056","0.0-8.0","401","814","9","Female","true","false","false","false","""event"",""trial"",""time""
""blur"",""3"",""10864""
""focus"",""3"",""10864""
""blur"",""3"",""10864""
""focus"",""3"",""11051""
""fullscreenenter"",""5"",""16977""
","""event"",""trial"",""time""
""blur"",""3"",""10864""
""blur"",""3"",""10864""
","""event"",""trial"",""time""
""focus"",""3"",""10864""
""focus"",""3"",""11051""
","""event"",""trial"",""time""
""fullscreenenter"",""5"",""16977""
","
","","","","","","","","","","","","","","","","","","","","","",""
"d3-instructions","9","57374","0.0-9.0","401","814","9","Female","true","false","false","false","""event"",""trial"",""time""
""blur"",""3"",""10864""
""focus"",""3"",""10864""
""blur"",""3"",""10864""
""focus"",""3"",""11051""
""fullscreenenter"",""5"",""16977""
","""event"",""trial"",""time""
""blur"",""3"",""10864""
""blur"",""3"",""10864""
","""event"",""trial"",""time""
""focus"",""3"",""10864""
""focus"",""3"",""11051""
","""event"",""trial"",""time""
""fullscreenenter"",""5"",""16977""
","
","","","","","","","","","","","","","","","","","","","","","",""
"d3-instructions","10","77431","0.0-10.0","401","814","9","Female","true","false","false","false","""event"",""trial"",""time""
""blur"",""3"",""10864""
""focus"",""3"",""10864""
""blur"",""3"",""10864""
""focus"",""3"",""11051""
""fullscreenenter"",""5"",""16977""
","""event"",""trial"",""time""
""blur"",""3"",""10864""
""blur"",""3"",""10864""
","""event"",""trial"",""time""
""focus"",""3"",""10864""
""focus"",""3"",""11051""
","""event"",""trial"",""time""
""fullscreenenter"",""5"",""16977""
","
","","","","","","","","","","","","","","","","","","","","","",""
"d3-animate-choice","11","82158","0.0-11.0","401","814","9","Female","true","false","false","false","""event"",""trial"",""time""
""blur"",""3"",""10864""
""focus"",""3"",""10864""
""blur"",""3"",""10864""
""focus"",""3"",""11051""
""fullscreenenter"",""5"",""16977""
","""event"",""trial"",""time""
""blur"",""3"",""10864""
""blur"",""3"",""10864""
","""event"",""trial"",""time""
""focus"",""3"",""10864""
""focus"",""3"",""11051""
","""event"",""trial"",""time""
""fullscreenenter"",""5"",""16977""
","
","2717.9000000059605","","49","","","3000","1","3553.300000011921,4409.200000017881","48,49","images/tutgreenplanet.jpg","images/tutalien1","images/tutalien2","null","images/tutalien2","","NA","practice","null","","","",""
"d3-animate-choice","12","84259","0.0-12.0","401","814","9","Female","true","false","false","false","""event"",""trial"",""time""
""blur"",""3"",""10864""
""focus"",""3"",""10864""
""blur"",""3"",""10864""
""focus"",""3"",""11051""
""fullscreenenter"",""5"",""16977""
","""event"",""trial"",""time""
""blur"",""3"",""10864""
""blur"",""3"",""10864""
","""event"",""trial"",""time""
""focus"",""3"",""10864""
""focus"",""3"",""11051""
","""event"",""trial"",""time""
""fullscreenenter"",""5"",""16977""
","
","97.5","","48","","","3000","1","","","images/tutgreenplanet.jpg","images/tutalien1","images/tutalien2","null","images/tutalien1","","NA","practice","null","","","",""
"d3-animate-choice","13","87374","0.0-13.0","401","814","9","Female","true","false","false","false","""event"",""trial"",""time""
""blur"",""3"",""10864""
""focus"",""3"",""10864""
""blur"",""3"",""10864""
""focus"",""3"",""11051""
""fullscreenenter"",""5"",""16977""
","""event"",""trial"",""time""
""blur"",""3"",""10864""
""blur"",""3"",""10864""
","""event"",""trial"",""time""
""focus"",""3"",""10864""
""focus"",""3"",""11051""
","""event"",""trial"",""time""
""fullscreenenter"",""5"",""16977""
","
","1109.300000011921","","49","","","3000","1","3079.300000011921","48","images/tutgreenplanet.jpg","images/tutalien1","images/tutalien2","null","images/tutalien2","","NA","practice","null","","","",""
"d3-animate-choice","14","89963","0.0-14.0","401","814","9","Female","true","false","false","false","""event"",""trial"",""time""
""blur"",""3"",""10864""
""focus"",""3"",""10864""
""blur"",""3"",""10864""
""focus"",""3"",""11051""
""fullscreenenter"",""5"",""16977""
","""event"",""trial"",""time""
""blur"",""3"",""10864""
""blur"",""3"",""10864""
","""event"",""trial"",""time""
""focus"",""3"",""10864""
""focus"",""3"",""11051""
","""event"",""trial"",""time""
""fullscreenenter"",""5"",""16977""
","
","583.1000000238419","","48","","","3000","1","1169.2000000178814,1586.1000000238419,2201","48,49,49","images/tutgreenplanet.jpg","images/tutalien1","images/tutalien2","null","images/tutalien1","","NA","practice","null","","","",""
"d3-instructions","15","97510","0.0-15.0","401","814","9","Female","true","false","false","false","""event"",""trial"",""time""
""blur"",""3"",""10864""
""focus"",""3"",""10864""
""blur"",""3"",""10864""
""focus"",""3"",""11051""
""fullscreenenter"",""5"",""16977""
","""event"",""trial"",""time""
""blur"",""3"",""10864""
""blur"",""3"",""10864""
","""event"",""trial"",""time""
""focus"",""3"",""10864""
""focus"",""3"",""11051""
","""event"",""trial"",""time""
""fullscreenenter"",""5"",""16977""
","
","","","","","","","","","","","","","","","","","","","","","",""
"d3-instructions","16","103696","0.0-16.0","401","814","9","Female","true","false","false","false","""event"",""trial"",""time""
""blur"",""3"",""10864""
""focus"",""3"",""10864""
""blur"",""3"",""10864""
""focus"",""3"",""11051""
""fullscreenenter"",""5"",""16977""
""fullscreenexit"",""17"",""105587""
","""event"",""trial"",""time""
""blur"",""3"",""10864""
""blur"",""3"",""10864""
","""event"",""trial"",""time""
""focus"",""3"",""10864""
""focus"",""3"",""11051""
","""event"",""trial"",""time""
""fullscreenenter"",""5"",""16977""
","""event"",""trial"",""time""
""fullscreenexit"",""17"",""105587""
","","","","","","","","","","","","","","","","","","","","","",""
"d3-instructions","17","114354","0.0-17.0","401","814","9","Female","true","false","false","false","""event"",""trial"",""time""
""blur"",""3"",""10864""
""focus"",""3"",""10864""
""blur"",""3"",""10864""
""focus"",""3"",""11051""
""fullscreenenter"",""5"",""16977""
""fullscreenexit"",""17"",""105587""
","""event"",""trial"",""time""
""blur"",""3"",""10864""
""blur"",""3"",""10864""
","""event"",""trial"",""time""
""focus"",""3"",""10864""
""focus"",""3"",""11051""
","""event"",""trial"",""time""
""fullscreenenter"",""5"",""16977""
","""event"",""trial"",""time""
""fullscreenexit"",""17"",""105587""
","","","","","","","","","","","","","","","","","","","","","",""
"d3-instructions","18","127472","0.0-18.0","401","814","9","Female","true","false","false","false","""event"",""trial"",""time""
""blur"",""3"",""10864""
""focus"",""3"",""10864""
""blur"",""3"",""10864""
""focus"",""3"",""11051""
""fullscreenenter"",""5"",""16977""
""fullscreenexit"",""17"",""105587""
","""event"",""trial"",""time""
""blur"",""3"",""10864""
""blur"",""3"",""10864""
","""event"",""trial"",""time""
""focus"",""3"",""10864""
""focus"",""3"",""11051""
","""event"",""trial"",""time""
""fullscreenenter"",""5"",""16977""
","""event"",""trial"",""time""
""fullscreenexit"",""17"",""105587""
","","","","","","","","","","","","","","","","","","","","","",""
"d3-instructions","19","141593","0.0-19.0","401","814","9","Female","true","false","false","false","""event"",""trial"",""time""
""blur"",""3"",""10864""
""focus"",""3"",""10864""
""blur"",""3"",""10864""
""focus"",""3"",""11051""
""fullscreenenter"",""5"",""16977""
""fullscreenexit"",""17"",""105587""
","""event"",""trial"",""time""
""blur"",""3"",""10864""
""blur"",""3"",""10864""
","""event"",""trial"",""time""
""focus"",""3"",""10864""
""focus"",""3"",""11051""
","""event"",""trial"",""time""
""fullscreenenter"",""5"",""16977""
","""event"",""trial"",""time""
""fullscreenexit"",""17"",""105587""
","","","","","","","","","","","","","","","","","","","","","",""
"d3-animate-choice","20","144660","0.0-20.0","401","814","9","Female","true","false","false","false","""event"",""trial"",""time""
""blur"",""3"",""10864""
""focus"",""3"",""10864""
""blur"",""3"",""10864""
""focus"",""3"",""11051""
""fullscreenenter"",""5"",""16977""
""fullscreenexit"",""17"",""105587""
","""event"",""trial"",""time""
""blur"",""3"",""10864""
""blur"",""3"",""10864""
","""event"",""trial"",""time""
""focus"",""3"",""10864""
""focus"",""3"",""11051""
","""event"",""trial"",""time""
""fullscreenenter"",""5"",""16977""
","""event"",""trial"",""time""
""fullscreenexit"",""17"",""105587""
","1063.2999999821186","","49","","","3000","1","2761","49","images/tutyellowplanet.jpg","null","images/tutalien3","null","images/tutalien3","images/t.png","NA","practice","null","","","",""
"d3-animate-choice","21","147162","0.0-21.0","401","814","9","Female","true","false","false","false","""event"",""trial"",""time""
""blur"",""3"",""10864""
""focus"",""3"",""10864""
""blur"",""3"",""10864""
""focus"",""3"",""11051""
""fullscreenenter"",""5"",""16977""
""fullscreenexit"",""17"",""105587""
","""event"",""trial"",""time""
""blur"",""3"",""10864""
""blur"",""3"",""10864""
","""event"",""trial"",""time""
""focus"",""3"",""10864""
""focus"",""3"",""11051""
","""event"",""trial"",""time""
""fullscreenenter"",""5"",""16977""
","""event"",""trial"",""time""
""fullscreenexit"",""17"",""105587""
","499","","49","","","3000","1","","","images/tutyellowplanet.jpg","null","images/tutalien3","null","images/tutalien3","images/t.png","NA","practice","null","","","",""
"d3-animate-choice","22","149490","0.0-22.0","401","814","9","Female","true","false","false","false","""event"",""trial"",""time""
""blur"",""3"",""10864""
""focus"",""3"",""10864""
""blur"",""3"",""10864""
""focus"",""3"",""11051""
""fullscreenenter"",""5"",""16977""
""fullscreenexit"",""17"",""105587""
","""event"",""trial"",""time""
""blur"",""3"",""10864""
""blur"",""3"",""10864""
","""event"",""trial"",""time""
""focus"",""3"",""10864""
""focus"",""3"",""11051""
","""event"",""trial"",""time""
""fullscreenenter"",""5"",""16977""
","""event"",""trial"",""time""
""fullscreenexit"",""17"",""105587""
","321.69999998807907","","49","","","3000","1","","","images/tutyellowplanet.jpg","null","images/tutalien3","null","images/tutalien3","images/t.png","NA","practice","null","","","",""
"d3-animate-choice","23","151789","0.0-23.0","401","814","9","Female","true","false","false","false","""event"",""trial"",""time""
""blur"",""3"",""10864""
""focus"",""3"",""10864""
""blur"",""3"",""10864""
""focus"",""3"",""11051""
""fullscreenenter"",""5"",""16977""
""fullscreenexit"",""17"",""105587""
","""event"",""trial"",""time""
""blur"",""3"",""10864""
""blur"",""3"",""10864""
","""event"",""trial"",""time""
""focus"",""3"",""10864""
""focus"",""3"",""11051""
","""event"",""trial"",""time""
""fullscreenenter"",""5"",""16977""
","""event"",""trial"",""time""
""fullscreenexit"",""17"",""105587""
","293","","49","","","3000","1","","","images/tutyellowplanet.jpg","null","images/tutalien3","null","images/tutalien3","images/t.png","NA","practice","null","","","",""
"d3-animate-choice","24","154297","0.0-24.0","401","814","9","Female","true","false","false","false","""event"",""trial"",""time""
""blur"",""3"",""10864""
""focus"",""3"",""10864""
""blur"",""3"",""10864""
""focus"",""3"",""11051""
""fullscreenenter"",""5"",""16977""
""fullscreenexit"",""17"",""105587""
","""event"",""trial"",""time""
""blur"",""3"",""10864""
""blur"",""3"",""10864""
","""event"",""trial"",""time""
""focus"",""3"",""10864""
""focus"",""3"",""11051""
","""event"",""trial"",""time""
""fullscreenenter"",""5"",""16977""
","""event"",""trial"",""time""
""fullscreenexit"",""17"",""105587""
","501.59999999403954","","49","","","3000","1","","","images/tutyellowplanet.jpg","null","images/tutalien3","null","images/tutalien3","images/t.png","NA","practice","null","","","",""
"d3-animate-choice","25","156717","0.0-25.0","401","814","9","Female","true","false","false","false","""event"",""trial"",""time""
""blur"",""3"",""10864""
""focus"",""3"",""10864""
""blur"",""3"",""10864""
""focus"",""3"",""11051""
""fullscreenenter"",""5"",""16977""
""fullscreenexit"",""17"",""105587""
","""event"",""trial"",""time""
""blur"",""3"",""10864""
""blur"",""3"",""10864""
","""event"",""trial"",""time""
""focus"",""3"",""10864""
""focus"",""3"",""11051""
","""event"",""trial"",""time""
""fullscreenenter"",""5"",""16977""
","""event"",""trial"",""time""
""fullscreenexit"",""17"",""105587""
","414.19999998807907","","49","","","3000","1","","","images/tutyellowplanet.jpg","null","images/tutalien3","null","images/tutalien3","images/t.png","NA","practice","null","","","",""
"d3-animate-choice","26","159106","0.0-26.0","401","814","9","Female","true","false","false","false","""event"",""trial"",""time""
""blur"",""3"",""10864""
""focus"",""3"",""10864""
""blur"",""3"",""10864""
""focus"",""3"",""11051""
""fullscreenenter"",""5"",""16977""
""fullscreenexit"",""17"",""105587""
","""event"",""trial"",""time""
""blur"",""3"",""10864""
""blur"",""3"",""10864""
","""event"",""trial"",""time""
""focus"",""3"",""10864""
""focus"",""3"",""11051""
","""event"",""trial"",""time""
""fullscreenenter"",""5"",""16977""
","""event"",""trial"",""time""
""fullscreenexit"",""17"",""105587""
","383.40000000596046","","49","","","3000","1","","","images/tutyellowplanet.jpg","null","images/tutalien3","null","images/tutalien3","images/t.png","NA","practice","null","","","",""
"d3-animate-choice","27","161454","0.0-27.0","401","814","9","Female","true","false","false","false","""event"",""trial"",""time""
""blur"",""3"",""10864""
""focus"",""3"",""10864""
""blur"",""3"",""10864""
""focus"",""3"",""11051""
""fullscreenenter"",""5"",""16977""
""fullscreenexit"",""17"",""105587""
","""event"",""trial"",""time""
""blur"",""3"",""10864""
""blur"",""3"",""10864""
","""event"",""trial"",""time""
""focus"",""3"",""10864""
""focus"",""3"",""11051""
","""event"",""trial"",""time""
""fullscreenenter"",""5"",""16977""
","""event"",""trial"",""time""
""fullscreenexit"",""17"",""105587""
","345.59999999403954","","49","","","3000","1","1824.199999988079","49","images/tutyellowplanet.jpg","null","images/tutalien3","null","images/tutalien3","images/t.png","NA","practice","null","","","",""
"d3-animate-choice","28","163875","0.0-28.0","401","814","9","Female","true","false","false","false","""event"",""trial"",""time""
""blur"",""3"",""10864""
""focus"",""3"",""10864""
""blur"",""3"",""10864""
""focus"",""3"",""11051""
""fullscreenenter"",""5"",""16977""
""fullscreenexit"",""17"",""105587""
","""event"",""trial"",""time""
""blur"",""3"",""10864""
""blur"",""3"",""10864""
","""event"",""trial"",""time""
""focus"",""3"",""10864""
""focus"",""3"",""11051""
","""event"",""trial"",""time""
""fullscreenenter"",""5"",""16977""
","""event"",""trial"",""time""
""fullscreenexit"",""17"",""105587""
","415.40000000596046","","49","","","3000","1","","","images/tutyellowplanet.jpg","null","images/tutalien3","null","images/tutalien3","images/t.png","NA","practice","null","","","",""
"d3-animate-choice","29","166011","0.0-29.0","401","814","9","Female","true","false","false","false","""event"",""trial"",""time""
""blur"",""3"",""10864""
""focus"",""3"",""10864""
""blur"",""3"",""10864""
""focus"",""3"",""11051""
""fullscreenenter"",""5"",""16977""
""fullscreenexit"",""17"",""105587""
","""event"",""trial"",""time""
""blur"",""3"",""10864""
""blur"",""3"",""10864""
","""event"",""trial"",""time""
""focus"",""3"",""10864""
""focus"",""3"",""11051""
","""event"",""trial"",""time""
""fullscreenenter"",""5"",""16977""
","""event"",""trial"",""time""
""fullscreenexit"",""17"",""105587""
","130.80000001192093","","49","","","3000","1","","","images/tutyellowplanet.jpg","null","images/tutalien3","null","images/tutalien3","images/t.png","NA","practice","null","","","",""
"d3-instructions","30","173616","0.0-30.0","401","814","9","Female","true","false","false","false","""event"",""trial"",""time""
""blur"",""3"",""10864""
""focus"",""3"",""10864""
""blur"",""3"",""10864""
""focus"",""3"",""11051""
""fullscreenenter"",""5"",""16977""
""fullscreenexit"",""17"",""105587""
","""event"",""trial"",""time""
""blur"",""3"",""10864""
""blur"",""3"",""10864""
","""event"",""trial"",""time""
""focus"",""3"",""10864""
""focus"",""3"",""11051""
","""event"",""trial"",""time""
""fullscreenenter"",""5"",""16977""
","""event"",""trial"",""time""
""fullscreenexit"",""17"",""105587""
","","","","","","","","","","","","","","","","","","","","","",""
"d3-instructions","31","182068","0.0-31.0","401","814","9","Female","true","false","false","false","""event"",""trial"",""time""
""blur"",""3"",""10864""
""focus"",""3"",""10864""
""blur"",""3"",""10864""
""focus"",""3"",""11051""
""fullscreenenter"",""5"",""16977""
""fullscreenexit"",""17"",""105587""
","""event"",""trial"",""time""
""blur"",""3"",""10864""
""blur"",""3"",""10864""
","""event"",""trial"",""time""
""focus"",""3"",""10864""
""focus"",""3"",""11051""
","""event"",""trial"",""time""
""fullscreenenter"",""5"",""16977""
","""event"",""trial"",""time""
""fullscreenexit"",""17"",""105587""
","","","","","","","","","","","","","","","","","","","","","",""
"d3-instructions","32","189654","0.0-32.0","401","814","9","Female","true","false","false","false","""event"",""trial"",""time""
""blur"",""3"",""10864""
""focus"",""3"",""10864""
""blur"",""3"",""10864""
""focus"",""3"",""11051""
""fullscreenenter"",""5"",""16977""
""fullscreenexit"",""17"",""105587""
","""event"",""trial"",""time""
""blur"",""3"",""10864""
""blur"",""3"",""10864""
","""event"",""trial"",""time""
""focus"",""3"",""10864""
""focus"",""3"",""11051""
","""event"",""trial"",""time""
""fullscreenenter"",""5"",""16977""
","""event"",""trial"",""time""
""fullscreenexit"",""17"",""105587""
","","","","","","","","","","","","","","","","","","","","","",""
"d3-instructions","33","196511","0.0-33.0","401","814","9","Female","true","false","false","false","""event"",""trial"",""time""
""blur"",""3"",""10864""
""focus"",""3"",""10864""
""blur"",""3"",""10864""
""focus"",""3"",""11051""
""fullscreenenter"",""5"",""16977""
""fullscreenexit"",""17"",""105587""
","""event"",""trial"",""time""
""blur"",""3"",""10864""
""blur"",""3"",""10864""
","""event"",""trial"",""time""
""focus"",""3"",""10864""
""focus"",""3"",""11051""
","""event"",""trial"",""time""
""fullscreenenter"",""5"",""16977""
","""event"",""trial"",""time""
""fullscreenexit"",""17"",""105587""
","","","","","","","","","","","","","","","","","","","","","",""
"d3-animate-choice","34","200626","0.0-34.0","401","814","9","Female","true","false","false","false","""event"",""trial"",""time""
""blur"",""3"",""10864""
""focus"",""3"",""10864""
""blur"",""3"",""10864""
""focus"",""3"",""11051""
""fullscreenenter"",""5"",""16977""
""fullscreenexit"",""17"",""105587""
","""event"",""trial"",""time""
""blur"",""3"",""10864""
""blur"",""3"",""10864""
","""event"",""trial"",""time""
""focus"",""3"",""10864""
""focus"",""3"",""11051""
","""event"",""trial"",""time""
""fullscreenenter"",""5"",""16977""
","""event"",""trial"",""time""
""fullscreenexit"",""17"",""105587""
","2109.2999999821186","","49","","","3000","1","","","images/tutgreenplanet.jpg","images/tutalien1","images/tutalien2","null","images/tutalien2","images/t.png","NA","practice","null","","","",""
"d3-animate-choice","35","206337","0.0-35.0","401","814","9","Female","true","false","false","false","""event"",""trial"",""time""
""blur"",""3"",""10864""
""focus"",""3"",""10864""
""blur"",""3"",""10864""
""focus"",""3"",""11051""
""fullscreenenter"",""5"",""16977""
""fullscreenexit"",""17"",""105587""
","""event"",""trial"",""time""
""blur"",""3"",""10864""
""blur"",""3"",""10864""
","""event"",""trial"",""time""
""focus"",""3"",""10864""
""focus"",""3"",""11051""
","""event"",""trial"",""time""
""fullscreenenter"",""5"",""16977""
","""event"",""trial"",""time""
""fullscreenexit"",""17"",""105587""
","539.7000000178814","","189","","","3000","1","1481.2000000178814,2355.2000000178814,3704","189,189,48","images/tutgreenplanet.jpg","images/tutalien1","images/tutalien2","null","images/tutalien1","images/nothing.png","NA","practice","null","","","",""
"d3-animate-choice","36","209109","0.0-36.0","401","814","9","Female","true","false","false","false","""event"",""trial"",""time""
""blur"",""3"",""10864""
""focus"",""3"",""10864""
""blur"",""3"",""10864""
""focus"",""3"",""11051""
""fullscreenenter"",""5"",""16977""
""fullscreenexit"",""17"",""105587""
","""event"",""trial"",""time""
""blur"",""3"",""10864""
""blur"",""3"",""10864""
","""event"",""trial"",""time""
""focus"",""3"",""10864""
""focus"",""3"",""11051""
","""event"",""trial"",""time""
""fullscreenenter"",""5"",""16977""
","""event"",""trial"",""time""
""fullscreenexit"",""17"",""105587""
","769.6999999880791","","49","","","3000","1","","","images/tutgreenplanet.jpg","images/tutalien1","images/tutalien2","null","images/tutalien2","images/nothing.png","NA","practice","null","","","",""
"d3-animate-choice","37","212559","0.0-37.0","401","814","9","Female","true","false","false","false","""event"",""trial"",""time""
""blur"",""3"",""10864""
""focus"",""3"",""10864""
""blur"",""3"",""10864""
""focus"",""3"",""11051""
""fullscreenenter"",""5"",""16977""
""fullscreenexit"",""17"",""105587""
","""event"",""trial"",""time""
""blur"",""3"",""10864""
""blur"",""3"",""10864""
","""event"",""trial"",""time""
""focus"",""3"",""10864""
""focus"",""3"",""11051""
","""event"",""trial"",""time""
""fullscreenenter"",""5"",""16977""
","""event"",""trial"",""time""
""fullscreenexit"",""17"",""105587""
","1446.5","","49","","","3000","1","","","images/tutgreenplanet.jpg","images/tutalien1","images/tutalien2","null","images/tutalien2","images/t.png","NA","practice","null","","","",""
"d3-animate-choice","38","215580","0.0-38.0","401","814","9","Female","true","false","false","false","""event"",""trial"",""time""
""blur"",""3"",""10864""
""focus"",""3"",""10864""
""blur"",""3"",""10864""
""focus"",""3"",""11051""
""fullscreenenter"",""5"",""16977""
""fullscreenexit"",""17"",""105587""
","""event"",""trial"",""time""
""blur"",""3"",""10864""
""blur"",""3"",""10864""
","""event"",""trial"",""time""
""focus"",""3"",""10864""
""focus"",""3"",""11051""
","""event"",""trial"",""time""
""fullscreenenter"",""5"",""16977""
","""event"",""trial"",""time""
""fullscreenexit"",""17"",""105587""
","1017.5","","48","","","3000","1","","","images/tutgreenplanet.jpg","images/tutalien1","images/tutalien2","null","images/tutalien1","images/nothing.png","NA","practice","null","","","",""
"d3-animate-choice","39","218036","0.0-39.0","401","814","9","Female","true","false","false","false","""event"",""trial"",""time""
""blur"",""3"",""10864""
""focus"",""3"",""10864""
""blur"",""3"",""10864""
""focus"",""3"",""11051""
""fullscreenenter"",""5"",""16977""
""fullscreenexit"",""17"",""105587""
","""event"",""trial"",""time""
""blur"",""3"",""10864""
""blur"",""3"",""10864""
","""event"",""trial"",""time""
""focus"",""3"",""10864""
""focus"",""3"",""11051""
","""event"",""trial"",""time""
""fullscreenenter"",""5"",""16977""
","""event"",""trial"",""time""
""fullscreenexit"",""17"",""105587""
","449.60000002384186","","49","","","3000","1","","","images/tutgreenplanet.jpg","images/tutalien1","images/tutalien2","null","images/tutalien2","images/t.png","NA","practice","null","","","",""
"d3-animate-choice","40","221432","0.0-40.0","401","814","9","Female","true","false","false","false","""event"",""trial"",""time""
""blur"",""3"",""10864""
""focus"",""3"",""10864""
""blur"",""3"",""10864""
""focus"",""3"",""11051""
""fullscreenenter"",""5"",""16977""
""fullscreenexit"",""17"",""105587""
","""event"",""trial"",""time""
""blur"",""3"",""10864""
""blur"",""3"",""10864""
","""event"",""trial"",""time""
""focus"",""3"",""10864""
""focus"",""3"",""11051""
","""event"",""trial"",""time""
""fullscreenenter"",""5"",""16977""
","""event"",""trial"",""time""
""fullscreenexit"",""17"",""105587""
","1393.4000000059605","","48","","","3000","1","","","images/tutgreenplanet.jpg","images/tutalien1","images/tutalien2","null","images/tutalien1","images/nothing.png","NA","practice","null","","","",""
"d3-animate-choice","41","223864","0.0-41.0","401","814","9","Female","true","false","false","false","""event"",""trial"",""time""
""blur"",""3"",""10864""
""focus"",""3"",""10864""
""blur"",""3"",""10864""
""focus"",""3"",""11051""
""fullscreenenter"",""5"",""16977""
""fullscreenexit"",""17"",""105587""
","""event"",""trial"",""time""
""blur"",""3"",""10864""
""blur"",""3"",""10864""
","""event"",""trial"",""time""
""focus"",""3"",""10864""
""focus"",""3"",""11051""
","""event"",""trial"",""time""
""fullscreenenter"",""5"",""16977""
","""event"",""trial"",""time""
""fullscreenexit"",""17"",""105587""
","428","","49","","","3000","1","","","images/tutgreenplanet.jpg","images/tutalien1","images/tutalien2","null","images/tutalien2","images/t.png","NA","practice","null","","","",""
"d3-animate-choice","42","226201","0.0-42.0","401","814","9","Female","true","false","false","false","""event"",""trial"",""time""
""blur"",""3"",""10864""
""focus"",""3"",""10864""
""blur"",""3"",""10864""
""focus"",""3"",""11051""
""fullscreenenter"",""5"",""16977""
""fullscreenexit"",""17"",""105587""
","""event"",""trial"",""time""
""blur"",""3"",""10864""
""blur"",""3"",""10864""
","""event"",""trial"",""time""
""focus"",""3"",""10864""
""focus"",""3"",""11051""
","""event"",""trial"",""time""
""fullscreenenter"",""5"",""16977""
","""event"",""trial"",""time""
""fullscreenexit"",""17"",""105587""
","334.59999999403954","","48","","","3000","1","","","images/tutgreenplanet.jpg","images/tutalien1","images/tutalien2","null","images/tutalien1","images/t.png","NA","practice","null","","","",""
"d3-animate-choice","43","229307","0.0-43.0","401","814","9","Female","true","false","false","false","""event"",""trial"",""time""
""blur"",""3"",""10864""
""focus"",""3"",""10864""
""blur"",""3"",""10864""
""focus"",""3"",""11051""
""fullscreenenter"",""5"",""16977""
""fullscreenexit"",""17"",""105587""
","""event"",""trial"",""time""
""blur"",""3"",""10864""
""blur"",""3"",""10864""
","""event"",""trial"",""time""
""focus"",""3"",""10864""
""focus"",""3"",""11051""
","""event"",""trial"",""time""
""fullscreenenter"",""5"",""16977""
","""event"",""trial"",""time""
""fullscreenexit"",""17"",""105587""
","1102.5999999940395","","49","","","3000","1","","","images/tutgreenplanet.jpg","images/tutalien1","images/tutalien2","null","images/tutalien2","images/t.png","NA","practice","null","","","",""
"d3-instructions","44","235014","0.0-44.0","401","814","9","Female","true","false","false","false","""event"",""trial"",""time""
""blur"",""3"",""10864""
""focus"",""3"",""10864""
""blur"",""3"",""10864""
""focus"",""3"",""11051""
""fullscreenenter"",""5"",""16977""
""fullscreenexit"",""17"",""105587""
","""event"",""trial"",""time""
""blur"",""3"",""10864""
""blur"",""3"",""10864""
","""event"",""trial"",""time""
""focus"",""3"",""10864""
""focus"",""3"",""11051""
","""event"",""trial"",""time""
""fullscreenenter"",""5"",""16977""
","""event"",""trial"",""time""
""fullscreenexit"",""17"",""105587""
","","","","","","","","","","","","","","","","","","","","","",""
"d3-instructions","45","243439","0.0-45.0","401","814","9","Female","true","false","false","false","""event"",""trial"",""time""
""blur"",""3"",""10864""
""focus"",""3"",""10864""
""blur"",""3"",""10864""
""focus"",""3"",""11051""
""fullscreenenter"",""5"",""16977""
""fullscreenexit"",""17"",""105587""
","""event"",""trial"",""time""
""blur"",""3"",""10864""
""blur"",""3"",""10864""
","""event"",""trial"",""time""
""focus"",""3"",""10864""
""focus"",""3"",""11051""
","""event"",""trial"",""time""
""fullscreenenter"",""5"",""16977""
","""event"",""trial"",""time""
""fullscreenexit"",""17"",""105587""
","","","","","","","","","","","","","","","","","","","","","",""
"d3-instructions","46","248410","0.0-46.0","401","814","9","Female","true","false","false","false","""event"",""trial"",""time""
""blur"",""3"",""10864""
""focus"",""3"",""10864""
""blur"",""3"",""10864""
""focus"",""3"",""11051""
""fullscreenenter"",""5"",""16977""
""fullscreenexit"",""17"",""105587""
","""event"",""trial"",""time""
""blur"",""3"",""10864""
""blur"",""3"",""10864""
","""event"",""trial"",""time""
""focus"",""3"",""10864""
""focus"",""3"",""11051""
","""event"",""trial"",""time""
""fullscreenenter"",""5"",""16977""
","""event"",""trial"",""time""
""fullscreenexit"",""17"",""105587""
","","","","","","","","","","","","","","","","","","","","","",""
"d3-instructions","47","264881","0.0-47.0","401","814","9","Female","true","false","false","false","""event"",""trial"",""time""
""blur"",""3"",""10864""
""focus"",""3"",""10864""
""blur"",""3"",""10864""
""focus"",""3"",""11051""
""fullscreenenter"",""5"",""16977""
""fullscreenexit"",""17"",""105587""
","""event"",""trial"",""time""
""blur"",""3"",""10864""
""blur"",""3"",""10864""
","""event"",""trial"",""time""
""focus"",""3"",""10864""
""focus"",""3"",""11051""
","""event"",""trial"",""time""
""fullscreenenter"",""5"",""16977""
","""event"",""trial"",""time""
""fullscreenexit"",""17"",""105587""
","","","","","","","","","","","","","","","","","","","","","",""
"d3-instructions","48","271270","0.0-48.0","401","814","9","Female","true","false","false","false","""event"",""trial"",""time""
""blur"",""3"",""10864""
""focus"",""3"",""10864""
""blur"",""3"",""10864""
""focus"",""3"",""11051""
""fullscreenenter"",""5"",""16977""
""fullscreenexit"",""17"",""105587""
","""event"",""trial"",""time""
""blur"",""3"",""10864""
""blur"",""3"",""10864""
","""event"",""trial"",""time""
""focus"",""3"",""10864""
""focus"",""3"",""11051""
","""event"",""trial"",""time""
""fullscreenenter"",""5"",""16977""
","""event"",""trial"",""time""
""fullscreenexit"",""17"",""105587""
","","","","","","","","","","","","","","","","","","","","","",""
"d3-instructions","49","284762","0.0-49.0","401","814","9","Female","true","false","false","false","""event"",""trial"",""time""
""blur"",""3"",""10864""
""focus"",""3"",""10864""
""blur"",""3"",""10864""
""focus"",""3"",""11051""
""fullscreenenter"",""5"",""16977""
""fullscreenexit"",""17"",""105587""
","""event"",""trial"",""time""
""blur"",""3"",""10864""
""blur"",""3"",""10864""
","""event"",""trial"",""time""
""focus"",""3"",""10864""
""focus"",""3"",""11051""
","""event"",""trial"",""time""
""fullscreenenter"",""5"",""16977""
","""event"",""trial"",""time""
""fullscreenexit"",""17"",""105587""
","","","","","","","","","","","","","","","","","","","","","",""
"d3-instructions","50","293292","0.0-50.0","401","814","9","Female","true","false","false","false","""event"",""trial"",""time""
""blur"",""3"",""10864""
""focus"",""3"",""10864""
""blur"",""3"",""10864""
""focus"",""3"",""11051""
""fullscreenenter"",""5"",""16977""
""fullscreenexit"",""17"",""105587""
","""event"",""trial"",""time""
""blur"",""3"",""10864""
""blur"",""3"",""10864""
","""event"",""trial"",""time""
""focus"",""3"",""10864""
""focus"",""3"",""11051""
","""event"",""trial"",""time""
""fullscreenenter"",""5"",""16977""
","""event"",""trial"",""time""
""fullscreenexit"",""17"",""105587""
","","","","","","","","","","","","","","","","","","","","","",""
"d3-instructions","51","297512","0.0-51.0","401","814","9","Female","true","false","false","false","""event"",""trial"",""time""
""blur"",""3"",""10864""
""focus"",""3"",""10864""
""blur"",""3"",""10864""
""focus"",""3"",""11051""
""fullscreenenter"",""5"",""16977""
""fullscreenexit"",""17"",""105587""
","""event"",""trial"",""time""
""blur"",""3"",""10864""
""blur"",""3"",""10864""
","""event"",""trial"",""time""
""focus"",""3"",""10864""
""focus"",""3"",""11051""
","""event"",""trial"",""time""
""fullscreenenter"",""5"",""16977""
","""event"",""trial"",""time""
""fullscreenexit"",""17"",""105587""
","","","","","","","","","","","","","","","","","","","","","",""
"d3-instructions","52","304553","0.0-52.0","401","814","9","Female","true","false","false","false","""event"",""trial"",""time""
""blur"",""3"",""10864""
""focus"",""3"",""10864""
""blur"",""3"",""10864""
""focus"",""3"",""11051""
""fullscreenenter"",""5"",""16977""
""fullscreenexit"",""17"",""105587""
","""event"",""trial"",""time""
""blur"",""3"",""10864""
""blur"",""3"",""10864""
","""event"",""trial"",""time""
""focus"",""3"",""10864""
""focus"",""3"",""11051""
","""event"",""trial"",""time""
""fullscreenenter"",""5"",""16977""
","""event"",""trial"",""time""
""fullscreenexit"",""17"",""105587""
","","","","","","","","","","","","","","","","","","","","","",""
"d3-instructions","53","315975","0.0-53.0","401","814","9","Female","true","false","false","false","""event"",""trial"",""time""
""blur"",""3"",""10864""
""focus"",""3"",""10864""
""blur"",""3"",""10864""
""focus"",""3"",""11051""
""fullscreenenter"",""5"",""16977""
""fullscreenexit"",""17"",""105587""
","""event"",""trial"",""time""
""blur"",""3"",""10864""
""blur"",""3"",""10864""
","""event"",""trial"",""time""
""focus"",""3"",""10864""
""focus"",""3"",""11051""
","""event"",""trial"",""time""
""fullscreenenter"",""5"",""16977""
","""event"",""trial"",""time""
""fullscreenexit"",""17"",""105587""
","","","","","","","","","","","","","","","","","","","","","",""
"d3-instructions","54","330170","0.0-54.0","401","814","9","Female","true","false","false","false","""event"",""trial"",""time""
""blur"",""3"",""10864""
""focus"",""3"",""10864""
""blur"",""3"",""10864""
""focus"",""3"",""11051""
""fullscreenenter"",""5"",""16977""
""fullscreenexit"",""17"",""105587""
","""event"",""trial"",""time""
""blur"",""3"",""10864""
""blur"",""3"",""10864""
","""event"",""trial"",""time""
""focus"",""3"",""10864""
""focus"",""3"",""11051""
","""event"",""trial"",""time""
""fullscreenenter"",""5"",""16977""
","""event"",""trial"",""time""
""fullscreenexit"",""17"",""105587""
","","","","","","","","","","","","","","","","","","","","","",""
"d3-instructions","55","341670","0.0-55.0","401","814","9","Female","true","false","false","false","""event"",""trial"",""time""
""blur"",""3"",""10864""
""focus"",""3"",""10864""
""blur"",""3"",""10864""
""focus"",""3"",""11051""
""fullscreenenter"",""5"",""16977""
""fullscreenexit"",""17"",""105587""
","""event"",""trial"",""time""
""blur"",""3"",""10864""
""blur"",""3"",""10864""
","""event"",""trial"",""time""
""focus"",""3"",""10864""
""focus"",""3"",""11051""
","""event"",""trial"",""time""
""fullscreenenter"",""5"",""16977""
","""event"",""trial"",""time""
""fullscreenexit"",""17"",""105587""
","","","","","","","","","","","","","","","","","","","","","",""
"d3-instructions","56","351243","0.0-56.0","401","814","9","Female","true","false","false","false","""event"",""trial"",""time""
""blur"",""3"",""10864""
""focus"",""3"",""10864""
""blur"",""3"",""10864""
""focus"",""3"",""11051""
""fullscreenenter"",""5"",""16977""
""fullscreenexit"",""17"",""105587""
","""event"",""trial"",""time""
""blur"",""3"",""10864""
""blur"",""3"",""10864""
","""event"",""trial"",""time""
""focus"",""3"",""10864""
""focus"",""3"",""11051""
","""event"",""trial"",""time""
""fullscreenenter"",""5"",""16977""
","""event"",""trial"",""time""
""fullscreenexit"",""17"",""105587""
","","","","","","","","","","","","","","","","","","","","","",""
"d3-instructions","57","362094","0.0-57.0","401","814","9","Female","true","false","false","false","""event"",""trial"",""time""
""blur"",""3"",""10864""
""focus"",""3"",""10864""
""blur"",""3"",""10864""
""focus"",""3"",""11051""
""fullscreenenter"",""5"",""16977""
""fullscreenexit"",""17"",""105587""
","""event"",""trial"",""time""
""blur"",""3"",""10864""
""blur"",""3"",""10864""
","""event"",""trial"",""time""
""focus"",""3"",""10864""
""focus"",""3"",""11051""
","""event"",""trial"",""time""
""fullscreenenter"",""5"",""16977""
","""event"",""trial"",""time""
""fullscreenexit"",""17"",""105587""
","","","","","","","","","","","","","","","","","","","","","",""
"d3-instructions","58","372780","0.0-58.0","401","814","9","Female","true","false","false","false","""event"",""trial"",""time""
""blur"",""3"",""10864""
""focus"",""3"",""10864""
""blur"",""3"",""10864""
""focus"",""3"",""11051""
""fullscreenenter"",""5"",""16977""
""fullscreenexit"",""17"",""105587""
","""event"",""trial"",""time""
""blur"",""3"",""10864""
""blur"",""3"",""10864""
","""event"",""trial"",""time""
""focus"",""3"",""10864""
""focus"",""3"",""11051""
","""event"",""trial"",""time""
""fullscreenenter"",""5"",""16977""
","""event"",""trial"",""time""
""fullscreenexit"",""17"",""105587""
","","","","","","","","","","","","","","","","","","","","","",""
"d3-instructions","59","376595","0.0-59.0","401","814","9","Female","true","false","false","false","""event"",""trial"",""time""
""blur"",""3"",""10864""
""focus"",""3"",""10864""
""blur"",""3"",""10864""
""focus"",""3"",""11051""
""fullscreenenter"",""5"",""16977""
""fullscreenexit"",""17"",""105587""
","""event"",""trial"",""time""
""blur"",""3"",""10864""
""blur"",""3"",""10864""
","""event"",""trial"",""time""
""focus"",""3"",""10864""
""focus"",""3"",""11051""
","""event"",""trial"",""time""
""fullscreenenter"",""5"",""16977""
","""event"",""trial"",""time""
""fullscreenexit"",""17"",""105587""
","","","","","","","","","","","","","","","","","","","","","",""
"d3-instructions","60","382526","0.0-60.0","401","814","9","Female","true","false","false","false","""event"",""trial"",""time""
""blur"",""3"",""10864""
""focus"",""3"",""10864""
""blur"",""3"",""10864""
""focus"",""3"",""11051""
""fullscreenenter"",""5"",""16977""
""fullscreenexit"",""17"",""105587""
","""event"",""trial"",""time""
""blur"",""3"",""10864""
""blur"",""3"",""10864""
","""event"",""trial"",""time""
""focus"",""3"",""10864""
""focus"",""3"",""11051""
","""event"",""trial"",""time""
""fullscreenenter"",""5"",""16977""
","""event"",""trial"",""time""
""fullscreenexit"",""17"",""105587""
","","","","","","","","","","","","","","","","","","","","","",""
"d3-animate-choice","61","385861","0.0-61.0-0.0","401","814","9","Female","true","false","false","false","""event"",""trial"",""time""
""blur"",""3"",""10864""
""focus"",""3"",""10864""
""blur"",""3"",""10864""
""focus"",""3"",""11051""
""fullscreenenter"",""5"",""16977""
""fullscreenexit"",""17"",""105587""
","""event"",""trial"",""time""
""blur"",""3"",""10864""
""blur"",""3"",""10864""
","""event"",""trial"",""time""
""focus"",""3"",""10864""
""focus"",""3"",""11051""
","""event"",""trial"",""time""
""fullscreenenter"",""5"",""16977""
","""event"",""trial"",""time""
""fullscreenexit"",""17"",""105587""
","1327.800000011921","","49","","","3000","1","","","images/earth.jpg","images/tutrocket1","images/tutrocket2","null","images/tutrocket2","","1","practice","null","1","","",""
"d3-animate-choice","62","388704","0.0-61.0-1.0","401","814","9","Female","true","false","false","false","""event"",""trial"",""time""
""blur"",""3"",""10864""
""focus"",""3"",""10864""
""blur"",""3"",""10864""
""focus"",""3"",""11051""
""fullscreenenter"",""5"",""16977""
""fullscreenexit"",""17"",""105587""
","""event"",""trial"",""time""
""blur"",""3"",""10864""
""blur"",""3"",""10864""
","""event"",""trial"",""time""
""focus"",""3"",""10864""
""focus"",""3"",""11051""
","""event"",""trial"",""time""
""fullscreenenter"",""5"",""16977""
","""event"",""trial"",""time""
""fullscreenexit"",""17"",""105587""
","836.2999999821186","","49","","","3000","1","","","images/tutgreenplanet.jpg","images/tutalien2","images/tutalien1","images/tutrocket2","images/tutalien1","images/nothing.png","2","practice","true","1","common","0","2022-02-13 15:51:35.730"
"two-step-fixation","63","389710","0.0-61.0-2.0","401","814","9","Female","true","false","false","false","""event"",""trial"",""time""
""blur"",""3"",""10864""
""focus"",""3"",""10864""
""blur"",""3"",""10864""
""focus"",""3"",""11051""
""fullscreenenter"",""5"",""16977""
""fullscreenexit"",""17"",""105587""
","""event"",""trial"",""time""
""blur"",""3"",""10864""
""blur"",""3"",""10864""
","""event"",""trial"",""time""
""focus"",""3"",""10864""
""focus"",""3"",""11051""
","""event"",""trial"",""time""
""fullscreenenter"",""5"",""16977""
","""event"",""trial"",""time""
""fullscreenexit"",""17"",""105587""
","","images/earth.jpg","","","","","","","","","","","","","","fixation","","","","","",""
"d3-animate-choice","64","391878","0.0-61.0-0.1","401","814","9","Female","true","false","false","false","""event"",""trial"",""time""
""blur"",""3"",""10864""
""focus"",""3"",""10864""
""blur"",""3"",""10864""
""focus"",""3"",""11051""
""fullscreenenter"",""5"",""16977""
""fullscreenexit"",""17"",""105587""
","""event"",""trial"",""time""
""blur"",""3"",""10864""
""blur"",""3"",""10864""
","""event"",""trial"",""time""
""focus"",""3"",""10864""
""focus"",""3"",""11051""
","""event"",""trial"",""time""
""fullscreenenter"",""5"",""16977""
","""event"",""trial"",""time""
""fullscreenexit"",""17"",""105587""
","163.80000001192093","","49","","","3000","1","1979.2000000178814","32","images/earth.jpg","images/tutrocket1","images/tutrocket2","null","images/tutrocket2","","1","practice","null","1","","",""
"d3-animate-choice","65","394705","0.0-61.0-1.1","401","814","9","Female","true","false","false","false","""event"",""trial"",""time""
""blur"",""3"",""10864""
""focus"",""3"",""10864""
""blur"",""3"",""10864""
""focus"",""3"",""11051""
""fullscreenenter"",""5"",""16977""
""fullscreenexit"",""17"",""105587""
","""event"",""trial"",""time""
""blur"",""3"",""10864""
""blur"",""3"",""10864""
","""event"",""trial"",""time""
""focus"",""3"",""10864""
""focus"",""3"",""11051""
","""event"",""trial"",""time""
""fullscreenenter"",""5"",""16977""
","""event"",""trial"",""time""
""fullscreenexit"",""17"",""105587""
","820.6999999880791","","48","","","3000","1","","","images/tutgreenplanet.jpg","images/tutalien2","images/tutalien1","images/tutrocket2","images/tutalien2","images/nothing.png","2","practice","true","2","common","0","2022-02-13 15:51:41.731"
"two-step-fixation","66","395711","0.0-61.0-2.1","401","814","9","Female","true","false","false","false","""event"",""trial"",""time""
""blur"",""3"",""10864""
""focus"",""3"",""10864""
""blur"",""3"",""10864""
""focus"",""3"",""11051""
""fullscreenenter"",""5"",""16977""
""fullscreenexit"",""17"",""105587""
","""event"",""trial"",""time""
""blur"",""3"",""10864""
""blur"",""3"",""10864""
","""event"",""trial"",""time""
""focus"",""3"",""10864""
""focus"",""3"",""11051""
","""event"",""trial"",""time""
""fullscreenenter"",""5"",""16977""
","""event"",""trial"",""time""
""fullscreenexit"",""17"",""105587""
","","images/earth.jpg","","","","","","","","","","","","","","fixation","","","","","",""
"d3-animate-choice","67","397901","0.0-61.0-0.2","401","814","9","Female","true","false","false","false","""event"",""trial"",""time""
""blur"",""3"",""10864""
""focus"",""3"",""10864""
""blur"",""3"",""10864""
""focus"",""3"",""11051""
""fullscreenenter"",""5"",""16977""
""fullscreenexit"",""17"",""105587""
","""event"",""trial"",""time""
""blur"",""3"",""10864""
""blur"",""3"",""10864""
","""event"",""trial"",""time""
""focus"",""3"",""10864""
""focus"",""3"",""11051""
","""event"",""trial"",""time""
""fullscreenenter"",""5"",""16977""
","""event"",""trial"",""time""
""fullscreenexit"",""17"",""105587""
","186.90000000596046","","48","","","3000","1","","","images/earth.jpg","images/tutrocket1","images/tutrocket2","null","images/tutrocket1","","1","practice","null","2","","",""
"d3-animate-choice","68","400291","0.0-61.0-1.2","401","814","9","Female","true","false","false","false","""event"",""trial"",""time""
""blur"",""3"",""10864""
""focus"",""3"",""10864""
""blur"",""3"",""10864""
""focus"",""3"",""11051""
""fullscreenenter"",""5"",""16977""
""fullscreenexit"",""17"",""105587""
","""event"",""trial"",""time""
""blur"",""3"",""10864""
""blur"",""3"",""10864""
","""event"",""trial"",""time""
""focus"",""3"",""10864""
""focus"",""3"",""11051""
","""event"",""trial"",""time""
""fullscreenenter"",""5"",""16977""
","""event"",""trial"",""time""
""fullscreenexit"",""17"",""105587""
","385.59999999403954","","48","","","3000","1","","","images/tutgreenplanet.jpg","images/tutalien2","images/tutalien1","images/tutrocket1","images/tutalien2","images/nothing.png","2","practice","false","2","rare","0","2022-02-13 15:51:47.317"
"two-step-fixation","69","401295","0.0-61.0-2.2","401","814","9","Female","true","false","false","false","""event"",""trial"",""time""
""blur"",""3"",""10864""
""focus"",""3"",""10864""
""blur"",""3"",""10864""
""focus"",""3"",""11051""
""fullscreenenter"",""5"",""16977""
""fullscreenexit"",""17"",""105587""
","""event"",""trial"",""time""
""blur"",""3"",""10864""
""blur"",""3"",""10864""
","""event"",""trial"",""time""
""focus"",""3"",""10864""
""focus"",""3"",""11051""
","""event"",""trial"",""time""
""fullscreenenter"",""5"",""16977""
","""event"",""trial"",""time""
""fullscreenexit"",""17"",""105587""
","","images/earth.jpg","","","","","","","","","","","","","","fixation","","","","","",""
"d3-animate-choice","70","403722","0.0-61.0-0.3","401","814","9","Female","true","false","false","false","""event"",""trial"",""time""
""blur"",""3"",""10864""
""focus"",""3"",""10864""
""blur"",""3"",""10864""
""focus"",""3"",""11051""
""fullscreenenter"",""5"",""16977""
""fullscreenexit"",""17"",""105587""
","""event"",""trial"",""time""
""blur"",""3"",""10864""
""blur"",""3"",""10864""
","""event"",""trial"",""time""
""focus"",""3"",""10864""
""focus"",""3"",""11051""
","""event"",""trial"",""time""
""fullscreenenter"",""5"",""16977""
","""event"",""trial"",""time""
""fullscreenexit"",""17"",""105587""
","423.40000000596046","","49","","","3000","1","","","images/earth.jpg","images/tutrocket1","images/tutrocket2","null","images/tutrocket2","","1","practice","null","1","","",""
"d3-animate-choice","71","406873","0.0-61.0-1.3","401","814","9","Female","true","false","false","false","""event"",""trial"",""time""
""blur"",""3"",""10864""
""focus"",""3"",""10864""
""blur"",""3"",""10864""
""focus"",""3"",""11051""
""fullscreenenter"",""5"",""16977""
""fullscreenexit"",""17"",""105587""
","""event"",""trial"",""time""
""blur"",""3"",""10864""
""blur"",""3"",""10864""
","""event"",""trial"",""time""
""focus"",""3"",""10864""
""focus"",""3"",""11051""
","""event"",""trial"",""time""
""fullscreenenter"",""5"",""16977""
","""event"",""trial"",""time""
""fullscreenexit"",""17"",""105587""
","190.10000002384186","","32","","","3000","1","1145.5","49","images/tutyellowplanet.jpg","images/tutalien4","images/tutalien3","images/tutrocket2","images/tutalien3","images/nothing.png","2","practice","false","","rare","0","2022-02-13 15:51:53.899"
"two-step-fixation","72","407880","0.0-61.0-2.3","401","814","9","Female","true","false","false","false","""event"",""trial"",""time""
""blur"",""3"",""10864""
""focus"",""3"",""10864""
""blur"",""3"",""10864""
""focus"",""3"",""11051""
""fullscreenenter"",""5"",""16977""
""fullscreenexit"",""17"",""105587""
","""event"",""trial"",""time""
""blur"",""3"",""10864""
""blur"",""3"",""10864""
","""event"",""trial"",""time""
""focus"",""3"",""10864""
""focus"",""3"",""11051""
","""event"",""trial"",""time""
""fullscreenenter"",""5"",""16977""
","""event"",""trial"",""time""
""fullscreenexit"",""17"",""105587""
","","images/earth.jpg","","","","","","","","","","","","","","fixation","","","","","",""
"d3-animate-choice","73","411886","0.0-61.0-0.4","401","814","9","Female","true","false","false","false","""event"",""trial"",""time""
""blur"",""3"",""10864""
""focus"",""3"",""10864""
""blur"",""3"",""10864""
""focus"",""3"",""11051""
""fullscreenenter"",""5"",""16977""
""fullscreenexit"",""17"",""105587""
","""event"",""trial"",""time""
""blur"",""3"",""10864""
""blur"",""3"",""10864""
","""event"",""trial"",""time""
""focus"",""3"",""10864""
""focus"",""3"",""11051""
","""event"",""trial"",""time""
""fullscreenenter"",""5"",""16977""
","""event"",""trial"",""time""
""fullscreenexit"",""17"",""105587""
","null","","null","","","3000","0","","","images/earth.jpg","images/tutrocket1","images/tutrocket2","null","","","1","practice","null","","","",""
"d3-animate-choice","74","412893","0.0-61.0-1.4","401","814","9","Female","true","false","false","false","""event"",""trial"",""time""
""blur"",""3"",""10864""
""focus"",""3"",""10864""
""blur"",""3"",""10864""
""focus"",""3"",""11051""
""fullscreenenter"",""5"",""16977""
""fullscreenexit"",""17"",""105587""
","""event"",""trial"",""time""
""blur"",""3"",""10864""
""blur"",""3"",""10864""
","""event"",""trial"",""time""
""focus"",""3"",""10864""
""focus"",""3"",""11051""
","""event"",""trial"",""time""
""fullscreenenter"",""5"",""16977""
","""event"",""trial"",""time""
""fullscreenexit"",""17"",""105587""
","null","","null","","","0","0","","","images/earth.jpg","images/tutrocket1","images/tutrocket2","null","","","2","practice","null","","","0","2022-02-13 15:51:59.919"
"two-step-fixation","75","413895","0.0-61.0-2.4","401","814","9","Female","true","false","false","false","""event"",""trial"",""time""
""blur"",""3"",""10864""
""focus"",""3"",""10864""
""blur"",""3"",""10864""
""focus"",""3"",""11051""
""fullscreenenter"",""5"",""16977""
""fullscreenexit"",""17"",""105587""
","""event"",""trial"",""time""
""blur"",""3"",""10864""
""blur"",""3"",""10864""
","""event"",""trial"",""time""
""focus"",""3"",""10864""
""focus"",""3"",""11051""
","""event"",""trial"",""time""
""fullscreenenter"",""5"",""16977""
","""event"",""trial"",""time""
""fullscreenexit"",""17"",""105587""
","","images/earth.jpg","","","","","","","","","","","","","","fixation","","","","","",""
"d3-animate-choice","76","416959","0.0-61.0-0.5","401","814","9","Female","true","false","false","false","""event"",""trial"",""time""
""blur"",""3"",""10864""
""focus"",""3"",""10864""
""blur"",""3"",""10864""
""focus"",""3"",""11051""
""fullscreenenter"",""5"",""16977""
""fullscreenexit"",""17"",""105587""
","""event"",""trial"",""time""
""blur"",""3"",""10864""
""blur"",""3"",""10864""
","""event"",""trial"",""time""
""focus"",""3"",""10864""
""focus"",""3"",""11051""
","""event"",""trial"",""time""
""fullscreenenter"",""5"",""16977""
","""event"",""trial"",""time""
""fullscreenexit"",""17"",""105587""
","1057","","49","","","3000","1","","","images/earth.jpg","images/tutrocket1","images/tutrocket2","null","images/tutrocket2","","1","practice","null","1","","",""
"d3-animate-choice","77","420320","0.0-61.0-1.5","401","814","9","Female","true","false","false","false","""event"",""trial"",""time""
""blur"",""3"",""10864""
""focus"",""3"",""10864""
""blur"",""3"",""10864""
""focus"",""3"",""11051""
""fullscreenenter"",""5"",""16977""
""fullscreenexit"",""17"",""105587""
","""event"",""trial"",""time""
""blur"",""3"",""10864""
""blur"",""3"",""10864""
","""event"",""trial"",""time""
""focus"",""3"",""10864""
""focus"",""3"",""11051""
","""event"",""trial"",""time""
""fullscreenenter"",""5"",""16977""
","""event"",""trial"",""time""
""fullscreenexit"",""17"",""105587""
","970.4000000059605","","32","","","3000","1","1355.2999999821186","49","images/tutyellowplanet.jpg","images/tutalien4","images/tutalien3","images/tutrocket2","images/tutalien3","images/nothing.png","2","practice","false","","rare","0","2022-02-13 15:52:07.347"
"two-step-fixation","78","421328","0.0-61.0-2.5","401","814","9","Female","true","false","false","false","""event"",""trial"",""time""
""blur"",""3"",""10864""
""focus"",""3"",""10864""
""blur"",""3"",""10864""
""focus"",""3"",""11051""
""fullscreenenter"",""5"",""16977""
""fullscreenexit"",""17"",""105587""
","""event"",""trial"",""time""
""blur"",""3"",""10864""
""blur"",""3"",""10864""
","""event"",""trial"",""time""
""focus"",""3"",""10864""
""focus"",""3"",""11051""
","""event"",""trial"",""time""
""fullscreenenter"",""5"",""16977""
","""event"",""trial"",""time""
""fullscreenexit"",""17"",""105587""
","","images/earth.jpg","","","","","","","","","","","","","","fixation","","","","","",""
"d3-animate-choice","79","424111","0.0-61.0-0.6","401","814","9","Female","true","false","false","false","""event"",""trial"",""time""
""blur"",""3"",""10864""
""focus"",""3"",""10864""
""blur"",""3"",""10864""
""focus"",""3"",""11051""
""fullscreenenter"",""5"",""16977""
""fullscreenexit"",""17"",""105587""
","""event"",""trial"",""time""
""blur"",""3"",""10864""
""blur"",""3"",""10864""
","""event"",""trial"",""time""
""focus"",""3"",""10864""
""focus"",""3"",""11051""
","""event"",""trial"",""time""
""fullscreenenter"",""5"",""16977""
","""event"",""trial"",""time""
""fullscreenexit"",""17"",""105587""
","778.2999999821186","","48","","","3000","1","","","images/earth.jpg","images/tutrocket1","images/tutrocket2","null","images/tutrocket1","","1","practice","null","2","","",""
"d3-animate-choice","80","427013","0.0-61.0-1.6","401","814","9","Female","true","false","false","false","""event"",""trial"",""time""
""blur"",""3"",""10864""
""focus"",""3"",""10864""
""blur"",""3"",""10864""
""focus"",""3"",""11051""
""fullscreenenter"",""5"",""16977""
""fullscreenexit"",""17"",""105587""
","""event"",""trial"",""time""
""blur"",""3"",""10864""
""blur"",""3"",""10864""
","""event"",""trial"",""time""
""focus"",""3"",""10864""
""focus"",""3"",""11051""
","""event"",""trial"",""time""
""fullscreenenter"",""5"",""16977""
","""event"",""trial"",""time""
""fullscreenexit"",""17"",""105587""
","896.4000000059605","","48","","","3000","1","","","images/tutyellowplanet.jpg","images/tutalien4","images/tutalien3","images/tutrocket1","images/tutalien4","images/t.png","2","practice","true","2","common","1","2022-02-13 15:52:14.039"
"two-step-fixation","81","428018","0.0-61.0-2.6","401","814","9","Female","true","false","false","false","""event"",""trial"",""time""
""blur"",""3"",""10864""
""focus"",""3"",""10864""
""blur"",""3"",""10864""
""focus"",""3"",""11051""
""fullscreenenter"",""5"",""16977""
""fullscreenexit"",""17"",""105587""
","""event"",""trial"",""time""
""blur"",""3"",""10864""
""blur"",""3"",""10864""
","""event"",""trial"",""time""
""focus"",""3"",""10864""
""focus"",""3"",""11051""
","""event"",""trial"",""time""
""fullscreenenter"",""5"",""16977""
","""event"",""trial"",""time""
""fullscreenexit"",""17"",""105587""
","","images/earth.jpg","","","","","","","","","","","","","","fixation","","","","","",""
"d3-animate-choice","82","430688","0.0-61.0-0.7","401","814","9","Female","true","false","false","false","""event"",""trial"",""time""
""blur"",""3"",""10864""
""focus"",""3"",""10864""
""blur"",""3"",""10864""
""focus"",""3"",""11051""
""fullscreenenter"",""5"",""16977""
""fullscreenexit"",""17"",""105587""
","""event"",""trial"",""time""
""blur"",""3"",""10864""
""blur"",""3"",""10864""
","""event"",""trial"",""time""
""focus"",""3"",""10864""
""focus"",""3"",""11051""
","""event"",""trial"",""time""
""fullscreenenter"",""5"",""16977""
","""event"",""trial"",""time""
""fullscreenexit"",""17"",""105587""
","662.9000000059605","","48","","","3000","1","1090.5999999940395","48","images/earth.jpg","images/tutrocket1","images/tutrocket2","null","images/tutrocket1","","1","practice","null","2","","",""
"d3-animate-choice","83","433173","0.0-61.0-1.7","401","814","9","Female","true","false","false","false","""event"",""trial"",""time""
""blur"",""3"",""10864""
""focus"",""3"",""10864""
""blur"",""3"",""10864""
""focus"",""3"",""11051""
""fullscreenenter"",""5"",""16977""
""fullscreenexit"",""17"",""105587""
","""event"",""trial"",""time""
""blur"",""3"",""10864""
""blur"",""3"",""10864""
","""event"",""trial"",""time""
""focus"",""3"",""10864""
""focus"",""3"",""11051""
","""event"",""trial"",""time""
""fullscreenenter"",""5"",""16977""
","""event"",""trial"",""time""
""fullscreenexit"",""17"",""105587""
","479.10000002384186","","48","","","3000","1","","","images/tutyellowplanet.jpg","images/tutalien4","images/tutalien3","images/tutrocket1","images/tutalien4","images/t.png","2","practice","true","2","common","1","2022-02-13 15:52:20.199"
"two-step-fixation","84","434180","0.0-61.0-2.7","401","814","9","Female","true","false","false","false","""event"",""trial"",""time""
""blur"",""3"",""10864""
""focus"",""3"",""10864""
""blur"",""3"",""10864""
""focus"",""3"",""11051""
""fullscreenenter"",""5"",""16977""
""fullscreenexit"",""17"",""105587""
","""event"",""trial"",""time""
""blur"",""3"",""10864""
""blur"",""3"",""10864""
","""event"",""trial"",""time""
""focus"",""3"",""10864""
""focus"",""3"",""11051""
","""event"",""trial"",""time""
""fullscreenenter"",""5"",""16977""
","""event"",""trial"",""time""
""fullscreenexit"",""17"",""105587""
","","images/earth.jpg","","","","","","","","","","","","","","fixation","","","","","",""
"d3-animate-choice","85","436592","0.0-61.0-0.8","401","814","9","Female","true","false","false","false","""event"",""trial"",""time""
""blur"",""3"",""10864""
""focus"",""3"",""10864""
""blur"",""3"",""10864""
""focus"",""3"",""11051""
""fullscreenenter"",""5"",""16977""
""fullscreenexit"",""17"",""105587""
","""event"",""trial"",""time""
""blur"",""3"",""10864""
""blur"",""3"",""10864""
","""event"",""trial"",""time""
""focus"",""3"",""10864""
""focus"",""3"",""11051""
","""event"",""trial"",""time""
""fullscreenenter"",""5"",""16977""
","""event"",""trial"",""time""
""fullscreenexit"",""17"",""105587""
","404.5","","49","","","3000","1","931.6999999880791,1420.5999999940395,1656.199999988079,1909.2999999821186","49,49,49,49","images/earth.jpg","images/tutrocket1","images/tutrocket2","null","images/tutrocket2","","1","practice","null","1","","",""
"d3-animate-choice","86","438612","0.0-61.0-1.8","401","814","9","Female","true","false","false","false","""event"",""trial"",""time""
""blur"",""3"",""10864""
""focus"",""3"",""10864""
""blur"",""3"",""10864""
""focus"",""3"",""11051""
""fullscreenenter"",""5"",""16977""
""fullscreenexit"",""17"",""105587""
","""event"",""trial"",""time""
""blur"",""3"",""10864""
""blur"",""3"",""10864""
","""event"",""trial"",""time""
""focus"",""3"",""10864""
""focus"",""3"",""11051""
","""event"",""trial"",""time""
""fullscreenenter"",""5"",""16977""
","""event"",""trial"",""time""
""fullscreenexit"",""17"",""105587""
","15.799999982118607","","49","","","3000","1","528.1999999880791","49","images/tutyellowplanet.jpg","images/tutalien4","images/tutalien3","images/tutrocket2","images/tutalien3","images/nothing.png","2","practice","false","1","rare","0","2022-02-13 15:52:25.638"
"two-step-fixation","87","439616","0.0-61.0-2.8","401","814","9","Female","true","false","false","false","""event"",""trial"",""time""
""blur"",""3"",""10864""
""focus"",""3"",""10864""
""blur"",""3"",""10864""
""focus"",""3"",""11051""
""fullscreenenter"",""5"",""16977""
""fullscreenexit"",""17"",""105587""
","""event"",""trial"",""time""
""blur"",""3"",""10864""
""blur"",""3"",""10864""
","""event"",""trial"",""time""
""focus"",""3"",""10864""
""focus"",""3"",""11051""
","""event"",""trial"",""time""
""fullscreenenter"",""5"",""16977""
","""event"",""trial"",""time""
""fullscreenexit"",""17"",""105587""
","","images/earth.jpg","","","","","","","","","","","","","","fixation","","","","","",""
"d3-animate-choice","88","441843","0.0-61.0-0.9","401","814","9","Female","true","false","false","false","""event"",""trial"",""time""
""blur"",""3"",""10864""
""focus"",""3"",""10864""
""blur"",""3"",""10864""
""focus"",""3"",""11051""
""fullscreenenter"",""5"",""16977""
""fullscreenexit"",""17"",""105587""
","""event"",""trial"",""time""
""blur"",""3"",""10864""
""blur"",""3"",""10864""
","""event"",""trial"",""time""
""focus"",""3"",""10864""
""focus"",""3"",""11051""
","""event"",""trial"",""time""
""fullscreenenter"",""5"",""16977""
","""event"",""trial"",""time""
""fullscreenexit"",""17"",""105587""
","220.69999998807907","","49","","","3000","1","738.5999999940395,1260.4000000059605,1827.2999999821186","48,49,48","images/earth.jpg","images/tutrocket1","images/tutrocket2","null","images/tutrocket2","","1","practice","null","1","","",""
"d3-animate-choice","89","444275","0.0-61.0-1.9","401","814","9","Female","true","false","false","false","""event"",""trial"",""time""
""blur"",""3"",""10864""
""focus"",""3"",""10864""
""blur"",""3"",""10864""
""focus"",""3"",""11051""
""fullscreenenter"",""5"",""16977""
""fullscreenexit"",""17"",""105587""
","""event"",""trial"",""time""
""blur"",""3"",""10864""
""blur"",""3"",""10864""
","""event"",""trial"",""time""
""focus"",""3"",""10864""
""focus"",""3"",""11051""
","""event"",""trial"",""time""
""fullscreenenter"",""5"",""16977""
","""event"",""trial"",""time""
""fullscreenexit"",""17"",""105587""
","426.90000000596046","","48","","","3000","1","722.7999999821186","48","images/tutgreenplanet.jpg","images/tutalien2","images/tutalien1","images/tutrocket2","images/tutalien2","images/nothing.png","2","practice","true","2","common","0","2022-02-13 15:52:31.302"
"two-step-fixation","90","445282","0.0-61.0-2.9","401","814","9","Female","true","false","false","false","""event"",""trial"",""time""
""blur"",""3"",""10864""
""focus"",""3"",""10864""
""blur"",""3"",""10864""
""focus"",""3"",""11051""
""fullscreenenter"",""5"",""16977""
""fullscreenexit"",""17"",""105587""
","""event"",""trial"",""time""
""blur"",""3"",""10864""
""blur"",""3"",""10864""
","""event"",""trial"",""time""
""focus"",""3"",""10864""
""focus"",""3"",""11051""
","""event"",""trial"",""time""
""fullscreenenter"",""5"",""16977""
","""event"",""trial"",""time""
""fullscreenexit"",""17"",""105587""
","","images/earth.jpg","","","","","","","","","","","","","","fixation","","","","","",""
"d3-animate-choice","91","448341","0.0-61.0-0.10","401","814","9","Female","true","false","false","false","""event"",""trial"",""time""
""blur"",""3"",""10864""
""focus"",""3"",""10864""
""blur"",""3"",""10864""
""focus"",""3"",""11051""
""fullscreenenter"",""5"",""16977""
""fullscreenexit"",""17"",""105587""
","""event"",""trial"",""time""
""blur"",""3"",""10864""
""blur"",""3"",""10864""
","""event"",""trial"",""time""
""focus"",""3"",""10864""
""focus"",""3"",""11051""
","""event"",""trial"",""time""
""fullscreenenter"",""5"",""16977""
","""event"",""trial"",""time""
""fullscreenexit"",""17"",""105587""
","1053.5","","48","","","3000","1","1299.9000000059605","48","images/earth.jpg","images/tutrocket1","images/tutrocket2","null","images/tutrocket1","","1","practice","null","2","","",""
"d3-animate-choice","92","451151","0.0-61.0-1.10","401","814","9","Female","true","false","false","false","""event"",""trial"",""time""
""blur"",""3"",""10864""
""focus"",""3"",""10864""
""blur"",""3"",""10864""
""focus"",""3"",""11051""
""fullscreenenter"",""5"",""16977""
""fullscreenexit"",""17"",""105587""
","""event"",""trial"",""time""
""blur"",""3"",""10864""
""blur"",""3"",""10864""
","""event"",""trial"",""time""
""focus"",""3"",""10864""
""focus"",""3"",""11051""
","""event"",""trial"",""time""
""fullscreenenter"",""5"",""16977""
","""event"",""trial"",""time""
""fullscreenexit"",""17"",""105587""
","804.9000000059605","","48","","","3000","1","","","images/tutyellowplanet.jpg","images/tutalien4","images/tutalien3","images/tutrocket1","images/tutalien4","images/nothing.png","2","practice","true","2","common","0","2022-02-13 15:52:38.177"
"two-step-fixation","93","452155","0.0-61.0-2.10","401","814","9","Female","true","false","false","false","""event"",""trial"",""time""
""blur"",""3"",""10864""
""focus"",""3"",""10864""
""blur"",""3"",""10864""
""focus"",""3"",""11051""
""fullscreenenter"",""5"",""16977""
""fullscreenexit"",""17"",""105587""
","""event"",""trial"",""time""
""blur"",""3"",""10864""
""blur"",""3"",""10864""
","""event"",""trial"",""time""
""focus"",""3"",""10864""
""focus"",""3"",""11051""
","""event"",""trial"",""time""
""fullscreenenter"",""5"",""16977""
","""event"",""trial"",""time""
""fullscreenexit"",""17"",""105587""
","","images/earth.jpg","","","","","","","","","","","","","","fixation","","","","","",""
"d3-animate-choice","94","455516","0.0-61.0-0.11","401","814","9","Female","true","false","false","false","""event"",""trial"",""time""
""blur"",""3"",""10864""
""focus"",""3"",""10864""
""blur"",""3"",""10864""
""focus"",""3"",""11051""
""fullscreenenter"",""5"",""16977""
""fullscreenexit"",""17"",""105587""
","""event"",""trial"",""time""
""blur"",""3"",""10864""
""blur"",""3"",""10864""
","""event"",""trial"",""time""
""focus"",""3"",""10864""
""focus"",""3"",""11051""
","""event"",""trial"",""time""
""fullscreenenter"",""5"",""16977""
","""event"",""trial"",""time""
""fullscreenexit"",""17"",""105587""
","1357.300000011921","","49","","","3000","1","","","images/earth.jpg","images/tutrocket1","images/tutrocket2","null","images/tutrocket2","","1","practice","null","1","","",""
"d3-animate-choice","95","458218","0.0-61.0-1.11","401","814","9","Female","true","false","false","false","""event"",""trial"",""time""
""blur"",""3"",""10864""
""focus"",""3"",""10864""
""blur"",""3"",""10864""
""focus"",""3"",""11051""
""fullscreenenter"",""5"",""16977""
""fullscreenexit"",""17"",""105587""
","""event"",""trial"",""time""
""blur"",""3"",""10864""
""blur"",""3"",""10864""
","""event"",""trial"",""time""
""focus"",""3"",""10864""
""focus"",""3"",""11051""
","""event"",""trial"",""time""
""fullscreenenter"",""5"",""16977""
","""event"",""trial"",""time""
""fullscreenexit"",""17"",""105587""
","697.9000000059605","","48","","","3000","1","","","images/tutyellowplanet.jpg","images/tutalien4","images/tutalien3","images/tutrocket2","images/tutalien4","images/nothing.png","2","practice","false","2","rare","0","2022-02-13 15:52:45.244"
"two-step-fixation","96","459222","0.0-61.0-2.11","401","814","9","Female","true","false","false","false","""event"",""trial"",""time""
""blur"",""3"",""10864""
""focus"",""3"",""10864""
""blur"",""3"",""10864""
""focus"",""3"",""11051""
""fullscreenenter"",""5"",""16977""
""fullscreenexit"",""17"",""105587""
","""event"",""trial"",""time""
""blur"",""3"",""10864""
""blur"",""3"",""10864""
","""event"",""trial"",""time""
""focus"",""3"",""10864""
""focus"",""3"",""11051""
","""event"",""trial"",""time""
""fullscreenenter"",""5"",""16977""
","""event"",""trial"",""time""
""fullscreenexit"",""17"",""105587""
","","images/earth.jpg","","","","","","","","","","","","","","fixation","","","","","",""
"d3-animate-choice","97","461876","0.0-61.0-0.12","401","814","9","Female","true","false","false","false","""event"",""trial"",""time""
""blur"",""3"",""10864""
""focus"",""3"",""10864""
""blur"",""3"",""10864""
""focus"",""3"",""11051""
""fullscreenenter"",""5"",""16977""
""fullscreenexit"",""17"",""105587""
","""event"",""trial"",""time""
""blur"",""3"",""10864""
""blur"",""3"",""10864""
","""event"",""trial"",""time""
""focus"",""3"",""10864""
""focus"",""3"",""11051""
","""event"",""trial"",""time""
""fullscreenenter"",""5"",""16977""
","""event"",""trial"",""time""
""fullscreenexit"",""17"",""105587""
","645.8000000119209","","48","","","3000","1","800.9000000059605,1245.800000011921","49,48","images/earth.jpg","images/tutrocket1","images/tutrocket2","null","images/tutrocket1","","1","practice","null","2","","",""
"d3-animate-choice","98","464536","0.0-61.0-1.12","401","814","9","Female","true","false","false","false","""event"",""trial"",""time""
""blur"",""3"",""10864""
""focus"",""3"",""10864""
""blur"",""3"",""10864""
""focus"",""3"",""11051""
""fullscreenenter"",""5"",""16977""
""fullscreenexit"",""17"",""105587""
","""event"",""trial"",""time""
""blur"",""3"",""10864""
""blur"",""3"",""10864""
","""event"",""trial"",""time""
""focus"",""3"",""10864""
""focus"",""3"",""11051""
","""event"",""trial"",""time""
""fullscreenenter"",""5"",""16977""
","""event"",""trial"",""time""
""fullscreenexit"",""17"",""105587""
","656","","48","","","3000","1","751.9000000059605","13","images/tutyellowplanet.jpg","images/tutalien4","images/tutalien3","images/tutrocket1","images/tutalien4","images/nothing.png","2","practice","true","2","common","0","2022-02-13 15:52:51.562"
"two-step-fixation","99","465539","0.0-61.0-2.12","401","814","9","Female","true","false","false","false","""event"",""trial"",""time""
""blur"",""3"",""10864""
""focus"",""3"",""10864""
""blur"",""3"",""10864""
""focus"",""3"",""11051""
""fullscreenenter"",""5"",""16977""
""fullscreenexit"",""17"",""105587""
","""event"",""trial"",""time""
""blur"",""3"",""10864""
""blur"",""3"",""10864""
","""event"",""trial"",""time""
""focus"",""3"",""10864""
""focus"",""3"",""11051""
","""event"",""trial"",""time""
""fullscreenenter"",""5"",""16977""
","""event"",""trial"",""time""
""fullscreenexit"",""17"",""105587""
","","images/earth.jpg","","","","","","","","","","","","","","fixation","","","","","",""
"d3-animate-choice","100","467639","0.0-61.0-0.13","401","814","9","Female","true","false","false","false","""event"",""trial"",""time""
""blur"",""3"",""10864""
""focus"",""3"",""10864""
""blur"",""3"",""10864""
""focus"",""3"",""11051""
""fullscreenenter"",""5"",""16977""
""fullscreenexit"",""17"",""105587""
","""event"",""trial"",""time""
""blur"",""3"",""10864""
""blur"",""3"",""10864""
","""event"",""trial"",""time""
""focus"",""3"",""10864""
""focus"",""3"",""11051""
","""event"",""trial"",""time""
""fullscreenenter"",""5"",""16977""
","""event"",""trial"",""time""
""fullscreenexit"",""17"",""105587""
","96.90000000596046","","49","","","3000","1","313.80000001192093","49","images/earth.jpg","images/tutrocket1","images/tutrocket2","null","images/tutrocket2","","1","practice","null","1","","",""
"d3-animate-choice","101","469772","0.0-61.0-1.13","401","814","9","Female","true","false","false","false","""event"",""trial"",""time""
""blur"",""3"",""10864""
""focus"",""3"",""10864""
""blur"",""3"",""10864""
""focus"",""3"",""11051""
""fullscreenenter"",""5"",""16977""
""fullscreenexit"",""17"",""105587""
","""event"",""trial"",""time""
""blur"",""3"",""10864""
""blur"",""3"",""10864""
","""event"",""trial"",""time""
""focus"",""3"",""10864""
""focus"",""3"",""11051""
","""event"",""trial"",""time""
""fullscreenenter"",""5"",""16977""
","""event"",""trial"",""time""
""fullscreenexit"",""17"",""105587""
","128.69999998807907","","48","","","3000","1","","","images/tutyellowplanet.jpg","images/tutalien4","images/tutalien3","images/tutrocket2","images/tutalien4","images/t.png","2","practice","false","2","rare","1","2022-02-13 15:52:56.798"
"two-step-fixation","102","470775","0.0-61.0-2.13","401","814","9","Female","true","false","false","false","""event"",""trial"",""time""
""blur"",""3"",""10864""
""focus"",""3"",""10864""
""blur"",""3"",""10864""
""focus"",""3"",""11051""
""fullscreenenter"",""5"",""16977""
""fullscreenexit"",""17"",""105587""
","""event"",""trial"",""time""
""blur"",""3"",""10864""
""blur"",""3"",""10864""
","""event"",""trial"",""time""
""focus"",""3"",""10864""
""focus"",""3"",""11051""
","""event"",""trial"",""time""
""fullscreenenter"",""5"",""16977""
","""event"",""trial"",""time""
""fullscreenexit"",""17"",""105587""
","","images/earth.jpg","","","","","","","","","","","","","","fixation","","","","","",""
"d3-animate-choice","103","472949","0.0-61.0-0.14","401","814","9","Female","true","false","false","false","""event"",""trial"",""time""
""blur"",""3"",""10864""
""focus"",""3"",""10864""
""blur"",""3"",""10864""
""focus"",""3"",""11051""
""fullscreenenter"",""5"",""16977""
""fullscreenexit"",""17"",""105587""
","""event"",""trial"",""time""
""blur"",""3"",""10864""
""blur"",""3"",""10864""
","""event"",""trial"",""time""
""focus"",""3"",""10864""
""focus"",""3"",""11051""
","""event"",""trial"",""time""
""fullscreenenter"",""5"",""16977""
","""event"",""trial"",""time""
""fullscreenexit"",""17"",""105587""
","165.39999997615814","","49","","","3000","1","","","images/earth.jpg","images/tutrocket1","images/tutrocket2","null","images/tutrocket2","","1","practice","null","1","","",""
"d3-animate-choice","104","475629","0.0-61.0-1.14","401","814","9","Female","true","false","false","false","""event"",""trial"",""time""
""blur"",""3"",""10864""
""focus"",""3"",""10864""
""blur"",""3"",""10864""
""focus"",""3"",""11051""
""fullscreenenter"",""5"",""16977""
""fullscreenexit"",""17"",""105587""
","""event"",""trial"",""time""
""blur"",""3"",""10864""
""blur"",""3"",""10864""
","""event"",""trial"",""time""
""focus"",""3"",""10864""
""focus"",""3"",""11051""
","""event"",""trial"",""time""
""fullscreenenter"",""5"",""16977""
","""event"",""trial"",""time""
""fullscreenexit"",""17"",""105587""
","673.5","","49","","","3000","1","","","images/tutgreenplanet.jpg","images/tutalien2","images/tutalien1","images/tutrocket2","images/tutalien1","images/nothing.png","2","practice","true","1","common","0","2022-02-13 15:53:02.655"
"two-step-fixation","105","476635","0.0-61.0-2.14","401","814","9","Female","true","false","false","false","""event"",""trial"",""time""
""blur"",""3"",""10864""
""focus"",""3"",""10864""
""blur"",""3"",""10864""
""focus"",""3"",""11051""
""fullscreenenter"",""5"",""16977""
""fullscreenexit"",""17"",""105587""
","""event"",""trial"",""time""
""blur"",""3"",""10864""
""blur"",""3"",""10864""
","""event"",""trial"",""time""
""focus"",""3"",""10864""
""focus"",""3"",""11051""
","""event"",""trial"",""time""
""fullscreenenter"",""5"",""16977""
","""event"",""trial"",""time""
""fullscreenexit"",""17"",""105587""
","","images/earth.jpg","","","","","","","","","","","","","","fixation","","","","","",""
"d3-animate-choice","106","478812","0.0-61.0-0.15","401","814","9","Female","true","false","false","false","""event"",""trial"",""time""
""blur"",""3"",""10864""
""focus"",""3"",""10864""
""blur"",""3"",""10864""
""focus"",""3"",""11051""
""fullscreenenter"",""5"",""16977""
""fullscreenexit"",""17"",""105587""
","""event"",""trial"",""time""
""blur"",""3"",""10864""
""blur"",""3"",""10864""
","""event"",""trial"",""time""
""focus"",""3"",""10864""
""focus"",""3"",""11051""
","""event"",""trial"",""time""
""fullscreenenter"",""5"",""16977""
","""event"",""trial"",""time""
""fullscreenexit"",""17"",""105587""
","169.59999999403954","","49","","","3000","1","","","images/earth.jpg","images/tutrocket1","images/tutrocket2","null","images/tutrocket2","","1","practice","null","1","","",""
"d3-animate-choice","107","481270","0.0-61.0-1.15","401","814","9","Female","true","false","false","false","""event"",""trial"",""time""
""blur"",""3"",""10864""
""focus"",""3"",""10864""
""blur"",""3"",""10864""
""focus"",""3"",""11051""
""fullscreenenter"",""5"",""16977""
""fullscreenexit"",""17"",""105587""
","""event"",""trial"",""time""
""blur"",""3"",""10864""
""blur"",""3"",""10864""
","""event"",""trial"",""time""
""focus"",""3"",""10864""
""focus"",""3"",""11051""
","""event"",""trial"",""time""
""fullscreenenter"",""5"",""16977""
","""event"",""trial"",""time""
""fullscreenexit"",""17"",""105587""
","454","","49","","","3000","1","","","images/tutgreenplanet.jpg","images/tutalien2","images/tutalien1","images/tutrocket2","images/tutalien1","images/nothing.png","2","practice","true","1","common","0","2022-02-13 15:53:08.296"
"two-step-fixation","108","482275","0.0-61.0-2.15","401","814","9","Female","true","false","false","false","""event"",""trial"",""time""
""blur"",""3"",""10864""
""focus"",""3"",""10864""
""blur"",""3"",""10864""
""focus"",""3"",""11051""
""fullscreenenter"",""5"",""16977""
""fullscreenexit"",""17"",""105587""
","""event"",""trial"",""time""
""blur"",""3"",""10864""
""blur"",""3"",""10864""
","""event"",""trial"",""time""
""focus"",""3"",""10864""
""focus"",""3"",""11051""
","""event"",""trial"",""time""
""fullscreenenter"",""5"",""16977""
","""event"",""trial"",""time""
""fullscreenexit"",""17"",""105587""
","","images/earth.jpg","","","","","","","","","","","","","","fixation","","","","","",""
"d3-animate-choice","109","484597","0.0-61.0-0.16","401","814","9","Female","true","false","false","false","""event"",""trial"",""time""
""blur"",""3"",""10864""
""focus"",""3"",""10864""
""blur"",""3"",""10864""
""focus"",""3"",""11051""
""fullscreenenter"",""5"",""16977""
""fullscreenexit"",""17"",""105587""
","""event"",""trial"",""time""
""blur"",""3"",""10864""
""blur"",""3"",""10864""
","""event"",""trial"",""time""
""focus"",""3"",""10864""
""focus"",""3"",""11051""
","""event"",""trial"",""time""
""fullscreenenter"",""5"",""16977""
","""event"",""trial"",""time""
""fullscreenexit"",""17"",""105587""
","318.59999999403954","","49","","","3000","1","","","images/earth.jpg","images/tutrocket1","images/tutrocket2","null","images/tutrocket2","","1","practice","null","1","","",""
"d3-animate-choice","110","486906","0.0-61.0-1.16","401","814","9","Female","true","false","false","false","""event"",""trial"",""time""
""blur"",""3"",""10864""
""focus"",""3"",""10864""
""blur"",""3"",""10864""
""focus"",""3"",""11051""
""fullscreenenter"",""5"",""16977""
""fullscreenexit"",""17"",""105587""
","""event"",""trial"",""time""
""blur"",""3"",""10864""
""blur"",""3"",""10864""
","""event"",""trial"",""time""
""focus"",""3"",""10864""
""focus"",""3"",""11051""
","""event"",""trial"",""time""
""fullscreenenter"",""5"",""16977""
","""event"",""trial"",""time""
""fullscreenexit"",""17"",""105587""
","306","","48","","","3000","1","","","images/tutgreenplanet.jpg","images/tutalien2","images/tutalien1","images/tutrocket2","images/tutalien2","images/nothing.png","2","practice","true","2","common","0","2022-02-13 15:53:13.932"
"two-step-fixation","111","487910","0.0-61.0-2.16","401","814","9","Female","true","false","false","false","""event"",""trial"",""time""
""blur"",""3"",""10864""
""focus"",""3"",""10864""
""blur"",""3"",""10864""
""focus"",""3"",""11051""
""fullscreenenter"",""5"",""16977""
""fullscreenexit"",""17"",""105587""
","""event"",""trial"",""time""
""blur"",""3"",""10864""
""blur"",""3"",""10864""
","""event"",""trial"",""time""
""focus"",""3"",""10864""
""focus"",""3"",""11051""
","""event"",""trial"",""time""
""fullscreenenter"",""5"",""16977""
","""event"",""trial"",""time""
""fullscreenexit"",""17"",""105587""
","","images/earth.jpg","","","","","","","","","","","","","","fixation","","","","","",""
"d3-animate-choice","112","490971","0.0-61.0-0.17","401","814","9","Female","true","false","false","false","""event"",""trial"",""time""
""blur"",""3"",""10864""
""focus"",""3"",""10864""
""blur"",""3"",""10864""
""focus"",""3"",""11051""
""fullscreenenter"",""5"",""16977""
""fullscreenexit"",""17"",""105587""
","""event"",""trial"",""time""
""blur"",""3"",""10864""
""blur"",""3"",""10864""
","""event"",""trial"",""time""
""focus"",""3"",""10864""
""focus"",""3"",""11051""
","""event"",""trial"",""time""
""fullscreenenter"",""5"",""16977""
","""event"",""trial"",""time""
""fullscreenexit"",""17"",""105587""
","1057.5999999940395","","48","","","3000","1","1615.7999999821186,1627.5","219,48","images/earth.jpg","images/tutrocket1","images/tutrocket2","null","images/tutrocket1","","1","practice","null","2","","",""
"d3-animate-choice","113","494547","0.0-61.0-1.17","401","814","9","Female","true","false","false","false","""event"",""trial"",""time""
""blur"",""3"",""10864""
""focus"",""3"",""10864""
""blur"",""3"",""10864""
""focus"",""3"",""11051""
""fullscreenenter"",""5"",""16977""
""fullscreenexit"",""17"",""105587""
","""event"",""trial"",""time""
""blur"",""3"",""10864""
""blur"",""3"",""10864""
","""event"",""trial"",""time""
""focus"",""3"",""10864""
""focus"",""3"",""11051""
","""event"",""trial"",""time""
""fullscreenenter"",""5"",""16977""
","""event"",""trial"",""time""
""fullscreenexit"",""17"",""105587""
","1571.5","","49","","","3000","1","","","images/tutgreenplanet.jpg","images/tutalien2","images/tutalien1","images/tutrocket1","images/tutalien1","images/nothing.png","2","practice","false","1","rare","0","2022-02-13 15:53:21.573"
"two-step-fixation","114","495551","0.0-61.0-2.17","401","814","9","Female","true","false","false","false","""event"",""trial"",""time""
""blur"",""3"",""10864""
""focus"",""3"",""10864""
""blur"",""3"",""10864""
""focus"",""3"",""11051""
""fullscreenenter"",""5"",""16977""
""fullscreenexit"",""17"",""105587""
","""event"",""trial"",""time""
""blur"",""3"",""10864""
""blur"",""3"",""10864""
","""event"",""trial"",""time""
""focus"",""3"",""10864""
""focus"",""3"",""11051""
","""event"",""trial"",""time""
""fullscreenenter"",""5"",""16977""
","""event"",""trial"",""time""
""fullscreenexit"",""17"",""105587""
","","images/earth.jpg","","","","","","","","","","","","","","fixation","","","","","",""
"d3-animate-choice","115","498435","0.0-61.0-0.18","401","814","9","Female","true","false","false","false","""event"",""trial"",""time""
""blur"",""3"",""10864""
""focus"",""3"",""10864""
""blur"",""3"",""10864""
""focus"",""3"",""11051""
""fullscreenenter"",""5"",""16977""
""fullscreenexit"",""17"",""105587""
","""event"",""trial"",""time""
""blur"",""3"",""10864""
""blur"",""3"",""10864""
","""event"",""trial"",""time""
""focus"",""3"",""10864""
""focus"",""3"",""11051""
","""event"",""trial"",""time""
""fullscreenenter"",""5"",""16977""
","""event"",""trial"",""time""
""fullscreenexit"",""17"",""105587""
","879.4000000059605","","48","","","3000","1","2552.2000000178814","49","images/earth.jpg","images/tutrocket1","images/tutrocket2","null","images/tutrocket1","","1","practice","null","2","","",""
"d3-animate-choice","116","500869","0.0-61.0-1.18","401","814","9","Female","true","false","false","false","""event"",""trial"",""time""
""blur"",""3"",""10864""
""focus"",""3"",""10864""
""blur"",""3"",""10864""
""focus"",""3"",""11051""
""fullscreenenter"",""5"",""16977""
""fullscreenexit"",""17"",""105587""
","""event"",""trial"",""time""
""blur"",""3"",""10864""
""blur"",""3"",""10864""
","""event"",""trial"",""time""
""focus"",""3"",""10864""
""focus"",""3"",""11051""
","""event"",""trial"",""time""
""fullscreenenter"",""5"",""16977""
","""event"",""trial"",""time""
""fullscreenexit"",""17"",""105587""
","426.90000000596046","","49","","","3000","1","","","images/tutyellowplanet.jpg","images/tutalien4","images/tutalien3","images/tutrocket1","images/tutalien3","images/nothing.png","2","practice","true","1","common","0","2022-02-13 15:53:27.895"
"two-step-fixation","117","501875","0.0-61.0-2.18","401","814","9","Female","true","false","false","false","""event"",""trial"",""time""
""blur"",""3"",""10864""
""focus"",""3"",""10864""
""blur"",""3"",""10864""
""focus"",""3"",""11051""
""fullscreenenter"",""5"",""16977""
""fullscreenexit"",""17"",""105587""
","""event"",""trial"",""time""
""blur"",""3"",""10864""
""blur"",""3"",""10864""
","""event"",""trial"",""time""
""focus"",""3"",""10864""
""focus"",""3"",""11051""
","""event"",""trial"",""time""
""fullscreenenter"",""5"",""16977""
","""event"",""trial"",""time""
""fullscreenexit"",""17"",""105587""
","","images/earth.jpg","","","","","","","","","","","","","","fixation","","","","","",""
"d3-animate-choice","118","504357","0.0-61.0-0.19","401","814","9","Female","true","false","false","false","""event"",""trial"",""time""
""blur"",""3"",""10864""
""focus"",""3"",""10864""
""blur"",""3"",""10864""
""focus"",""3"",""11051""
""fullscreenenter"",""5"",""16977""
""fullscreenexit"",""17"",""105587""
","""event"",""trial"",""time""
""blur"",""3"",""10864""
""blur"",""3"",""10864""
","""event"",""trial"",""time""
""focus"",""3"",""10864""
""focus"",""3"",""11051""
","""event"",""trial"",""time""
""fullscreenenter"",""5"",""16977""
","""event"",""trial"",""time""
""fullscreenexit"",""17"",""105587""
","474.09999999403954","","49","","","3000","1","","","images/earth.jpg","images/tutrocket1","images/tutrocket2","null","images/tutrocket2","","1","practice","null","1","","",""
"d3-animate-choice","119","507326","0.0-61.0-1.19","401","814","9","Female","true","false","false","false","""event"",""trial"",""time""
""blur"",""3"",""10864""
""focus"",""3"",""10864""
""blur"",""3"",""10864""
""focus"",""3"",""11051""
""fullscreenenter"",""5"",""16977""
""fullscreenexit"",""17"",""105587""
","""event"",""trial"",""time""
""blur"",""3"",""10864""
""blur"",""3"",""10864""
","""event"",""trial"",""time""
""focus"",""3"",""10864""
""focus"",""3"",""11051""
","""event"",""trial"",""time""
""fullscreenenter"",""5"",""16977""
","""event"",""trial"",""time""
""fullscreenexit"",""17"",""105587""
","538.6000000238419","","32","","","3000","1","962.5,1455.5","49,48","images/tutyellowplanet.jpg","images/tutalien4","images/tutalien3","images/tutrocket2","images/tutalien3","images/nothing.png","2","practice","false","","rare","0","2022-02-13 15:53:34.352"
"two-step-fixation","120","508334","0.0-61.0-2.19","401","814","9","Female","true","false","false","false","""event"",""trial"",""time""
""blur"",""3"",""10864""
""focus"",""3"",""10864""
""blur"",""3"",""10864""
""focus"",""3"",""11051""
""fullscreenenter"",""5"",""16977""
""fullscreenexit"",""17"",""105587""
","""event"",""trial"",""time""
""blur"",""3"",""10864""
""blur"",""3"",""10864""
","""event"",""trial"",""time""
""focus"",""3"",""10864""
""focus"",""3"",""11051""
","""event"",""trial"",""time""
""fullscreenenter"",""5"",""16977""
","""event"",""trial"",""time""
""fullscreenexit"",""17"",""105587""
","","images/earth.jpg","","","","","","","","","","","","","","fixation","","","","","",""
"d3-instructions","121","516045","0.0-62.0","401","814","9","Female","true","false","false","false","""event"",""trial"",""time""
""blur"",""3"",""10864""
""focus"",""3"",""10864""
""blur"",""3"",""10864""
""focus"",""3"",""11051""
""fullscreenenter"",""5"",""16977""
""fullscreenexit"",""17"",""105587""
","""event"",""trial"",""time""
""blur"",""3"",""10864""
""blur"",""3"",""10864""
","""event"",""trial"",""time""
""focus"",""3"",""10864""
""focus"",""3"",""11051""
","""event"",""trial"",""time""
""fullscreenenter"",""5"",""16977""
","""event"",""trial"",""time""
""fullscreenexit"",""17"",""105587""
","","","","","","","","","","","","","","","","","","","","","",""
"audio-keyboard-response","122","519596","0.0-63.0","401","814","9","Female","true","false","false","false","""event"",""trial"",""time""
""blur"",""3"",""10864""
""focus"",""3"",""10864""
""blur"",""3"",""10864""
""focus"",""3"",""11051""
""fullscreenenter"",""5"",""16977""
""fullscreenexit"",""17"",""105587""
","""event"",""trial"",""time""
""blur"",""3"",""10864""
""blur"",""3"",""10864""
","""event"",""trial"",""time""
""focus"",""3"",""10864""
""focus"",""3"",""11051""
","""event"",""trial"",""time""
""fullscreenenter"",""5"",""16977""
","""event"",""trial"",""time""
""fullscreenexit"",""17"",""105587""
","3547","audio/instructions/treasure_feedback.wav","32","","","","","","","","","","","","","","","","","","",""
"d3-instructions","123","527794","0.0-64.0","401","814","9","Female","true","false","false","false","""event"",""trial"",""time""
""blur"",""3"",""10864""
""focus"",""3"",""10864""
""blur"",""3"",""10864""
""focus"",""3"",""11051""
""fullscreenenter"",""5"",""16977""
""fullscreenexit"",""17"",""105587""
","""event"",""trial"",""time""
""blur"",""3"",""10864""
""blur"",""3"",""10864""
","""event"",""trial"",""time""
""focus"",""3"",""10864""
""focus"",""3"",""11051""
","""event"",""trial"",""time""
""fullscreenenter"",""5"",""16977""
","""event"",""trial"",""time""
""fullscreenexit"",""17"",""105587""
","","","","","","","","","","","","","","","","","","","","","",""
"d3-instructions","124","546336","0.0-65.0","401","814","9","Female","true","false","false","false","""event"",""trial"",""time""
""blur"",""3"",""10864""
""focus"",""3"",""10864""
""blur"",""3"",""10864""
""focus"",""3"",""11051""
""fullscreenenter"",""5"",""16977""
""fullscreenexit"",""17"",""105587""
","""event"",""trial"",""time""
""blur"",""3"",""10864""
""blur"",""3"",""10864""
","""event"",""trial"",""time""
""focus"",""3"",""10864""
""focus"",""3"",""11051""
","""event"",""trial"",""time""
""fullscreenenter"",""5"",""16977""
","""event"",""trial"",""time""
""fullscreenexit"",""17"",""105587""
","","","","","","","","","","","","","","","","","","","","","",""
"d3-instructions","125","573136","0.0-66.0","401","814","9","Female","true","false","false","false","""event"",""trial"",""time""
""blur"",""3"",""10864""
""focus"",""3"",""10864""
""blur"",""3"",""10864""
""focus"",""3"",""11051""
""fullscreenenter"",""5"",""16977""
""fullscreenexit"",""17"",""105587""
","""event"",""trial"",""time""
""blur"",""3"",""10864""
""blur"",""3"",""10864""
","""event"",""trial"",""time""
""focus"",""3"",""10864""
""focus"",""3"",""11051""
","""event"",""trial"",""time""
""fullscreenenter"",""5"",""16977""
","""event"",""trial"",""time""
""fullscreenexit"",""17"",""105587""
","","","","","","","","","","","","","","","","","","","","","",""
"d3-instructions","126","583984","0.0-67.0","401","814","9","Female","true","false","false","false","""event"",""trial"",""time""
""blur"",""3"",""10864""
""focus"",""3"",""10864""
""blur"",""3"",""10864""
""focus"",""3"",""11051""
""fullscreenenter"",""5"",""16977""
""fullscreenexit"",""17"",""105587""
","""event"",""trial"",""time""
""blur"",""3"",""10864""
""blur"",""3"",""10864""
","""event"",""trial"",""time""
""focus"",""3"",""10864""
""focus"",""3"",""11051""
","""event"",""trial"",""time""
""fullscreenenter"",""5"",""16977""
","""event"",""trial"",""time""
""fullscreenexit"",""17"",""105587""
","","","","","","","","","","","","","","","","","","","","","",""
"d3-instructions","127","590062","0.0-68.0","401","814","9","Female","true","false","false","false","""event"",""trial"",""time""
""blur"",""3"",""10864""
""focus"",""3"",""10864""
""blur"",""3"",""10864""
""focus"",""3"",""11051""
""fullscreenenter"",""5"",""16977""
""fullscreenexit"",""17"",""105587""
","""event"",""trial"",""time""
""blur"",""3"",""10864""
""blur"",""3"",""10864""
","""event"",""trial"",""time""
""focus"",""3"",""10864""
""focus"",""3"",""11051""
","""event"",""trial"",""time""
""fullscreenenter"",""5"",""16977""
","""event"",""trial"",""time""
""fullscreenexit"",""17"",""105587""
","","","","","","","","","","","","","","","","","","","","","",""
"instructions-quiz","128","594047","0.0-69.0","401","814","9","Female","true","false","false","false","""event"",""trial"",""time""
""blur"",""3"",""10864""
""focus"",""3"",""10864""
""blur"",""3"",""10864""
""focus"",""3"",""11051""
""fullscreenenter"",""5"",""16977""
""fullscreenexit"",""17"",""105587""
","""event"",""trial"",""time""
""blur"",""3"",""10864""
""blur"",""3"",""10864""
","""event"",""trial"",""time""
""focus"",""3"",""10864""
""focus"",""3"",""11051""
","""event"",""trial"",""time""
""fullscreenenter"",""5"",""16977""
","""event"",""trial"",""time""
""fullscreenexit"",""17"",""105587""
","3983.5","audio/quiz/Q1_Prompt.wav","","1","","","","","","","","","","","","","","","","","",""
"audio-keyboard-response","129","603216","0.0-70.0","401","814","9","Female","true","false","false","false","""event"",""trial"",""time""
""blur"",""3"",""10864""
""focus"",""3"",""10864""
""blur"",""3"",""10864""
""focus"",""3"",""11051""
""fullscreenenter"",""5"",""16977""
""fullscreenexit"",""17"",""105587""
","""event"",""trial"",""time""
""blur"",""3"",""10864""
""blur"",""3"",""10864""
","""event"",""trial"",""time""
""focus"",""3"",""10864""
""focus"",""3"",""11051""
","""event"",""trial"",""time""
""fullscreenenter"",""5"",""16977""
","""event"",""trial"",""time""
""fullscreenexit"",""17"",""105587""
","null","audio/quiz/Q1_Correct.wav","null","","","","","","","","","","","","","","","","","","",""
"instructions-quiz","130","608791","0.0-71.0","401","814","9","Female","true","false","false","false","""event"",""trial"",""time""
""blur"",""3"",""10864""
""focus"",""3"",""10864""
""blur"",""3"",""10864""
""focus"",""3"",""11051""
""fullscreenenter"",""5"",""16977""
""fullscreenexit"",""17"",""105587""
","""event"",""trial"",""time""
""blur"",""3"",""10864""
""blur"",""3"",""10864""
","""event"",""trial"",""time""
""focus"",""3"",""10864""
""focus"",""3"",""11051""
","""event"",""trial"",""time""
""fullscreenenter"",""5"",""16977""
","""event"",""trial"",""time""
""fullscreenexit"",""17"",""105587""
","5572.699999988079","audio/quiz/Q2_Prompt.wav","","1","","","","","","","","","","","","","","","","","",""
"audio-keyboard-response","131","622253","0.0-72.0","401","814","9","Female","true","false","false","false","""event"",""trial"",""time""
""blur"",""3"",""10864""
""focus"",""3"",""10864""
""blur"",""3"",""10864""
""focus"",""3"",""11051""
""fullscreenenter"",""5"",""16977""
""fullscreenexit"",""17"",""105587""
","""event"",""trial"",""time""
""blur"",""3"",""10864""
""blur"",""3"",""10864""
","""event"",""trial"",""time""
""focus"",""3"",""10864""
""focus"",""3"",""11051""
","""event"",""trial"",""time""
""fullscreenenter"",""5"",""16977""
","""event"",""trial"",""time""
""fullscreenexit"",""17"",""105587""
","13462","audio/quiz/Q2_Incorrect.wav","32","","","","","","","","","","","","","","","","","","",""
"instructions-quiz","132","627064","0.0-73.0","401","814","9","Female","true","false","false","false","""event"",""trial"",""time""
""blur"",""3"",""10864""
""focus"",""3"",""10864""
""blur"",""3"",""10864""
""focus"",""3"",""11051""
""fullscreenenter"",""5"",""16977""
""fullscreenexit"",""17"",""105587""
","""event"",""trial"",""time""
""blur"",""3"",""10864""
""blur"",""3"",""10864""
