"trial_type","trial_index","time_elapsed","internal_node_id","participant_id","subject_id","age","gender","rocket_sides","red_planet_first_rocket","red_display_order","purple_display_order","interactions","blur_events","focus_events","fullscreenenter_events","fullscreenexit_events","rt","stimulus","key_press","button_pressed","success","duration","valid_pressed","rts","keys","planet_text","right_text","left_text","center_text","chosen_text","reward_text","trial_stage","practice_trial","transition_type","choice","transition","reward","timestamp"
"pavlovia","0","2","0.0-0.0","70","608","22","Female","true","true","false","true","
","
","
","
","
","","","","","","","","","","","","","","","","","","","","","",""
"html-keyboard-response","1","2399","0.0-1.0","70","608","22","Female","true","true","false","true","
","
","
","
","
","2396.1000000089407","Welcome! Press the space bar to begin.","32","","","","","","","","","","","","","","","","","","",""
"audio-keyboard-response","2","5046","0.0-2.0","70","608","22","Female","true","true","false","true","
","
","
","
","
","2608","audio/beep_loop.wav","32","","","","","","","","","","","","","","","","","","",""
"audio-button-response","3","9864","0.0-3.0","70","608","22","Female","true","true","false","true","
","
","
","
","
","NaN","audio/fish.mp3","","1","","","","","","","","","","","","","","","","","",""
"audio-button-response","4","12744","0.0-4.0","70","608","22","Female","true","true","false","true","""event"",""trial"",""time""
""fullscreenenter"",""5"",""16683""
","
","
","""event"",""trial"",""time""
""fullscreenenter"",""5"",""16683""
","
","NaN","audio/tiger.mp3","","4","","","","","","","","","","","","","","","","","",""
"fullscreen","5","17674","0.0-5.0","70","608","22","Female","true","true","false","true","""event"",""trial"",""time""
""fullscreenenter"",""5"",""16683""
","
","
","""event"",""trial"",""time""
""fullscreenenter"",""5"",""16683""
","
","","","","","true","","","","","","","","","","","","","","","","",""
"d3-instructions","6","31816","0.0-6.0","70","608","22","Female","true","true","false","true","""event"",""trial"",""time""
""fullscreenenter"",""5"",""16683""
","
","
","""event"",""trial"",""time""
""fullscreenenter"",""5"",""16683""
","
","","","","","","","","","","","","","","","","","","","","","",""
"d3-instructions","7","42945","0.0-7.0","70","608","22","Female","true","true","false","true","""event"",""trial"",""time""
""fullscreenenter"",""5"",""16683""
","
","
","""event"",""trial"",""time""
""fullscreenenter"",""5"",""16683""
","
","","","","","","","","","","","","","","","","","","","","","",""
"d3-instructions","8","49637","0.0-8.0","70","608","22","Female","true","true","false","true","""event"",""trial"",""time""
""fullscreenenter"",""5"",""16683""
","
","
","""event"",""trial"",""time""
""fullscreenenter"",""5"",""16683""
","
","","","","","","","","","","","","","","","","","","","","","",""
"d3-instructions","9","63921","0.0-9.0","70","608","22","Female","true","true","false","true","""event"",""trial"",""time""
""fullscreenenter"",""5"",""16683""
","
","
","""event"",""trial"",""time""
""fullscreenenter"",""5"",""16683""
","
","","","","","","","","","","","","","","","","","","","","","",""
"d3-instructions","10","84386","0.0-10.0","70","608","22","Female","true","true","false","true","""event"",""trial"",""time""
""fullscreenenter"",""5"",""16683""
","
","
","""event"",""trial"",""time""
""fullscreenenter"",""5"",""16683""
","
","","","","","","","","","","","","","","","","","","","","","",""
"d3-animate-choice","11","87314","0.0-11.0","70","608","22","Female","true","true","false","true","""event"",""trial"",""time""
""fullscreenenter"",""5"",""16683""
","
","
","""event"",""trial"",""time""
""fullscreenenter"",""5"",""16683""
","
","916.0999999940395","","49","","","3000","1","","","images/tutgreenplanet.jpg","images/tutalien1","images/tutalien2","null","images/tutalien2","","NA","practice","null","","","",""
"d3-animate-choice","12","90133","0.0-12.0","70","608","22","Female","true","true","false","true","""event"",""trial"",""time""
""fullscreenenter"",""5"",""16683""
","
","
","""event"",""trial"",""time""
""fullscreenenter"",""5"",""16683""
","
","808.7000000029802","","48","","","3000","1","","","images/tutgreenplanet.jpg","images/tutalien1","images/tutalien2","null","images/tutalien1","","NA","practice","null","","","",""
"d3-animate-choice","13","96822","0.0-13.0","70","608","22","Female","true","true","false","true","""event"",""trial"",""time""
""fullscreenenter"",""5"",""16683""
","
","
","""event"",""trial"",""time""
""fullscreenenter"",""5"",""16683""
","
","4681.0999999940395","","48","","","3000","1","","","images/tutgreenplanet.jpg","images/tutalien1","images/tutalien2","null","images/tutalien1","","NA","practice","null","","","",""
"d3-animate-choice","14","100196","0.0-14.0","70","608","22","Female","true","true","false","true","""event"",""trial"",""time""
""fullscreenenter"",""5"",""16683""
","
","
","""event"",""trial"",""time""
""fullscreenenter"",""5"",""16683""
","
","1364","","49","","","3000","1","","","images/tutgreenplanet.jpg","images/tutalien1","images/tutalien2","null","images/tutalien2","","NA","practice","null","","","",""
"d3-instructions","15","106742","0.0-15.0","70","608","22","Female","true","true","false","true","""event"",""trial"",""time""
""fullscreenenter"",""5"",""16683""
","
","
","""event"",""trial"",""time""
""fullscreenenter"",""5"",""16683""
","
","","","","","","","","","","","","","","","","","","","","","",""
"d3-instructions","16","113414","0.0-16.0","70","608","22","Female","true","true","false","true","""event"",""trial"",""time""
""fullscreenenter"",""5"",""16683""
","
","
","""event"",""trial"",""time""
""fullscreenenter"",""5"",""16683""
","
","","","","","","","","","","","","","","","","","","","","","",""
"d3-instructions","17","124299","0.0-17.0","70","608","22","Female","true","true","false","true","""event"",""trial"",""time""
""fullscreenenter"",""5"",""16683""
","
","
","""event"",""trial"",""time""
""fullscreenenter"",""5"",""16683""
","
","","","","","","","","","","","","","","","","","","","","","",""
"d3-instructions","18","138280","0.0-18.0","70","608","22","Female","true","true","false","true","""event"",""trial"",""time""
""fullscreenenter"",""5"",""16683""
","
","
","""event"",""trial"",""time""
""fullscreenenter"",""5"",""16683""
","
","","","","","","","","","","","","","","","","","","","","","",""
"d3-instructions","19","153181","0.0-19.0","70","608","22","Female","true","true","false","true","""event"",""trial"",""time""
""fullscreenenter"",""5"",""16683""
","
","
","""event"",""trial"",""time""
""fullscreenenter"",""5"",""16683""
","
","","","","","","","","","","","","","","","","","","","","","",""
"d3-animate-choice","20","156051","0.0-20.0","70","608","22","Female","true","true","false","true","""event"",""trial"",""time""
""fullscreenenter"",""5"",""16683""
","
","
","""event"",""trial"",""time""
""fullscreenenter"",""5"",""16683""
","
","861.9000000059605","","49","","","3000","1","","","images/tutyellowplanet.jpg","null","images/tutalien3","null","images/tutalien3","images/t.png","NA","practice","null","","","",""
"d3-animate-choice","21","158751","0.0-21.0","70","608","22","Female","true","true","false","true","""event"",""trial"",""time""
""fullscreenenter"",""5"",""16683""
","
","
","""event"",""trial"",""time""
""fullscreenenter"",""5"",""16683""
","
","692.0999999940395","","49","","","3000","1","","","images/tutyellowplanet.jpg","null","images/tutalien3","null","images/tutalien3","images/t.png","NA","practice","null","","","",""
"d3-animate-choice","22","161041","0.0-22.0","70","608","22","Female","true","true","false","true","""event"",""trial"",""time""
""fullscreenenter"",""5"",""16683""
","
","
","""event"",""trial"",""time""
""fullscreenenter"",""5"",""16683""
","
","279.30000001192093","","49","","","3000","1","1718.1000000089407","49","images/tutyellowplanet.jpg","null","images/tutalien3","null","images/tutalien3","images/t.png","NA","practice","null","","","",""
"d3-animate-choice","23","163313","0.0-23.0","70","608","22","Female","true","true","false","true","""event"",""trial"",""time""
""fullscreenenter"",""5"",""16683""
","
","
","""event"",""trial"",""time""
""fullscreenenter"",""5"",""16683""
","
","267.29999999701977","","49","","","3000","1","","","images/tutyellowplanet.jpg","null","images/tutalien3","null","images/tutalien3","images/t.png","NA","practice","null","","","",""
"d3-animate-choice","24","165592","0.0-24.0","70","608","22","Female","true","true","false","true","""event"",""trial"",""time""
""fullscreenenter"",""5"",""16683""
","
","
","""event"",""trial"",""time""
""fullscreenenter"",""5"",""16683""
","
","270.79999999701977","","49","","","3000","1","","","images/tutyellowplanet.jpg","null","images/tutalien3","null","images/tutalien3","images/t.png","NA","practice","null","","","",""
"d3-animate-choice","25","167839","0.0-25.0","70","608","22","Female","true","true","false","true","""event"",""trial"",""time""
""fullscreenenter"",""5"",""16683""
","
","
","""event"",""trial"",""time""
""fullscreenenter"",""5"",""16683""
","
","236.40000000596046","","49","","","3000","1","","","images/tutyellowplanet.jpg","null","images/tutalien3","null","images/tutalien3","images/t.png","NA","practice","null","","","",""
"d3-animate-choice","26","170094","0.0-26.0","70","608","22","Female","true","true","false","true","""event"",""trial"",""time""
""fullscreenenter"",""5"",""16683""
","
","
","""event"",""trial"",""time""
""fullscreenenter"",""5"",""16683""
","
","246.20000000298023","","49","","","3000","1","","","images/tutyellowplanet.jpg","null","images/tutalien3","null","images/tutalien3","images/t.png","NA","practice","null","","","",""
"d3-animate-choice","27","172338","0.0-27.0","70","608","22","Female","true","true","false","true","""event"",""trial"",""time""
""fullscreenenter"",""5"",""16683""
","
","
","""event"",""trial"",""time""
""fullscreenenter"",""5"",""16683""
","
","234.79999999701977","","49","","","3000","1","","","images/tutyellowplanet.jpg","null","images/tutalien3","null","images/tutalien3","images/t.png","NA","practice","null","","","",""
"d3-animate-choice","28","174630","0.0-28.0","70","608","22","Female","true","true","false","true","""event"",""trial"",""time""
""fullscreenenter"",""5"",""16683""
","
","
","""event"",""trial"",""time""
""fullscreenenter"",""5"",""16683""
","
","282.90000000596046","","49","","","3000","1","1759.800000011921","49","images/tutyellowplanet.jpg","null","images/tutalien3","null","images/tutalien3","images/t.png","NA","practice","null","","","",""
"d3-animate-choice","29","176977","0.0-29.0","70","608","22","Female","true","true","false","true","""event"",""trial"",""time""
""fullscreenenter"",""5"",""16683""
","
","
","""event"",""trial"",""time""
""fullscreenenter"",""5"",""16683""
","
","338.79999999701977","","49","","","3000","1","","","images/tutyellowplanet.jpg","null","images/tutalien3","null","images/tutalien3","images/t.png","NA","practice","null","","","",""
"d3-instructions","30","179353","0.0-30.0","70","608","22","Female","true","true","false","true","""event"",""trial"",""time""
""fullscreenenter"",""5"",""16683""
","
","
","""event"",""trial"",""time""
""fullscreenenter"",""5"",""16683""
","
","","","","","","","","","","","","","","","","","","","","","",""
"d3-instructions","31","182889","0.0-31.0","70","608","22","Female","true","true","false","true","""event"",""trial"",""time""
""fullscreenenter"",""5"",""16683""
","
","
","""event"",""trial"",""time""
""fullscreenenter"",""5"",""16683""
","
","","","","","","","","","","","","","","","","","","","","","",""
"d3-instructions","32","186841","0.0-32.0","70","608","22","Female","true","true","false","true","""event"",""trial"",""time""
""fullscreenenter"",""5"",""16683""
","
","
","""event"",""trial"",""time""
""fullscreenenter"",""5"",""16683""
","
","","","","","","","","","","","","","","","","","","","","","",""
"d3-instructions","33","189570","0.0-33.0","70","608","22","Female","true","true","false","true","""event"",""trial"",""time""
""fullscreenenter"",""5"",""16683""
","
","
","""event"",""trial"",""time""
""fullscreenenter"",""5"",""16683""
","
","","","","","","","","","","","","","","","","","","","","","",""
"d3-animate-choice","34","192848","0.0-34.0","70","608","22","Female","true","true","false","true","""event"",""trial"",""time""
""fullscreenenter"",""5"",""16683""
","
","
","""event"",""trial"",""time""
""fullscreenenter"",""5"",""16683""
","
","1268.7999999970198","","49","","","3000","1","","","images/tutgreenplanet.jpg","images/tutalien1","images/tutalien2","null","images/tutalien2","images/t.png","NA","practice","null","","","",""
"d3-animate-choice","35","195259","0.0-35.0","70","608","22","Female","true","true","false","true","""event"",""trial"",""time""
""fullscreenenter"",""5"",""16683""
","
","
","""event"",""trial"",""time""
""fullscreenenter"",""5"",""16683""
","
","406.5","","49","","","3000","1","","","images/tutgreenplanet.jpg","images/tutalien1","images/tutalien2","null","images/tutalien2","images/t.png","NA","practice","null","","","",""
"d3-animate-choice","36","197595","0.0-36.0","70","608","22","Female","true","true","false","true","""event"",""trial"",""time""
""fullscreenenter"",""5"",""16683""
","
","
","""event"",""trial"",""time""
""fullscreenenter"",""5"",""16683""
","
","328.79999999701977","","49","","","3000","1","","","images/tutgreenplanet.jpg","images/tutalien1","images/tutalien2","null","images/tutalien2","images/t.png","NA","practice","null","","","",""
"d3-animate-choice","37","199891","0.0-37.0","70","608","22","Female","true","true","false","true","""event"",""trial"",""time""
""fullscreenenter"",""5"",""16683""
","
","
","""event"",""trial"",""time""
""fullscreenenter"",""5"",""16683""
","
","287.1000000089407","","49","","","3000","1","","","images/tutgreenplanet.jpg","images/tutalien1","images/tutalien2","null","images/tutalien2","images/t.png","NA","practice","null","","","",""
"d3-animate-choice","38","202311","0.0-38.0","70","608","22","Female","true","true","false","true","""event"",""trial"",""time""
""fullscreenenter"",""5"",""16683""
","
","
","""event"",""trial"",""time""
""fullscreenenter"",""5"",""16683""
","
","410.29999999701977","","49","","","3000","1","","","images/tutgreenplanet.jpg","images/tutalien1","images/tutalien2","null","images/tutalien2","images/t.png","NA","practice","null","","","",""
"d3-animate-choice","39","204580","0.0-39.0","70","608","22","Female","true","true","false","true","""event"",""trial"",""time""
""fullscreenenter"",""5"",""16683""
","
","
","""event"",""trial"",""time""
""fullscreenenter"",""5"",""16683""
","
","261.40000000596046","","49","","","3000","1","","","images/tutgreenplanet.jpg","images/tutalien1","images/tutalien2","null","images/tutalien2","images/t.png","NA","practice","null","","","",""
"d3-animate-choice","40","206885","0.0-40.0","70","608","22","Female","true","true","false","true","""event"",""trial"",""time""
""fullscreenenter"",""5"",""16683""
","
","
","""event"",""trial"",""time""
""fullscreenenter"",""5"",""16683""
","
","298","","49","","","3000","1","1733.2000000029802","49","images/tutgreenplanet.jpg","images/tutalien1","images/tutalien2","null","images/tutalien2","images/t.png","NA","practice","null","","","",""
"d3-animate-choice","41","209240","0.0-41.0","70","608","22","Female","true","true","false","true","""event"",""trial"",""time""
""fullscreenenter"",""5"",""16683""
","
","
","""event"",""trial"",""time""
""fullscreenenter"",""5"",""16683""
","
","346.90000000596046","","49","","","3000","1","","","images/tutgreenplanet.jpg","images/tutalien1","images/tutalien2","null","images/tutalien2","images/t.png","NA","practice","null","","","",""
"d3-animate-choice","42","211504","0.0-42.0","70","608","22","Female","true","true","false","true","""event"",""trial"",""time""
""fullscreenenter"",""5"",""16683""
","
","
","""event"",""trial"",""time""
""fullscreenenter"",""5"",""16683""
","
","257.5","","49","","","3000","1","","","images/tutgreenplanet.jpg","images/tutalien1","images/tutalien2","null","images/tutalien2","images/nothing.png","NA","practice","null","","","",""
"d3-animate-choice","43","213837","0.0-43.0","70","608","22","Female","true","true","false","true","""event"",""trial"",""time""
""fullscreenenter"",""5"",""16683""
","
","
","""event"",""trial"",""time""
""fullscreenenter"",""5"",""16683""
","
","326.79999999701977","","49","","","3000","1","","","images/tutgreenplanet.jpg","images/tutalien1","images/tutalien2","null","images/tutalien2","images/t.png","NA","practice","null","","","",""
"d3-instructions","44","218850","0.0-44.0","70","608","22","Female","true","true","false","true","""event"",""trial"",""time""
""fullscreenenter"",""5"",""16683""
","
","
","""event"",""trial"",""time""
""fullscreenenter"",""5"",""16683""
","
","","","","","","","","","","","","","","","","","","","","","",""
"d3-instructions","45","220657","0.0-45.0","70","608","22","Female","true","true","false","true","""event"",""trial"",""time""
""fullscreenenter"",""5"",""16683""
","
","
","""event"",""trial"",""time""
""fullscreenenter"",""5"",""16683""
","
","","","","","","","","","","","","","","","","","","","","","",""
"d3-instructions","46","222333","0.0-46.0","70","608","22","Female","true","true","false","true","""event"",""trial"",""time""
""fullscreenenter"",""5"",""16683""
","
","
","""event"",""trial"",""time""
""fullscreenenter"",""5"",""16683""
","
","","","","","","","","","","","","","","","","","","","","","",""
"d3-instructions","47","228936","0.0-47.0","70","608","22","Female","true","true","false","true","""event"",""trial"",""time""
""fullscreenenter"",""5"",""16683""
","
","
","""event"",""trial"",""time""
""fullscreenenter"",""5"",""16683""
","
","","","","","","","","","","","","","","","","","","","","","",""
"d3-instructions","48","231844","0.0-48.0","70","608","22","Female","true","true","false","true","""event"",""trial"",""time""
""fullscreenenter"",""5"",""16683""
","
","
","""event"",""trial"",""time""
""fullscreenenter"",""5"",""16683""
","
","","","","","","","","","","","","","","","","","","","","","",""
"d3-instructions","49","235624","0.0-49.0","70","608","22","Female","true","true","false","true","""event"",""trial"",""time""
""fullscreenenter"",""5"",""16683""
","
","
","""event"",""trial"",""time""
""fullscreenenter"",""5"",""16683""
","
","","","","","","","","","","","","","","","","","","","","","",""
"d3-instructions","50","240930","0.0-50.0","70","608","22","Female","true","true","false","true","""event"",""trial"",""time""
""fullscreenenter"",""5"",""16683""
","
","
","""event"",""trial"",""time""
""fullscreenenter"",""5"",""16683""
","
","","","","","","","","","","","","","","","","","","","","","",""
"d3-instructions","51","243773","0.0-51.0","70","608","22","Female","true","true","false","true","""event"",""trial"",""time""
""fullscreenenter"",""5"",""16683""
","
","
","""event"",""trial"",""time""
""fullscreenenter"",""5"",""16683""
","
","","","","","","","","","","","","","","","","","","","","","",""
"d3-instructions","52","246506","0.0-52.0","70","608","22","Female","true","true","false","true","""event"",""trial"",""time""
""fullscreenenter"",""5"",""16683""
","
","
","""event"",""trial"",""time""
""fullscreenenter"",""5"",""16683""
","
","","","","","","","","","","","","","","","","","","","","","",""
"d3-instructions","53","260282","0.0-53.0","70","608","22","Female","true","true","false","true","""event"",""trial"",""time""
""fullscreenenter"",""5"",""16683""
","
","
","""event"",""trial"",""time""
""fullscreenenter"",""5"",""16683""
","
","","","","","","","","","","","","","","","","","","","","","",""
"d3-instructions","54","273376","0.0-54.0","70","608","22","Female","true","true","false","true","""event"",""trial"",""time""
""fullscreenenter"",""5"",""16683""
","
","
","""event"",""trial"",""time""
""fullscreenenter"",""5"",""16683""
","
","","","","","","","","","","","","","","","","","","","","","",""
"d3-instructions","55","276382","0.0-55.0","70","608","22","Female","true","true","false","true","""event"",""trial"",""time""
""fullscreenenter"",""5"",""16683""
","
","
","""event"",""trial"",""time""
""fullscreenenter"",""5"",""16683""
","
","","","","","","","","","","","","","","","","","","","","","",""
"d3-instructions","56","279407","0.0-56.0","70","608","22","Female","true","true","false","true","""event"",""trial"",""time""
""fullscreenenter"",""5"",""16683""
","
","
","""event"",""trial"",""time""
""fullscreenenter"",""5"",""16683""
","
","","","","","","","","","","","","","","","","","","","","","",""
"d3-instructions","57","289432","0.0-57.0","70","608","22","Female","true","true","false","true","""event"",""trial"",""time""
""fullscreenenter"",""5"",""16683""
","
","
","""event"",""trial"",""time""
""fullscreenenter"",""5"",""16683""
","
","","","","","","","","","","","","","","","","","","","","","",""
"d3-instructions","58","292628","0.0-58.0","70","608","22","Female","true","true","false","true","""event"",""trial"",""time""
""fullscreenenter"",""5"",""16683""
","
","
","""event"",""trial"",""time""
""fullscreenenter"",""5"",""16683""
","
","","","","","","","","","","","","","","","","","","","","","",""
"d3-instructions","59","294876","0.0-59.0","70","608","22","Female","true","true","false","true","""event"",""trial"",""time""
""fullscreenenter"",""5"",""16683""
","
","
","""event"",""trial"",""time""
""fullscreenenter"",""5"",""16683""
","
","","","","","","","","","","","","","","","","","","","","","",""
"d3-instructions","60","296704","0.0-60.0","70","608","22","Female","true","true","false","true","""event"",""trial"",""time""
""fullscreenenter"",""5"",""16683""
","
","
","""event"",""trial"",""time""
""fullscreenenter"",""5"",""16683""
","
","","","","","","","","","","","","","","","","","","","","","",""
"d3-animate-choice","61","299411","0.0-61.0-0.0","70","608","22","Female","true","true","false","true","""event"",""trial"",""time""
""fullscreenenter"",""5"",""16683""
","
","
","""event"",""trial"",""time""
""fullscreenenter"",""5"",""16683""
","
","700.2000000029802","","49","","","3000","1","","","images/earth.jpg","images/tutrocket1","images/tutrocket2","null","images/tutrocket2","","1","practice","null","1","","",""
"d3-animate-choice","62","303347","0.0-61.0-1.0","70","608","22","Female","true","true","false","true","""event"",""trial"",""time""
""fullscreenenter"",""5"",""16683""
","
","
","""event"",""trial"",""time""
""fullscreenenter"",""5"",""16683""
","
","1928.1000000089407","","49","","","3000","1","","","images/tutyellowplanet.jpg","images/tutalien4","images/tutalien3","images/tutrocket2","images/tutalien3","images/t.png","2","practice","true","1","common","1","2022-02-02 00:46:56.124"
"two-step-fixation","63","304354","0.0-61.0-2.0","70","608","22","Female","true","true","false","true","""event"",""trial"",""time""
""fullscreenenter"",""5"",""16683""
","
","
","""event"",""trial"",""time""
""fullscreenenter"",""5"",""16683""
","
","","images/earth.jpg","","","","","","","","","","","","","","fixation","","","","","",""
"d3-animate-choice","64","307116","0.0-61.0-0.1","70","608","22","Female","true","true","false","true","""event"",""trial"",""time""
""fullscreenenter"",""5"",""16683""
","
","
","""event"",""trial"",""time""
""fullscreenenter"",""5"",""16683""
","
","755.7000000029802","","48","","","3000","1","","","images/earth.jpg","images/tutrocket1","images/tutrocket2","null","images/tutrocket1","","1","practice","null","2","","",""
"d3-animate-choice","65","311006","0.0-61.0-1.1","70","608","22","Female","true","true","false","true","""event"",""trial"",""time""
""fullscreenenter"",""5"",""16683""
","
","
","""event"",""trial"",""time""
""fullscreenenter"",""5"",""16683""
","
","1881.5","","49","","","3000","1","","","images/tutyellowplanet.jpg","images/tutalien4","images/tutalien3","images/tutrocket1","images/tutalien3","images/nothing.png","2","practice","false","1","rare","0","2022-02-02 00:47:03.782"
"two-step-fixation","66","312012","0.0-61.0-2.1","70","608","22","Female","true","true","false","true","""event"",""trial"",""time""
""fullscreenenter"",""5"",""16683""
","
","
","""event"",""trial"",""time""
""fullscreenenter"",""5"",""16683""
","
","","images/earth.jpg","","","","","","","","","","","","","","fixation","","","","","",""
"d3-animate-choice","67","314403","0.0-61.0-0.2","70","608","22","Female","true","true","false","true","""event"",""trial"",""time""
""fullscreenenter"",""5"",""16683""
","
","
","""event"",""trial"",""time""
""fullscreenenter"",""5"",""16683""
","
","385.70000000298023","","48","","","3000","1","","","images/earth.jpg","images/tutrocket1","images/tutrocket2","null","images/tutrocket1","","1","practice","null","2","","",""
"d3-animate-choice","68","317479","0.0-61.0-1.2","70","608","22","Female","true","true","false","true","""event"",""trial"",""time""
""fullscreenenter"",""5"",""16683""
","
","
","""event"",""trial"",""time""
""fullscreenenter"",""5"",""16683""
","
","1065.9000000059605","","49","","","3000","1","","","images/tutgreenplanet.jpg","images/tutalien2","images/tutalien1","images/tutrocket1","images/tutalien1","images/nothing.png","2","practice","true","1","common","0","2022-02-02 00:47:10.255"
"two-step-fixation","69","318488","0.0-61.0-2.2","70","608","22","Female","true","true","false","true","""event"",""trial"",""time""
""fullscreenenter"",""5"",""16683""
","
","
","""event"",""trial"",""time""
""fullscreenenter"",""5"",""16683""
","
","","images/earth.jpg","","","","","","","","","","","","","","fixation","","","","","",""
"d3-animate-choice","70","320823","0.0-61.0-0.3","70","608","22","Female","true","true","false","true","""event"",""trial"",""time""
""fullscreenenter"",""5"",""16683""
","
","
","""event"",""trial"",""time""
""fullscreenenter"",""5"",""16683""
","
","324.79999999701977","","48","","","3000","1","","","images/earth.jpg","images/tutrocket1","images/tutrocket2","null","images/tutrocket1","","1","practice","null","2","","",""
"d3-animate-choice","71","323809","0.0-61.0-1.3","70","608","22","Female","true","true","false","true","""event"",""trial"",""time""
""fullscreenenter"",""5"",""16683""
","
","
","""event"",""trial"",""time""
""fullscreenenter"",""5"",""16683""
","
","976.1000000089407","","49","","","3000","1","","","images/tutyellowplanet.jpg","images/tutalien4","images/tutalien3","images/tutrocket1","images/tutalien3","images/nothing.png","2","practice","false","1","rare","0","2022-02-02 00:47:16.586"
"two-step-fixation","72","324816","0.0-61.0-2.3","70","608","22","Female","true","true","false","true","""event"",""trial"",""time""
""fullscreenenter"",""5"",""16683""
","
","
","""event"",""trial"",""time""
""fullscreenenter"",""5"",""16683""
","
","","images/earth.jpg","","","","","","","","","","","","","","fixation","","","","","",""
"d3-animate-choice","73","327314","0.0-61.0-0.4","70","608","22","Female","true","true","false","true","""event"",""trial"",""time""
""fullscreenenter"",""5"",""16683""
","
","
","""event"",""trial"",""time""
""fullscreenenter"",""5"",""16683""
","
","492.29999999701977","","48","","","3000","1","","","images/earth.jpg","images/tutrocket1","images/tutrocket2","null","images/tutrocket1","","1","practice","null","2","","",""
"d3-animate-choice","74","330390","0.0-61.0-1.4","70","608","22","Female","true","true","false","true","""event"",""trial"",""time""
""fullscreenenter"",""5"",""16683""
","
","
","""event"",""trial"",""time""
""fullscreenenter"",""5"",""16683""
","
","1069.7000000029802","","49","","","3000","1","","","images/tutgreenplanet.jpg","images/tutalien2","images/tutalien1","images/tutrocket1","images/tutalien1","images/t.png","2","practice","true","1","common","1","2022-02-02 00:47:23.166"
"two-step-fixation","75","331398","0.0-61.0-2.4","70","608","22","Female","true","true","false","true","""event"",""trial"",""time""
""fullscreenenter"",""5"",""16683""
","
","
","""event"",""trial"",""time""
""fullscreenenter"",""5"",""16683""
","
","","images/earth.jpg","","","","","","","","","","","","","","fixation","","","","","",""
"d3-animate-choice","76","333800","0.0-61.0-0.5","70","608","22","Female","true","true","false","true","""event"",""trial"",""time""
""fullscreenenter"",""5"",""16683""
","
","
","""event"",""trial"",""time""
""fullscreenenter"",""5"",""16683""
","
","393.90000000596046","","49","","","3000","1","","","images/earth.jpg","images/tutrocket1","images/tutrocket2","null","images/tutrocket2","","1","practice","null","1","","",""
"d3-animate-choice","77","336721","0.0-61.0-1.5","70","608","22","Female","true","true","false","true","""event"",""trial"",""time""
""fullscreenenter"",""5"",""16683""
","
","
","""event"",""trial"",""time""
""fullscreenenter"",""5"",""16683""
","
","915.3000000119209","","48","","","3000","1","","","images/tutyellowplanet.jpg","images/tutalien4","images/tutalien3","images/tutrocket2","images/tutalien4","images/t.png","2","practice","true","2","common","1","2022-02-02 00:47:29.497"
"two-step-fixation","78","337729","0.0-61.0-2.5","70","608","22","Female","true","true","false","true","""event"",""trial"",""time""
""fullscreenenter"",""5"",""16683""
","
","
","""event"",""trial"",""time""
""fullscreenenter"",""5"",""16683""
","
","","images/earth.jpg","","","","","","","","","","","","","","fixation","","","","","",""
"d3-animate-choice","79","340028","0.0-61.0-0.6","70","608","22","Female","true","true","false","true","""event"",""trial"",""time""
""fullscreenenter"",""5"",""16683""
","
","
","""event"",""trial"",""time""
""fullscreenenter"",""5"",""16683""
","
","292.5","","49","","","3000","1","","","images/earth.jpg","images/tutrocket1","images/tutrocket2","null","images/tutrocket2","","1","practice","null","1","","",""
"d3-animate-choice","80","342785","0.0-61.0-1.6","70","608","22","Female","true","true","false","true","""event"",""trial"",""time""
""fullscreenenter"",""5"",""16683""
","
","
","""event"",""trial"",""time""
""fullscreenenter"",""5"",""16683""
","
","752.2000000029802","","48","","","3000","1","","","images/tutyellowplanet.jpg","images/tutalien4","images/tutalien3","images/tutrocket2","images/tutalien4","images/nothing.png","2","practice","true","2","common","0","2022-02-02 00:47:35.561"
"two-step-fixation","81","343793","0.0-61.0-2.6","70","608","22","Female","true","true","false","true","""event"",""trial"",""time""
""fullscreenenter"",""5"",""16683""
","
","
","""event"",""trial"",""time""
""fullscreenenter"",""5"",""16683""
","
","","images/earth.jpg","","","","","","","","","","","","","","fixation","","","","","",""
"d3-animate-choice","82","345843","0.0-61.0-0.7","70","608","22","Female","true","true","false","true","""event"",""trial"",""time""
""fullscreenenter"",""5"",""16683""
","
","
","""event"",""trial"",""time""
""fullscreenenter"",""5"",""16683""
","
","44.79999999701977","","49","","","3000","1","","","images/earth.jpg","images/tutrocket1","images/tutrocket2","null","images/tutrocket2","","1","practice","null","1","","",""
"d3-animate-choice","83","348612","0.0-61.0-1.7","70","608","22","Female","true","true","false","true","""event"",""trial"",""time""
""fullscreenenter"",""5"",""16683""
","
","
","""event"",""trial"",""time""
""fullscreenenter"",""5"",""16683""
","
","763","","48","","","3000","1","","","images/tutyellowplanet.jpg","images/tutalien4","images/tutalien3","images/tutrocket2","images/tutalien4","images/nothing.png","2","practice","true","2","common","0","2022-02-02 00:47:41.389"
"two-step-fixation","84","349617","0.0-61.0-2.7","70","608","22","Female","true","true","false","true","""event"",""trial"",""time""
""fullscreenenter"",""5"",""16683""
","
","
","""event"",""trial"",""time""
""fullscreenenter"",""5"",""16683""
","
","","images/earth.jpg","","","","","","","","","","","","","","fixation","","","","","",""
"d3-animate-choice","85","351926","0.0-61.0-0.8","70","608","22","Female","true","true","false","true","""event"",""trial"",""time""
""fullscreenenter"",""5"",""16683""
","
","
","""event"",""trial"",""time""
""fullscreenenter"",""5"",""16683""
","
","302.3999999910593","","49","","","3000","1","","","images/earth.jpg","images/tutrocket1","images/tutrocket2","null","images/tutrocket2","","1","practice","null","1","","",""
"d3-animate-choice","86","354214","0.0-61.0-1.8","70","608","22","Female","true","true","false","true","""event"",""trial"",""time""
""fullscreenenter"",""5"",""16683""
","
","
","""event"",""trial"",""time""
""fullscreenenter"",""5"",""16683""
","
","281.40000000596046","","49","","","3000","1","","","images/tutyellowplanet.jpg","images/tutalien4","images/tutalien3","images/tutrocket2","images/tutalien3","images/t.png","2","practice","true","1","common","1","2022-02-02 00:47:46.990"
"two-step-fixation","87","355222","0.0-61.0-2.8","70","608","22","Female","true","true","false","true","""event"",""trial"",""time""
""fullscreenenter"",""5"",""16683""
","
","
","""event"",""trial"",""time""
""fullscreenenter"",""5"",""16683""
","
","","images/earth.jpg","","","","","","","","","","","","","","fixation","","","","","",""
"d3-animate-choice","88","357590","0.0-61.0-0.9","70","608","22","Female","true","true","false","true","""event"",""trial"",""time""
""fullscreenenter"",""5"",""16683""
","
","
","""event"",""trial"",""time""
""fullscreenenter"",""5"",""16683""
","
","359.5","","49","","","3000","1","","","images/earth.jpg","images/tutrocket1","images/tutrocket2","null","images/tutrocket2","","1","practice","null","1","","",""
"d3-animate-choice","89","359958","0.0-61.0-1.9","70","608","22","Female","true","true","false","true","""event"",""trial"",""time""
""fullscreenenter"",""5"",""16683""
","
","
","""event"",""trial"",""time""
""fullscreenenter"",""5"",""16683""
","
","362.59999999403954","","49","","","3000","1","","","images/tutyellowplanet.jpg","images/tutalien4","images/tutalien3","images/tutrocket2","images/tutalien3","images/nothing.png","2","practice","true","1","common","0","2022-02-02 00:47:52.734"
"two-step-fixation","90","360966","0.0-61.0-2.9","70","608","22","Female","true","true","false","true","""event"",""trial"",""time""
""fullscreenenter"",""5"",""16683""
","
","
","""event"",""trial"",""time""
""fullscreenenter"",""5"",""16683""
","
","","images/earth.jpg","","","","","","","","","","","","","","fixation","","","","","",""
"d3-animate-choice","91","363259","0.0-61.0-0.10","70","608","22","Female","true","true","false","true","""event"",""trial"",""time""
""fullscreenenter"",""5"",""16683""
","
","
","""event"",""trial"",""time""
""fullscreenenter"",""5"",""16683""
","
","284","","49","","","3000","1","","","images/earth.jpg","images/tutrocket1","images/tutrocket2","null","images/tutrocket2","","1","practice","null","1","","",""
"d3-animate-choice","92","365601","0.0-61.0-1.10","70","608","22","Female","true","true","false","true","""event"",""trial"",""time""
""fullscreenenter"",""5"",""16683""
","
","
","""event"",""trial"",""time""
""fullscreenenter"",""5"",""16683""
","
","337.20000000298023","","48","","","3000","1","","","images/tutgreenplanet.jpg","images/tutalien2","images/tutalien1","images/tutrocket2","images/tutalien2","images/nothing.png","2","practice","false","2","rare","0","2022-02-02 00:47:58.377"
"two-step-fixation","93","366607","0.0-61.0-2.10","70","608","22","Female","true","true","false","true","""event"",""trial"",""time""
""fullscreenenter"",""5"",""16683""
","
","
","""event"",""trial"",""time""
""fullscreenenter"",""5"",""16683""
","
","","images/earth.jpg","","","","","","","","","","","","","","fixation","","","","","",""
"d3-animate-choice","94","369158","0.0-61.0-0.11","70","608","22","Female","true","true","false","true","""event"",""trial"",""time""
""fullscreenenter"",""5"",""16683""
","
","
","""event"",""trial"",""time""
""fullscreenenter"",""5"",""16683""
","
","544.1000000089407","","49","","","3000","1","","","images/earth.jpg","images/tutrocket1","images/tutrocket2","null","images/tutrocket2","","1","practice","null","1","","",""
"d3-animate-choice","95","371713","0.0-61.0-1.11","70","608","22","Female","true","true","false","true","""event"",""trial"",""time""
""fullscreenenter"",""5"",""16683""
","
","
","""event"",""trial"",""time""
""fullscreenenter"",""5"",""16683""
","
","547.2000000029802","","48","","","3000","1","","","images/tutgreenplanet.jpg","images/tutalien2","images/tutalien1","images/tutrocket2","images/tutalien2","images/t.png","2","practice","false","2","rare","1","2022-02-02 00:48:04.489"
"two-step-fixation","96","372717","0.0-61.0-2.11","70","608","22","Female","true","true","false","true","""event"",""trial"",""time""
""fullscreenenter"",""5"",""16683""
","
","
","""event"",""trial"",""time""
""fullscreenenter"",""5"",""16683""
","
","","images/earth.jpg","","","","","","","","","","","","","","fixation","","","","","",""
"d3-animate-choice","97","375121","0.0-61.0-0.12","70","608","22","Female","true","true","false","true","""event"",""trial"",""time""
""fullscreenenter"",""5"",""16683""
","
","
","""event"",""trial"",""time""
""fullscreenenter"",""5"",""16683""
","
","396.3999999910593","","49","","","3000","1","","","images/earth.jpg","images/tutrocket1","images/tutrocket2","null","images/tutrocket2","","1","practice","null","1","","",""
"d3-animate-choice","98","377723","0.0-61.0-1.12","70","608","22","Female","true","true","false","true","""event"",""trial"",""time""
""fullscreenenter"",""5"",""16683""
","
","
","""event"",""trial"",""time""
""fullscreenenter"",""5"",""16683""
","
","596.8000000119209","","48","","","3000","1","","","images/tutgreenplanet.jpg","images/tutalien2","images/tutalien1","images/tutrocket2","images/tutalien2","images/nothing.png","2","practice","false","2","rare","0","2022-02-02 00:48:10.499"
"two-step-fixation","99","378729","0.0-61.0-2.12","70","608","22","Female","true","true","false","true","""event"",""trial"",""time""
""fullscreenenter"",""5"",""16683""
","
","
","""event"",""trial"",""time""
""fullscreenenter"",""5"",""16683""
","
","","images/earth.jpg","","","","","","","","","","","","","","fixation","","","","","",""
"d3-animate-choice","100","380966","0.0-61.0-0.13","70","608","22","Female","true","true","false","true","""event"",""trial"",""time""
""fullscreenenter"",""5"",""16683""
","
","
","""event"",""trial"",""time""
""fullscreenenter"",""5"",""16683""
","
","231.09999999403954","","49","","","3000","1","","","images/earth.jpg","images/tutrocket1","images/tutrocket2","null","images/tutrocket2","","1","practice","null","1","","",""
"d3-animate-choice","101","383319","0.0-61.0-1.13","70","608","22","Female","true","true","false","true","""event"",""trial"",""time""
""fullscreenenter"",""5"",""16683""
","
","
","""event"",""trial"",""time""
""fullscreenenter"",""5"",""16683""
","
","348.30000001192093","","49","","","3000","1","","","images/tutyellowplanet.jpg","images/tutalien4","images/tutalien3","images/tutrocket2","images/tutalien3","images/t.png","2","practice","true","1","common","1","2022-02-02 00:48:16.095"
"two-step-fixation","102","384324","0.0-61.0-2.13","70","608","22","Female","true","true","false","true","""event"",""trial"",""time""
""fullscreenenter"",""5"",""16683""
","
","
","""event"",""trial"",""time""
""fullscreenenter"",""5"",""16683""
","
","","images/earth.jpg","","","","","","","","","","","","","","fixation","","","","","",""
"d3-animate-choice","103","386767","0.0-61.0-0.14","70","608","22","Female","true","true","false","true","""event"",""trial"",""time""
""fullscreenenter"",""5"",""16683""
","
","
","""event"",""trial"",""time""
""fullscreenenter"",""5"",""16683""
","
","437","","49","","","3000","1","","","images/earth.jpg","images/tutrocket1","images/tutrocket2","null","images/tutrocket2","","1","practice","null","1","","",""
"d3-animate-choice","104","389062","0.0-61.0-1.14","70","608","22","Female","true","true","false","true","""event"",""trial"",""time""
""fullscreenenter"",""5"",""16683""
","
","
","""event"",""trial"",""time""
""fullscreenenter"",""5"",""16683""
","
","287.70000000298023","","49","","","3000","1","","","images/tutyellowplanet.jpg","images/tutalien4","images/tutalien3","images/tutrocket2","images/tutalien3","images/nothing.png","2","practice","true","1","common","0","2022-02-02 00:48:21.838"
"two-step-fixation","105","390070","0.0-61.0-2.14","70","608","22","Female","true","true","false","true","""event"",""trial"",""time""
""fullscreenenter"",""5"",""16683""
","
","
","""event"",""trial"",""time""
""fullscreenenter"",""5"",""16683""
","
","","images/earth.jpg","","","","","","","","","","","","","","fixation","","","","","",""
"d3-animate-choice","106","392517","0.0-61.0-0.15","70","608","22","Female","true","true","false","true","""event"",""trial"",""time""
""fullscreenenter"",""5"",""16683""
","
","
","""event"",""trial"",""time""
""fullscreenenter"",""5"",""16683""
","
","437.6000000089407","","48","","","3000","1","","","images/earth.jpg","images/tutrocket1","images/tutrocket2","null","images/tutrocket1","","1","practice","null","2","","",""
"d3-animate-choice","107","394971","0.0-61.0-1.15","70","608","22","Female","true","true","false","true","""event"",""trial"",""time""
""fullscreenenter"",""5"",""16683""
","
","
","""event"",""trial"",""time""
""fullscreenenter"",""5"",""16683""
","
","443.5","","48","","","3000","1","","","images/tutgreenplanet.jpg","images/tutalien2","images/tutalien1","images/tutrocket1","images/tutalien2","images/nothing.png","2","practice","true","2","common","0","2022-02-02 00:48:27.747"
"two-step-fixation","108","395976","0.0-61.0-2.15","70","608","22","Female","true","true","false","true","""event"",""trial"",""time""
""fullscreenenter"",""5"",""16683""
","
","
","""event"",""trial"",""time""
""fullscreenenter"",""5"",""16683""
","
","","images/earth.jpg","","","","","","","","","","","","","","fixation","","","","","",""
"d3-animate-choice","109","398229","0.0-61.0-0.16","70","608","22","Female","true","true","false","true","""event"",""trial"",""time""
""fullscreenenter"",""5"",""16683""
","
","
","""event"",""trial"",""time""
""fullscreenenter"",""5"",""16683""
","
","245.5","","48","","","3000","1","","","images/earth.jpg","images/tutrocket1","images/tutrocket2","null","images/tutrocket1","","1","practice","null","2","","",""
"d3-animate-choice","110","400603","0.0-61.0-1.16","70","608","22","Female","true","true","false","true","""event"",""trial"",""time""
""fullscreenenter"",""5"",""16683""
","
","
","""event"",""trial"",""time""
""fullscreenenter"",""5"",""16683""
","
","366.09999999403954","","49","","","3000","1","","","images/tutgreenplanet.jpg","images/tutalien2","images/tutalien1","images/tutrocket1","images/tutalien1","images/nothing.png","2","practice","true","1","common","0","2022-02-02 00:48:33.379"
"two-step-fixation","111","401607","0.0-61.0-2.16","70","608","22","Female","true","true","false","true","""event"",""trial"",""time""
""fullscreenenter"",""5"",""16683""
","
","
","""event"",""trial"",""time""
""fullscreenenter"",""5"",""16683""
","
","","images/earth.jpg","","","","","","","","","","","","","","fixation","","","","","",""
"d3-animate-choice","112","404053","0.0-61.0-0.17","70","608","22","Female","true","true","false","true","""event"",""trial"",""time""
""fullscreenenter"",""5"",""16683""
","
","
","""event"",""trial"",""time""
""fullscreenenter"",""5"",""16683""
","
","438.09999999403954","","48","","","3000","1","","","images/earth.jpg","images/tutrocket1","images/tutrocket2","null","images/tutrocket1","","1","practice","null","2","","",""
"d3-animate-choice","113","406426","0.0-61.0-1.17","70","608","22","Female","true","true","false","true","""event"",""trial"",""time""
""fullscreenenter"",""5"",""16683""
","
","
","""event"",""trial"",""time""
""fullscreenenter"",""5"",""16683""
","
","366.6000000089407","","48","","","3000","1","","","images/tutgreenplanet.jpg","images/tutalien2","images/tutalien1","images/tutrocket1","images/tutalien2","images/nothing.png","2","practice","true","2","common","0","2022-02-02 00:48:39.203"
"two-step-fixation","114","407432","0.0-61.0-2.17","70","608","22","Female","true","true","false","true","""event"",""trial"",""time""
""fullscreenenter"",""5"",""16683""
","
","
","""event"",""trial"",""time""
""fullscreenenter"",""5"",""16683""
","
","","images/earth.jpg","","","","","","","","","","","","","","fixation","","","","","",""
"d3-animate-choice","115","409802","0.0-61.0-0.18","70","608","22","Female","true","true","false","true","""event"",""trial"",""time""
""fullscreenenter"",""5"",""16683""
","
","
","""event"",""trial"",""time""
""fullscreenenter"",""5"",""16683""
","
","365.29999999701977","","49","","","3000","1","","","images/earth.jpg","images/tutrocket1","images/tutrocket2","null","images/tutrocket2","","1","practice","null","1","","",""
"d3-animate-choice","116","412200","0.0-61.0-1.18","70","608","22","Female","true","true","false","true","""event"",""trial"",""time""
""fullscreenenter"",""5"",""16683""
","
","
","""event"",""trial"",""time""
""fullscreenenter"",""5"",""16683""
","
","391.79999999701977","","49","","","3000","1","","","images/tutyellowplanet.jpg","images/tutalien4","images/tutalien3","images/tutrocket2","images/tutalien3","images/t.png","2","practice","true","1","common","1","2022-02-02 00:48:44.976"
"two-step-fixation","117","413205","0.0-61.0-2.18","70","608","22","Female","true","true","false","true","""event"",""trial"",""time""
""fullscreenenter"",""5"",""16683""
","
","
","""event"",""trial"",""time""
""fullscreenenter"",""5"",""16683""
","
","","images/earth.jpg","","","","","","","","","","","","","","fixation","","","","","",""
"d3-animate-choice","118","415525","0.0-61.0-0.19","70","608","22","Female","true","true","false","true","""event"",""trial"",""time""
""fullscreenenter"",""5"",""16683""
","
","
","""event"",""trial"",""time""
""fullscreenenter"",""5"",""16683""
","
","309","","49","","","3000","1","","","images/earth.jpg","images/tutrocket1","images/tutrocket2","null","images/tutrocket2","","1","practice","null","1","","",""
"d3-animate-choice","119","417952","0.0-61.0-1.19","70","608","22","Female","true","true","false","true","""event"",""trial"",""time""
""fullscreenenter"",""5"",""16683""
","
","
","""event"",""trial"",""time""
""fullscreenenter"",""5"",""16683""
","
","421.90000000596046","","49","","","3000","1","","","images/tutyellowplanet.jpg","images/tutalien4","images/tutalien3","images/tutrocket2","images/tutalien3","images/nothing.png","2","practice","true","1","common","0","2022-02-02 00:48:50.728"
"two-step-fixation","120","418960","0.0-61.0-2.19","70","608","22","Female","true","true","false","true","""event"",""trial"",""time""
""fullscreenenter"",""5"",""16683""
","
","
","""event"",""trial"",""time""
""fullscreenenter"",""5"",""16683""
","
","","images/earth.jpg","","","","","","","","","","","","","","fixation","","","","","",""
"d3-instructions","121","421318","0.0-62.0","70","608","22","Female","true","true","false","true","""event"",""trial"",""time""
""fullscreenenter"",""5"",""16683""
","
","
","""event"",""trial"",""time""
""fullscreenenter"",""5"",""16683""
","
","","","","","","","","","","","","","","","","","","","","","",""
"audio-keyboard-response","122","425511","0.0-63.0","70","608","22","Female","true","true","false","true","""event"",""trial"",""time""
""fullscreenenter"",""5"",""16683""
","
","
","""event"",""trial"",""time""
""fullscreenenter"",""5"",""16683""
","
","4192","audio/instructions/treasure_feedback.wav","32","","","","","","","","","","","","","","","","","","",""
"d3-instructions","123","436996","0.0-64.0","70","608","22","Female","true","true","false","true","""event"",""trial"",""time""
""fullscreenenter"",""5"",""16683""
","
","
","""event"",""trial"",""time""
""fullscreenenter"",""5"",""16683""
","
","","","","","","","","","","","","","","","","","","","","","",""
"d3-instructions","124","445541","0.0-65.0","70","608","22","Female","true","true","false","true","""event"",""trial"",""time""
""fullscreenenter"",""5"",""16683""
","
","
","""event"",""trial"",""time""
""fullscreenenter"",""5"",""16683""
","
","","","","","","","","","","","","","","","","","","","","","",""
"d3-instructions","125","461860","0.0-66.0","70","608","22","Female","true","true","false","true","""event"",""trial"",""time""
""fullscreenenter"",""5"",""16683""
","
","
","""event"",""trial"",""time""
""fullscreenenter"",""5"",""16683""
","
","","","","","","","","","","","","","","","","","","","","","",""
"d3-instructions","126","469946","0.0-67.0","70","608","22","Female","true","true","false","true","""event"",""trial"",""time""
""fullscreenenter"",""5"",""16683""
","
","
","""event"",""trial"",""time""
""fullscreenenter"",""5"",""16683""
","
","","","","","","","","","","","","","","","","","","","","","",""
"d3-instructions","127","472735","0.0-68.0","70","608","22","Female","true","true","false","true","""event"",""trial"",""time""
""fullscreenenter"",""5"",""16683""
","
","
","""event"",""trial"",""time""
""fullscreenenter"",""5"",""16683""
","
","","","","","","","","","","","","","","","","","","","","","",""
"instructions-quiz","128","475479","0.0-69.0","70","608","22","Female","true","true","false","true","""event"",""trial"",""time""
""fullscreenenter"",""5"",""16683""
","
","
","""event"",""trial"",""time""
""fullscreenenter"",""5"",""16683""
","
","2738.800000011921","audio/quiz/Q1_Prompt.wav","","1","","","","","","","","","","","","","","","","","",""
"audio-keyboard-response","129","484651","0.0-70.0","70","608","22","Female","true","true","false","true","""event"",""trial"",""time""
""fullscreenenter"",""5"",""16683""
","
","
","""event"",""trial"",""time""
""fullscreenenter"",""5"",""16683""
","
","null","audio/quiz/Q1_Correct.wav","null","","","","","","","","","","","","","","","","","","",""
"instructions-quiz","130","487957","0.0-71.0","70","608","22","Female","true","true","false","true","""event"",""trial"",""time""
""fullscreenenter"",""5"",""16683""
","
","
","""event"",""trial"",""time""
""fullscreenenter"",""5"",""16683""
","
","3301.4000000059605","audio/quiz/Q2_Prompt.wav","","0","","","","","","","","","","","","","","","","","",""
"audio-keyboard-response","131","500826","0.0-72.0","70","608","22","Female","true","true","false","true","""event"",""trial"",""time""
""fullscreenenter"",""5"",""16683""
","
","
","""event"",""trial"",""time""
""fullscreenenter"",""5"",""16683""
","
","null","audio/quiz/Q2_Correct.wav","null","","","","","","","","","","","","","","","","","","",""
"instructions-quiz","132","503211","0.0-73.0","70","608","22","Female","true","true","false","true","""event"",""trial"",""time""
""fullscreenenter"",""5"",""16683""
","
","
","""event"",""trial"",""time""
""fullscreenenter"",""5"",""16683""
","
","2382.7000000029802","audio/quiz/Q3_Prompt.wav","","1","","","","","","","","","","","","","","","","","",""
"audio-keyboard-response","133","509012","0.0-74.0","70","608","22","Female","true","true","false","true","""event"",""trial"",""time""
""fullscreenenter"",""5"",""16683""
","
","
","""event"",""trial"",""time""
""fullscreenenter"",""5"",""16683""
","
","null","audio/quiz/Q3_Correct.wav","null","","","","","","","","","","","","","","","","","","",""
"d3-instructions","134","514178","0.0-75.0","70","608","22","Female","true","true","false","true","""event"",""trial"",""time""
""fullscreenenter"",""5"",""16683""
","
","
","""event"",""trial"",""time""
""fullscreenenter"",""5"",""16683""
","
","","","","","","","","","","","","","","","","","","","","","",""
"d3-animate-choice","135","516276","0.0-76.0-0.0","70","608","22","Female","true","true","false","true","""event"",""trial"",""time""
""fullscreenenter"",""5"",""16683""
","
","
","""event"",""trial"",""time""
""fullscreenenter"",""5"",""16683""
","
","87.79999999701977","","49","","","3000","1","","","images/earth.jpg","images/rocket2","images/rocket1","null","images/rocket1","","1","real","null","1","","",""
"d3-animate-choice","136","519130","0.0-76.0-1.0","70","608","22","Female","true","true","false","true","""event"",""trial"",""time""
""fullscreenenter"",""5"",""16683""
","
","
","""event"",""trial"",""time""
""fullscreenenter"",""5"",""16683""
","
","843.9000000059605","","49","","","3000","1","","","images/redplanet1.jpg","images/alien2","images/alien1","images/rocket1","images/alien1","images/nothing.png","2","real","true","1","common","0","2022-02-02 00:50:31.906"
"two-step-fixation","137","520136","0.0-76.0-2.0","70","608","22","Female","true","true","false","true","""event"",""trial"",""time""
""fullscreenenter"",""5"",""16683""
","
","
","""event"",""trial"",""time""
""fullscreenenter"",""5"",""16683""
","
","","images/earth.jpg","","","","","","","","","","","","","","fixation","","","","","",""
"d3-animate-choice","138","522490","0.0-76.0-0.1","70","608","22","Female","true","true","false","true","""event"",""trial"",""time""
""fullscreenenter"",""5"",""16683""
","
","
","""event"",""trial"",""time""
""fullscreenenter"",""5"",""16683""
","
","346.09999999403954","","49","","","3000","1","","","images/earth.jpg","images/rocket2","images/rocket1","null","images/rocket1","","1","real","null","1","","",""
"d3-animate-choice","139","524976","0.0-76.0-1.1","70","608","22","Female","true","true","false","true","""event"",""trial"",""time""
""fullscreenenter"",""5"",""16683""
","
","
","""event"",""trial"",""time""
""fullscreenenter"",""5"",""16683""
","
","478.90000000596046","","49","","","3000","1","","","images/redplanet1.jpg","images/alien2","images/alien1","images/rocket1","images/alien1","images/nothing.png","2","real","true","1","common","0","2022-02-02 00:50:37.752"
"two-step-fixation","140","525981","0.0-76.0-2.1","70","608","22","Female","true","true","false","true","""event"",""trial"",""time""
""fullscreenenter"",""5"",""16683""
","
","
","""event"",""trial"",""time""
""fullscreenenter"",""5"",""16683""
","
","","images/earth.jpg","","","","","","","","","","","","","","fixation","","","","","",""
"d3-animate-choice","141","528273","0.0-76.0-0.2","70","608","22","Female","true","true","false","true","""event"",""trial"",""time""
""fullscreenenter"",""5"",""16683""
","
","
","""event"",""trial"",""time""
""fullscreenenter"",""5"",""16683""
","
","281.5","","49","","","3000","1","","","images/earth.jpg","images/rocket2","images/rocket1","null","images/rocket1","","1","real","null","1","","",""
"d3-animate-choice","142","530981","0.0-76.0-1.2","70","608","22","Female","true","true","false","true","""event"",""trial"",""time""
""fullscreenenter"",""5"",""16683""
","
","
","""event"",""trial"",""time""
""fullscreenenter"",""5"",""16683""
","
","703.1999999880791","","48","","","3000","1","","","images/redplanet1.jpg","images/alien2","images/alien1","images/rocket1","images/alien2","images/nothing.png","2","real","true","2","common","0","2022-02-02 00:50:43.757"
"two-step-fixation","143","531987","0.0-76.0-2.2","70","608","22","Female","true","true","false","true","""event"",""trial"",""time""
""fullscreenenter"",""5"",""16683""
","
","
","""event"",""trial"",""time""
""fullscreenenter"",""5"",""16683""
","
","","images/earth.jpg","","","","","","","","","","","","","","fixation","","","","","",""
"d3-animate-choice","144","534341","0.0-76.0-0.3","70","608","22","Female","true","true","false","true","""event"",""trial"",""time""
""fullscreenenter"",""5"",""16683""
","
","
","""event"",""trial"",""time""
""fullscreenenter"",""5"",""16683""
","
","348.40000000596046","","49","","","3000","1","","","images/earth.jpg","images/rocket2","images/rocket1","null","images/rocket1","","1","real","null","1","","",""
"d3-animate-choice","145","537304","0.0-76.0-1.3","70","608","22","Female","true","true","false","true","""event"",""trial"",""time""
""fullscreenenter"",""5"",""16683""
","
","
","""event"",""trial"",""time""
""fullscreenenter"",""5"",""16683""
","
","952.0999999940395","","48","","","3000","1","","","images/purpleplanet.jpg","images/alien4","images/alien3","images/rocket1","images/alien4","images/t.png","2","real","false","2","rare","1","2022-02-02 00:50:50.080"
"two-step-fixation","146","538313","0.0-76.0-2.3","70","608","22","Female","true","true","false","true","""event"",""trial"",""time""
""fullscreenenter"",""5"",""16683""
","
","
","""event"",""trial"",""time""
""fullscreenenter"",""5"",""16683""
","
","","images/earth.jpg","","","","","","","","","","","","","","fixation","","","","","",""
"d3-animate-choice","147","540683","0.0-76.0-0.4","70","608","22","Female","true","true","false","true","""event"",""trial"",""time""
""fullscreenenter"",""5"",""16683""
","
","
","""event"",""trial"",""time""
""fullscreenenter"",""5"",""16683""
","
","363.90000000596046","","48","","","3000","1","","","images/earth.jpg","images/rocket2","images/rocket1","null","images/rocket2","","1","real","null","2","","",""
"d3-animate-choice","148","543348","0.0-76.0-1.4","70","608","22","Female","true","true","false","true","""event"",""trial"",""time""
""fullscreenenter"",""5"",""16683""
","
","
","""event"",""trial"",""time""
""fullscreenenter"",""5"",""16683""
","
","659.7999999970198","","48","","","3000","1","","","images/purpleplanet.jpg","images/alien4","images/alien3","images/rocket2","images/alien4","images/nothing.png","2","real","true","2","common","0","2022-02-02 00:50:56.124"
"two-step-fixation","149","544353","0.0-76.0-2.4","70","608","22","Female","true","true","false","true","""event"",""trial"",""time""
""fullscreenenter"",""5"",""16683""
","
","
","""event"",""trial"",""time""
""fullscreenenter"",""5"",""16683""
","
","","images/earth.jpg","","","","","","","","","","","","","","fixation","","","","","",""
"d3-animate-choice","150","546656","0.0-76.0-0.5","70","608","22","Female","true","true","false","true","""event"",""trial"",""time""
""fullscreenenter"",""5"",""16683""
","
","
","""event"",""trial"",""time""
""fullscreenenter"",""5"",""16683""
","
","293.19999998807907","","48","","","3000","1","","","images/earth.jpg","images/rocket2","images/rocket1","null","images/rocket2","","1","real","null","2","","",""
"d3-animate-choice","151","549759","0.0-76.0-1.5","70","608","22","Female","true","true","false","true","""event"",""trial"",""time""
""fullscreenenter"",""5"",""16683""
","
","
","""event"",""trial"",""time""
""fullscreenenter"",""5"",""16683""
","
","1095.5999999940395","","49","","","3000","1","","","images/purpleplanet.jpg","images/alien4","images/alien3","images/rocket2","images/alien3","images/t.png","2","real","true","1","common","1","2022-02-02 00:51:02.536"
"two-step-fixation","152","550764","0.0-76.0-2.5","70","608","22","Female","true","true","false","true","""event"",""trial"",""time""
""fullscreenenter"",""5"",""16683""
","
","
","""event"",""trial"",""time""
""fullscreenenter"",""5"",""16683""
","
","","images/earth.jpg","","","","","","","","","","","","","","fixation","","","","","",""
"d3-animate-choice","153","553086","0.0-76.0-0.6","70","608","22","Female","true","true","false","true","""event"",""trial"",""time""
""fullscreenenter"",""5"",""16683""
","
","
","""event"",""trial"",""time""
""fullscreenenter"",""5"",""16683""
","
","315.79999999701977","","48","","","3000","1","","","images/earth.jpg","images/rocket2","images/rocket1","null","images/rocket2","","1","real","null","2","","",""
"d3-animate-choice","154","555770","0.0-76.0-1.6","70","608","22","Female","true","true","false","true","""event"",""trial"",""time""
""fullscreenenter"",""5"",""16683""
","
","
","""event"",""trial"",""time""
""fullscreenenter"",""5"",""16683""
","
","677.8999999910593","","49","","","3000","1","","","images/purpleplanet.jpg","images/alien4","images/alien3","images/rocket2","images/alien3","images/t.png","2","real","true","1","common","1","2022-02-02 00:51:08.546"
"two-step-fixation","155","556778","0.0-76.0-2.6","70","608","22","Female","true","true","false","true","""event"",""trial"",""time""
""fullscreenenter"",""5"",""16683""
","
","
","""event"",""trial"",""time""
""fullscreenenter"",""5"",""16683""
","
","","images/earth.jpg","","","","","","","","","","","","","","fixation","","","","","",""
"d3-animate-choice","156","559260","0.0-76.0-0.7","70","608","22","Female","true","true","false","true","""event"",""trial"",""time""
""fullscreenenter"",""5"",""16683""
","
","
","""event"",""trial"",""time""
""fullscreenenter"",""5"",""16683""
","
","476.59999999403954","","48","","","3000","1","","","images/earth.jpg","images/rocket2","images/rocket1","null","images/rocket2","","1","real","null","2","","",""
"d3-animate-choice","157","562201","0.0-76.0-1.7","70","608","22","Female","true","true","false","true","""event"",""trial"",""time""
""fullscreenenter"",""5"",""16683""
","
","
","""event"",""trial"",""time""
""fullscreenenter"",""5"",""16683""
","
","934.7999999970198","","48","","","3000","1","","","images/redplanet1.jpg","images/alien2","images/alien1","images/rocket2","images/alien2","images/t.png","2","real","false","2","rare","1","2022-02-02 00:51:14.977"
"two-step-fixation","158","563209","0.0-76.0-2.7","70","608","22","Female","true","true","false","true","""event"",""trial"",""time""
""fullscreenenter"",""5"",""16683""
","
","
","""event"",""trial"",""time""
""fullscreenenter"",""5"",""16683""
","
","","images/earth.jpg","","","","","","","","","","","","","","fixation","","","","","",""
"d3-animate-choice","159","565508","0.0-76.0-0.8","70","608","22","Female","true","true","false","true","""event"",""trial"",""time""
""fullscreenenter"",""5"",""16683""
","
","
","""event"",""trial"",""time""
""fullscreenenter"",""5"",""16683""
","
","290.70000000298023","","48","","","3000","1","","","images/earth.jpg","images/rocket2","images/rocket1","null","images/rocket2","","1","real","null","2","","",""
"d3-animate-choice","160","567897","0.0-76.0-1.8","70","608","22","Female","true","true","false","true","""event"",""trial"",""time""
""fullscreenenter"",""5"",""16683""
","
","
","""event"",""trial"",""time""
""fullscreenenter"",""5"",""16683""
","
","380.29999999701977","","49","","","3000","1","","","images/purpleplanet.jpg","images/alien4","images/alien3","images/rocket2","images/alien3","images/nothing.png","2","real","true","1","common","0","2022-02-02 00:51:20.673"
"two-step-fixation","161","568905","0.0-76.0-2.8","70","608","22","Female","true","true","false","true","""event"",""trial"",""time""
""fullscreenenter"",""5"",""16683""
","
","
","""event"",""trial"",""time""
""fullscreenenter"",""5"",""16683""
","
","","images/earth.jpg","","","","","","","","","","","","","","fixation","","","","","",""
"d3-animate-choice","162","571284","0.0-76.0-0.9","70","608","22","Female","true","true","false","true","""event"",""trial"",""time""
""fullscreenenter"",""5"",""16683""
","
","
","""event"",""trial"",""time""
""fullscreenenter"",""5"",""16683""
","
","372.90000000596046","","48","","","3000","1","","","images/earth.jpg","images/rocket2","images/rocket1","null","images/rocket2","","1","real","null","2","","",""
"d3-animate-choice","163","574087","0.0-76.0-1.9","70","608","22","Female","true","true","false","true","""event"",""trial"",""time""
""fullscreenenter"",""5"",""16683""
","
","
","""event"",""trial"",""time""
""fullscreenenter"",""5"",""16683""
","
","796.2000000029802","","48","","","3000","1","","","images/purpleplanet.jpg","images/alien4","images/alien3","images/rocket2","images/alien4","images/t.png","2","real","true","2","common","1","2022-02-02 00:51:26.863"
"two-step-fixation","164","575092","0.0-76.0-2.9","70","608","22","Female","true","true","false","true","""event"",""trial"",""time""
""fullscreenenter"",""5"",""16683""
","
","
","""event"",""trial"",""time""
""fullscreenenter"",""5"",""16683""
","
","","images/earth.jpg","","","","","","","","","","","","","","fixation","","","","","",""
"d3-animate-choice","165","577369","0.0-76.0-0.10","70","608","22","Female","true","true","false","true","""event"",""trial"",""time""
""fullscreenenter"",""5"",""16683""
","
","
","""event"",""trial"",""time""
""fullscreenenter"",""5"",""16683""
","
","270.20000000298023","","48","","","3000","1","","","images/earth.jpg","images/rocket2","images/rocket1","null","images/rocket2","","1","real","null","2","","",""
"d3-animate-choice","166","580281","0.0-76.0-1.10","70","608","22","Female","true","true","false","true","""event"",""trial"",""time""
""fullscreenenter"",""5"",""16683""
","
","
","""event"",""trial"",""time""
""fullscreenenter"",""5"",""16683""
","
","903.7999999970198","","48","","","3000","1","","","images/redplanet1.jpg","images/alien2","images/alien1","images/rocket2","images/alien2","images/t.png","2","real","false","2","rare","1","2022-02-02 00:51:33.058"
"two-step-fixation","167","581289","0.0-76.0-2.10","70","608","22","Female","true","true","false","true","""event"",""trial"",""time""
""fullscreenenter"",""5"",""16683""
","
","
","""event"",""trial"",""time""
""fullscreenenter"",""5"",""16683""
","
","","images/earth.jpg","","","","","","","","","","","","","","fixation","","","","","",""
"d3-animate-choice","168","583524","0.0-76.0-0.11","70","608","22","Female","true","true","false","true","""event"",""trial"",""time""
""fullscreenenter"",""5"",""16683""
","
","
","""event"",""trial"",""time""
""fullscreenenter"",""5"",""16683""
","
","226.90000000596046","","48","","","3000","1","","","images/earth.jpg","images/rocket2","images/rocket1","null","images/rocket2","","1","real","null","2","","",""
"d3-animate-choice","169","586015","0.0-76.0-1.11","70","608","22","Female","true","true","false","true","""event"",""trial"",""time""
""fullscreenenter"",""5"",""16683""
","
","
","""event"",""trial"",""time""
""fullscreenenter"",""5"",""16683""
","
","485.40000000596046","","49","","","3000","1","","","images/purpleplanet.jpg","images/alien4","images/alien3","images/rocket2","images/alien3","images/nothing.png","2","real","true","1","common","0","2022-02-02 00:51:38.791"
"two-step-fixation","170","587023","0.0-76.0-2.11","70","608","22","Female","true","true","false","true","""event"",""trial"",""time""
""fullscreenenter"",""5"",""16683""
","
","
","""event"",""trial"",""time""
""fullscreenenter"",""5"",""16683""
","
","","images/earth.jpg","","","","","","","","","","","","","","fixation","","","","","",""
"d3-animate-choice","171","589311","0.0-76.0-0.12","70","608","22","Female","true","true","false","true","""event"",""trial"",""time""
""fullscreenenter"",""5"",""16683""
","
","
","""event"",""trial"",""time""
""fullscreenenter"",""5"",""16683""
","
","278.20000000298023","","48","","","3000","1","","","images/earth.jpg","images/rocket2","images/rocket1","null","images/rocket2","","1","real","null","2","","",""
"d3-animate-choice","172","591847","0.0-76.0-1.12","70","608","22","Female","true","true","false","true","""event"",""trial"",""time""
""fullscreenenter"",""5"",""16683""
","
","
","""event"",""trial"",""time""
""fullscreenenter"",""5"",""16683""
","
","530.5","","48","","","3000","1","","","images/purpleplanet.jpg","images/alien4","images/alien3","images/rocket2","images/alien4","images/t.png","2","real","true","2","common","1","2022-02-02 00:51:44.623"
"two-step-fixation","173","592852","0.0-76.0-2.12","70","608","22","Female","true","true","false","true","""event"",""trial"",""time""
""fullscreenenter"",""5"",""16683""
","
","
","""event"",""trial"",""time""
""fullscreenenter"",""5"",""16683""
","
","","images/earth.jpg","","","","","","","","","","","","","","fixation","","","","","",""
"d3-animate-choice","174","595070","0.0-76.0-0.13","70","608","22","Female","true","true","false","true","""event"",""trial"",""time""
""fullscreenenter"",""5"",""16683""
","
","
","""event"",""trial"",""time""
""fullscreenenter"",""5"",""16683""
","
","212.70000000298023","","48","","","3000","1","","","images/earth.jpg","images/rocket2","images/rocket1","null","images/rocket2","","1","real","null","2","","",""
"d3-animate-choice","175","597524","0.0-76.0-1.13","70","608","22","Female","true","true","false","true","""event"",""trial"",""time""
""fullscreenenter"",""5"",""16683""
","
","
","""event"",""trial"",""time""
""fullscreenenter"",""5"",""16683""
","
","444.8999999910593","","48","","","3000","1","","","images/purpleplanet.jpg","images/alien4","images/alien3","images/rocket2","images/alien4","images/t.png","2","real","true","2","common","1","2022-02-02 00:51:50.300"
"two-step-fixation","176","598532","0.0-76.0-2.13","70","608","22","Female","true","true","false","true","""event"",""trial"",""time""
""fullscreenenter"",""5"",""16683""
","
","
","""event"",""trial"",""time""
""fullscreenenter"",""5"",""16683""
","
","","images/earth.jpg","","","","","","","","","","","","","","fixation","","","","","",""
"d3-animate-choice","177","600825","0.0-76.0-0.14","70","608","22","Female","true","true","false","true","""event"",""trial"",""time""
""fullscreenenter"",""5"",""16683""
","
","
","""event"",""trial"",""time""
""fullscreenenter"",""5"",""16683""
","
","285.59999999403954","","48","","","3000","1","","","images/earth.jpg","images/rocket2","images/rocket1","null","images/rocket2","","1","real","null","2","","",""
"d3-animate-choice","178","603188","0.0-76.0-1.14","70","608","22","Female","true","true","false","true","""event"",""trial"",""time""
""fullscreenenter"",""5"",""16683""
","
","
","""event"",""trial"",""time""
""fullscreenenter"",""5"",""16683""
","
","355.20000000298023","","48","","","3000","1","","","images/purpleplanet.jpg","images/alien4","images/alien3","images/rocket2","images/alien4","images/t.png","2","real","true","2","common","1","2022-02-02 00:51:55.964"
"two-step-fixation","179","604193","0.0-76.0-2.14","70","608","22","Female","true","true","false","true","""event"",""trial"",""time""
""fullscreenenter"",""5"",""16683""
","
","
","""event"",""trial"",""time""
""fullscreenenter"",""5"",""16683""
","
","","images/earth.jpg","","","","","","","","","","","","","","fixation","","","","","",""
"d3-animate-choice","180","606467","0.0-76.0-0.15","70","608","22","Female","true","true","false","true","""event"",""trial"",""time""
""fullscreenenter"",""5"",""16683""
","
","
","""event"",""trial"",""time""
""fullscreenenter"",""5"",""16683""
","
","268.29999999701977","","48","","","3000","1","","","images/earth.jpg","images/rocket2","images/rocket1","null","images/rocket2","","1","real","null","2","","",""
"d3-animate-choice","181","608814","0.0-76.0-1.15","70","608","22","Female","true","true","false","true","""event"",""trial"",""time""
""fullscreenenter"",""5"",""16683""
","
","
","""event"",""trial"",""time""
""fullscreenenter"",""5"",""16683""
","
","341.20000000298023","","48","","","3000","1","","","images/purpleplanet.jpg","images/alien4","images/alien3","images/rocket2","images/alien4","images/t.png","2","real","true","2","common","1","2022-02-02 00:52:01.590"
"two-step-fixation","182","609822","0.0-76.0-2.15","70","608","22","Female","true","true","false","true","""event"",""trial"",""time""
""fullscreenenter"",""5"",""16683""
","
","
","""event"",""trial"",""time""
""fullscreenenter"",""5"",""16683""
","
","","images/earth.jpg","","","","","","","","","","","","","","fixation","","","","","",""
"d3-animate-choice","183","612097","0.0-76.0-0.16","70","608","22","Female","true","true","false","true","""event"",""trial"",""time""
""fullscreenenter"",""5"",""16683""
","
","
","""event"",""trial"",""time""
""fullscreenenter"",""5"",""16683""
","
","267","","48","","","3000","1","","","images/earth.jpg","images/rocket2","images/rocket1","null","images/rocket2","","1","real","null","2","","",""
"d3-animate-choice","184","614447","0.0-76.0-1.16","70","608","22","Female","true","true","false","true","""event"",""trial"",""time""
""fullscreenenter"",""5"",""16683""
","
","
","""event"",""trial"",""time""
""fullscreenenter"",""5"",""16683""
","
","344.20000000298023","","48","","","3000","1","","","images/purpleplanet.jpg","images/alien4","images/alien3","images/rocket2","images/alien4","images/t.png","2","real","true","2","common","1","2022-02-02 00:52:07.224"
"two-step-fixation","185","615453","0.0-76.0-2.16","70","608","22","Female","true","true","false","true","""event"",""trial"",""time""
""fullscreenenter"",""5"",""16683""
","
","
","""event"",""trial"",""time""
""fullscreenenter"",""5"",""16683""
","
","","images/earth.jpg","","","","","","","","","","","","","","fixation","","","","","",""
"d3-animate-choice","186","617726","0.0-76.0-0.17","70","608","22","Female","true","true","false","true","""event"",""trial"",""time""
""fullscreenenter"",""5"",""16683""
","
","
","""event"",""trial"",""time""
""fullscreenenter"",""5"",""16683""
","
","266.29999999701977","","48","","","3000","1","","","images/earth.jpg","images/rocket2","images/rocket1","null","images/rocket2","","1","real","null","2","","",""
"d3-animate-choice","187","620142","0.0-76.0-1.17","70","608","22","Female","true","true","false","true","""event"",""trial"",""time""
""fullscreenenter"",""5"",""16683""
","
","
","""event"",""trial"",""time""
""fullscreenenter"",""5"",""16683""
","
","410.20000000298023","","48","","","3000","1","","","images/purpleplanet.jpg","images/alien4","images/alien3","images/rocket2","images/alien4","images/nothing.png","2","real","true","2","common","0","2022-02-02 00:52:12.918"
"two-step-fixation","188","621147","0.0-76.0-2.17","70","608","22","Female","true","true","false","true","""event"",""trial"",""time""
""fullscreenenter"",""5"",""16683""
","
","
","""event"",""trial"",""time""
""fullscreenenter"",""5"",""16683""
","
","","images/earth.jpg","","","","","","","","","","","","","","fixation","","","","","",""
"d3-animate-choice","189","623394","0.0-76.0-0.18","70","608","22","Female","true","true","false","true","""event"",""trial"",""time""
""fullscreenenter"",""5"",""16683""
","
","
","""event"",""trial"",""time""
""fullscreenenter"",""5"",""16683""
","
","239.59999999403954","","48","","","3000","1","","","images/earth.jpg","images/rocket2","images/rocket1","null","images/rocket2","","1","real","null","2","","",""
"d3-animate-choice","190","625752","0.0-76.0-1.18","70","608","22","Female","true","true","false","true","""event"",""trial"",""time""
""fullscreenenter"",""5"",""16683""
","
","
","""event"",""trial"",""time""
""fullscreenenter"",""5"",""16683""
","
","352.20000000298023","","48","","","3000","1","","","images/purpleplanet.jpg","images/alien4","images/alien3","images/rocket2","images/alien4","images/t.png","2","real","true","2","common","1","2022-02-02 00:52:18.529"
"two-step-fixation","191","626760","0.0-76.0-2.18","70","608","22","Female","true","true","false","true","""event"",""trial"",""time""
""fullscreenenter"",""5"",""16683""
","
","
","""event"",""trial"",""time""
""fullscreenenter"",""5"",""16683""
","
","","images/earth.jpg","","","","","","","","","","","","","","fixation","","","","","",""
"d3-animate-choice","192","628931","0.0-76.0-0.19","70","608","22","Female","true","true","false","true","""event"",""trial"",""time""
""fullscreenenter"",""5"",""16683""
","
","
","""event"",""trial"",""time""
""fullscreenenter"",""5"",""16683""
","
","161.90000000596046","","48","","","3000","1","","","images/earth.jpg","images/rocket2","images/rocket1","null","images/rocket2","","1","real","null","2","","",""
"d3-animate-choice","193","631348","0.0-76.0-1.19","70","608","22","Female","true","true","false","true","""event"",""trial"",""time""
""fullscreenenter"",""5"",""16683""
","
","
","""event"",""trial"",""time""
""fullscreenenter"",""5"",""16683""
","
","411.79999999701977","","48","","","3000","1","","","images/purpleplanet.jpg","images/alien4","images/alien3","images/rocket2","images/alien4","images/nothing.png","2","real","true","2","common","0","2022-02-02 00:52:24.124"
"two-step-fixation","194","632355","0.0-76.0-2.19","70","608","22","Female","true","true","false","true","""event"",""trial"",""time""
""fullscreenenter"",""5"",""16683""
","
","
","""event"",""trial"",""time""
""fullscreenenter"",""5"",""16683""
","
","","images/earth.jpg","","","","","","","","","","","","","","fixation","","","","","",""
"d3-animate-choice","195","634646","0.0-76.0-0.20","70","608","22","Female","true","true","false","true","""event"",""trial"",""time""
""fullscreenenter"",""5"",""16683""
","
","
","""event"",""trial"",""time""
""fullscreenenter"",""5"",""16683""
","
","283.8999999910593","","48","","","3000","1","","","images/earth.jpg","images/rocket2","images/rocket1","null","images/rocket2","","1","real","null","2","","",""
"d3-animate-choice","196","636971","0.0-76.0-1.20","70","608","22","Female","true","true","false","true","""event"",""trial"",""time""
""fullscreenenter"",""5"",""16683""
","
","
","""event"",""trial"",""time""
""fullscreenenter"",""5"",""16683""
","
","318.70000000298023","","48","","","3000","1","","","images/purpleplanet.jpg","images/alien4","images/alien3","images/rocket2","images/alien4","images/t.png","2","real","true","2","common","1","2022-02-02 00:52:29.747"
"two-step-fixation","197","637976","0.0-76.0-2.20","70","608","22","Female","true","true","false","true","""event"",""trial"",""time""
""fullscreenenter"",""5"",""16683""
","
","
","""event"",""trial"",""time""
""fullscreenenter"",""5"",""16683""
","
","","images/earth.jpg","","","","","","","","","","","","","","fixation","","","","","",""
"d3-animate-choice","198","640268","0.0-76.0-0.21","70","608","22","Female","true","true","false","true","""event"",""trial"",""time""
""fullscreenenter"",""5"",""16683""
","
","
","""event"",""trial"",""time""
""fullscreenenter"",""5"",""16683""
","
","283.70000000298023","","48","","","3000","1","","","images/earth.jpg","images/rocket2","images/rocket1","null","images/rocket2","","1","real","null","2","","",""
"d3-animate-choice","199","642637","0.0-76.0-1.21","70","608","22","Female","true","true","false","true","""event"",""trial"",""time""
""fullscreenenter"",""5"",""16683""
","
","
","""event"",""trial"",""time""
""fullscreenenter"",""5"",""16683""
","
","364.09999999403954","","48","","","3000","1","","","images/purpleplanet.jpg","images/alien4","images/alien3","images/rocket2","images/alien4","images/nothing.png","2","real","true","2","common","0","2022-02-02 00:52:35.414"
"two-step-fixation","200","643644","0.0-76.0-2.21","70","608","22","Female","true","true","false","true","""event"",""trial"",""time""
""fullscreenenter"",""5"",""16683""
","
","
","""event"",""trial"",""time""
""fullscreenenter"",""5"",""16683""
","
","","images/earth.jpg","","","","","","","","","","","","","","fixation","","","","","",""
"d3-animate-choice","201","645773","0.0-76.0-0.22","70","608","22","Female","true","true","false","true","""event"",""trial"",""time""
""fullscreenenter"",""5"",""16683""
","
","
","""event"",""trial"",""time""
""fullscreenenter"",""5"",""16683""
","
","123.5","","48","","","3000","1","","","images/earth.jpg","images/rocket2","images/rocket1","null","images/rocket2","","1","real","null","2","","",""
"d3-animate-choice","202","648675","0.0-76.0-1.22","70","608","22","Female","true","true","false","true","""event"",""trial"",""time""
""fullscreenenter"",""5"",""16683""
","
","
","""event"",""trial"",""time""
""fullscreenenter"",""5"",""16683""
","
","895.2000000029802","","48","","","3000","1","","","images/redplanet1.jpg","images/alien2","images/alien1","images/rocket2","images/alien2","images/t.png","2","real","false","2","rare","1","2022-02-02 00:52:41.451"
"two-step-fixation","203","649681","0.0-76.0-2.22","70","608","22","Female","true","true","false","true","""event"",""trial"",""time""
""fullscreenenter"",""5"",""16683""
","
","
","""event"",""trial"",""time""
""fullscreenenter"",""5"",""16683""
","
","","images/earth.jpg","","","","","","","","","","","","","","fixation","","","","","",""
"d3-animate-choice","204","651954","0.0-76.0-0.23","70","608","22","Female","true","true","false","true","""event"",""trial"",""time""
""fullscreenenter"",""5"",""16683""
","
","
","""event"",""trial"",""time""
""fullscreenenter"",""5"",""16683""
","
","263","","48","","","3000","1","","","images/earth.jpg","images/rocket2","images/rocket1","null","images/rocket2","","1","real","null","2","","",""
"d3-animate-choice","205","654445","0.0-76.0-1.23","70","608","22","Female","true","true","false","true","""event"",""trial"",""time""
""fullscreenenter"",""5"",""16683""
","
","
","""event"",""trial"",""time""
""fullscreenenter"",""5"",""16683""
","
","482.90000000596046","","48","","","3000","1","","","images/purpleplanet.jpg","images/alien4","images/alien3","images/rocket2","images/alien4","images/t.png","2","real","true","2","common","1","2022-02-02 00:52:47.221"
"two-step-fixation","206","655451","0.0-76.0-2.23","70","608","22","Female","true","true","false","true","""event"",""trial"",""time""
""fullscreenenter"",""5"",""16683""
","
","
","""event"",""trial"",""time""
""fullscreenenter"",""5"",""16683""
","
","","images/earth.jpg","","","","","","","","","","","","","","fixation","","","","","",""
"d3-animate-choice","207","657734","0.0-76.0-0.24","70","608","22","Female","true","true","false","true","""event"",""trial"",""time""
""fullscreenenter"",""5"",""16683""
","
","
","""event"",""trial"",""time""
""fullscreenenter"",""5"",""16683""
","
","276.59999999403954","","48","","","3000","1","","","images/earth.jpg","images/rocket2","images/rocket1","null","images/rocket2","","1","real","null","2","","",""
"d3-animate-choice","208","660059","0.0-76.0-1.24","70","608","22","Female","true","true","false","true","""event"",""trial"",""time""
""fullscreenenter"",""5"",""16683""
","
","
","""event"",""trial"",""time""
""fullscreenenter"",""5"",""16683""
","
","318","","48","","","3000","1","","","images/redplanet1.jpg","images/alien2","images/alien1","images/rocket2","images/alien2","images/t.png","2","real","false","2","rare","1","2022-02-02 00:52:52.837"
"two-step-fixation","209","661065","0.0-76.0-2.24","70","608","22","Female","true","true","false","true","""event"",""trial"",""time""
""fullscreenenter"",""5"",""16683""
","
","
","""event"",""trial"",""time""
""fullscreenenter"",""5"",""16683""
","
","","images/earth.jpg","","","","","","","","","","","","","","fixation","","","","","",""
"d3-animate-choice","210","663394","0.0-76.0-0.25","70","608","22","Female","true","true","false","true","""event"",""trial"",""time""
""fullscreenenter"",""5"",""16683""
","
","
","""event"",""trial"",""time""
""fullscreenenter"",""5"",""16683""
","
","320.20000000298023","","48","","","3000","1","","","images/earth.jpg","images/rocket2","images/rocket1","null","images/rocket2","","1","real","null","2","","",""
"d3-animate-choice","211","665746","0.0-76.0-1.25","70","608","22","Female","true","true","false","true","""event"",""trial"",""time""
""fullscreenenter"",""5"",""16683""
","
","
","""event"",""trial"",""time""
""fullscreenenter"",""5"",""16683""
","
","345.79999999701977","","48","","","3000","1","","","images/redplanet1.jpg","images/alien2","images/alien1","images/rocket2","images/alien2","images/nothing.png","2","real","false","2","rare","0","2022-02-02 00:52:58.522"
"two-step-fixation","212","666754","0.0-76.0-2.25","70","608","22","Female","true","true","false","true","""event"",""trial"",""time""
""fullscreenenter"",""5"",""16683""
","
","
","""event"",""trial"",""time""
""fullscreenenter"",""5"",""16683""
","
","","images/earth.jpg","","","","","","","","","","","","","","fixation","","","","","",""
"d3-animate-choice","213","668962","0.0-76.0-0.26","70","608","22","Female","true","true","false","true","""event"",""trial"",""time""
""fullscreenenter"",""5"",""16683""
","
","
","""event"",""trial"",""time""
""fullscreenenter"",""5"",""16683""
","
","197.80000001192093","","48","","","3000","1","","","images/earth.jpg","images/rocket2","images/rocket1","null","images/rocket2","","1","real","null","2","","",""
"d3-animate-choice","214","671655","0.0-76.0-1.26","70","608","22","Female","true","true","false","true","""event"",""trial"",""time""
""fullscreenenter"",""5"",""16683""
","
","
","""event"",""trial"",""time""
""fullscreenenter"",""5"",""16683""
","
","686.2000000029802","","48","","","3000","1","","","images/redplanet1.jpg","images/alien2","images/alien1","images/rocket2","images/alien2","images/nothing.png","2","real","false","2","rare","0","2022-02-02 00:53:04.431"
"two-step-fixation","215","672662","0.0-76.0-2.26","70","608","22","Female","true","true","false","true","""event"",""trial"",""time""
""fullscreenenter"",""5"",""16683""
","
","
","""event"",""trial"",""time""
""fullscreenenter"",""5"",""16683""
","
","","images/earth.jpg","","","","","","","","","","","","","","fixation","","","","","",""
"d3-animate-choice","216","674871","0.0-76.0-0.27","70","608","22","Female","true","true","false","true","""event"",""trial"",""time""
""fullscreenenter"",""5"",""16683""
","
","
","""event"",""trial"",""time""
""fullscreenenter"",""5"",""16683""
","
","198.90000000596046","","48","","","3000","1","","","images/earth.jpg","images/rocket2","images/rocket1","null","images/rocket2","","1","real","null","2","","",""
"d3-animate-choice","217","677354","0.0-76.0-1.27","70","608","22","Female","true","true","false","true","""event"",""trial"",""time""
""fullscreenenter"",""5"",""16683""
","
","
","""event"",""trial"",""time""
""fullscreenenter"",""5"",""16683""
","
","477.79999999701977","","48","","","3000","1","","","images/purpleplanet.jpg","images/alien4","images/alien3","images/rocket2","images/alien4","images/t.png","2","real","true","2","common","1","2022-02-02 00:53:10.130"
"two-step-fixation","218","678359","0.0-76.0-2.27","70","608","22","Female","true","true","false","true","""event"",""trial"",""time""
""fullscreenenter"",""5"",""16683""
","
","
","""event"",""trial"",""time""
""fullscreenenter"",""5"",""16683""
","
","","images/earth.jpg","","","","","","","","","","","","","","fixation","","","","","",""
"d3-animate-choice","219","680428","0.0-76.0-0.28","70","608","22","Female","true","true","false","true","""event"",""trial"",""time""
""fullscreenenter"",""5"",""16683""
","
","
","""event"",""trial"",""time""
""fullscreenenter"",""5"",""16683""
","
","63","","48","","","3000","1","","","images/earth.jpg","images/rocket2","images/rocket1","null","images/rocket2","","1","real","null","2","","",""
"d3-animate-choice","220","682807","0.0-76.0-1.28","70","608","22","Female","true","true","false","true","""event"",""trial"",""time""
""fullscreenenter"",""5"",""16683""
","
","
","""event"",""trial"",""time""
""fullscreenenter"",""5"",""16683""
","
","372.3999999910593","","48","","","3000","1","","","images/purpleplanet.jpg","images/alien4","images/alien3","images/rocket2","images/alien4","images/t.png","2","real","true","2","common","1","2022-02-02 00:53:15.583"
"two-step-fixation","221","683813","0.0-76.0-2.28","70","608","22","Female","true","true","false","true","""event"",""trial"",""time""
""fullscreenenter"",""5"",""16683""
","
","
","""event"",""trial"",""time""
""fullscreenenter"",""5"",""16683""
","
","","images/earth.jpg","","","","","","","","","","","","","","fixation","","","","","",""
"d3-animate-choice","222","686026","0.0-76.0-0.29","70","608","22","Female","true","true","false","true","""event"",""trial"",""time""
""fullscreenenter"",""5"",""16683""
","
","
","""event"",""trial"",""time""
""fullscreenenter"",""5"",""16683""
","
","206.19999998807907","","48","","","3000","1","","","images/earth.jpg","images/rocket2","images/rocket1","null","images/rocket2","","1","real","null","2","","",""
"d3-animate-choice","223","688422","0.0-76.0-1.29","70","608","22","Female","true","true","false","true","""event"",""trial"",""time""
""fullscreenenter"",""5"",""16683""
","
","
","""event"",""trial"",""time""
""fullscreenenter"",""5"",""16683""
","
","390.8999999910593","","48","","","3000","1","","","images/purpleplanet.jpg","images/alien4","images/alien3","images/rocket2","images/alien4","images/t.png","2","real","true","2","common","1","2022-02-02 00:53:21.199"
"two-step-fixation","224","689429","0.0-76.0-2.29","70","608","22","Female","true","true","false","true","""event"",""trial"",""time""
""fullscreenenter"",""5"",""16683""
","
","
","""event"",""trial"",""time""
""fullscreenenter"",""5"",""16683""
","
","","images/earth.jpg","","","","","","","","","","","","","","fixation","","","","","",""
"d3-animate-choice","225","691692","0.0-76.0-0.30","70","608","22","Female","true","true","false","true","""event"",""trial"",""time""
""fullscreenenter"",""5"",""16683""
","
","
","""event"",""trial"",""time""
""fullscreenenter"",""5"",""16683""
","
","255.79999999701977","","48","","","3000","1","","","images/earth.jpg","images/rocket2","images/rocket1","null","images/rocket2","","1","real","null","2","","",""
"d3-animate-choice","226","693937","0.0-76.0-1.30","70","608","22","Female","true","true","false","true","""event"",""trial"",""time""
""fullscreenenter"",""5"",""16683""
","
","
","""event"",""trial"",""time""
""fullscreenenter"",""5"",""16683""
","
","238.09999999403954","","48","","","3000","1","","","images/purpleplanet.jpg","images/alien4","images/alien3","images/rocket2","images/alien4","images/t.png","2","real","true","2","common","1","2022-02-02 00:53:26.713"
"two-step-fixation","227","694945","0.0-76.0-2.30","70","608","22","Female","true","true","false","true","""event"",""trial"",""time""
""fullscreenenter"",""5"",""16683""
","
","
","""event"",""trial"",""time""
""fullscreenenter"",""5"",""16683""
","
","","images/earth.jpg","","","","","","","","","","","","","","fixation","","","","","",""
"d3-animate-choice","228","697390","0.0-76.0-0.31","70","608","22","Female","true","true","false","true","""event"",""trial"",""time""
""fullscreenenter"",""5"",""16683""
","
","
","""event"",""trial"",""time""
""fullscreenenter"",""5"",""16683""
","
","437.70000000298023","","48","","","3000","1","","","images/earth.jpg","images/rocket2","images/rocket1","null","images/rocket2","","1","real","null","2","","",""
"d3-animate-choice","229","699643","0.0-76.0-1.31","70","608","22","Female","true","true","false","true","""event"",""trial"",""time""
""fullscreenenter"",""5"",""16683""
","
","
","""event"",""trial"",""time""
""fullscreenenter"",""5"",""16683""
","
","245.69999998807907","","48","","","3000","1","","","images/redplanet1.jpg","images/alien2","images/alien1","images/rocket2","images/alien2","images/t.png","2","real","false","2","rare","1","2022-02-02 00:53:32.419"
"two-step-fixation","230","700647","0.0-76.0-2.31","70","608","22","Female","true","true","false","true","""event"",""trial"",""time""
""fullscreenenter"",""5"",""16683""
","
","
","""event"",""trial"",""time""
""fullscreenenter"",""5"",""16683""
","
","","images/earth.jpg","","","","","","","","","","","","","","fixation","","","","","",""
"d3-animate-choice","231","702882","0.0-76.0-0.32","70","608","22","Female","true","true","false","true","""event"",""trial"",""time""
""fullscreenenter"",""5"",""16683""
","
","
","""event"",""trial"",""time""
""fullscreenenter"",""5"",""16683""
","
","228.09999999403954","","48","","","3000","1","","","images/earth.jpg","images/rocket2","images/rocket1","null","images/rocket2","","1","real","null","2","","",""
"d3-animate-choice","232","705446","0.0-76.0-1.32","70","608","22","Female","true","true","false","true","""event"",""trial"",""time""
""fullscreenenter"",""5"",""16683""
","
","
","""event"",""trial"",""time""
""fullscreenenter"",""5"",""16683""
","
","558.4000000059605","","48","","","3000","1","","","images/purpleplanet.jpg","images/alien4","images/alien3","images/rocket2","images/alien4","images/nothing.png","2","real","true","2","common","0","2022-02-02 00:53:38.222"
"two-step-fixation","233","706452","0.0-76.0-2.32","70","608","22","Female","true","true","false","true","""event"",""trial"",""time""
""fullscreenenter"",""5"",""16683""
","
","
","""event"",""trial"",""time""
""fullscreenenter"",""5"",""16683""
","
","","images/earth.jpg","","","","","","","","","","","","","","fixation","","","","","",""
"d3-animate-choice","234","708714","0.0-76.0-0.33","70","608","22","Female","true","true","false","true","""event"",""trial"",""time""
""fullscreenenter"",""5"",""16683""
","
","
","""event"",""trial"",""time""
""fullscreenenter"",""5"",""16683""
","
","256.6000000089407","","48","","","3000","1","","","images/earth.jpg","images/rocket2","images/rocket1","null","images/rocket2","","1","real","null","2","","",""
"d3-animate-choice","235","711413","0.0-76.0-1.33","70","608","22","Female","true","true","false","true","""event"",""trial"",""time""
""fullscreenenter"",""5"",""16683""
","
","
","""event"",""trial"",""time""
""fullscreenenter"",""5"",""16683""
","
","691.5","","49","","","3000","1","","","images/purpleplanet.jpg","images/alien4","images/alien3","images/rocket2","images/alien3","images/nothing.png","2","real","true","1","common","0","2022-02-02 00:53:44.189"
"two-step-fixation","236","712419","0.0-76.0-2.33","70","608","22","Female","true","true","false","true","""event"",""trial"",""time""
""fullscreenenter"",""5"",""16683""
","
","
","""event"",""trial"",""time""
""fullscreenenter"",""5"",""16683""
","
","","images/earth.jpg","","","","","","","","","","","","","","fixation","","","","","",""
"d3-animate-choice","237","714619","0.0-76.0-0.34","70","608","22","Female","true","true","false","true","""event"",""trial"",""time""
""fullscreenenter"",""5"",""16683""
","
","
","""event"",""trial"",""time""
""fullscreenenter"",""5"",""16683""
","
","189.8999999910593","","48","","","3000","1","","","images/earth.jpg","images/rocket2","images/rocket1","null","images/rocket2","","1","real","null","2","","",""
"d3-animate-choice","238","716980","0.0-76.0-1.34","70","608","22","Female","true","true","false","true","""event"",""trial"",""time""
""fullscreenenter"",""5"",""16683""
","
","
","""event"",""trial"",""time""
""fullscreenenter"",""5"",""16683""
","
","355","","48","","","3000","1","","","images/purpleplanet.jpg","images/alien4","images/alien3","images/rocket2","images/alien4","images/t.png","2","real","true","2","common","1","2022-02-02 00:53:49.756"
"two-step-fixation","239","717985","0.0-76.0-2.34","70","608","22","Female","true","true","false","true","""event"",""trial"",""time""
""fullscreenenter"",""5"",""16683""
","
","
","""event"",""trial"",""time""
""fullscreenenter"",""5"",""16683""
","
","","images/earth.jpg","","","","","","","","","","","","","","fixation","","","","","",""
"d3-animate-choice","240","720257","0.0-76.0-0.35","70","608","22","Female","true","true","false","true","""event"",""trial"",""time""
""fullscreenenter"",""5"",""16683""
","
","
","""event"",""trial"",""time""
""fullscreenenter"",""5"",""16683""
","
","266.1000000089407","","48","","","3000","1","","","images/earth.jpg","images/rocket2","images/rocket1","null","images/rocket2","","1","real","null","2","","",""
"d3-animate-choice","241","722646","0.0-76.0-1.35","70","608","22","Female","true","true","false","true","""event"",""trial"",""time""
""fullscreenenter"",""5"",""16683""
","
","
","""event"",""trial"",""time""
""fullscreenenter"",""5"",""16683""
","
","383.90000000596046","","48","","","3000","1","","","images/purpleplanet.jpg","images/alien4","images/alien3","images/rocket2","images/alien4","images/nothing.png","2","real","true","2","common","0","2022-02-02 00:53:55.422"
"two-step-fixation","242","723654","0.0-76.0-2.35","70","608","22","Female","true","true","false","true","""event"",""trial"",""time""
""fullscreenenter"",""5"",""16683""
","
","
","""event"",""trial"",""time""
""fullscreenenter"",""5"",""16683""
","
","","images/earth.jpg","","","","","","","","","","","","","","fixation","","","","","",""
"d3-animate-choice","243","725896","0.0-76.0-0.36","70","608","22","Female","true","true","false","true","""event"",""trial"",""time""
""fullscreenenter"",""5"",""16683""
","
","
","""event"",""trial"",""time""
""fullscreenenter"",""5"",""16683""
","
","237.09999999403954","","48","","","3000","1","","","images/earth.jpg","images/rocket2","images/rocket1","null","images/rocket2","","1","real","null","2","","",""
"d3-animate-choice","244","728192","0.0-76.0-1.36","70","608","22","Female","true","true","false","true","""event"",""trial"",""time""
""fullscreenenter"",""5"",""16683""
","
","
","""event"",""trial"",""time""
""fullscreenenter"",""5"",""16683""
","
","288.79999999701977","","48","","","3000","1","","","images/redplanet1.jpg","images/alien2","images/alien1","images/rocket2","images/alien2","images/t.png","2","real","false","2","rare","1","2022-02-02 00:54:00.969"
"two-step-fixation","245","729197","0.0-76.0-2.36","70","608","22","Female","true","true","false","true","""event"",""trial"",""time""
""fullscreenenter"",""5"",""16683""
","
","
","""event"",""trial"",""time""
""fullscreenenter"",""5"",""16683""
","
","","images/earth.jpg","","","","","","","","","","","","","","fixation","","","","","",""
"d3-animate-choice","246","731446","0.0-76.0-0.37","70","608","22","Female","true","true","false","true","""event"",""trial"",""time""
""fullscreenenter"",""5"",""16683""
","
","
","""event"",""trial"",""time""
""fullscreenenter"",""5"",""16683""
","
","242.29999999701977","","48","","","3000","1","","","images/earth.jpg","images/rocket2","images/rocket1","null","images/rocket2","","1","real","null","2","","",""
"d3-animate-choice","247","733800","0.0-76.0-1.37","70","608","22","Female","true","true","false","true","""event"",""trial"",""time""
""fullscreenenter"",""5"",""16683""
","
","
","""event"",""trial"",""time""
""fullscreenenter"",""5"",""16683""
","
