"trial_type","trial_index","time_elapsed","internal_node_id","participant_id","subject_id","age","gender","rocket_sides","red_planet_first_rocket","red_display_order","purple_display_order","interactions","blur_events","focus_events","fullscreenenter_events","fullscreenexit_events","rt","stimulus","key_press","button_pressed","success","duration","valid_pressed","rts","keys","planet_text","right_text","left_text","center_text","chosen_text","reward_text","trial_stage","practice_trial","transition_type","choice","transition","reward","timestamp"
"pavlovia","0","7","0.0-0.0","1302","1492","15","Male","false","true","false","false","
","
","
","
","
","","","","","","","","","","","","","","","","","","","","","",""
"html-keyboard-response","1","2302","0.0-1.0","1302","1492","15","Male","false","true","false","false","
","
","
","
","
","2294.7000000029802","Welcome! Press the space bar to begin.","32","","","","","","","","","","","","","","","","","","",""
"audio-keyboard-response","2","5038","0.0-2.0","1302","1492","15","Male","false","true","false","false","
","
","
","
","
","2680","audio/beep_loop.wav","32","","","","","","","","","","","","","","","","","","",""
"audio-button-response","3","9592","0.0-3.0","1302","1492","15","Male","false","true","false","false","
","
","
","
","
","NaN","audio/fish.mp3","","1","","","","","","","","","","","","","","","","","",""
"audio-button-response","4","12064","0.0-4.0","1302","1492","15","Male","false","true","false","false","""event"",""trial"",""time""
""fullscreenenter"",""5"",""16590""
","
","
","""event"",""trial"",""time""
""fullscreenenter"",""5"",""16590""
","
","NaN","audio/tiger.mp3","","4","","","","","","","","","","","","","","","","","",""
"fullscreen","5","17581","0.0-5.0","1302","1492","15","Male","false","true","false","false","""event"",""trial"",""time""
""fullscreenenter"",""5"",""16590""
","
","
","""event"",""trial"",""time""
""fullscreenenter"",""5"",""16590""
","
","","","","","true","","","","","","","","","","","","","","","","",""
"d3-instructions","6","30998","0.0-6.0","1302","1492","15","Male","false","true","false","false","""event"",""trial"",""time""
""fullscreenenter"",""5"",""16590""
","
","
","""event"",""trial"",""time""
""fullscreenenter"",""5"",""16590""
","
","","","","","","","","","","","","","","","","","","","","","",""
"d3-instructions","7","105741","0.0-7.0","1302","1492","15","Male","false","true","false","false","""event"",""trial"",""time""
""fullscreenenter"",""5"",""16590""
","
","
","""event"",""trial"",""time""
""fullscreenenter"",""5"",""16590""
","
","","","","","","","","","","","","","","","","","","","","","",""
"d3-instructions","8","111963","0.0-8.0","1302","1492","15","Male","false","true","false","false","""event"",""trial"",""time""
""fullscreenenter"",""5"",""16590""
","
","
","""event"",""trial"",""time""
""fullscreenenter"",""5"",""16590""
","
","","","","","","","","","","","","","","","","","","","","","",""
"d3-instructions","9","126761","0.0-9.0","1302","1492","15","Male","false","true","false","false","""event"",""trial"",""time""
""fullscreenenter"",""5"",""16590""
","
","
","""event"",""trial"",""time""
""fullscreenenter"",""5"",""16590""
","
","","","","","","","","","","","","","","","","","","","","","",""
"d3-instructions","10","137903","0.0-10.0","1302","1492","15","Male","false","true","false","false","""event"",""trial"",""time""
""fullscreenenter"",""5"",""16590""
","
","
","""event"",""trial"",""time""
""fullscreenenter"",""5"",""16590""
","
","","","","","","","","","","","","","","","","","","","","","",""
"d3-animate-choice","11","141104","0.0-11.0","1302","1492","15","Male","false","true","false","false","""event"",""trial"",""time""
""fullscreenenter"",""5"",""16590""
","
","
","""event"",""trial"",""time""
""fullscreenenter"",""5"",""16590""
","
","1196.2000000029802","","49","","","3000","1","","","images/tutgreenplanet.jpg","images/tutalien1","images/tutalien2","null","images/tutalien2","","NA","practice","null","","","",""
"d3-animate-choice","12","144015","0.0-12.0","1302","1492","15","Male","false","true","false","false","""event"",""trial"",""time""
""fullscreenenter"",""5"",""16590""
","
","
","""event"",""trial"",""time""
""fullscreenenter"",""5"",""16590""
","
","904.2000000029802","","48","","","3000","1","","","images/tutgreenplanet.jpg","images/tutalien1","images/tutalien2","null","images/tutalien1","","NA","practice","null","","","",""
"d3-animate-choice","13","146725","0.0-13.0","1302","1492","15","Male","false","true","false","false","""event"",""trial"",""time""
""fullscreenenter"",""5"",""16590""
","
","
","""event"",""trial"",""time""
""fullscreenenter"",""5"",""16590""
","
","707.5999999940395","","48","","","3000","1","","","images/tutgreenplanet.jpg","images/tutalien1","images/tutalien2","null","images/tutalien1","","NA","practice","null","","","",""
"d3-animate-choice","14","149076","0.0-14.0","1302","1492","15","Male","false","true","false","false","""event"",""trial"",""time""
""fullscreenenter"",""5"",""16590""
","
","
","""event"",""trial"",""time""
""fullscreenenter"",""5"",""16590""
","
","339.5","","49","","","3000","1","","","images/tutgreenplanet.jpg","images/tutalien1","images/tutalien2","null","images/tutalien2","","NA","practice","null","","","",""
"d3-instructions","15","157129","0.0-15.0","1302","1492","15","Male","false","true","false","false","""event"",""trial"",""time""
""fullscreenenter"",""5"",""16590""
","
","
","""event"",""trial"",""time""
""fullscreenenter"",""5"",""16590""
","
","","","","","","","","","","","","","","","","","","","","","",""
"d3-instructions","16","162331","0.0-16.0","1302","1492","15","Male","false","true","false","false","""event"",""trial"",""time""
""fullscreenenter"",""5"",""16590""
","
","
","""event"",""trial"",""time""
""fullscreenenter"",""5"",""16590""
","
","","","","","","","","","","","","","","","","","","","","","",""
"d3-instructions","17","170873","0.0-17.0","1302","1492","15","Male","false","true","false","false","""event"",""trial"",""time""
""fullscreenenter"",""5"",""16590""
","
","
","""event"",""trial"",""time""
""fullscreenenter"",""5"",""16590""
","
","","","","","","","","","","","","","","","","","","","","","",""
"d3-instructions","18","179632","0.0-18.0","1302","1492","15","Male","false","true","false","false","""event"",""trial"",""time""
""fullscreenenter"",""5"",""16590""
","
","
","""event"",""trial"",""time""
""fullscreenenter"",""5"",""16590""
","
","","","","","","","","","","","","","","","","","","","","","",""
"d3-instructions","19","193021","0.0-19.0","1302","1492","15","Male","false","true","false","false","""event"",""trial"",""time""
""fullscreenenter"",""5"",""16590""
","
","
","""event"",""trial"",""time""
""fullscreenenter"",""5"",""16590""
","
","","","","","","","","","","","","","","","","","","","","","",""
"d3-animate-choice","20","195888","0.0-20.0","1302","1492","15","Male","false","true","false","false","""event"",""trial"",""time""
""fullscreenenter"",""5"",""16590""
","
","
","""event"",""trial"",""time""
""fullscreenenter"",""5"",""16590""
","
","851.5","","49","","","3000","1","","","images/tutyellowplanet.jpg","null","images/tutalien3","null","images/tutalien3","images/t.png","NA","practice","null","","","",""
"d3-animate-choice","21","198160","0.0-21.0","1302","1492","15","Male","false","true","false","false","""event"",""trial"",""time""
""fullscreenenter"",""5"",""16590""
","
","
","""event"",""trial"",""time""
""fullscreenenter"",""5"",""16590""
","
","263.80000001192093","","49","","","3000","1","","","images/tutyellowplanet.jpg","null","images/tutalien3","null","images/tutalien3","images/t.png","NA","practice","null","","","",""
"d3-animate-choice","22","200209","0.0-22.0","1302","1492","15","Male","false","true","false","false","""event"",""trial"",""time""
""fullscreenenter"",""5"",""16590""
","
","
","""event"",""trial"",""time""
""fullscreenenter"",""5"",""16590""
","
","37.1000000089407","","49","","","3000","1","","","images/tutyellowplanet.jpg","null","images/tutalien3","null","images/tutalien3","images/nothing.png","NA","practice","null","","","",""
"d3-animate-choice","23","202373","0.0-23.0","1302","1492","15","Male","false","true","false","false","""event"",""trial"",""time""
""fullscreenenter"",""5"",""16590""
","
","
","""event"",""trial"",""time""
""fullscreenenter"",""5"",""16590""
","
","151.40000000596046","","49","","","3000","1","","","images/tutyellowplanet.jpg","null","images/tutalien3","null","images/tutalien3","images/t.png","NA","practice","null","","","",""
"d3-animate-choice","24","204390","0.0-24.0","1302","1492","15","Male","false","true","false","false","""event"",""trial"",""time""
""fullscreenenter"",""5"",""16590""
","
","
","""event"",""trial"",""time""
""fullscreenenter"",""5"",""16590""
","
","0","","49","","","3000","1","","","images/tutyellowplanet.jpg","null","images/tutalien3","null","images/tutalien3","images/nothing.png","NA","practice","null","","","",""
"d3-animate-choice","25","206506","0.0-25.0","1302","1492","15","Male","false","true","false","false","""event"",""trial"",""time""
""fullscreenenter"",""5"",""16590""
","
","
","""event"",""trial"",""time""
""fullscreenenter"",""5"",""16590""
","
","113.79999999701977","","49","","","3000","1","","","images/tutyellowplanet.jpg","null","images/tutalien3","null","images/tutalien3","images/nothing.png","NA","practice","null","","","",""
"d3-animate-choice","26","208645","0.0-26.0","1302","1492","15","Male","false","true","false","false","""event"",""trial"",""time""
""fullscreenenter"",""5"",""16590""
","
","
","""event"",""trial"",""time""
""fullscreenenter"",""5"",""16590""
","
","134.20000000298023","","49","","","3000","1","","","images/tutyellowplanet.jpg","null","images/tutalien3","null","images/tutalien3","images/t.png","NA","practice","null","","","",""
"d3-animate-choice","27","210668","0.0-27.0","1302","1492","15","Male","false","true","false","false","""event"",""trial"",""time""
""fullscreenenter"",""5"",""16590""
","
","
","""event"",""trial"",""time""
""fullscreenenter"",""5"",""16590""
","
","21.600000008940697","","49","","","3000","1","","","images/tutyellowplanet.jpg","null","images/tutalien3","null","images/tutalien3","images/t.png","NA","practice","null","","","",""
"d3-animate-choice","28","212788","0.0-28.0","1302","1492","15","Male","false","true","false","false","""event"",""trial"",""time""
""fullscreenenter"",""5"",""16590""
","
","
","""event"",""trial"",""time""
""fullscreenenter"",""5"",""16590""
","
","117.8999999910593","","49","","","3000","1","","","images/tutyellowplanet.jpg","null","images/tutalien3","null","images/tutalien3","images/t.png","NA","practice","null","","","",""
"d3-animate-choice","29","214906","0.0-29.0","1302","1492","15","Male","false","true","false","false","""event"",""trial"",""time""
""fullscreenenter"",""5"",""16590""
","
","
","""event"",""trial"",""time""
""fullscreenenter"",""5"",""16590""
","
","104.59999999403954","","49","","","3000","1","","","images/tutyellowplanet.jpg","null","images/tutalien3","null","images/tutalien3","images/t.png","NA","practice","null","","","",""
"d3-instructions","30","220534","0.0-30.0","1302","1492","15","Male","false","true","false","false","""event"",""trial"",""time""
""fullscreenenter"",""5"",""16590""
","
","
","""event"",""trial"",""time""
""fullscreenenter"",""5"",""16590""
","
","","","","","","","","","","","","","","","","","","","","","",""
"d3-instructions","31","229857","0.0-31.0","1302","1492","15","Male","false","true","false","false","""event"",""trial"",""time""
""fullscreenenter"",""5"",""16590""
","
","
","""event"",""trial"",""time""
""fullscreenenter"",""5"",""16590""
","
","","","","","","","","","","","","","","","","","","","","","",""
"d3-instructions","32","236632","0.0-32.0","1302","1492","15","Male","false","true","false","false","""event"",""trial"",""time""
""fullscreenenter"",""5"",""16590""
","
","
","""event"",""trial"",""time""
""fullscreenenter"",""5"",""16590""
","
","","","","","","","","","","","","","","","","","","","","","",""
"d3-instructions","33","239729","0.0-33.0","1302","1492","15","Male","false","true","false","false","""event"",""trial"",""time""
""fullscreenenter"",""5"",""16590""
","
","
","""event"",""trial"",""time""
""fullscreenenter"",""5"",""16590""
","
","","","","","","","","","","","","","","","","","","","","","",""
"d3-animate-choice","34","242426","0.0-34.0","1302","1492","15","Male","false","true","false","false","""event"",""trial"",""time""
""fullscreenenter"",""5"",""16590""
","
","
","""event"",""trial"",""time""
""fullscreenenter"",""5"",""16590""
","
","685.9000000059605","","49","","","3000","1","","","images/tutgreenplanet.jpg","images/tutalien1","images/tutalien2","null","images/tutalien2","images/t.png","NA","practice","null","","","",""
"d3-animate-choice","35","244652","0.0-35.0","1302","1492","15","Male","false","true","false","false","""event"",""trial"",""time""
""fullscreenenter"",""5"",""16590""
","
","
","""event"",""trial"",""time""
""fullscreenenter"",""5"",""16590""
","
","223.69999998807907","","49","","","3000","1","","","images/tutgreenplanet.jpg","images/tutalien1","images/tutalien2","null","images/tutalien2","images/nothing.png","NA","practice","null","","","",""
"d3-animate-choice","36","246868","0.0-36.0","1302","1492","15","Male","false","true","false","false","""event"",""trial"",""time""
""fullscreenenter"",""5"",""16590""
","
","
","""event"",""trial"",""time""
""fullscreenenter"",""5"",""16590""
","
","214","","49","","","3000","1","","","images/tutgreenplanet.jpg","images/tutalien1","images/tutalien2","null","images/tutalien2","images/t.png","NA","practice","null","","","",""
"d3-animate-choice","37","249047","0.0-37.0","1302","1492","15","Male","false","true","false","false","""event"",""trial"",""time""
""fullscreenenter"",""5"",""16590""
","
","
","""event"",""trial"",""time""
""fullscreenenter"",""5"",""16590""
","
","177","","49","","","3000","1","","","images/tutgreenplanet.jpg","images/tutalien1","images/tutalien2","null","images/tutalien2","images/t.png","NA","practice","null","","","",""
"d3-animate-choice","38","251213","0.0-38.0","1302","1492","15","Male","false","true","false","false","""event"",""trial"",""time""
""fullscreenenter"",""5"",""16590""
","
","
","""event"",""trial"",""time""
""fullscreenenter"",""5"",""16590""
","
","157.90000000596046","","49","","","3000","1","","","images/tutgreenplanet.jpg","images/tutalien1","images/tutalien2","null","images/tutalien2","images/t.png","NA","practice","null","","","",""
"d3-animate-choice","39","253383","0.0-39.0","1302","1492","15","Male","false","true","false","false","""event"",""trial"",""time""
""fullscreenenter"",""5"",""16590""
","
","
","""event"",""trial"",""time""
""fullscreenenter"",""5"",""16590""
","
","153.5","","49","","","3000","1","","","images/tutgreenplanet.jpg","images/tutalien1","images/tutalien2","null","images/tutalien2","images/t.png","NA","practice","null","","","",""
"d3-animate-choice","40","255515","0.0-40.0","1302","1492","15","Male","false","true","false","false","""event"",""trial"",""time""
""fullscreenenter"",""5"",""16590""
","
","
","""event"",""trial"",""time""
""fullscreenenter"",""5"",""16590""
","
","129.5","","49","","","3000","1","","","images/tutgreenplanet.jpg","images/tutalien1","images/tutalien2","null","images/tutalien2","images/t.png","NA","practice","null","","","",""
"d3-animate-choice","41","257646","0.0-41.0","1302","1492","15","Male","false","true","false","false","""event"",""trial"",""time""
""fullscreenenter"",""5"",""16590""
","
","
","""event"",""trial"",""time""
""fullscreenenter"",""5"",""16590""
","
","128.1000000089407","","49","","","3000","1","","","images/tutgreenplanet.jpg","images/tutalien1","images/tutalien2","null","images/tutalien2","images/t.png","NA","practice","null","","","",""
"d3-animate-choice","42","259717","0.0-42.0","1302","1492","15","Male","false","true","false","false","""event"",""trial"",""time""
""fullscreenenter"",""5"",""16590""
","
","
","""event"",""trial"",""time""
""fullscreenenter"",""5"",""16590""
","
","68.5","","49","","","3000","1","","","images/tutgreenplanet.jpg","images/tutalien1","images/tutalien2","null","images/tutalien2","images/t.png","NA","practice","null","","","",""
"d3-animate-choice","43","261904","0.0-43.0","1302","1492","15","Male","false","true","false","false","""event"",""trial"",""time""
""fullscreenenter"",""5"",""16590""
","
","
","""event"",""trial"",""time""
""fullscreenenter"",""5"",""16590""
","
","179.79999999701977","","49","","","3000","1","","","images/tutgreenplanet.jpg","images/tutalien1","images/tutalien2","null","images/tutalien2","images/t.png","NA","practice","null","","","",""
"d3-instructions","44","274169","0.0-44.0","1302","1492","15","Male","false","true","false","false","""event"",""trial"",""time""
""fullscreenenter"",""5"",""16590""
","
","
","""event"",""trial"",""time""
""fullscreenenter"",""5"",""16590""
","
","","","","","","","","","","","","","","","","","","","","","",""
"d3-instructions","45","279770","0.0-45.0","1302","1492","15","Male","false","true","false","false","""event"",""trial"",""time""
""fullscreenenter"",""5"",""16590""
","
","
","""event"",""trial"",""time""
""fullscreenenter"",""5"",""16590""
","
","","","","","","","","","","","","","","","","","","","","","",""
"d3-instructions","46","284255","0.0-46.0","1302","1492","15","Male","false","true","false","false","""event"",""trial"",""time""
""fullscreenenter"",""5"",""16590""
","
","
","""event"",""trial"",""time""
""fullscreenenter"",""5"",""16590""
","
","","","","","","","","","","","","","","","","","","","","","",""
"d3-instructions","47","301108","0.0-47.0","1302","1492","15","Male","false","true","false","false","""event"",""trial"",""time""
""fullscreenenter"",""5"",""16590""
","
","
","""event"",""trial"",""time""
""fullscreenenter"",""5"",""16590""
","
","","","","","","","","","","","","","","","","","","","","","",""
"d3-instructions","48","307018","0.0-48.0","1302","1492","15","Male","false","true","false","false","""event"",""trial"",""time""
""fullscreenenter"",""5"",""16590""
","
","
","""event"",""trial"",""time""
""fullscreenenter"",""5"",""16590""
","
","","","","","","","","","","","","","","","","","","","","","",""
"d3-instructions","49","317321","0.0-49.0","1302","1492","15","Male","false","true","false","false","""event"",""trial"",""time""
""fullscreenenter"",""5"",""16590""
","
","
","""event"",""trial"",""time""
""fullscreenenter"",""5"",""16590""
","
","","","","","","","","","","","","","","","","","","","","","",""
"d3-instructions","50","326441","0.0-50.0","1302","1492","15","Male","false","true","false","false","""event"",""trial"",""time""
""fullscreenenter"",""5"",""16590""
","
","
","""event"",""trial"",""time""
""fullscreenenter"",""5"",""16590""
","
","","","","","","","","","","","","","","","","","","","","","",""
"d3-instructions","51","328698","0.0-51.0","1302","1492","15","Male","false","true","false","false","""event"",""trial"",""time""
""fullscreenenter"",""5"",""16590""
","
","
","""event"",""trial"",""time""
""fullscreenenter"",""5"",""16590""
","
","","","","","","","","","","","","","","","","","","","","","",""
"d3-instructions","52","330698","0.0-52.0","1302","1492","15","Male","false","true","false","false","""event"",""trial"",""time""
""fullscreenenter"",""5"",""16590""
","
","
","""event"",""trial"",""time""
""fullscreenenter"",""5"",""16590""
","
","","","","","","","","","","","","","","","","","","","","","",""
"d3-instructions","53","343792","0.0-53.0","1302","1492","15","Male","false","true","false","false","""event"",""trial"",""time""
""fullscreenenter"",""5"",""16590""
","
","
","""event"",""trial"",""time""
""fullscreenenter"",""5"",""16590""
","
","","","","","","","","","","","","","","","","","","","","","",""
"d3-instructions","54","355900","0.0-54.0","1302","1492","15","Male","false","true","false","false","""event"",""trial"",""time""
""fullscreenenter"",""5"",""16590""
","
","
","""event"",""trial"",""time""
""fullscreenenter"",""5"",""16590""
","
","","","","","","","","","","","","","","","","","","","","","",""
"d3-instructions","55","365311","0.0-55.0","1302","1492","15","Male","false","true","false","false","""event"",""trial"",""time""
""fullscreenenter"",""5"",""16590""
","
","
","""event"",""trial"",""time""
""fullscreenenter"",""5"",""16590""
","
","","","","","","","","","","","","","","","","","","","","","",""
"d3-instructions","56","372822","0.0-56.0","1302","1492","15","Male","false","true","false","false","""event"",""trial"",""time""
""fullscreenenter"",""5"",""16590""
","
","
","""event"",""trial"",""time""
""fullscreenenter"",""5"",""16590""
","
","","","","","","","","","","","","","","","","","","","","","",""
"d3-instructions","57","382165","0.0-57.0","1302","1492","15","Male","false","true","false","false","""event"",""trial"",""time""
""fullscreenenter"",""5"",""16590""
","
","
","""event"",""trial"",""time""
""fullscreenenter"",""5"",""16590""
","
","","","","","","","","","","","","","","","","","","","","","",""
"d3-instructions","58","392060","0.0-58.0","1302","1492","15","Male","false","true","false","false","""event"",""trial"",""time""
""fullscreenenter"",""5"",""16590""
","
","
","""event"",""trial"",""time""
""fullscreenenter"",""5"",""16590""
","
","","","","","","","","","","","","","","","","","","","","","",""
"d3-instructions","59","396498","0.0-59.0","1302","1492","15","Male","false","true","false","false","""event"",""trial"",""time""
""fullscreenenter"",""5"",""16590""
","
","
","""event"",""trial"",""time""
""fullscreenenter"",""5"",""16590""
","
","","","","","","","","","","","","","","","","","","","","","",""
"d3-instructions","60","404093","0.0-60.0","1302","1492","15","Male","false","true","false","false","""event"",""trial"",""time""
""fullscreenenter"",""5"",""16590""
","
","
","""event"",""trial"",""time""
""fullscreenenter"",""5"",""16590""
","
","","","","","","","","","","","","","","","","","","","","","",""
"d3-animate-choice","61","407255","0.0-61.0-0.0","1302","1492","15","Male","false","true","false","false","""event"",""trial"",""time""
""fullscreenenter"",""5"",""16590""
","
","
","""event"",""trial"",""time""
""fullscreenenter"",""5"",""16590""
","
","1158","","48","","","3000","1","","","images/earth.jpg","images/tutrocket2","images/tutrocket1","null","images/tutrocket2","","1","practice","null","2","","",""
"d3-animate-choice","62","410311","0.0-61.0-1.0","1302","1492","15","Male","false","true","false","false","""event"",""trial"",""time""
""fullscreenenter"",""5"",""16590""
","
","
","""event"",""trial"",""time""
""fullscreenenter"",""5"",""16590""
","
","1049.9000000059605","","49","","","3000","1","","","images/tutyellowplanet.jpg","images/tutalien4","images/tutalien3","images/tutrocket2","images/tutalien3","images/nothing.png","2","practice","true","1","common","0","2022-04-29 21:13:24.519"
"two-step-fixation","63","411313","0.0-61.0-2.0","1302","1492","15","Male","false","true","false","false","""event"",""trial"",""time""
""fullscreenenter"",""5"",""16590""
","
","
","""event"",""trial"",""time""
""fullscreenenter"",""5"",""16590""
","
","","images/earth.jpg","","","","","","","","","","","","","","fixation","","","","","",""
"d3-animate-choice","64","414320","0.0-61.0-0.1","1302","1492","15","Male","false","true","false","false","""event"",""trial"",""time""
""fullscreenenter"",""5"",""16590""
","
","
","""event"",""trial"",""time""
""fullscreenenter"",""5"",""16590""
","
","1005","","48","","","3000","1","","","images/earth.jpg","images/tutrocket2","images/tutrocket1","null","images/tutrocket2","","1","practice","null","2","","",""
"d3-animate-choice","65","417070","0.0-61.0-1.1","1302","1492","15","Male","false","true","false","false","""event"",""trial"",""time""
""fullscreenenter"",""5"",""16590""
","
","
","""event"",""trial"",""time""
""fullscreenenter"",""5"",""16590""
","
","748","","48","","","3000","1","","","images/tutgreenplanet.jpg","images/tutalien2","images/tutalien1","images/tutrocket2","images/tutalien2","images/nothing.png","2","practice","false","2","rare","0","2022-04-29 21:13:31.278"
"two-step-fixation","66","418072","0.0-61.0-2.1","1302","1492","15","Male","false","true","false","false","""event"",""trial"",""time""
""fullscreenenter"",""5"",""16590""
","
","
","""event"",""trial"",""time""
""fullscreenenter"",""5"",""16590""
","
","","images/earth.jpg","","","","","","","","","","","","","","fixation","","","","","",""
"d3-animate-choice","67","420430","0.0-61.0-0.2","1302","1492","15","Male","false","true","false","false","""event"",""trial"",""time""
""fullscreenenter"",""5"",""16590""
","
","
","""event"",""trial"",""time""
""fullscreenenter"",""5"",""16590""
","
","343.79999999701977","","48","","","3000","1","","","images/earth.jpg","images/tutrocket2","images/tutrocket1","null","images/tutrocket2","","1","practice","null","2","","",""
"d3-animate-choice","68","423097","0.0-61.0-1.2","1302","1492","15","Male","false","true","false","false","""event"",""trial"",""time""
""fullscreenenter"",""5"",""16590""
","
","
","""event"",""trial"",""time""
""fullscreenenter"",""5"",""16590""
","
","664.7999999970198","","49","","","3000","1","","","images/tutyellowplanet.jpg","images/tutalien4","images/tutalien3","images/tutrocket2","images/tutalien3","images/nothing.png","2","practice","true","1","common","0","2022-04-29 21:13:37.305"
"two-step-fixation","69","424099","0.0-61.0-2.2","1302","1492","15","Male","false","true","false","false","""event"",""trial"",""time""
""fullscreenenter"",""5"",""16590""
","
","
","""event"",""trial"",""time""
""fullscreenenter"",""5"",""16590""
","
","","images/earth.jpg","","","","","","","","","","","","","","fixation","","","","","",""
"d3-animate-choice","70","426361","0.0-61.0-0.3","1302","1492","15","Male","false","true","false","false","""event"",""trial"",""time""
""fullscreenenter"",""5"",""16590""
","
","
","""event"",""trial"",""time""
""fullscreenenter"",""5"",""16590""
","
","248.59999999403954","","48","","","3000","1","","","images/earth.jpg","images/tutrocket2","images/tutrocket1","null","images/tutrocket2","","1","practice","null","2","","",""
"d3-animate-choice","71","428606","0.0-61.0-1.3","1302","1492","15","Male","false","true","false","false","""event"",""trial"",""time""
""fullscreenenter"",""5"",""16590""
","
","
","""event"",""trial"",""time""
""fullscreenenter"",""5"",""16590""
","
","238.29999999701977","","48","","","3000","1","","","images/tutyellowplanet.jpg","images/tutalien4","images/tutalien3","images/tutrocket2","images/tutalien4","images/nothing.png","2","practice","true","2","common","0","2022-04-29 21:13:42.814"
"two-step-fixation","72","429608","0.0-61.0-2.3","1302","1492","15","Male","false","true","false","false","""event"",""trial"",""time""
""fullscreenenter"",""5"",""16590""
","
","
","""event"",""trial"",""time""
""fullscreenenter"",""5"",""16590""
","
","","images/earth.jpg","","","","","","","","","","","","","","fixation","","","","","",""
"d3-animate-choice","73","431904","0.0-61.0-0.4","1302","1492","15","Male","false","true","false","false","""event"",""trial"",""time""
""fullscreenenter"",""5"",""16590""
","
","
","""event"",""trial"",""time""
""fullscreenenter"",""5"",""16590""
","
","289.09999999403954","","49","","","3000","1","","","images/earth.jpg","images/tutrocket2","images/tutrocket1","null","images/tutrocket1","","1","practice","null","1","","",""
"d3-animate-choice","74","434148","0.0-61.0-1.4","1302","1492","15","Male","false","true","false","false","""event"",""trial"",""time""
""fullscreenenter"",""5"",""16590""
","
","
","""event"",""trial"",""time""
""fullscreenenter"",""5"",""16590""
","
","238.70000000298023","","49","","","3000","1","","","images/tutyellowplanet.jpg","images/tutalien4","images/tutalien3","images/tutrocket1","images/tutalien3","images/nothing.png","2","practice","false","1","rare","0","2022-04-29 21:13:48.356"
"two-step-fixation","75","435166","0.0-61.0-2.4","1302","1492","15","Male","false","true","false","false","""event"",""trial"",""time""
""fullscreenenter"",""5"",""16590""
","
","
","""event"",""trial"",""time""
""fullscreenenter"",""5"",""16590""
","
","","images/earth.jpg","","","","","","","","","","","","","","fixation","","","","","",""
"d3-animate-choice","76","437402","0.0-61.0-0.5","1302","1492","15","Male","false","true","false","false","""event"",""trial"",""time""
""fullscreenenter"",""5"",""16590""
","
","
","""event"",""trial"",""time""
""fullscreenenter"",""5"",""16590""
","
","234.79999999701977","","49","","","3000","1","","","images/earth.jpg","images/tutrocket2","images/tutrocket1","null","images/tutrocket1","","1","practice","null","1","","",""
"d3-animate-choice","77","440003","0.0-61.0-1.5","1302","1492","15","Male","false","true","false","false","""event"",""trial"",""time""
""fullscreenenter"",""5"",""16590""
","
","
","""event"",""trial"",""time""
""fullscreenenter"",""5"",""16590""
","
","597.4000000059605","","48","","","3000","1","","","images/tutyellowplanet.jpg","images/tutalien4","images/tutalien3","images/tutrocket1","images/tutalien4","images/t.png","2","practice","false","2","rare","1","2022-04-29 21:13:54.211"
"two-step-fixation","78","441004","0.0-61.0-2.5","1302","1492","15","Male","false","true","false","false","""event"",""trial"",""time""
""fullscreenenter"",""5"",""16590""
","
","
","""event"",""trial"",""time""
""fullscreenenter"",""5"",""16590""
","
","","images/earth.jpg","","","","","","","","","","","","","","fixation","","","","","",""
"d3-animate-choice","79","443305","0.0-61.0-0.6","1302","1492","15","Male","false","true","false","false","""event"",""trial"",""time""
""fullscreenenter"",""5"",""16590""
","
","
","""event"",""trial"",""time""
""fullscreenenter"",""5"",""16590""
","
","297.90000000596046","","48","","","3000","1","","","images/earth.jpg","images/tutrocket2","images/tutrocket1","null","images/tutrocket2","","1","practice","null","2","","",""
"d3-animate-choice","80","445746","0.0-61.0-1.6","1302","1492","15","Male","false","true","false","false","""event"",""trial"",""time""
""fullscreenenter"",""5"",""16590""
","
","
","""event"",""trial"",""time""
""fullscreenenter"",""5"",""16590""
","
","439.29999999701977","","49","","","3000","1","","","images/tutgreenplanet.jpg","images/tutalien2","images/tutalien1","images/tutrocket2","images/tutalien1","images/nothing.png","2","practice","false","1","rare","0","2022-04-29 21:13:59.954"
"two-step-fixation","81","446748","0.0-61.0-2.6","1302","1492","15","Male","false","true","false","false","""event"",""trial"",""time""
""fullscreenenter"",""5"",""16590""
","
","
","""event"",""trial"",""time""
""fullscreenenter"",""5"",""16590""
","
","","images/earth.jpg","","","","","","","","","","","","","","fixation","","","","","",""
"d3-animate-choice","82","448878","0.0-61.0-0.7","1302","1492","15","Male","false","true","false","false","""event"",""trial"",""time""
""fullscreenenter"",""5"",""16590""
","
","
","""event"",""trial"",""time""
""fullscreenenter"",""5"",""16590""
","
","127.5","","48","","","3000","1","","","images/earth.jpg","images/tutrocket2","images/tutrocket1","null","images/tutrocket2","","1","practice","null","2","","",""
"d3-animate-choice","83","451473","0.0-61.0-1.7","1302","1492","15","Male","false","true","false","false","""event"",""trial"",""time""
""fullscreenenter"",""5"",""16590""
","
","
","""event"",""trial"",""time""
""fullscreenenter"",""5"",""16590""
","
","592.2999999970198","","48","","","3000","1","","","images/tutyellowplanet.jpg","images/tutalien4","images/tutalien3","images/tutrocket2","images/tutalien4","images/nothing.png","2","practice","true","2","common","0","2022-04-29 21:14:05.681"
"two-step-fixation","84","452476","0.0-61.0-2.7","1302","1492","15","Male","false","true","false","false","""event"",""trial"",""time""
""fullscreenenter"",""5"",""16590""
","
","
","""event"",""trial"",""time""
""fullscreenenter"",""5"",""16590""
","
","","images/earth.jpg","","","","","","","","","","","","","","fixation","","","","","",""
"d3-animate-choice","85","454680","0.0-61.0-0.8","1302","1492","15","Male","false","true","false","false","""event"",""trial"",""time""
""fullscreenenter"",""5"",""16590""
","
","
","""event"",""trial"",""time""
""fullscreenenter"",""5"",""16590""
","
","202.20000000298023","","48","","","3000","1","","","images/earth.jpg","images/tutrocket2","images/tutrocket1","null","images/tutrocket2","","1","practice","null","2","","",""
"d3-animate-choice","86","457042","0.0-61.0-1.8","1302","1492","15","Male","false","true","false","false","""event"",""trial"",""time""
""fullscreenenter"",""5"",""16590""
","
","
","""event"",""trial"",""time""
""fullscreenenter"",""5"",""16590""
","
","359","","48","","","3000","1","","","images/tutgreenplanet.jpg","images/tutalien2","images/tutalien1","images/tutrocket2","images/tutalien2","images/t.png","2","practice","false","2","rare","1","2022-04-29 21:14:11.250"
"two-step-fixation","87","458045","0.0-61.0-2.8","1302","1492","15","Male","false","true","false","false","""event"",""trial"",""time""
""fullscreenenter"",""5"",""16590""
","
","
","""event"",""trial"",""time""
""fullscreenenter"",""5"",""16590""
","
","","images/earth.jpg","","","","","","","","","","","","","","fixation","","","","","",""
"d3-animate-choice","88","460375","0.0-61.0-0.9","1302","1492","15","Male","false","true","false","false","""event"",""trial"",""time""
""fullscreenenter"",""5"",""16590""
","
","
","""event"",""trial"",""time""
""fullscreenenter"",""5"",""16590""
","
","327.5","","49","","","3000","1","","","images/earth.jpg","images/tutrocket2","images/tutrocket1","null","images/tutrocket1","","1","practice","null","1","","",""
"d3-animate-choice","89","463310","0.0-61.0-1.9","1302","1492","15","Male","false","true","false","false","""event"",""trial"",""time""
""fullscreenenter"",""5"",""16590""
","
","
","""event"",""trial"",""time""
""fullscreenenter"",""5"",""16590""
","
","932.6000000089407","","48","","","3000","1","","","images/tutyellowplanet.jpg","images/tutalien4","images/tutalien3","images/tutrocket1","images/tutalien4","images/nothing.png","2","practice","false","2","rare","0","2022-04-29 21:14:17.518"
"two-step-fixation","90","464312","0.0-61.0-2.9","1302","1492","15","Male","false","true","false","false","""event"",""trial"",""time""
""fullscreenenter"",""5"",""16590""
","
","
","""event"",""trial"",""time""
""fullscreenenter"",""5"",""16590""
","
","","images/earth.jpg","","","","","","","","","","","","","","fixation","","","","","",""
"d3-animate-choice","91","466477","0.0-61.0-0.10","1302","1492","15","Male","false","true","false","false","""event"",""trial"",""time""
""fullscreenenter"",""5"",""16590""
","
","
","""event"",""trial"",""time""
""fullscreenenter"",""5"",""16590""
","
","163.5","","48","","","3000","1","","","images/earth.jpg","images/tutrocket2","images/tutrocket1","null","images/tutrocket2","","1","practice","null","2","","",""
"d3-animate-choice","92","469184","0.0-61.0-1.10","1302","1492","15","Male","false","true","false","false","""event"",""trial"",""time""
""fullscreenenter"",""5"",""16590""
","
","
","""event"",""trial"",""time""
""fullscreenenter"",""5"",""16590""
","
","704.1000000089407","","49","","","3000","1","","","images/tutyellowplanet.jpg","images/tutalien4","images/tutalien3","images/tutrocket2","images/tutalien3","images/nothing.png","2","practice","true","1","common","0","2022-04-29 21:14:23.392"
"two-step-fixation","93","470186","0.0-61.0-2.10","1302","1492","15","Male","false","true","false","false","""event"",""trial"",""time""
""fullscreenenter"",""5"",""16590""
","
","
","""event"",""trial"",""time""
""fullscreenenter"",""5"",""16590""
","
","","images/earth.jpg","","","","","","","","","","","","","","fixation","","","","","",""
"d3-animate-choice","94","472446","0.0-61.0-0.11","1302","1492","15","Male","false","true","false","false","""event"",""trial"",""time""
""fullscreenenter"",""5"",""16590""
","
","
","""event"",""trial"",""time""
""fullscreenenter"",""5"",""16590""
","
","255.90000000596046","","48","","","3000","1","","","images/earth.jpg","images/tutrocket2","images/tutrocket1","null","images/tutrocket2","","1","practice","null","2","","",""
"d3-animate-choice","95","475164","0.0-61.0-1.11","1302","1492","15","Male","false","true","false","false","""event"",""trial"",""time""
""fullscreenenter"",""5"",""16590""
","
","
","""event"",""trial"",""time""
""fullscreenenter"",""5"",""16590""
","
","705.5999999940395","","48","","","3000","1","","","images/tutgreenplanet.jpg","images/tutalien2","images/tutalien1","images/tutrocket2","images/tutalien2","images/nothing.png","2","practice","false","2","rare","0","2022-04-29 21:14:29.372"
"two-step-fixation","96","476170","0.0-61.0-2.11","1302","1492","15","Male","false","true","false","false","""event"",""trial"",""time""
""fullscreenenter"",""5"",""16590""
","
","
","""event"",""trial"",""time""
""fullscreenenter"",""5"",""16590""
","
","","images/earth.jpg","","","","","","","","","","","","","","fixation","","","","","",""
"d3-animate-choice","97","478469","0.0-61.0-0.12","1302","1492","15","Male","false","true","false","false","""event"",""trial"",""time""
""fullscreenenter"",""5"",""16590""
","
","
","""event"",""trial"",""time""
""fullscreenenter"",""5"",""16590""
","
","297.29999999701977","","49","","","3000","1","","","images/earth.jpg","images/tutrocket2","images/tutrocket1","null","images/tutrocket1","","1","practice","null","1","","",""
"d3-animate-choice","98","480944","0.0-61.0-1.12","1302","1492","15","Male","false","true","false","false","""event"",""trial"",""time""
""fullscreenenter"",""5"",""16590""
","
","
","""event"",""trial"",""time""
""fullscreenenter"",""5"",""16590""
","
","472.90000000596046","","48","","","3000","1","","","images/tutgreenplanet.jpg","images/tutalien2","images/tutalien1","images/tutrocket1","images/tutalien2","images/nothing.png","2","practice","true","2","common","0","2022-04-29 21:14:35.152"
"two-step-fixation","99","481960","0.0-61.0-2.12","1302","1492","15","Male","false","true","false","false","""event"",""trial"",""time""
""fullscreenenter"",""5"",""16590""
","
","
","""event"",""trial"",""time""
""fullscreenenter"",""5"",""16590""
","
","","images/earth.jpg","","","","","","","","","","","","","","fixation","","","","","",""
"d3-animate-choice","100","484617","0.0-61.0-0.13","1302","1492","15","Male","false","true","false","false","""event"",""trial"",""time""
""fullscreenenter"",""5"",""16590""
","
","
","""event"",""trial"",""time""
""fullscreenenter"",""5"",""16590""
","
","654.9000000059605","","48","","","3000","1","","","images/earth.jpg","images/tutrocket2","images/tutrocket1","null","images/tutrocket2","","1","practice","null","2","","",""
"d3-animate-choice","101","486950","0.0-61.0-1.13","1302","1492","15","Male","false","true","false","false","""event"",""trial"",""time""
""fullscreenenter"",""5"",""16590""
","
","
","""event"",""trial"",""time""
""fullscreenenter"",""5"",""16590""
","
","325.40000000596046","","49","","","3000","1","","","images/tutyellowplanet.jpg","images/tutalien4","images/tutalien3","images/tutrocket2","images/tutalien3","images/nothing.png","2","practice","true","1","common","0","2022-04-29 21:14:41.158"
"two-step-fixation","102","487953","0.0-61.0-2.13","1302","1492","15","Male","false","true","false","false","""event"",""trial"",""time""
""fullscreenenter"",""5"",""16590""
","
","
","""event"",""trial"",""time""
""fullscreenenter"",""5"",""16590""
","
","","images/earth.jpg","","","","","","","","","","","","","","fixation","","","","","",""
"d3-animate-choice","103","490172","0.0-61.0-0.14","1302","1492","15","Male","false","true","false","false","""event"",""trial"",""time""
""fullscreenenter"",""5"",""16590""
","
","
","""event"",""trial"",""time""
""fullscreenenter"",""5"",""16590""
","
","216.09999999403954","","49","","","3000","1","","","images/earth.jpg","images/tutrocket2","images/tutrocket1","null","images/tutrocket1","","1","practice","null","1","","",""
"d3-animate-choice","104","492596","0.0-61.0-1.14","1302","1492","15","Male","false","true","false","false","""event"",""trial"",""time""
""fullscreenenter"",""5"",""16590""
","
","
","""event"",""trial"",""time""
""fullscreenenter"",""5"",""16590""
","
","422.29999999701977","","49","","","3000","1","","","images/tutgreenplanet.jpg","images/tutalien2","images/tutalien1","images/tutrocket1","images/tutalien1","images/nothing.png","2","practice","true","1","common","0","2022-04-29 21:14:46.804"
"two-step-fixation","105","493599","0.0-61.0-2.14","1302","1492","15","Male","false","true","false","false","""event"",""trial"",""time""
""fullscreenenter"",""5"",""16590""
","
","
","""event"",""trial"",""time""
""fullscreenenter"",""5"",""16590""
","
","","images/earth.jpg","","","","","","","","","","","","","","fixation","","","","","",""
"d3-animate-choice","106","496117","0.0-61.0-0.15","1302","1492","15","Male","false","true","false","false","""event"",""trial"",""time""
""fullscreenenter"",""5"",""16590""
","
","
","""event"",""trial"",""time""
""fullscreenenter"",""5"",""16590""
","
","515.2999999970198","","48","","","3000","1","","","images/earth.jpg","images/tutrocket2","images/tutrocket1","null","images/tutrocket2","","1","practice","null","2","","",""
"d3-animate-choice","107","498479","0.0-61.0-1.15","1302","1492","15","Male","false","true","false","false","""event"",""trial"",""time""
""fullscreenenter"",""5"",""16590""
","
","
","""event"",""trial"",""time""
""fullscreenenter"",""5"",""16590""
","
","359.59999999403954","","48","","","3000","1","","","images/tutyellowplanet.jpg","images/tutalien4","images/tutalien3","images/tutrocket2","images/tutalien4","images/t.png","2","practice","true","2","common","1","2022-04-29 21:14:52.687"
"two-step-fixation","108","499481","0.0-61.0-2.15","1302","1492","15","Male","false","true","false","false","""event"",""trial"",""time""
""fullscreenenter"",""5"",""16590""
","
","
","""event"",""trial"",""time""
""fullscreenenter"",""5"",""16590""
","
","","images/earth.jpg","","","","","","","","","","","","","","fixation","","","","","",""
"d3-animate-choice","109","501773","0.0-61.0-0.16","1302","1492","15","Male","false","true","false","false","""event"",""trial"",""time""
""fullscreenenter"",""5"",""16590""
","
","
","""event"",""trial"",""time""
""fullscreenenter"",""5"",""16590""
","
","290.20000000298023","","48","","","3000","1","","","images/earth.jpg","images/tutrocket2","images/tutrocket1","null","images/tutrocket2","","1","practice","null","2","","",""
"d3-animate-choice","110","504105","0.0-61.0-1.16","1302","1492","15","Male","false","true","false","false","""event"",""trial"",""time""
""fullscreenenter"",""5"",""16590""
","
","
","""event"",""trial"",""time""
""fullscreenenter"",""5"",""16590""
","
","329.09999999403954","","48","","","3000","1","","","images/tutgreenplanet.jpg","images/tutalien2","images/tutalien1","images/tutrocket2","images/tutalien2","images/nothing.png","2","practice","false","2","rare","0","2022-04-29 21:14:58.313"
"two-step-fixation","111","505107","0.0-61.0-2.16","1302","1492","15","Male","false","true","false","false","""event"",""trial"",""time""
""fullscreenenter"",""5"",""16590""
","
","
","""event"",""trial"",""time""
""fullscreenenter"",""5"",""16590""
","
","","images/earth.jpg","","","","","","","","","","","","","","fixation","","","","","",""
"d3-animate-choice","112","507423","0.0-61.0-0.17","1302","1492","15","Male","false","true","false","false","""event"",""trial"",""time""
""fullscreenenter"",""5"",""16590""
","
","
","""event"",""trial"",""time""
""fullscreenenter"",""5"",""16590""
","
","313","","49","","","3000","1","","","images/earth.jpg","images/tutrocket2","images/tutrocket1","null","images/tutrocket1","","1","practice","null","1","","",""
"d3-animate-choice","113","509742","0.0-61.0-1.17","1302","1492","15","Male","false","true","false","false","""event"",""trial"",""time""
""fullscreenenter"",""5"",""16590""
","
","
","""event"",""trial"",""time""
""fullscreenenter"",""5"",""16590""
","
","316.70000000298023","","48","","","3000","1","","","images/tutgreenplanet.jpg","images/tutalien2","images/tutalien1","images/tutrocket1","images/tutalien2","images/nothing.png","2","practice","true","2","common","0","2022-04-29 21:15:03.950"
"two-step-fixation","114","510745","0.0-61.0-2.17","1302","1492","15","Male","false","true","false","false","""event"",""trial"",""time""
""fullscreenenter"",""5"",""16590""
","
","
","""event"",""trial"",""time""
""fullscreenenter"",""5"",""16590""
","
","","images/earth.jpg","","","","","","","","","","","","","","fixation","","","","","",""
"d3-animate-choice","115","512809","0.0-61.0-0.18","1302","1492","15","Male","false","true","false","false","""event"",""trial"",""time""
""fullscreenenter"",""5"",""16590""
","
","
","""event"",""trial"",""time""
""fullscreenenter"",""5"",""16590""
","
","62.20000000298023","","48","","","3000","1","","","images/earth.jpg","images/tutrocket2","images/tutrocket1","null","images/tutrocket2","","1","practice","null","2","","",""
"d3-animate-choice","116","515419","0.0-61.0-1.18","1302","1492","15","Male","false","true","false","false","""event"",""trial"",""time""
""fullscreenenter"",""5"",""16590""
","
","
","""event"",""trial"",""time""
""fullscreenenter"",""5"",""16590""
","
","608.4000000059605","","49","","","3000","1","","","images/tutyellowplanet.jpg","images/tutalien4","images/tutalien3","images/tutrocket2","images/tutalien3","images/t.png","2","practice","true","1","common","1","2022-04-29 21:15:09.628"
"two-step-fixation","117","516422","0.0-61.0-2.18","1302","1492","15","Male","false","true","false","false","""event"",""trial"",""time""
""fullscreenenter"",""5"",""16590""
","
","
","""event"",""trial"",""time""
""fullscreenenter"",""5"",""16590""
","
","","images/earth.jpg","","","","","","","","","","","","","","fixation","","","","","",""
"d3-animate-choice","118","518526","0.0-61.0-0.19","1302","1492","15","Male","false","true","false","false","""event"",""trial"",""time""
""fullscreenenter"",""5"",""16590""
","
","
","""event"",""trial"",""time""
""fullscreenenter"",""5"",""16590""
","
","101.79999999701977","","49","","","3000","1","","","images/earth.jpg","images/tutrocket2","images/tutrocket1","null","images/tutrocket1","","1","practice","null","1","","",""
"d3-animate-choice","119","521293","0.0-61.0-1.19","1302","1492","15","Male","false","true","false","false","""event"",""trial"",""time""
""fullscreenenter"",""5"",""16590""
","
","
","""event"",""trial"",""time""
""fullscreenenter"",""5"",""16590""
","
","764.2999999970198","","49","","","3000","1","","","images/tutgreenplanet.jpg","images/tutalien2","images/tutalien1","images/tutrocket1","images/tutalien1","images/t.png","2","practice","true","1","common","1","2022-04-29 21:15:15.501"
"two-step-fixation","120","522295","0.0-61.0-2.19","1302","1492","15","Male","false","true","false","false","""event"",""trial"",""time""
""fullscreenenter"",""5"",""16590""
","
","
","""event"",""trial"",""time""
""fullscreenenter"",""5"",""16590""
","
","","images/earth.jpg","","","","","","","","","","","","","","fixation","","","","","",""
"d3-instructions","121","527582","0.0-62.0","1302","1492","15","Male","false","true","false","false","""event"",""trial"",""time""
""fullscreenenter"",""5"",""16590""
","
","
","""event"",""trial"",""time""
""fullscreenenter"",""5"",""16590""
","
","","","","","","","","","","","","","","","","","","","","","",""
"audio-keyboard-response","122","531091","0.0-63.0","1302","1492","15","Male","false","true","false","false","""event"",""trial"",""time""
""fullscreenenter"",""5"",""16590""
","
","
","""event"",""trial"",""time""
""fullscreenenter"",""5"",""16590""
","
","3509","audio/instructions/treasure_feedback.wav","32","","","","","","","","","","","","","","","","","","",""
"d3-instructions","123","548283","0.0-64.0","1302","1492","15","Male","false","true","false","false","""event"",""trial"",""time""
""fullscreenenter"",""5"",""16590""
","
","
","""event"",""trial"",""time""
""fullscreenenter"",""5"",""16590""
","
","","","","","","","","","","","","","","","","","","","","","",""
"d3-instructions","124","556841","0.0-65.0","1302","1492","15","Male","false","true","false","false","""event"",""trial"",""time""
""fullscreenenter"",""5"",""16590""
","
","
","""event"",""trial"",""time""
""fullscreenenter"",""5"",""16590""
","
","","","","","","","","","","","","","","","","","","","","","",""
"d3-instructions","125","580795","0.0-66.0","1302","1492","15","Male","false","true","false","false","""event"",""trial"",""time""
""fullscreenenter"",""5"",""16590""
","
","
","""event"",""trial"",""time""
""fullscreenenter"",""5"",""16590""
","
","","","","","","","","","","","","","","","","","","","","","",""
"d3-instructions","126","589784","0.0-67.0","1302","1492","15","Male","false","true","false","false","""event"",""trial"",""time""
""fullscreenenter"",""5"",""16590""
","
","
","""event"",""trial"",""time""
""fullscreenenter"",""5"",""16590""
","
","","","","","","","","","","","","","","","","","","","","","",""
"d3-instructions","127","594469","0.0-68.0","1302","1492","15","Male","false","true","false","false","""event"",""trial"",""time""
""fullscreenenter"",""5"",""16590""
","
","
","""event"",""trial"",""time""
""fullscreenenter"",""5"",""16590""
","
","","","","","","","","","","","","","","","","","","","","","",""
"instructions-quiz","128","599240","0.0-69.0","1302","1492","15","Male","false","true","false","false","""event"",""trial"",""time""
""fullscreenenter"",""5"",""16590""
","
","
","""event"",""trial"",""time""
""fullscreenenter"",""5"",""16590""
","
","4769.79999999702","audio/quiz/Q1_Prompt.wav","","1","","","","","","","","","","","","","","","","","",""
"audio-keyboard-response","129","608403","0.0-70.0","1302","1492","15","Male","false","true","false","false","""event"",""trial"",""time""
""fullscreenenter"",""5"",""16590""
","
","
","""event"",""trial"",""time""
""fullscreenenter"",""5"",""16590""
","
","null","audio/quiz/Q1_Correct.wav","null","","","","","","","","","","","","","","","","","","",""
"instructions-quiz","130","612951","0.0-71.0","1302","1492","15","Male","false","true","false","false","""event"",""trial"",""time""
""fullscreenenter"",""5"",""16590""
","
","
","""event"",""trial"",""time""
""fullscreenenter"",""5"",""16590""
","
","4546.79999999702","audio/quiz/Q2_Prompt.wav","","0","","","","","","","","","","","","","","","","","",""
"audio-keyboard-response","131","615306","0.0-72.0","1302","1492","15","Male","false","true","false","false","""event"",""trial"",""time""
""fullscreenenter"",""5"",""16590""
","
","
","""event"",""trial"",""time""
""fullscreenenter"",""5"",""16590""
","
","2360","audio/quiz/Q2_Correct.wav","32","","","","","","","","","","","","","","","","","","",""
"instructions-quiz","132","618345","0.0-73.0","1302","1492","15","Male","false","true","false","false","""event"",""trial"",""time""
""fullscreenenter"",""5"",""16590""
","
","
","""event"",""trial"",""time""
""fullscreenenter"",""5"",""16590""
","
","3038.300000011921","audio/quiz/Q3_Prompt.wav","","1","","","","","","","","","","","","","","","","","",""
"audio-keyboard-response","133","619437","0.0-74.0","1302","1492","15","Male","false","true","false","false","""event"",""trial"",""time""
""fullscreenenter"",""5"",""16590""
","
","
","""event"",""trial"",""time""
""fullscreenenter"",""5"",""16590""
","
","1091","audio/quiz/Q3_Correct.wav","32","","","","","","","","","","","","","","","","","","",""
"d3-instructions","134","625380","0.0-75.0","1302","1492","15","Male","false","true","false","false","""event"",""trial"",""time""
""fullscreenenter"",""5"",""16590""
","
","
","""event"",""trial"",""time""
""fullscreenenter"",""5"",""16590""
","
","","","","","","","","","","","","","","","","","","","","","",""
"d3-animate-choice","135","628933","0.0-76.0-0.0","1302","1492","15","Male","false","true","false","false","""event"",""trial"",""time""
""fullscreenenter"",""5"",""16590""
","
","
","""event"",""trial"",""time""
""fullscreenenter"",""5"",""16590""
","
","1541.800000011921","","48","","","3000","1","","","images/earth.jpg","images/rocket1","images/rocket2","null","images/rocket1","","1","real","null","2","","",""
"d3-animate-choice","136","631727","0.0-76.0-1.0","1302","1492","15","Male","false","true","false","false","""event"",""trial"",""time""
""fullscreenenter"",""5"",""16590""
","
","
","""event"",""trial"",""time""
""fullscreenenter"",""5"",""16590""
","
","791.7000000029802","","49","","","3000","1","","","images/purpleplanet.jpg","images/alien4","images/alien3","images/rocket1","images/alien3","images/nothing.png","2","real","false","1","rare","0","2022-04-29 21:17:05.935"
"two-step-fixation","137","632730","0.0-76.0-2.0","1302","1492","15","Male","false","true","false","false","""event"",""trial"",""time""
""fullscreenenter"",""5"",""16590""
","
","
","""event"",""trial"",""time""
""fullscreenenter"",""5"",""16590""
","
","","images/earth.jpg","","","","","","","","","","","","","","fixation","","","","","",""
"d3-animate-choice","138","635019","0.0-76.0-0.1","1302","1492","15","Male","false","true","false","false","""event"",""trial"",""time""
""fullscreenenter"",""5"",""16590""
","
","
","""event"",""trial"",""time""
""fullscreenenter"",""5"",""16590""
","
","287.79999999701977","","48","","","3000","1","","","images/earth.jpg","images/rocket1","images/rocket2","null","images/rocket1","","1","real","null","2","","",""
"d3-animate-choice","139","637929","0.0-76.0-1.1","1302","1492","15","Male","false","true","false","false","""event"",""trial"",""time""
""fullscreenenter"",""5"",""16590""
","
","
","""event"",""trial"",""time""
""fullscreenenter"",""5"",""16590""
","
","902.3999999910593","","49","","","3000","1","","","images/redplanet1.jpg","images/alien2","images/alien1","images/rocket1","images/alien1","images/nothing.png","2","real","true","1","common","0","2022-04-29 21:17:12.137"
"two-step-fixation","140","638945","0.0-76.0-2.1","1302","1492","15","Male","false","true","false","false","""event"",""trial"",""time""
""fullscreenenter"",""5"",""16590""
","
","
","""event"",""trial"",""time""
""fullscreenenter"",""5"",""16590""
","
","","images/earth.jpg","","","","","","","","","","","","","","fixation","","","","","",""
"d3-animate-choice","141","641150","0.0-76.0-0.2","1302","1492","15","Male","false","true","false","false","""event"",""trial"",""time""
""fullscreenenter"",""5"",""16590""
","
","
","""event"",""trial"",""time""
""fullscreenenter"",""5"",""16590""
","
","200.40000000596046","","48","","","3000","1","","","images/earth.jpg","images/rocket1","images/rocket2","null","images/rocket1","","1","real","null","2","","",""
"d3-animate-choice","142","643583","0.0-76.0-1.2","1302","1492","15","Male","false","true","false","false","""event"",""trial"",""time""
""fullscreenenter"",""5"",""16590""
","
","
","""event"",""trial"",""time""
""fullscreenenter"",""5"",""16590""
","
","430.69999998807907","","48","","","3000","1","","","images/redplanet1.jpg","images/alien2","images/alien1","images/rocket1","images/alien2","images/nothing.png","2","real","true","2","common","0","2022-04-29 21:17:17.792"
"two-step-fixation","143","644586","0.0-76.0-2.2","1302","1492","15","Male","false","true","false","false","""event"",""trial"",""time""
""fullscreenenter"",""5"",""16590""
","
","
","""event"",""trial"",""time""
""fullscreenenter"",""5"",""16590""
","
","","images/earth.jpg","","","","","","","","","","","","","","fixation","","","","","",""
"d3-animate-choice","144","646827","0.0-76.0-0.3","1302","1492","15","Male","false","true","false","false","""event"",""trial"",""time""
""fullscreenenter"",""5"",""16590""
","
","
","""event"",""trial"",""time""
""fullscreenenter"",""5"",""16590""
","
","238.90000000596046","","49","","","3000","1","","","images/earth.jpg","images/rocket1","images/rocket2","null","images/rocket2","","1","real","null","1","","",""
"d3-animate-choice","145","649148","0.0-76.0-1.3","1302","1492","15","Male","false","true","false","false","""event"",""trial"",""time""
""fullscreenenter"",""5"",""16590""
","
","
","""event"",""trial"",""time""
""fullscreenenter"",""5"",""16590""
","
","318.5","","48","","","3000","1","","","images/purpleplanet.jpg","images/alien4","images/alien3","images/rocket2","images/alien4","images/nothing.png","2","real","true","2","common","0","2022-04-29 21:17:23.356"
"two-step-fixation","146","650160","0.0-76.0-2.3","1302","1492","15","Male","false","true","false","false","""event"",""trial"",""time""
""fullscreenenter"",""5"",""16590""
","
","
","""event"",""trial"",""time""
""fullscreenenter"",""5"",""16590""
","
","","images/earth.jpg","","","","","","","","","","","","","","fixation","","","","","",""
"d3-animate-choice","147","652391","0.0-76.0-0.4","1302","1492","15","Male","false","true","false","false","""event"",""trial"",""time""
""fullscreenenter"",""5"",""16590""
","
","
","""event"",""trial"",""time""
""fullscreenenter"",""5"",""16590""
","
","228.20000000298023","","49","","","3000","1","","","images/earth.jpg","images/rocket1","images/rocket2","null","images/rocket2","","1","real","null","1","","",""
"d3-animate-choice","148","654800","0.0-76.0-1.4","1302","1492","15","Male","false","true","false","false","""event"",""trial"",""time""
""fullscreenenter"",""5"",""16590""
","
","
","""event"",""trial"",""time""
""fullscreenenter"",""5"",""16590""
","
","405.79999999701977","","49","","","3000","1","","","images/purpleplanet.jpg","images/alien4","images/alien3","images/rocket2","images/alien3","images/t.png","2","real","true","1","common","1","2022-04-29 21:17:29.008"
"two-step-fixation","149","655802","0.0-76.0-2.4","1302","1492","15","Male","false","true","false","false","""event"",""trial"",""time""
""fullscreenenter"",""5"",""16590""
","
","
","""event"",""trial"",""time""
""fullscreenenter"",""5"",""16590""
","
","","images/earth.jpg","","","","","","","","","","","","","","fixation","","","","","",""
"d3-animate-choice","150","658038","0.0-76.0-0.5","1302","1492","15","Male","false","true","false","false","""event"",""trial"",""time""
""fullscreenenter"",""5"",""16590""
","
","
","""event"",""trial"",""time""
""fullscreenenter"",""5"",""16590""
","
","234.59999999403954","","49","","","3000","1","","","images/earth.jpg","images/rocket1","images/rocket2","null","images/rocket2","","1","real","null","1","","",""
"d3-animate-choice","151","660416","0.0-76.0-1.5","1302","1492","15","Male","false","true","false","false","""event"",""trial"",""time""
""fullscreenenter"",""5"",""16590""
","
","
","""event"",""trial"",""time""
""fullscreenenter"",""5"",""16590""
","
","374.8999999910593","","49","","","3000","1","","","images/purpleplanet.jpg","images/alien4","images/alien3","images/rocket2","images/alien3","images/t.png","2","real","true","1","common","1","2022-04-29 21:17:34.624"
"two-step-fixation","152","661418","0.0-76.0-2.5","1302","1492","15","Male","false","true","false","false","""event"",""trial"",""time""
""fullscreenenter"",""5"",""16590""
","
","
","""event"",""trial"",""time""
""fullscreenenter"",""5"",""16590""
","
","","images/earth.jpg","","","","","","","","","","","","","","fixation","","","","","",""
"d3-animate-choice","153","663550","0.0-76.0-0.6","1302","1492","15","Male","false","true","false","false","""event"",""trial"",""time""
""fullscreenenter"",""5"",""16590""
","
","
","""event"",""trial"",""time""
""fullscreenenter"",""5"",""16590""
","
","128.40000000596046","","49","","","3000","1","","","images/earth.jpg","images/rocket1","images/rocket2","null","images/rocket2","","1","real","null","1","","",""
"d3-animate-choice","154","665825","0.0-76.0-1.6","1302","1492","15","Male","false","true","false","false","""event"",""trial"",""time""
""fullscreenenter"",""5"",""16590""
","
","
","""event"",""trial"",""time""
""fullscreenenter"",""5"",""16590""
","
","273.70000000298023","","49","","","3000","1","","","images/purpleplanet.jpg","images/alien4","images/alien3","images/rocket2","images/alien3","images/nothing.png","2","real","true","1","common","0","2022-04-29 21:17:40.033"
"two-step-fixation","155","666828","0.0-76.0-2.6","1302","1492","15","Male","false","true","false","false","""event"",""trial"",""time""
""fullscreenenter"",""5"",""16590""
","
","
","""event"",""trial"",""time""
""fullscreenenter"",""5"",""16590""
","
","","images/earth.jpg","","","","","","","","","","","","","","fixation","","","","","",""
"d3-animate-choice","156","668956","0.0-76.0-0.7","1302","1492","15","Male","false","true","false","false","""event"",""trial"",""time""
""fullscreenenter"",""5"",""16590""
","
","
","""event"",""trial"",""time""
""fullscreenenter"",""5"",""16590""
","
","125.5","","49","","","3000","1","","","images/earth.jpg","images/rocket1","images/rocket2","null","images/rocket2","","1","real","null","1","","",""
"d3-animate-choice","157","671245","0.0-76.0-1.7","1302","1492","15","Male","false","true","false","false","""event"",""trial"",""time""
""fullscreenenter"",""5"",""16590""
","
","
","""event"",""trial"",""time""
""fullscreenenter"",""5"",""16590""
","
","286.09999999403954","","49","","","3000","1","","","images/purpleplanet.jpg","images/alien4","images/alien3","images/rocket2","images/alien3","images/nothing.png","2","real","true","1","common","0","2022-04-29 21:17:45.453"
"two-step-fixation","158","672247","0.0-76.0-2.7","1302","1492","15","Male","false","true","false","false","""event"",""trial"",""time""
""fullscreenenter"",""5"",""16590""
","
","
","""event"",""trial"",""time""
""fullscreenenter"",""5"",""16590""
","
","","images/earth.jpg","","","","","","","","","","","","","","fixation","","","","","",""
"d3-animate-choice","159","674642","0.0-76.0-0.8","1302","1492","15","Male","false","true","false","false","""event"",""trial"",""time""
""fullscreenenter"",""5"",""16590""
","
","
","""event"",""trial"",""time""
""fullscreenenter"",""5"",""16590""
","
","393","","49","","","3000","1","","","images/earth.jpg","images/rocket1","images/rocket2","null","images/rocket2","","1","real","null","1","","",""
"d3-animate-choice","160","677136","0.0-76.0-1.8","1302","1492","15","Male","false","true","false","false","""event"",""trial"",""time""
""fullscreenenter"",""5"",""16590""
","
","
","""event"",""trial"",""time""
""fullscreenenter"",""5"",""16590""
","
","492.09999999403954","","49","","","3000","1","","","images/redplanet1.jpg","images/alien2","images/alien1","images/rocket2","images/alien1","images/t.png","2","real","false","1","rare","1","2022-04-29 21:17:51.344"
"two-step-fixation","161","678139","0.0-76.0-2.8","1302","1492","15","Male","false","true","false","false","""event"",""trial"",""time""
""fullscreenenter"",""5"",""16590""
","
","
","""event"",""trial"",""time""
""fullscreenenter"",""5"",""16590""
","
","","images/earth.jpg","","","","","","","","","","","","","","fixation","","","","","",""
"d3-animate-choice","162","680361","0.0-76.0-0.9","1302","1492","15","Male","false","true","false","false","""event"",""trial"",""time""
""fullscreenenter"",""5"",""16590""
","
","
","""event"",""trial"",""time""
""fullscreenenter"",""5"",""16590""
","
","219.30000001192093","","49","","","3000","1","","","images/earth.jpg","images/rocket1","images/rocket2","null","images/rocket2","","1","real","null","1","","",""
"d3-animate-choice","163","682628","0.0-76.0-1.9","1302","1492","15","Male","false","true","false","false","""event"",""trial"",""time""
""fullscreenenter"",""5"",""16590""
","
","
","""event"",""trial"",""time""
""fullscreenenter"",""5"",""16590""
","
","264.40000000596046","","49","","","3000","1","","","images/redplanet1.jpg","images/alien2","images/alien1","images/rocket2","images/alien1","images/nothing.png","2","real","false","1","rare","0","2022-04-29 21:17:56.836"
"two-step-fixation","164","683629","0.0-76.0-2.9","1302","1492","15","Male","false","true","false","false","""event"",""trial"",""time""
""fullscreenenter"",""5"",""16590""
","
","
","""event"",""trial"",""time""
""fullscreenenter"",""5"",""16590""
","
","","images/earth.jpg","","","","","","","","","","","","","","fixation","","","","","",""
"d3-animate-choice","165","685654","0.0-76.0-0.10","1302","1492","15","Male","false","true","false","false","""event"",""trial"",""time""
""fullscreenenter"",""5"",""16590""
","
","
","""event"",""trial"",""time""
""fullscreenenter"",""5"",""16590""
","
","21.5","","49","","","3000","1","","","images/earth.jpg","images/rocket1","images/rocket2","null","images/rocket2","","1","real","null","1","","",""
"d3-animate-choice","166","688084","0.0-76.0-1.10","1302","1492","15","Male","false","true","false","false","""event"",""trial"",""time""
""fullscreenenter"",""5"",""16590""
","
","
","""event"",""trial"",""time""
""fullscreenenter"",""5"",""16590""
","
","427.69999998807907","","49","","","3000","1","","","images/redplanet1.jpg","images/alien2","images/alien1","images/rocket2","images/alien1","images/t.png","2","real","false","1","rare","1","2022-04-29 21:18:02.292"
"two-step-fixation","167","689085","0.0-76.0-2.10","1302","1492","15","Male","false","true","false","false","""event"",""trial"",""time""
""fullscreenenter"",""5"",""16590""
","
","
","""event"",""trial"",""time""
""fullscreenenter"",""5"",""16590""
","
","","images/earth.jpg","","","","","","","","","","","","","","fixation","","","","","",""
"d3-animate-choice","168","691146","0.0-76.0-0.11","1302","1492","15","Male","false","true","false","false","""event"",""trial"",""time""
""fullscreenenter"",""5"",""16590""
","
","
","""event"",""trial"",""time""
""fullscreenenter"",""5"",""16590""
","
","58.900000005960464","","49","","","3000","1","","","images/earth.jpg","images/rocket1","images/rocket2","null","images/rocket2","","1","real","null","1","","",""
"d3-animate-choice","169","693525","0.0-76.0-1.11","1302","1492","15","Male","false","true","false","false","""event"",""trial"",""time""
""fullscreenenter"",""5"",""16590""
","
","
","""event"",""trial"",""time""
""fullscreenenter"",""5"",""16590""
","
","376.20000000298023","","49","","","3000","1","","","images/purpleplanet.jpg","images/alien4","images/alien3","images/rocket2","images/alien3","images/nothing.png","2","real","true","1","common","0","2022-04-29 21:18:07.733"
"two-step-fixation","170","694527","0.0-76.0-2.11","1302","1492","15","Male","false","true","false","false","""event"",""trial"",""time""
""fullscreenenter"",""5"",""16590""
","
","
","""event"",""trial"",""time""
""fullscreenenter"",""5"",""16590""
","
","","images/earth.jpg","","","","","","","","","","","","","","fixation","","","","","",""
"d3-animate-choice","171","696809","0.0-76.0-0.12","1302","1492","15","Male","false","true","false","false","""event"",""trial"",""time""
""fullscreenenter"",""5"",""16590""
","
","
","""event"",""trial"",""time""
""fullscreenenter"",""5"",""16590""
","
","281.1000000089407","","49","","","3000","1","","","images/earth.jpg","images/rocket1","images/rocket2","null","images/rocket2","","1","real","null","1","","",""
"d3-animate-choice","172","699170","0.0-76.0-1.12","1302","1492","15","Male","false","true","false","false","""event"",""trial"",""time""
""fullscreenenter"",""5"",""16590""
","
","
","""event"",""trial"",""time""
""fullscreenenter"",""5"",""16590""
","
","358.30000001192093","","49","","","3000","1","","","images/redplanet1.jpg","images/alien2","images/alien1","images/rocket2","images/alien1","images/t.png","2","real","false","1","rare","1","2022-04-29 21:18:13.378"
"two-step-fixation","173","700172","0.0-76.0-2.12","1302","1492","15","Male","false","true","false","false","""event"",""trial"",""time""
""fullscreenenter"",""5"",""16590""
","
","
","""event"",""trial"",""time""
""fullscreenenter"",""5"",""16590""
","
","","images/earth.jpg","","","","","","","","","","","","","","fixation","","","","","",""
"d3-animate-choice","174","702274","0.0-76.0-0.13","1302","1492","15","Male","false","true","false","false","""event"",""trial"",""time""
""fullscreenenter"",""5"",""16590""
","
","
","""event"",""trial"",""time""
""fullscreenenter"",""5"",""16590""
","
","98.59999999403954","","49","","","3000","1","","","images/earth.jpg","images/rocket1","images/rocket2","null","images/rocket2","","1","real","null","1","","",""
"d3-animate-choice","175","704781","0.0-76.0-1.13","1302","1492","15","Male","false","true","false","false","""event"",""trial"",""time""
""fullscreenenter"",""5"",""16590""
","
","
","""event"",""trial"",""time""
""fullscreenenter"",""5"",""16590""
","
","504.79999999701977","","49","","","3000","1","","","images/redplanet1.jpg","images/alien2","images/alien1","images/rocket2","images/alien1","images/nothing.png","2","real","false","1","rare","0","2022-04-29 21:18:18.989"
"two-step-fixation","176","705783","0.0-76.0-2.13","1302","1492","15","Male","false","true","false","false","""event"",""trial"",""time""
""fullscreenenter"",""5"",""16590""
","
","
","""event"",""trial"",""time""
""fullscreenenter"",""5"",""16590""
","
","","images/earth.jpg","","","","","","","","","","","","","","fixation","","","","","",""
"d3-animate-choice","177","707922","0.0-76.0-0.14","1302","1492","15","Male","false","true","false","false","""event"",""trial"",""time""
""fullscreenenter"",""5"",""16590""
","
","
","""event"",""trial"",""time""
""fullscreenenter"",""5"",""16590""
","
","137","","49","","","3000","1","","","images/earth.jpg","images/rocket1","images/rocket2","null","images/rocket2","","1","real","null","1","","",""
"d3-animate-choice","178","710545","0.0-76.0-1.14","1302","1492","15","Male","false","true","false","false","""event"",""trial"",""time""
""fullscreenenter"",""5"",""16590""
","
","
","""event"",""trial"",""time""
""fullscreenenter"",""5"",""16590""
","
","621","","48","","","3000","1","","","images/purpleplanet.jpg","images/alien4","images/alien3","images/rocket2","images/alien4","images/t.png","2","real","true","2","common","1","2022-04-29 21:18:24.753"
"two-step-fixation","179","711547","0.0-76.0-2.14","1302","1492","15","Male","false","true","false","false","""event"",""trial"",""time""
""fullscreenenter"",""5"",""16590""
","
","
","""event"",""trial"",""time""
""fullscreenenter"",""5"",""16590""
","
","","images/earth.jpg","","","","","","","","","","","","","","fixation","","","","","",""
"d3-animate-choice","180","713687","0.0-76.0-0.15","1302","1492","15","Male","false","true","false","false","""event"",""trial"",""time""
""fullscreenenter"",""5"",""16590""
","
","
","""event"",""trial"",""time""
""fullscreenenter"",""5"",""16590""
","
","138","","49","","","3000","1","","","images/earth.jpg","images/rocket1","images/rocket2","null","images/rocket2","","1","real","null","1","","",""
"d3-animate-choice","181","716128","0.0-76.0-1.15","1302","1492","15","Male","false","true","false","false","""event"",""trial"",""time""
""fullscreenenter"",""5"",""16590""
","
","
","""event"",""trial"",""time""
""fullscreenenter"",""5"",""16590""
","
","439.1000000089407","","48","","","3000","1","","","images/purpleplanet.jpg","images/alien4","images/alien3","images/rocket2","images/alien4","images/t.png","2","real","true","2","common","1","2022-04-29 21:18:30.336"
"two-step-fixation","182","717131","0.0-76.0-2.15","1302","1492","15","Male","false","true","false","false","""event"",""trial"",""time""
""fullscreenenter"",""5"",""16590""
","
","
","""event"",""trial"",""time""
""fullscreenenter"",""5"",""16590""
","
","","images/earth.jpg","","","","","","","","","","","","","","fixation","","","","","",""
"d3-animate-choice","183","719182","0.0-76.0-0.16","1302","1492","15","Male","false","true","false","false","""event"",""trial"",""time""
""fullscreenenter"",""5"",""16590""
","
","
","""event"",""trial"",""time""
""fullscreenenter"",""5"",""16590""
","
","48.900000005960464","","49","","","3000","1","","","images/earth.jpg","images/rocket1","images/rocket2","null","images/rocket2","","1","real","null","1","","",""
"d3-animate-choice","184","721746","0.0-76.0-1.16","1302","1492","15","Male","false","true","false","false","""event"",""trial"",""time""
""fullscreenenter"",""5"",""16590""
","
","
","""event"",""trial"",""time""
""fullscreenenter"",""5"",""16590""
","
","561.9000000059605","","48","","","3000","1","","","images/purpleplanet.jpg","images/alien4","images/alien3","images/rocket2","images/alien4","images/t.png","2","real","true","2","common","1","2022-04-29 21:18:35.954"
"two-step-fixation","185","722748","0.0-76.0-2.16","1302","1492","15","Male","false","true","false","false","""event"",""trial"",""time""
""fullscreenenter"",""5"",""16590""
","
","
","""event"",""trial"",""time""
""fullscreenenter"",""5"",""16590""
","
","","images/earth.jpg","","","","","","","","","","","","","","fixation","","","","","",""
"d3-animate-choice","186","725114","0.0-76.0-0.17","1302","1492","15","Male","false","true","false","false","""event"",""trial"",""time""
""fullscreenenter"",""5"",""16590""
","
","
","""event"",""trial"",""time""
""fullscreenenter"",""5"",""16590""
","
","363.70000000298023","","49","","","3000","1","","","images/earth.jpg","images/rocket1","images/rocket2","null","images/rocket2","","1","real","null","1","","",""
"d3-animate-choice","187","727930","0.0-76.0-1.17","1302","1492","15","Male","false","true","false","false","""event"",""trial"",""time""
""fullscreenenter"",""5"",""16590""
","
","
","""event"",""trial"",""time""
""fullscreenenter"",""5"",""16590""
","
","814.2000000029802","","49","","","3000","1","","","images/redplanet1.jpg","images/alien2","images/alien1","images/rocket2","images/alien1","images/t.png","2","real","false","1","rare","1","2022-04-29 21:18:42.138"
"two-step-fixation","188","728932","0.0-76.0-2.17","1302","1492","15","Male","false","true","false","false","""event"",""trial"",""time""
""fullscreenenter"",""5"",""16590""
","
","
","""event"",""trial"",""time""
""fullscreenenter"",""5"",""16590""
","
","","images/earth.jpg","","","","","","","","","","","","","","fixation","","","","","",""
"d3-animate-choice","189","731146","0.0-76.0-0.18","1302","1492","15","Male","false","true","false","false","""event"",""trial"",""time""
""fullscreenenter"",""5"",""16590""
","
","
","""event"",""trial"",""time""
""fullscreenenter"",""5"",""16590""
","
","212.5","","49","","","3000","1","","","images/earth.jpg","images/rocket1","images/rocket2","null","images/rocket2","","1","real","null","1","","",""
"d3-animate-choice","190","733747","0.0-76.0-1.18","1302","1492","15","Male","false","true","false","false","""event"",""trial"",""time""
""fullscreenenter"",""5"",""16590""
","
","
","""event"",""trial"",""time""
""fullscreenenter"",""5"",""16590""
","
","598.5999999940395","","48","","","3000","1","","","images/purpleplanet.jpg","images/alien4","images/alien3","images/rocket2","images/alien4","images/t.png","2","real","true","2","common","1","2022-04-29 21:18:47.955"
"two-step-fixation","191","734749","0.0-76.0-2.18","1302","1492","15","Male","false","true","false","false","""event"",""trial"",""time""
""fullscreenenter"",""5"",""16590""
","
","
","""event"",""trial"",""time""
""fullscreenenter"",""5"",""16590""
","
","","images/earth.jpg","","","","","","","","","","","","","","fixation","","","","","",""
"d3-animate-choice","192","736885","0.0-76.0-0.19","1302","1492","15","Male","false","true","false","false","""event"",""trial"",""time""
""fullscreenenter"",""5"",""16590""
","
","
","""event"",""trial"",""time""
""fullscreenenter"",""5"",""16590""
","
","133.29999999701977","","49","","","3000","1","","","images/earth.jpg","images/rocket1","images/rocket2","null","images/rocket2","","1","real","null","1","","",""
"d3-animate-choice","193","739375","0.0-76.0-1.19","1302","1492","15","Male","false","true","false","false","""event"",""trial"",""time""
""fullscreenenter"",""5"",""16590""
","
","
","""event"",""trial"",""time""
""fullscreenenter"",""5"",""16590""
","
","487.79999999701977","","48","","","3000","1","","","images/purpleplanet.jpg","images/alien4","images/alien3","images/rocket2","images/alien4","images/t.png","2","real","true","2","common","1","2022-04-29 21:18:53.583"
"two-step-fixation","194","740377","0.0-76.0-2.19","1302","1492","15","Male","false","true","false","false","""event"",""trial"",""time""
""fullscreenenter"",""5"",""16590""
","
","
","""event"",""trial"",""time""
""fullscreenenter"",""5"",""16590""
","
","","images/earth.jpg","","","","","","","","","","","","","","fixation","","","","","",""
"d3-animate-choice","195","742705","0.0-76.0-0.20","1302","1492","15","Male","false","true","false","false","""event"",""trial"",""time""
""fullscreenenter"",""5"",""16590""
","
","
","""event"",""trial"",""time""
""fullscreenenter"",""5"",""16590""
","
","325","","49","","","3000","1","","","images/earth.jpg","images/rocket1","images/rocket2","null","images/rocket2","","1","real","null","1","","",""
"d3-animate-choice","196","745095","0.0-76.0-1.20","1302","1492","15","Male","false","true","false","false","""event"",""trial"",""time""
""fullscreenenter"",""5"",""16590""
","
","
","""event"",""trial"",""time""
""fullscreenenter"",""5"",""16590""
","
","388.29999999701977","","48","","","3000","1","","","images/purpleplanet.jpg","images/alien4","images/alien3","images/rocket2","images/alien4","images/nothing.png","2","real","true","2","common","0","2022-04-29 21:18:59.303"
"two-step-fixation","197","746096","0.0-76.0-2.20","1302","1492","15","Male","false","true","false","false","""event"",""trial"",""time""
""fullscreenenter"",""5"",""16590""
","
","
","""event"",""trial"",""time""
""fullscreenenter"",""5"",""16590""
","
","","images/earth.jpg","","","","","","","","","","","","","","fixation","","","","","",""
"d3-animate-choice","198","748342","0.0-76.0-0.21","1302","1492","15","Male","false","true","false","false","""event"",""trial"",""time""
""fullscreenenter"",""5"",""16590""
","
","
","""event"",""trial"",""time""
""fullscreenenter"",""5"",""16590""
","
","244","","49","","","3000","1","","","images/earth.jpg","images/rocket1","images/rocket2","null","images/rocket2","","1","real","null","1","","",""
"d3-animate-choice","199","751008","0.0-76.0-1.21","1302","1492","15","Male","false","true","false","false","""event"",""trial"",""time""
""fullscreenenter"",""5"",""16590""
","
","
","""event"",""trial"",""time""
""fullscreenenter"",""5"",""16590""
","
","662.3999999910593","","49","","","3000","1","","","images/redplanet1.jpg","images/alien2","images/alien1","images/rocket2","images/alien1","images/t.png","2","real","false","1","rare","1","2022-04-29 21:19:05.216"
"two-step-fixation","200","752009","0.0-76.0-2.21","1302","1492","15","Male","false","true","false","false","""event"",""trial"",""time""
""fullscreenenter"",""5"",""16590""
","
","
","""event"",""trial"",""time""
""fullscreenenter"",""5"",""16590""
","
","","images/earth.jpg","","","","","","","","","","","","","","fixation","","","","","",""
"d3-animate-choice","201","754285","0.0-76.0-0.22","1302","1492","15","Male","false","true","false","false","""event"",""trial"",""time""
""fullscreenenter"",""5"",""16590""
","
","
","""event"",""trial"",""time""
""fullscreenenter"",""5"",""16590""
","
","273.6000000089407","","49","","","3000","1","","","images/earth.jpg","images/rocket1","images/rocket2","null","images/rocket2","","1","real","null","1","","",""
"d3-animate-choice","202","757214","0.0-76.0-1.22","1302","1492","15","Male","false","true","false","false","""event"",""trial"",""time""
""fullscreenenter"",""5"",""16590""
","
","
","""event"",""trial"",""time""
""fullscreenenter"",""5"",""16590""
","
","927","","49","","","3000","1","","","images/purpleplanet.jpg","images/alien4","images/alien3","images/rocket2","images/alien3","images/nothing.png","2","real","true","1","common","0","2022-04-29 21:19:11.422"
"two-step-fixation","203","758216","0.0-76.0-2.22","1302","1492","15","Male","false","true","false","false","""event"",""trial"",""time""
""fullscreenenter"",""5"",""16590""
","
","
","""event"",""trial"",""time""
""fullscreenenter"",""5"",""16590""
","
","","images/earth.jpg","","","","","","","","","","","","","","fixation","","","","","",""
"d3-animate-choice","204","760541","0.0-76.0-0.23","1302","1492","15","Male","false","true","false","false","""event"",""trial"",""time""
""fullscreenenter"",""5"",""16590""
","
","
","""event"",""trial"",""time""
""fullscreenenter"",""5"",""16590""
","
","322.70000000298023","","49","","","3000","1","","","images/earth.jpg","images/rocket1","images/rocket2","null","images/rocket2","","1","real","null","1","","",""
"d3-animate-choice","205","762937","0.0-76.0-1.23","1302","1492","15","Male","false","true","false","false","""event"",""trial"",""time""
""fullscreenenter"",""5"",""16590""
","
","
","""event"",""trial"",""time""
""fullscreenenter"",""5"",""16590""
","
","394","","48","","","3000","1","","","images/purpleplanet.jpg","images/alien4","images/alien3","images/rocket2","images/alien4","images/nothing.png","2","real","true","2","common","0","2022-04-29 21:19:17.145"
"two-step-fixation","206","763939","0.0-76.0-2.23","1302","1492","15","Male","false","true","false","false","""event"",""trial"",""time""
""fullscreenenter"",""5"",""16590""
","
","
","""event"",""trial"",""time""
""fullscreenenter"",""5"",""16590""
","
","","images/earth.jpg","","","","","","","","","","","","","","fixation","","","","","",""
"d3-animate-choice","207","766345","0.0-76.0-0.24","1302","1492","15","Male","false","true","false","false","""event"",""trial"",""time""
""fullscreenenter"",""5"",""16590""
","
","
","""event"",""trial"",""time""
""fullscreenenter"",""5"",""16590""
","
","403.09999999403954","","48","","","3000","1","","","images/earth.jpg","images/rocket1","images/rocket2","null","images/rocket1","","1","real","null","2","","",""
"d3-animate-choice","208","768694","0.0-76.0-1.24","1302","1492","15","Male","false","true","false","false","""event"",""trial"",""time""
""fullscreenenter"",""5"",""16590""
","
","
","""event"",""trial"",""time""
""fullscreenenter"",""5"",""16590""
","
","347.59999999403954","","49","","","3000","1","","","images/redplanet1.jpg","images/alien2","images/alien1","images/rocket1","images/alien1","images/nothing.png","2","real","true","1","common","0","2022-04-29 21:19:22.902"
"two-step-fixation","209","769696","0.0-76.0-2.24","1302","1492","15","Male","false","true","false","false","""event"",""trial"",""time""
""fullscreenenter"",""5"",""16590""
","
","
","""event"",""trial"",""time""
""fullscreenenter"",""5"",""16590""
","
","","images/earth.jpg","","","","","","","","","","","","","","fixation","","","","","",""
"d3-animate-choice","210","772055","0.0-76.0-0.25","1302","1492","15","Male","false","true","false","false","""event"",""trial"",""time""
""fullscreenenter"",""5"",""16590""
","
","
","""event"",""trial"",""time""
""fullscreenenter"",""5"",""16590""
","
","355.59999999403954","","48","","","3000","1","","","images/earth.jpg","images/rocket1","images/rocket2","null","images/rocket1","","1","real","null","2","","",""
"d3-animate-choice","211","774412","0.0-76.0-1.25","1302","1492","15","Male","false","true","false","false","""event"",""trial"",""time""
""fullscreenenter"",""5"",""16590""
","
","
","""event"",""trial"",""time""
""fullscreenenter"",""5"",""16590""
","
","354","","48","","","3000","1","","","images/redplanet1.jpg","images/alien2","images/alien1","images/rocket1","images/alien2","images/nothing.png","2","real","true","2","common","0","2022-04-29 21:19:28.620"
"two-step-fixation","212","775413","0.0-76.0-2.25","1302","1492","15","Male","false","true","false","false","""event"",""trial"",""time""
""fullscreenenter"",""5"",""16590""
","
","
","""event"",""trial"",""time""
""fullscreenenter"",""5"",""16590""
","
","","images/earth.jpg","","","","","","","","","","","","","","fixation","","","","","",""
"d3-animate-choice","213","777663","0.0-76.0-0.26","1302","1492","15","Male","false","true","false","false","""event"",""trial"",""time""
""fullscreenenter"",""5"",""16590""
","
","
","""event"",""trial"",""time""
""fullscreenenter"",""5"",""16590""
","
","247.20000000298023","","48","","","3000","1","","","images/earth.jpg","images/rocket1","images/rocket2","null","images/rocket1","","1","real","null","2","","",""
"d3-animate-choice","214","780016","0.0-76.0-1.26","1302","1492","15","Male","false","true","false","false","""event"",""trial"",""time""
""fullscreenenter"",""5"",""16590""
","
","
","""event"",""trial"",""time""
""fullscreenenter"",""5"",""16590""
","
","351.79999999701977","","49","","","3000","1","","","images/redplanet1.jpg","images/alien2","images/alien1","images/rocket1","images/alien1","images/t.png","2","real","true","1","common","1","2022-04-29 21:19:34.224"
"two-step-fixation","215","781020","0.0-76.0-2.26","1302","1492","15","Male","false","true","false","false","""event"",""trial"",""time""
""fullscreenenter"",""5"",""16590""
","
","
","""event"",""trial"",""time""
""fullscreenenter"",""5"",""16590""
","
","","images/earth.jpg","","","","","","","","","","","","","","fixation","","","","","",""
"d3-animate-choice","216","783232","0.0-76.0-0.27","1302","1492","15","Male","false","true","false","false","""event"",""trial"",""time""
""fullscreenenter"",""5"",""16590""
","
","
","""event"",""trial"",""time""
""fullscreenenter"",""5"",""16590""
","
","210","","48","","","3000","1","","","images/earth.jpg","images/rocket1","images/rocket2","null","images/rocket1","","1","real","null","2","","",""
"d3-animate-choice","217","785585","0.0-76.0-1.27","1302","1492","15","Male","false","true","false","false","""event"",""trial"",""time""
""fullscreenenter"",""5"",""16590""
","
","
","""event"",""trial"",""time""
""fullscreenenter"",""5"",""16590""
","
","350.29999999701977","","49","","","3000","1","","","images/redplanet1.jpg","images/alien2","images/alien1","images/rocket1","images/alien1","images/t.png","2","real","true","1","common","1","2022-04-29 21:19:39.793"
"two-step-fixation","218","786587","0.0-76.0-2.27","1302","1492","15","Male","false","true","false","false","""event"",""trial"",""time""
""fullscreenenter"",""5"",""16590""
","
","
","""event"",""trial"",""time""
""fullscreenenter"",""5"",""16590""
","
","","images/earth.jpg","","","","","","","","","","","","","","fixation","","","","","",""
"d3-animate-choice","219","788692","0.0-76.0-0.28","1302","1492","15","Male","false","true","false","false","""event"",""trial"",""time""
""fullscreenenter"",""5"",""16590""
","
","
","""event"",""trial"",""time""
""fullscreenenter"",""5"",""16590""
","
","102.30000001192093","","48","","","3000","1","","","images/earth.jpg","images/rocket1","images/rocket2","null","images/rocket1","","1","real","null","2","","",""
"d3-animate-choice","220","791021","0.0-76.0-1.28","1302","1492","15","Male","false","true","false","false","""event"",""trial"",""time""
""fullscreenenter"",""5"",""16590""
","
","
","""event"",""trial"",""time""
""fullscreenenter"",""5"",""16590""
","
","327","","49","","","3000","1","","","images/redplanet1.jpg","images/alien2","images/alien1","images/rocket1","images/alien1","images/nothing.png","2","real","true","1","common","0","2022-04-29 21:19:45.229"
"two-step-fixation","221","792024","0.0-76.0-2.28","1302","1492","15","Male","false","true","false","false","""event"",""trial"",""time""
""fullscreenenter"",""5"",""16590""
","
","
","""event"",""trial"",""time""
""fullscreenenter"",""5"",""16590""
","
","","images/earth.jpg","","","","","","","","","","","","","","fixation","","","","","",""
"d3-animate-choice","222","794296","0.0-76.0-0.29","1302","1492","15","Male","false","true","false","false","""event"",""trial"",""time""
""fullscreenenter"",""5"",""16590""
","
","
","""event"",""trial"",""time""
""fullscreenenter"",""5"",""16590""
","
","269.6000000089407","","48","","","3000","1","","","images/earth.jpg","images/rocket1","images/rocket2","null","images/rocket1","","1","real","null","2","","",""
"d3-animate-choice","223","796677","0.0-76.0-1.29","1302","1492","15","Male","false","true","false","false","""event"",""trial"",""time""
""fullscreenenter"",""5"",""16590""
","
","
","""event"",""trial"",""time""
""fullscreenenter"",""5"",""16590""
","
","380.20000000298023","","49","","","3000","1","","","images/redplanet1.jpg","images/alien2","images/alien1","images/rocket1","images/alien1","images/nothing.png","2","real","true","1","common","0","2022-04-29 21:19:50.885"
"two-step-fixation","224","797680","0.0-76.0-2.29","1302","1492","15","Male","false","true","false","false","""event"",""trial"",""time""
""fullscreenenter"",""5"",""16590""
","
","
","""event"",""trial"",""time""
""fullscreenenter"",""5"",""16590""
","
","","images/earth.jpg","","","","","","","","","","","","","","fixation","","","","","",""
"d3-animate-choice","225","799911","0.0-76.0-0.30","1302","1492","15","Male","false","true","false","false","""event"",""trial"",""time""
""fullscreenenter"",""5"",""16590""
","
","
","""event"",""trial"",""time""
""fullscreenenter"",""5"",""16590""
","
","229.1000000089407","","49","","","3000","1","","","images/earth.jpg","images/rocket1","images/rocket2","null","images/rocket2","","1","real","null","1","","",""
"d3-animate-choice","226","802363","0.0-76.0-1.30","1302","1492","15","Male","false","true","false","false","""event"",""trial"",""time""
""fullscreenenter"",""5"",""16590""
","
","
","""event"",""trial"",""time""
""fullscreenenter"",""5"",""16590""
","
","449.6000000089407","","48","","","3000","1","","","images/purpleplanet.jpg","images/alien4","images/alien3","images/rocket2","images/alien4","images/t.png","2","real","true","2","common","1","2022-04-29 21:19:56.571"
"two-step-fixation","227","803365","0.0-76.0-2.30","1302","1492","15","Male","false","true","false","false","""event"",""trial"",""time""
""fullscreenenter"",""5"",""16590""
","
","
","""event"",""trial"",""time""
""fullscreenenter"",""5"",""16590""
","
","","images/earth.jpg","","","","","","","","","","","","","","fixation","","","","","",""
"d3-animate-choice","228","805636","0.0-76.0-0.31","1302","1492","15","Male","false","true","false","false","""event"",""trial"",""time""
""fullscreenenter"",""5"",""16590""
","
","
","""event"",""trial"",""time""
""fullscreenenter"",""5"",""16590""
","
","268.79999999701977","","49","","","3000","1","","","images/earth.jpg","images/rocket1","images/rocket2","null","images/rocket2","","1","real","null","1","","",""
"d3-animate-choice","229","807911","0.0-76.0-1.31","1302","1492","15","Male","false","true","false","false","""event"",""trial"",""time""
""fullscreenenter"",""5"",""16590""
","
","
","""event"",""trial"",""time""
""fullscreenenter"",""5"",""16590""
","
","273.29999999701977","","48","","","3000","1","","","images/purpleplanet.jpg","images/alien4","images/alien3","images/rocket2","images/alien4","images/t.png","2","real","true","2","common","1","2022-04-29 21:20:02.119"
"two-step-fixation","230","808913","0.0-76.0-2.31","1302","1492","15","Male","false","true","false","false","""event"",""trial"",""time""
""fullscreenenter"",""5"",""16590""
","
","
","""event"",""trial"",""time""
""fullscreenenter"",""5"",""16590""
","
","","images/earth.jpg","","","","","","","","","","","","","","fixation","","","","","",""
"d3-animate-choice","231","811167","0.0-76.0-0.32","1302","1492","15","Male","false","true","false","false","""event"",""trial"",""time""
""fullscreenenter"",""5"",""16590""
","
","
","""event"",""trial"",""time""
""fullscreenenter"",""5"",""16590""
","
","252.29999999701977","","49","","","3000","1","","","images/earth.jpg","images/rocket1","images/rocket2","null","images/rocket2","","1","real","null","1","","",""
"d3-animate-choice","232","814501","0.0-76.0-1.32","1302","1492","15","Male","false","true","false","false","""event"",""trial"",""time""
""fullscreenenter"",""5"",""16590""
","
","
","""event"",""trial"",""time""
""fullscreenenter"",""5"",""16590""
","
","1330.300000011921","","49","","","3000","1","","","images/redplanet1.jpg","images/alien2","images/alien1","images/rocket2","images/alien1","images/nothing.png","2","real","false","1","rare","0","2022-04-29 21:20:08.709"
"two-step-fixation","233","815502","0.0-76.0-2.32","1302","1492","15","Male","false","true","false","false","""event"",""trial"",""time""
""fullscreenenter"",""5"",""16590""
","
","
","""event"",""trial"",""time""
""fullscreenenter"",""5"",""16590""
","
","","images/earth.jpg","","","","","","","","","","","","","","fixation","","","","","",""
"d3-animate-choice","234","817715","0.0-76.0-0.33","1302","1492","15","Male","false","true","false","false","""event"",""trial"",""time""
""fullscreenenter"",""5"",""16590""
","
","
","""event"",""trial"",""time""
""fullscreenenter"",""5"",""16590""
","
","211.40000000596046","","49","","","3000","1","","","images/earth.jpg","images/rocket1","images/rocket2","null","images/rocket2","","1","real","null","1","","",""
"d3-animate-choice","235","820096","0.0-76.0-1.33","1302","1492","15","Male","false","true","false","false","""event"",""trial"",""time""
""fullscreenenter"",""5"",""16590""
","
","
","""event"",""trial"",""time""
""fullscreenenter"",""5"",""16590""
","
","377.8999999910593","","48","","","3000","1","","","images/purpleplanet.jpg","images/alien4","images/alien3","images/rocket2","images/alien4","images/t.png","2","real","true","2","common","1","2022-04-29 21:20:14.304"
"two-step-fixation","236","821098","0.0-76.0-2.33","1302","1492","15","Male","false","true","false","false","""event"",""trial"",""time""
""fullscreenenter"",""5"",""16590""
","
","
","""event"",""trial"",""time""
""fullscreenenter"",""5"",""16590""
","
","","images/earth.jpg","","","","","","","","","","","","","","fixation","","","","","",""
"d3-animate-choice","237","823309","0.0-76.0-0.34","1302","1492","15","Male","false","true","false","false","""event"",""trial"",""time""
""fullscreenenter"",""5"",""16590""
","
","
","""event"",""trial"",""time""
""fullscreenenter"",""5"",""16590""
","
","208.5","","49","","","3000","1","","","images/earth.jpg","images/rocket1","images/rocket2","null","images/rocket2","","1","real","null","1","","",""
"d3-animate-choice","238","825749","0.0-76.0-1.34","1302","1492","15","Male","false","true","false","false","""event"",""trial"",""time""
""fullscreenenter"",""5"",""16590""
","
","
","""event"",""trial"",""time""
""fullscreenenter"",""5"",""16590""
","
","437.20000000298023","","48","","","3000","1","","","images/redplanet1.jpg","images/alien2","images/alien1","images/rocket2","images/alien2","images/t.png","2","real","false","2","rare","1","2022-04-29 21:20:19.957"
"two-step-fixation","239","826750","0.0-76.0-2.34","1302","1492","15","Male","false","true","false","false","""event"",""trial"",""time""
""fullscreenenter"",""5"",""16590""
","
","
","""event"",""trial"",""time""
""fullscreenenter"",""5"",""16590""
","
","","images/earth.jpg","","","","","","","","","","","","","","fixation","","","","","",""
"d3-animate-choice","240","828986","0.0-76.0-0.35","1302","1492","15","Male","false","true","false","false","""event"",""trial"",""time""
""fullscreenenter"",""5"",""16590""
","
","
","""event"",""trial"",""time""
""fullscreenenter"",""5"",""16590""
","
","233.79999999701977","","49","","","3000","1","","","images/earth.jpg","images/rocket1","images/rocket2","null","images/rocket2","","1","real","null","1","","",""
"d3-animate-choice","241","831291","0.0-76.0-1.35","1302","1492","15","Male","false","true","false","false","""event"",""trial"",""time""
""fullscreenenter"",""5"",""16590""
","
","
","""event"",""trial"",""time""
""fullscreenenter"",""5"",""16590""
","
","303.09999999403954","","48","","","3000","1","","","images/purpleplanet.jpg","images/alien4","images/alien3","images/rocket2","images/alien4","images/t.png","2","real","true","2","common","1","2022-04-29 21:20:25.499"
"two-step-fixation","242","832293","0.0-76.0-2.35","1302","1492","15","Male","false","true","false","false","""event"",""trial"",""time""
""fullscreenenter"",""5"",""16590""
","
","
","""event"",""trial"",""time""
""fullscreenenter"",""5"",""16590""
","
","","images/earth.jpg","","","","","","","","","","","","","","fixation","","","","","",""
"d3-animate-choice","243","834600","0.0-76.0-0.36","1302","1492","15","Male","false","true","false","false","""event"",""trial"",""time""
""fullscreenenter"",""5"",""16590""
","
","
","""event"",""trial"",""time""
""fullscreenenter"",""5"",""16590""
","
","305.59999999403954","","49","","","3000","1","","","images/earth.jpg","images/rocket1","images/rocket2","null","images/rocket2","","1","real","null","1","","",""
"d3-animate-choice","244","836948","0.0-76.0-1.36","1302","1492","15","Male","false","true","false","false","""event"",""trial"",""time""
""fullscreenenter"",""5"",""16590""
","
","
","""event"",""trial"",""time""
""fullscreenenter"",""5"",""16590""
","
","346.6000000089407","","48","","","3000","1","","","images/redplanet1.jpg","images/alien2","images/alien1","images/rocket2","images/alien2","images/nothing.png","2","real","false","2","rare","0","2022-04-29 21:20:31.156"
"two-step-fixation","245","837952","0.0-76.0-2.36","1302","1492","15","Male","false","true","false","false","""event"",""trial"",""time""
""fullscreenenter"",""5"",""16590""
","
","
","""event"",""trial"",""time""
""fullscreenenter"",""5"",""16590""
","
","","images/earth.jpg","","","","","","","","","","","","","","fixation","","","","","",""
"d3-animate-choice","246","840088","0.0-76.0-0.37","1302","1492","15","Male","false","true","false","false","""event"",""trial"",""time""
""fullscreenenter"",""5"",""16590""
