"trial_type","trial_index","time_elapsed","internal_node_id","participant_id","subject_id","age","gender","rocket_sides","red_planet_first_rocket","red_display_order","purple_display_order","interactions","blur_events","focus_events","fullscreenenter_events","fullscreenexit_events","rt","stimulus","key_press","button_pressed","success","duration","valid_pressed","rts","keys","planet_text","right_text","left_text","center_text","chosen_text","reward_text","trial_stage","practice_trial","transition_type","choice","transition","reward","timestamp"
"pavlovia","0","2","0.0-0.0","2673","6204","18","Female","false","true","false","true","
","
","
","
","
","","","","","","","","","","","","","","","","","","","","","",""
"html-keyboard-response","1","3997","0.0-1.0","2673","6204","18","Female","false","true","false","true","
","
","
","
","
","3993.199999809265","Welcome! Press the space bar to begin.","32","","","","","","","","","","","","","","","","","","",""
"audio-keyboard-response","2","6912","0.0-2.0","2673","6204","18","Female","false","true","false","true","""event"",""trial"",""time""
""blur"",""3"",""12754""
""focus"",""3"",""12922""
","""event"",""trial"",""time""
""blur"",""3"",""12754""
","""event"",""trial"",""time""
""focus"",""3"",""12922""
","
","
","2219","audio/beep_loop.wav","32","","","","","","","","","","","","","","","","","","",""
"audio-button-response","3","16970","0.0-3.0","2673","6204","18","Female","false","true","false","true","""event"",""trial"",""time""
""blur"",""3"",""12754""
""focus"",""3"",""12922""
","""event"",""trial"",""time""
""blur"",""3"",""12754""
","""event"",""trial"",""time""
""focus"",""3"",""12922""
","
","
","NaN","audio/fish.mp3","","1","","","","","","","","","","","","","","","","","",""
"audio-button-response","4","19611","0.0-4.0","2673","6204","18","Female","false","true","false","true","""event"",""trial"",""time""
""blur"",""3"",""12754""
""focus"",""3"",""12922""
""fullscreenenter"",""5"",""22060""
","""event"",""trial"",""time""
""blur"",""3"",""12754""
","""event"",""trial"",""time""
""focus"",""3"",""12922""
","""event"",""trial"",""time""
""fullscreenenter"",""5"",""22060""
","
","NaN","audio/tiger.mp3","","4","","","","","","","","","","","","","","","","","",""
"fullscreen","5","23057","0.0-5.0","2673","6204","18","Female","false","true","false","true","""event"",""trial"",""time""
""blur"",""3"",""12754""
""focus"",""3"",""12922""
""fullscreenenter"",""5"",""22060""
","""event"",""trial"",""time""
""blur"",""3"",""12754""
","""event"",""trial"",""time""
""focus"",""3"",""12922""
","""event"",""trial"",""time""
""fullscreenenter"",""5"",""22060""
","
","","","","","true","","","","","","","","","","","","","","","","",""
"d3-instructions","6","37028","0.0-6.0","2673","6204","18","Female","false","true","false","true","""event"",""trial"",""time""
""blur"",""3"",""12754""
""focus"",""3"",""12922""
""fullscreenenter"",""5"",""22060""
","""event"",""trial"",""time""
""blur"",""3"",""12754""
","""event"",""trial"",""time""
""focus"",""3"",""12922""
","""event"",""trial"",""time""
""fullscreenenter"",""5"",""22060""
","
","","","","","","","","","","","","","","","","","","","","","",""
"d3-instructions","7","44981","0.0-7.0","2673","6204","18","Female","false","true","false","true","""event"",""trial"",""time""
""blur"",""3"",""12754""
""focus"",""3"",""12922""
""fullscreenenter"",""5"",""22060""
","""event"",""trial"",""time""
""blur"",""3"",""12754""
","""event"",""trial"",""time""
""focus"",""3"",""12922""
","""event"",""trial"",""time""
""fullscreenenter"",""5"",""22060""
","
","","","","","","","","","","","","","","","","","","","","","",""
"d3-instructions","8","52180","0.0-8.0","2673","6204","18","Female","false","true","false","true","""event"",""trial"",""time""
""blur"",""3"",""12754""
""focus"",""3"",""12922""
""fullscreenenter"",""5"",""22060""
","""event"",""trial"",""time""
""blur"",""3"",""12754""
","""event"",""trial"",""time""
""focus"",""3"",""12922""
","""event"",""trial"",""time""
""fullscreenenter"",""5"",""22060""
","
","","","","","","","","","","","","","","","","","","","","","",""
"d3-instructions","9","63887","0.0-9.0","2673","6204","18","Female","false","true","false","true","""event"",""trial"",""time""
""blur"",""3"",""12754""
""focus"",""3"",""12922""
""fullscreenenter"",""5"",""22060""
","""event"",""trial"",""time""
""blur"",""3"",""12754""
","""event"",""trial"",""time""
""focus"",""3"",""12922""
","""event"",""trial"",""time""
""fullscreenenter"",""5"",""22060""
","
","","","","","","","","","","","","","","","","","","","","","",""
"d3-instructions","10","86742","0.0-10.0","2673","6204","18","Female","false","true","false","true","""event"",""trial"",""time""
""blur"",""3"",""12754""
""focus"",""3"",""12922""
""fullscreenenter"",""5"",""22060""
","""event"",""trial"",""time""
""blur"",""3"",""12754""
","""event"",""trial"",""time""
""focus"",""3"",""12922""
","""event"",""trial"",""time""
""fullscreenenter"",""5"",""22060""
","
","","","","","","","","","","","","","","","","","","","","","",""
"d3-animate-choice","11","89537","0.0-11.0","2673","6204","18","Female","false","true","false","true","""event"",""trial"",""time""
""blur"",""3"",""12754""
""focus"",""3"",""12922""
""fullscreenenter"",""5"",""22060""
","""event"",""trial"",""time""
""blur"",""3"",""12754""
","""event"",""trial"",""time""
""focus"",""3"",""12922""
","""event"",""trial"",""time""
""fullscreenenter"",""5"",""22060""
","
","777","","49","","","3000","1","","","images/tutgreenplanet.jpg","images/tutalien1","images/tutalien2","null","images/tutalien2","","NA","practice","null","","","",""
"d3-animate-choice","12","92870","0.0-12.0","2673","6204","18","Female","false","true","false","true","""event"",""trial"",""time""
""blur"",""3"",""12754""
""focus"",""3"",""12922""
""fullscreenenter"",""5"",""22060""
","""event"",""trial"",""time""
""blur"",""3"",""12754""
","""event"",""trial"",""time""
""focus"",""3"",""12922""
","""event"",""trial"",""time""
""fullscreenenter"",""5"",""22060""
","
","1325.8000001907349","","48","","","3000","1","","","images/tutgreenplanet.jpg","images/tutalien1","images/tutalien2","null","images/tutalien1","","NA","practice","null","","","",""
"d3-animate-choice","13","95846","0.0-13.0","2673","6204","18","Female","false","true","false","true","""event"",""trial"",""time""
""blur"",""3"",""12754""
""focus"",""3"",""12922""
""fullscreenenter"",""5"",""22060""
","""event"",""trial"",""time""
""blur"",""3"",""12754""
","""event"",""trial"",""time""
""focus"",""3"",""12922""
","""event"",""trial"",""time""
""fullscreenenter"",""5"",""22060""
","
","967.6000003814697","","48","","","3000","1","","","images/tutgreenplanet.jpg","images/tutalien1","images/tutalien2","null","images/tutalien1","","NA","practice","null","","","",""
"d3-animate-choice","14","98353","0.0-14.0","2673","6204","18","Female","false","true","false","true","""event"",""trial"",""time""
""blur"",""3"",""12754""
""focus"",""3"",""12922""
""fullscreenenter"",""5"",""22060""
","""event"",""trial"",""time""
""blur"",""3"",""12754""
","""event"",""trial"",""time""
""focus"",""3"",""12922""
","""event"",""trial"",""time""
""fullscreenenter"",""5"",""22060""
","
","491.2000002861023","","49","","","3000","1","","","images/tutgreenplanet.jpg","images/tutalien1","images/tutalien2","null","images/tutalien2","","NA","practice","null","","","",""
"d3-instructions","15","105417","0.0-15.0","2673","6204","18","Female","false","true","false","true","""event"",""trial"",""time""
""blur"",""3"",""12754""
""focus"",""3"",""12922""
""fullscreenenter"",""5"",""22060""
","""event"",""trial"",""time""
""blur"",""3"",""12754""
","""event"",""trial"",""time""
""focus"",""3"",""12922""
","""event"",""trial"",""time""
""fullscreenenter"",""5"",""22060""
","
","","","","","","","","","","","","","","","","","","","","","",""
"d3-instructions","16","112933","0.0-16.0","2673","6204","18","Female","false","true","false","true","""event"",""trial"",""time""
""blur"",""3"",""12754""
""focus"",""3"",""12922""
""fullscreenenter"",""5"",""22060""
","""event"",""trial"",""time""
""blur"",""3"",""12754""
","""event"",""trial"",""time""
""focus"",""3"",""12922""
","""event"",""trial"",""time""
""fullscreenenter"",""5"",""22060""
","
","","","","","","","","","","","","","","","","","","","","","",""
"d3-instructions","17","122422","0.0-17.0","2673","6204","18","Female","false","true","false","true","""event"",""trial"",""time""
""blur"",""3"",""12754""
""focus"",""3"",""12922""
""fullscreenenter"",""5"",""22060""
","""event"",""trial"",""time""
""blur"",""3"",""12754""
","""event"",""trial"",""time""
""focus"",""3"",""12922""
","""event"",""trial"",""time""
""fullscreenenter"",""5"",""22060""
","
","","","","","","","","","","","","","","","","","","","","","",""
"d3-instructions","18","136083","0.0-18.0","2673","6204","18","Female","false","true","false","true","""event"",""trial"",""time""
""blur"",""3"",""12754""
""focus"",""3"",""12922""
""fullscreenenter"",""5"",""22060""
","""event"",""trial"",""time""
""blur"",""3"",""12754""
","""event"",""trial"",""time""
""focus"",""3"",""12922""
","""event"",""trial"",""time""
""fullscreenenter"",""5"",""22060""
","
","","","","","","","","","","","","","","","","","","","","","",""
"d3-instructions","19","150881","0.0-19.0","2673","6204","18","Female","false","true","false","true","""event"",""trial"",""time""
""blur"",""3"",""12754""
""focus"",""3"",""12922""
""fullscreenenter"",""5"",""22060""
","""event"",""trial"",""time""
""blur"",""3"",""12754""
","""event"",""trial"",""time""
""focus"",""3"",""12922""
","""event"",""trial"",""time""
""fullscreenenter"",""5"",""22060""
","
","","","","","","","","","","","","","","","","","","","","","",""
"d3-animate-choice","20","153377","0.0-20.0","2673","6204","18","Female","false","true","false","true","""event"",""trial"",""time""
""blur"",""3"",""12754""
""focus"",""3"",""12922""
""fullscreenenter"",""5"",""22060""
","""event"",""trial"",""time""
""blur"",""3"",""12754""
","""event"",""trial"",""time""
""focus"",""3"",""12922""
","""event"",""trial"",""time""
""fullscreenenter"",""5"",""22060""
","
","482","","49","","","3000","1","","","images/tutyellowplanet.jpg","null","images/tutalien3","null","images/tutalien3","images/nothing.png","NA","practice","null","","","",""
"d3-animate-choice","21","155713","0.0-21.0","2673","6204","18","Female","false","true","false","true","""event"",""trial"",""time""
""blur"",""3"",""12754""
""focus"",""3"",""12922""
""fullscreenenter"",""5"",""22060""
","""event"",""trial"",""time""
""blur"",""3"",""12754""
","""event"",""trial"",""time""
""focus"",""3"",""12922""
","""event"",""trial"",""time""
""fullscreenenter"",""5"",""22060""
","
","324.90000009536743","","49","","","3000","1","","","images/tutyellowplanet.jpg","null","images/tutalien3","null","images/tutalien3","images/t.png","NA","practice","null","","","",""
"d3-animate-choice","22","158086","0.0-22.0","2673","6204","18","Female","false","true","false","true","""event"",""trial"",""time""
""blur"",""3"",""12754""
""focus"",""3"",""12922""
""fullscreenenter"",""5"",""22060""
","""event"",""trial"",""time""
""blur"",""3"",""12754""
","""event"",""trial"",""time""
""focus"",""3"",""12922""
","""event"",""trial"",""time""
""fullscreenenter"",""5"",""22060""
","
","362.90000009536743","","49","","","3000","1","","","images/tutyellowplanet.jpg","null","images/tutalien3","null","images/tutalien3","images/t.png","NA","practice","null","","","",""
"d3-animate-choice","23","160465","0.0-23.0","2673","6204","18","Female","false","true","false","true","""event"",""trial"",""time""
""blur"",""3"",""12754""
""focus"",""3"",""12922""
""fullscreenenter"",""5"",""22060""
","""event"",""trial"",""time""
""blur"",""3"",""12754""
","""event"",""trial"",""time""
""focus"",""3"",""12922""
","""event"",""trial"",""time""
""fullscreenenter"",""5"",""22060""
","
","368.90000009536743","","49","","","3000","1","","","images/tutyellowplanet.jpg","null","images/tutalien3","null","images/tutalien3","images/t.png","NA","practice","null","","","",""
"d3-animate-choice","24","162790","0.0-24.0","2673","6204","18","Female","false","true","false","true","""event"",""trial"",""time""
""blur"",""3"",""12754""
""focus"",""3"",""12922""
""fullscreenenter"",""5"",""22060""
","""event"",""trial"",""time""
""blur"",""3"",""12754""
","""event"",""trial"",""time""
""focus"",""3"",""12922""
","""event"",""trial"",""time""
""fullscreenenter"",""5"",""22060""
","
","312.90000009536743","","49","","","3000","1","","","images/tutyellowplanet.jpg","null","images/tutalien3","null","images/tutalien3","images/t.png","NA","practice","null","","","",""
"d3-animate-choice","25","165137","0.0-25.0","2673","6204","18","Female","false","true","false","true","""event"",""trial"",""time""
""blur"",""3"",""12754""
""focus"",""3"",""12922""
""fullscreenenter"",""5"",""22060""
","""event"",""trial"",""time""
""blur"",""3"",""12754""
","""event"",""trial"",""time""
""focus"",""3"",""12922""
","""event"",""trial"",""time""
""fullscreenenter"",""5"",""22060""
","
","335.2999997138977","","49","","","3000","1","","","images/tutyellowplanet.jpg","null","images/tutalien3","null","images/tutalien3","images/t.png","NA","practice","null","","","",""
"d3-animate-choice","26","167350","0.0-26.0","2673","6204","18","Female","false","true","false","true","""event"",""trial"",""time""
""blur"",""3"",""12754""
""focus"",""3"",""12922""
""fullscreenenter"",""5"",""22060""
","""event"",""trial"",""time""
""blur"",""3"",""12754""
","""event"",""trial"",""time""
""focus"",""3"",""12922""
","""event"",""trial"",""time""
""fullscreenenter"",""5"",""22060""
","
","205.59999990463257","","49","","","3000","1","","","images/tutyellowplanet.jpg","null","images/tutalien3","null","images/tutalien3","images/t.png","NA","practice","null","","","",""
"d3-animate-choice","27","169621","0.0-27.0","2673","6204","18","Female","false","true","false","true","""event"",""trial"",""time""
""blur"",""3"",""12754""
""focus"",""3"",""12922""
""fullscreenenter"",""5"",""22060""
","""event"",""trial"",""time""
""blur"",""3"",""12754""
","""event"",""trial"",""time""
""focus"",""3"",""12922""
","""event"",""trial"",""time""
""fullscreenenter"",""5"",""22060""
","
","263.30000019073486","","49","","","3000","1","","","images/tutyellowplanet.jpg","null","images/tutalien3","null","images/tutalien3","images/nothing.png","NA","practice","null","","","",""
"d3-animate-choice","28","171936","0.0-28.0","2673","6204","18","Female","false","true","false","true","""event"",""trial"",""time""
""blur"",""3"",""12754""
""focus"",""3"",""12922""
""fullscreenenter"",""5"",""22060""
","""event"",""trial"",""time""
""blur"",""3"",""12754""
","""event"",""trial"",""time""
""focus"",""3"",""12922""
","""event"",""trial"",""time""
""fullscreenenter"",""5"",""22060""
","
","303.59999990463257","","49","","","3000","1","","","images/tutyellowplanet.jpg","null","images/tutalien3","null","images/tutalien3","images/t.png","NA","practice","null","","","",""
"d3-animate-choice","29","174325","0.0-29.0","2673","6204","18","Female","false","true","false","true","""event"",""trial"",""time""
""blur"",""3"",""12754""
""focus"",""3"",""12922""
""fullscreenenter"",""5"",""22060""
","""event"",""trial"",""time""
""blur"",""3"",""12754""
","""event"",""trial"",""time""
""focus"",""3"",""12922""
","""event"",""trial"",""time""
""fullscreenenter"",""5"",""22060""
","
","385","","49","","","3000","1","","","images/tutyellowplanet.jpg","null","images/tutalien3","null","images/tutalien3","images/t.png","NA","practice","null","","","",""
"d3-instructions","30","181268","0.0-30.0","2673","6204","18","Female","false","true","false","true","""event"",""trial"",""time""
""blur"",""3"",""12754""
""focus"",""3"",""12922""
""fullscreenenter"",""5"",""22060""
","""event"",""trial"",""time""
""blur"",""3"",""12754""
","""event"",""trial"",""time""
""focus"",""3"",""12922""
","""event"",""trial"",""time""
""fullscreenenter"",""5"",""22060""
","
","","","","","","","","","","","","","","","","","","","","","",""
"d3-instructions","31","191903","0.0-31.0","2673","6204","18","Female","false","true","false","true","""event"",""trial"",""time""
""blur"",""3"",""12754""
""focus"",""3"",""12922""
""fullscreenenter"",""5"",""22060""
","""event"",""trial"",""time""
""blur"",""3"",""12754""
","""event"",""trial"",""time""
""focus"",""3"",""12922""
","""event"",""trial"",""time""
""fullscreenenter"",""5"",""22060""
","
","","","","","","","","","","","","","","","","","","","","","",""
"d3-instructions","32","199572","0.0-32.0","2673","6204","18","Female","false","true","false","true","""event"",""trial"",""time""
""blur"",""3"",""12754""
""focus"",""3"",""12922""
""fullscreenenter"",""5"",""22060""
","""event"",""trial"",""time""
""blur"",""3"",""12754""
","""event"",""trial"",""time""
""focus"",""3"",""12922""
","""event"",""trial"",""time""
""fullscreenenter"",""5"",""22060""
","
","","","","","","","","","","","","","","","","","","","","","",""
"d3-instructions","33","210924","0.0-33.0","2673","6204","18","Female","false","true","false","true","""event"",""trial"",""time""
""blur"",""3"",""12754""
""focus"",""3"",""12922""
""fullscreenenter"",""5"",""22060""
","""event"",""trial"",""time""
""blur"",""3"",""12754""
","""event"",""trial"",""time""
""focus"",""3"",""12922""
","""event"",""trial"",""time""
""fullscreenenter"",""5"",""22060""
","
","","","","","","","","","","","","","","","","","","","","","",""
"d3-animate-choice","34","213606","0.0-34.0","2673","6204","18","Female","false","true","false","true","""event"",""trial"",""time""
""blur"",""3"",""12754""
""focus"",""3"",""12922""
""fullscreenenter"",""5"",""22060""
","""event"",""trial"",""time""
""blur"",""3"",""12754""
","""event"",""trial"",""time""
""focus"",""3"",""12922""
","""event"",""trial"",""time""
""fullscreenenter"",""5"",""22060""
","
","675.2000002861023","","49","","","3000","1","","","images/tutgreenplanet.jpg","images/tutalien1","images/tutalien2","null","images/tutalien2","images/t.png","NA","practice","null","","","",""
"d3-animate-choice","35","215889","0.0-35.0","2673","6204","18","Female","false","true","false","true","""event"",""trial"",""time""
""blur"",""3"",""12754""
""focus"",""3"",""12922""
""fullscreenenter"",""5"",""22060""
","""event"",""trial"",""time""
""blur"",""3"",""12754""
","""event"",""trial"",""time""
""focus"",""3"",""12922""
","""event"",""trial"",""time""
""fullscreenenter"",""5"",""22060""
","
","274","","49","","","3000","1","","","images/tutgreenplanet.jpg","images/tutalien1","images/tutalien2","null","images/tutalien2","images/t.png","NA","practice","null","","","",""
"d3-animate-choice","36","218161","0.0-36.0","2673","6204","18","Female","false","true","false","true","""event"",""trial"",""time""
""blur"",""3"",""12754""
""focus"",""3"",""12922""
""fullscreenenter"",""5"",""22060""
","""event"",""trial"",""time""
""blur"",""3"",""12754""
","""event"",""trial"",""time""
""focus"",""3"",""12922""
","""event"",""trial"",""time""
""fullscreenenter"",""5"",""22060""
","
","256.59999990463257","","49","","","3000","1","","","images/tutgreenplanet.jpg","images/tutalien1","images/tutalien2","null","images/tutalien2","images/t.png","NA","practice","null","","","",""
"d3-animate-choice","37","220439","0.0-37.0","2673","6204","18","Female","false","true","false","true","""event"",""trial"",""time""
""blur"",""3"",""12754""
""focus"",""3"",""12922""
""fullscreenenter"",""5"",""22060""
","""event"",""trial"",""time""
""blur"",""3"",""12754""
","""event"",""trial"",""time""
""focus"",""3"",""12922""
","""event"",""trial"",""time""
""fullscreenenter"",""5"",""22060""
","
","273.8999996185303","","49","","","3000","1","","","images/tutgreenplanet.jpg","images/tutalien1","images/tutalien2","null","images/tutalien2","images/t.png","NA","practice","null","","","",""
"d3-animate-choice","38","222704","0.0-38.0","2673","6204","18","Female","false","true","false","true","""event"",""trial"",""time""
""blur"",""3"",""12754""
""focus"",""3"",""12922""
""fullscreenenter"",""5"",""22060""
","""event"",""trial"",""time""
""blur"",""3"",""12754""
","""event"",""trial"",""time""
""focus"",""3"",""12922""
","""event"",""trial"",""time""
""fullscreenenter"",""5"",""22060""
","
","254.90000009536743","","49","","","3000","1","","","images/tutgreenplanet.jpg","images/tutalien1","images/tutalien2","null","images/tutalien2","images/t.png","NA","practice","null","","","",""
"d3-animate-choice","39","224950","0.0-39.0","2673","6204","18","Female","false","true","false","true","""event"",""trial"",""time""
""blur"",""3"",""12754""
""focus"",""3"",""12922""
""fullscreenenter"",""5"",""22060""
","""event"",""trial"",""time""
""blur"",""3"",""12754""
","""event"",""trial"",""time""
""focus"",""3"",""12922""
","""event"",""trial"",""time""
""fullscreenenter"",""5"",""22060""
","
","236.90000009536743","","49","","","3000","1","","","images/tutgreenplanet.jpg","images/tutalien1","images/tutalien2","null","images/tutalien2","images/t.png","NA","practice","null","","","",""
"d3-animate-choice","40","227206","0.0-40.0","2673","6204","18","Female","false","true","false","true","""event"",""trial"",""time""
""blur"",""3"",""12754""
""focus"",""3"",""12922""
""fullscreenenter"",""5"",""22060""
","""event"",""trial"",""time""
""blur"",""3"",""12754""
","""event"",""trial"",""time""
""focus"",""3"",""12922""
","""event"",""trial"",""time""
""fullscreenenter"",""5"",""22060""
","
","250.69999980926514","","49","","","3000","1","","","images/tutgreenplanet.jpg","images/tutalien1","images/tutalien2","null","images/tutalien2","images/t.png","NA","practice","null","","","",""
"d3-animate-choice","41","229473","0.0-41.0","2673","6204","18","Female","false","true","false","true","""event"",""trial"",""time""
""blur"",""3"",""12754""
""focus"",""3"",""12922""
""fullscreenenter"",""5"",""22060""
","""event"",""trial"",""time""
""blur"",""3"",""12754""
","""event"",""trial"",""time""
""focus"",""3"",""12922""
","""event"",""trial"",""time""
""fullscreenenter"",""5"",""22060""
","
","256.90000009536743","","49","","","3000","1","","","images/tutgreenplanet.jpg","images/tutalien1","images/tutalien2","null","images/tutalien2","images/t.png","NA","practice","null","","","",""
"d3-animate-choice","42","231727","0.0-42.0","2673","6204","18","Female","false","true","false","true","""event"",""trial"",""time""
""blur"",""3"",""12754""
""focus"",""3"",""12922""
""fullscreenenter"",""5"",""22060""
","""event"",""trial"",""time""
""blur"",""3"",""12754""
","""event"",""trial"",""time""
""focus"",""3"",""12922""
","""event"",""trial"",""time""
""fullscreenenter"",""5"",""22060""
","
","244.59999990463257","","49","","","3000","1","","","images/tutgreenplanet.jpg","images/tutalien1","images/tutalien2","null","images/tutalien2","images/t.png","NA","practice","null","","","",""
"d3-animate-choice","43","233974","0.0-43.0","2673","6204","18","Female","false","true","false","true","""event"",""trial"",""time""
""blur"",""3"",""12754""
""focus"",""3"",""12922""
""fullscreenenter"",""5"",""22060""
","""event"",""trial"",""time""
""blur"",""3"",""12754""
","""event"",""trial"",""time""
""focus"",""3"",""12922""
","""event"",""trial"",""time""
""fullscreenenter"",""5"",""22060""
","
","238.59999990463257","","49","","","3000","1","","","images/tutgreenplanet.jpg","images/tutalien1","images/tutalien2","null","images/tutalien2","images/t.png","NA","practice","null","","","",""
"d3-instructions","44","248011","0.0-44.0","2673","6204","18","Female","false","true","false","true","""event"",""trial"",""time""
""blur"",""3"",""12754""
""focus"",""3"",""12922""
""fullscreenenter"",""5"",""22060""
","""event"",""trial"",""time""
""blur"",""3"",""12754""
","""event"",""trial"",""time""
""focus"",""3"",""12922""
","""event"",""trial"",""time""
""fullscreenenter"",""5"",""22060""
","
","","","","","","","","","","","","","","","","","","","","","",""
"d3-instructions","45","255360","0.0-45.0","2673","6204","18","Female","false","true","false","true","""event"",""trial"",""time""
""blur"",""3"",""12754""
""focus"",""3"",""12922""
""fullscreenenter"",""5"",""22060""
","""event"",""trial"",""time""
""blur"",""3"",""12754""
","""event"",""trial"",""time""
""focus"",""3"",""12922""
","""event"",""trial"",""time""
""fullscreenenter"",""5"",""22060""
","
","","","","","","","","","","","","","","","","","","","","","",""
"d3-instructions","46","260948","0.0-46.0","2673","6204","18","Female","false","true","false","true","""event"",""trial"",""time""
""blur"",""3"",""12754""
""focus"",""3"",""12922""
""fullscreenenter"",""5"",""22060""
","""event"",""trial"",""time""
""blur"",""3"",""12754""
","""event"",""trial"",""time""
""focus"",""3"",""12922""
","""event"",""trial"",""time""
""fullscreenenter"",""5"",""22060""
","
","","","","","","","","","","","","","","","","","","","","","",""
"d3-instructions","47","277949","0.0-47.0","2673","6204","18","Female","false","true","false","true","""event"",""trial"",""time""
""blur"",""3"",""12754""
""focus"",""3"",""12922""
""fullscreenenter"",""5"",""22060""
","""event"",""trial"",""time""
""blur"",""3"",""12754""
","""event"",""trial"",""time""
""focus"",""3"",""12922""
","""event"",""trial"",""time""
""fullscreenenter"",""5"",""22060""
","
","","","","","","","","","","","","","","","","","","","","","",""
"d3-instructions","48","285163","0.0-48.0","2673","6204","18","Female","false","true","false","true","""event"",""trial"",""time""
""blur"",""3"",""12754""
""focus"",""3"",""12922""
""fullscreenenter"",""5"",""22060""
","""event"",""trial"",""time""
""blur"",""3"",""12754""
","""event"",""trial"",""time""
""focus"",""3"",""12922""
","""event"",""trial"",""time""
""fullscreenenter"",""5"",""22060""
","
","","","","","","","","","","","","","","","","","","","","","",""
"d3-instructions","49","296524","0.0-49.0","2673","6204","18","Female","false","true","false","true","""event"",""trial"",""time""
""blur"",""3"",""12754""
""focus"",""3"",""12922""
""fullscreenenter"",""5"",""22060""
","""event"",""trial"",""time""
""blur"",""3"",""12754""
","""event"",""trial"",""time""
""focus"",""3"",""12922""
","""event"",""trial"",""time""
""fullscreenenter"",""5"",""22060""
","
","","","","","","","","","","","","","","","","","","","","","",""
"d3-instructions","50","305580","0.0-50.0","2673","6204","18","Female","false","true","false","true","""event"",""trial"",""time""
""blur"",""3"",""12754""
""focus"",""3"",""12922""
""fullscreenenter"",""5"",""22060""
","""event"",""trial"",""time""
""blur"",""3"",""12754""
","""event"",""trial"",""time""
""focus"",""3"",""12922""
","""event"",""trial"",""time""
""fullscreenenter"",""5"",""22060""
","
","","","","","","","","","","","","","","","","","","","","","",""
"d3-instructions","51","309152","0.0-51.0","2673","6204","18","Female","false","true","false","true","""event"",""trial"",""time""
""blur"",""3"",""12754""
""focus"",""3"",""12922""
""fullscreenenter"",""5"",""22060""
","""event"",""trial"",""time""
""blur"",""3"",""12754""
","""event"",""trial"",""time""
""focus"",""3"",""12922""
","""event"",""trial"",""time""
""fullscreenenter"",""5"",""22060""
","
","","","","","","","","","","","","","","","","","","","","","",""
"d3-instructions","52","312641","0.0-52.0","2673","6204","18","Female","false","true","false","true","""event"",""trial"",""time""
""blur"",""3"",""12754""
""focus"",""3"",""12922""
""fullscreenenter"",""5"",""22060""
","""event"",""trial"",""time""
""blur"",""3"",""12754""
","""event"",""trial"",""time""
""focus"",""3"",""12922""
","""event"",""trial"",""time""
""fullscreenenter"",""5"",""22060""
","
","","","","","","","","","","","","","","","","","","","","","",""
"d3-instructions","53","325579","0.0-53.0","2673","6204","18","Female","false","true","false","true","""event"",""trial"",""time""
""blur"",""3"",""12754""
""focus"",""3"",""12922""
""fullscreenenter"",""5"",""22060""
","""event"",""trial"",""time""
""blur"",""3"",""12754""
","""event"",""trial"",""time""
""focus"",""3"",""12922""
","""event"",""trial"",""time""
""fullscreenenter"",""5"",""22060""
","
","","","","","","","","","","","","","","","","","","","","","",""
"d3-instructions","54","338963","0.0-54.0","2673","6204","18","Female","false","true","false","true","""event"",""trial"",""time""
""blur"",""3"",""12754""
""focus"",""3"",""12922""
""fullscreenenter"",""5"",""22060""
","""event"",""trial"",""time""
""blur"",""3"",""12754""
","""event"",""trial"",""time""
""focus"",""3"",""12922""
","""event"",""trial"",""time""
""fullscreenenter"",""5"",""22060""
","
","","","","","","","","","","","","","","","","","","","","","",""
"d3-instructions","55","355063","0.0-55.0","2673","6204","18","Female","false","true","false","true","""event"",""trial"",""time""
""blur"",""3"",""12754""
""focus"",""3"",""12922""
""fullscreenenter"",""5"",""22060""
","""event"",""trial"",""time""
""blur"",""3"",""12754""
","""event"",""trial"",""time""
""focus"",""3"",""12922""
","""event"",""trial"",""time""
""fullscreenenter"",""5"",""22060""
","
","","","","","","","","","","","","","","","","","","","","","",""
"d3-instructions","56","366351","0.0-56.0","2673","6204","18","Female","false","true","false","true","""event"",""trial"",""time""
""blur"",""3"",""12754""
""focus"",""3"",""12922""
""fullscreenenter"",""5"",""22060""
","""event"",""trial"",""time""
""blur"",""3"",""12754""
","""event"",""trial"",""time""
""focus"",""3"",""12922""
","""event"",""trial"",""time""
""fullscreenenter"",""5"",""22060""
","
","","","","","","","","","","","","","","","","","","","","","",""
"d3-instructions","57","377552","0.0-57.0","2673","6204","18","Female","false","true","false","true","""event"",""trial"",""time""
""blur"",""3"",""12754""
""focus"",""3"",""12922""
""fullscreenenter"",""5"",""22060""
","""event"",""trial"",""time""
""blur"",""3"",""12754""
","""event"",""trial"",""time""
""focus"",""3"",""12922""
","""event"",""trial"",""time""
""fullscreenenter"",""5"",""22060""
","
","","","","","","","","","","","","","","","","","","","","","",""
"d3-instructions","58","397599","0.0-58.0","2673","6204","18","Female","false","true","false","true","""event"",""trial"",""time""
""blur"",""3"",""12754""
""focus"",""3"",""12922""
""fullscreenenter"",""5"",""22060""
","""event"",""trial"",""time""
""blur"",""3"",""12754""
","""event"",""trial"",""time""
""focus"",""3"",""12922""
","""event"",""trial"",""time""
""fullscreenenter"",""5"",""22060""
","
","","","","","","","","","","","","","","","","","","","","","",""
"d3-instructions","59","403414","0.0-59.0","2673","6204","18","Female","false","true","false","true","""event"",""trial"",""time""
""blur"",""3"",""12754""
""focus"",""3"",""12922""
""fullscreenenter"",""5"",""22060""
","""event"",""trial"",""time""
""blur"",""3"",""12754""
","""event"",""trial"",""time""
""focus"",""3"",""12922""
","""event"",""trial"",""time""
""fullscreenenter"",""5"",""22060""
","
","","","","","","","","","","","","","","","","","","","","","",""
"d3-instructions","60","411345","0.0-60.0","2673","6204","18","Female","false","true","false","true","""event"",""trial"",""time""
""blur"",""3"",""12754""
""focus"",""3"",""12922""
""fullscreenenter"",""5"",""22060""
","""event"",""trial"",""time""
""blur"",""3"",""12754""
","""event"",""trial"",""time""
""focus"",""3"",""12922""
","""event"",""trial"",""time""
""fullscreenenter"",""5"",""22060""
","
","","","","","","","","","","","","","","","","","","","","","",""
"d3-animate-choice","61","414789","0.0-61.0-0.0","2673","6204","18","Female","false","true","false","true","""event"",""trial"",""time""
""blur"",""3"",""12754""
""focus"",""3"",""12922""
""fullscreenenter"",""5"",""22060""
","""event"",""trial"",""time""
""blur"",""3"",""12754""
","""event"",""trial"",""time""
""focus"",""3"",""12922""
","""event"",""trial"",""time""
""fullscreenenter"",""5"",""22060""
","
","1432.4000000953674","","48","","","3000","1","","","images/earth.jpg","images/tutrocket1","images/tutrocket2","null","images/tutrocket1","","1","practice","null","2","","",""
"d3-animate-choice","62","417840","0.0-61.0-1.0","2673","6204","18","Female","false","true","false","true","""event"",""trial"",""time""
""blur"",""3"",""12754""
""focus"",""3"",""12922""
""fullscreenenter"",""5"",""22060""
","""event"",""trial"",""time""
""blur"",""3"",""12754""
","""event"",""trial"",""time""
""focus"",""3"",""12922""
","""event"",""trial"",""time""
""fullscreenenter"",""5"",""22060""
","
","1040","","48","","","3000","1","","","images/tutgreenplanet.jpg","images/tutalien2","images/tutalien1","images/tutrocket1","images/tutalien2","images/nothing.png","2","practice","true","2","common","0","2023-02-06 20:44:38.031"
"two-step-fixation","63","418853","0.0-61.0-2.0","2673","6204","18","Female","false","true","false","true","""event"",""trial"",""time""
""blur"",""3"",""12754""
""focus"",""3"",""12922""
""fullscreenenter"",""5"",""22060""
","""event"",""trial"",""time""
""blur"",""3"",""12754""
","""event"",""trial"",""time""
""focus"",""3"",""12922""
","""event"",""trial"",""time""
""fullscreenenter"",""5"",""22060""
","
","","images/earth.jpg","","","","","","","","","","","","","","fixation","","","","","",""
"d3-animate-choice","64","421605","0.0-61.0-0.1","2673","6204","18","Female","false","true","false","true","""event"",""trial"",""time""
""blur"",""3"",""12754""
""focus"",""3"",""12922""
""fullscreenenter"",""5"",""22060""
","""event"",""trial"",""time""
""blur"",""3"",""12754""
","""event"",""trial"",""time""
""focus"",""3"",""12922""
","""event"",""trial"",""time""
""fullscreenenter"",""5"",""22060""
","
","739.6999998092651","","49","","","3000","1","","","images/earth.jpg","images/tutrocket1","images/tutrocket2","null","images/tutrocket2","","1","practice","null","1","","",""
"d3-animate-choice","65","423989","0.0-61.0-1.1","2673","6204","18","Female","false","true","false","true","""event"",""trial"",""time""
""blur"",""3"",""12754""
""focus"",""3"",""12922""
""fullscreenenter"",""5"",""22060""
","""event"",""trial"",""time""
""blur"",""3"",""12754""
","""event"",""trial"",""time""
""focus"",""3"",""12922""
","""event"",""trial"",""time""
""fullscreenenter"",""5"",""22060""
","
","372.40000009536743","","49","","","3000","1","","","images/tutyellowplanet.jpg","images/tutalien4","images/tutalien3","images/tutrocket2","images/tutalien3","images/t.png","2","practice","true","1","common","1","2023-02-06 20:44:44.180"
"two-step-fixation","66","424997","0.0-61.0-2.1","2673","6204","18","Female","false","true","false","true","""event"",""trial"",""time""
""blur"",""3"",""12754""
""focus"",""3"",""12922""
""fullscreenenter"",""5"",""22060""
","""event"",""trial"",""time""
""blur"",""3"",""12754""
","""event"",""trial"",""time""
""focus"",""3"",""12922""
","""event"",""trial"",""time""
""fullscreenenter"",""5"",""22060""
","
","","images/earth.jpg","","","","","","","","","","","","","","fixation","","","","","",""
"d3-animate-choice","67","427397","0.0-61.0-0.2","2673","6204","18","Female","false","true","false","true","""event"",""trial"",""time""
""blur"",""3"",""12754""
""focus"",""3"",""12922""
""fullscreenenter"",""5"",""22060""
","""event"",""trial"",""time""
""blur"",""3"",""12754""
","""event"",""trial"",""time""
""focus"",""3"",""12922""
","""event"",""trial"",""time""
""fullscreenenter"",""5"",""22060""
","
","394.7999997138977","","49","","","3000","1","","","images/earth.jpg","images/tutrocket1","images/tutrocket2","null","images/tutrocket2","","1","practice","null","1","","",""
"d3-animate-choice","68","430400","0.0-61.0-1.2","2673","6204","18","Female","false","true","false","true","""event"",""trial"",""time""
""blur"",""3"",""12754""
""focus"",""3"",""12922""
""fullscreenenter"",""5"",""22060""
","""event"",""trial"",""time""
""blur"",""3"",""12754""
","""event"",""trial"",""time""
""focus"",""3"",""12922""
","""event"",""trial"",""time""
""fullscreenenter"",""5"",""22060""
","
","991.2000002861023","","49","","","3000","1","","","images/tutgreenplanet.jpg","images/tutalien2","images/tutalien1","images/tutrocket2","images/tutalien1","images/t.png","2","practice","false","1","rare","1","2023-02-06 20:44:50.591"
"two-step-fixation","69","431408","0.0-61.0-2.2","2673","6204","18","Female","false","true","false","true","""event"",""trial"",""time""
""blur"",""3"",""12754""
""focus"",""3"",""12922""
""fullscreenenter"",""5"",""22060""
","""event"",""trial"",""time""
""blur"",""3"",""12754""
","""event"",""trial"",""time""
""focus"",""3"",""12922""
","""event"",""trial"",""time""
""fullscreenenter"",""5"",""22060""
","
","","images/earth.jpg","","","","","","","","","","","","","","fixation","","","","","",""
"d3-animate-choice","70","433759","0.0-61.0-0.3","2673","6204","18","Female","false","true","false","true","""event"",""trial"",""time""
""blur"",""3"",""12754""
""focus"",""3"",""12922""
""fullscreenenter"",""5"",""22060""
","""event"",""trial"",""time""
""blur"",""3"",""12754""
","""event"",""trial"",""time""
""focus"",""3"",""12922""
","""event"",""trial"",""time""
""fullscreenenter"",""5"",""22060""
","
","342.2999997138977","","49","","","3000","1","","","images/earth.jpg","images/tutrocket1","images/tutrocket2","null","images/tutrocket2","","1","practice","null","1","","",""
"d3-animate-choice","71","436325","0.0-61.0-1.3","2673","6204","18","Female","false","true","false","true","""event"",""trial"",""time""
""blur"",""3"",""12754""
""focus"",""3"",""12922""
""fullscreenenter"",""5"",""22060""
","""event"",""trial"",""time""
""blur"",""3"",""12754""
","""event"",""trial"",""time""
""focus"",""3"",""12922""
","""event"",""trial"",""time""
""fullscreenenter"",""5"",""22060""
","
","558.1000003814697","","49","","","3000","1","","","images/tutgreenplanet.jpg","images/tutalien2","images/tutalien1","images/tutrocket2","images/tutalien1","images/t.png","2","practice","false","1","rare","1","2023-02-06 20:44:56.516"
"two-step-fixation","72","437333","0.0-61.0-2.3","2673","6204","18","Female","false","true","false","true","""event"",""trial"",""time""
""blur"",""3"",""12754""
""focus"",""3"",""12922""
""fullscreenenter"",""5"",""22060""
","""event"",""trial"",""time""
""blur"",""3"",""12754""
","""event"",""trial"",""time""
""focus"",""3"",""12922""
","""event"",""trial"",""time""
""fullscreenenter"",""5"",""22060""
","
","","images/earth.jpg","","","","","","","","","","","","","","fixation","","","","","",""
"d3-animate-choice","73","439679","0.0-61.0-0.4","2673","6204","18","Female","false","true","false","true","""event"",""trial"",""time""
""blur"",""3"",""12754""
""focus"",""3"",""12922""
""fullscreenenter"",""5"",""22060""
","""event"",""trial"",""time""
""blur"",""3"",""12754""
","""event"",""trial"",""time""
""focus"",""3"",""12922""
","""event"",""trial"",""time""
""fullscreenenter"",""5"",""22060""
","
","336.80000019073486","","49","","","3000","1","","","images/earth.jpg","images/tutrocket1","images/tutrocket2","null","images/tutrocket2","","1","practice","null","1","","",""
"d3-animate-choice","74","442892","0.0-61.0-1.4","2673","6204","18","Female","false","true","false","true","""event"",""trial"",""time""
""blur"",""3"",""12754""
""focus"",""3"",""12922""
""fullscreenenter"",""5"",""22060""
","""event"",""trial"",""time""
""blur"",""3"",""12754""
","""event"",""trial"",""time""
""focus"",""3"",""12922""
","""event"",""trial"",""time""
""fullscreenenter"",""5"",""22060""
","
","1207.4000000953674","","49","","","3000","1","","","images/tutyellowplanet.jpg","images/tutalien4","images/tutalien3","images/tutrocket2","images/tutalien3","images/nothing.png","2","practice","true","1","common","0","2023-02-06 20:45:03.084"
"two-step-fixation","75","443900","0.0-61.0-2.4","2673","6204","18","Female","false","true","false","true","""event"",""trial"",""time""
""blur"",""3"",""12754""
""focus"",""3"",""12922""
""fullscreenenter"",""5"",""22060""
","""event"",""trial"",""time""
""blur"",""3"",""12754""
","""event"",""trial"",""time""
""focus"",""3"",""12922""
","""event"",""trial"",""time""
""fullscreenenter"",""5"",""22060""
","
","","images/earth.jpg","","","","","","","","","","","","","","fixation","","","","","",""
"d3-animate-choice","76","446332","0.0-61.0-0.5","2673","6204","18","Female","false","true","false","true","""event"",""trial"",""time""
""blur"",""3"",""12754""
""focus"",""3"",""12922""
""fullscreenenter"",""5"",""22060""
","""event"",""trial"",""time""
""blur"",""3"",""12754""
","""event"",""trial"",""time""
""focus"",""3"",""12922""
","""event"",""trial"",""time""
""fullscreenenter"",""5"",""22060""
","
","423","","49","","","3000","1","","","images/earth.jpg","images/tutrocket1","images/tutrocket2","null","images/tutrocket2","","1","practice","null","1","","",""
"d3-animate-choice","77","449367","0.0-61.0-1.5","2673","6204","18","Female","false","true","false","true","""event"",""trial"",""time""
""blur"",""3"",""12754""
""focus"",""3"",""12922""
""fullscreenenter"",""5"",""22060""
","""event"",""trial"",""time""
""blur"",""3"",""12754""
","""event"",""trial"",""time""
""focus"",""3"",""12922""
","""event"",""trial"",""time""
""fullscreenenter"",""5"",""22060""
","
","1023.7000002861023","","48","","","3000","1","","","images/tutyellowplanet.jpg","images/tutalien4","images/tutalien3","images/tutrocket2","images/tutalien4","images/nothing.png","2","practice","true","2","common","0","2023-02-06 20:45:09.558"
"two-step-fixation","78","450373","0.0-61.0-2.5","2673","6204","18","Female","false","true","false","true","""event"",""trial"",""time""
""blur"",""3"",""12754""
""focus"",""3"",""12922""
""fullscreenenter"",""5"",""22060""
","""event"",""trial"",""time""
""blur"",""3"",""12754""
","""event"",""trial"",""time""
""focus"",""3"",""12922""
","""event"",""trial"",""time""
""fullscreenenter"",""5"",""22060""
","
","","images/earth.jpg","","","","","","","","","","","","","","fixation","","","","","",""
"d3-animate-choice","79","452983","0.0-61.0-0.6","2673","6204","18","Female","false","true","false","true","""event"",""trial"",""time""
""blur"",""3"",""12754""
""focus"",""3"",""12922""
""fullscreenenter"",""5"",""22060""
","""event"",""trial"",""time""
""blur"",""3"",""12754""
","""event"",""trial"",""time""
""focus"",""3"",""12922""
","""event"",""trial"",""time""
""fullscreenenter"",""5"",""22060""
","
","597.9000000953674","","48","","","3000","1","","","images/earth.jpg","images/tutrocket1","images/tutrocket2","null","images/tutrocket1","","1","practice","null","2","","",""
"d3-animate-choice","80","455692","0.0-61.0-1.6","2673","6204","18","Female","false","true","false","true","""event"",""trial"",""time""
""blur"",""3"",""12754""
""focus"",""3"",""12922""
""fullscreenenter"",""5"",""22060""
","""event"",""trial"",""time""
""blur"",""3"",""12754""
","""event"",""trial"",""time""
""focus"",""3"",""12922""
","""event"",""trial"",""time""
""fullscreenenter"",""5"",""22060""
","
","704.1999998092651","","49","","","3000","1","","","images/tutyellowplanet.jpg","images/tutalien4","images/tutalien3","images/tutrocket1","images/tutalien3","images/nothing.png","2","practice","false","1","rare","0","2023-02-06 20:45:15.884"
"two-step-fixation","81","456700","0.0-61.0-2.6","2673","6204","18","Female","false","true","false","true","""event"",""trial"",""time""
""blur"",""3"",""12754""
""focus"",""3"",""12922""
""fullscreenenter"",""5"",""22060""
","""event"",""trial"",""time""
""blur"",""3"",""12754""
","""event"",""trial"",""time""
""focus"",""3"",""12922""
","""event"",""trial"",""time""
""fullscreenenter"",""5"",""22060""
","
","","images/earth.jpg","","","","","","","","","","","","","","fixation","","","","","",""
"d3-animate-choice","82","459120","0.0-61.0-0.7","2673","6204","18","Female","false","true","false","true","""event"",""trial"",""time""
""blur"",""3"",""12754""
""focus"",""3"",""12922""
""fullscreenenter"",""5"",""22060""
","""event"",""trial"",""time""
""blur"",""3"",""12754""
","""event"",""trial"",""time""
""focus"",""3"",""12922""
","""event"",""trial"",""time""
""fullscreenenter"",""5"",""22060""
","
","404.7999997138977","","49","","","3000","1","","","images/earth.jpg","images/tutrocket1","images/tutrocket2","null","images/tutrocket2","","1","practice","null","1","","",""
"d3-animate-choice","83","461911","0.0-61.0-1.7","2673","6204","18","Female","false","true","false","true","""event"",""trial"",""time""
""blur"",""3"",""12754""
""focus"",""3"",""12922""
""fullscreenenter"",""5"",""22060""
","""event"",""trial"",""time""
""blur"",""3"",""12754""
","""event"",""trial"",""time""
""focus"",""3"",""12922""
","""event"",""trial"",""time""
""fullscreenenter"",""5"",""22060""
","
","779.0999999046326","","49","","","3000","1","","","images/tutgreenplanet.jpg","images/tutalien2","images/tutalien1","images/tutrocket2","images/tutalien1","images/t.png","2","practice","false","1","rare","1","2023-02-06 20:45:22.102"
"two-step-fixation","84","462919","0.0-61.0-2.7","2673","6204","18","Female","false","true","false","true","""event"",""trial"",""time""
""blur"",""3"",""12754""
""focus"",""3"",""12922""
""fullscreenenter"",""5"",""22060""
","""event"",""trial"",""time""
""blur"",""3"",""12754""
","""event"",""trial"",""time""
""focus"",""3"",""12922""
","""event"",""trial"",""time""
""fullscreenenter"",""5"",""22060""
","
","","images/earth.jpg","","","","","","","","","","","","","","fixation","","","","","",""
"d3-animate-choice","85","465312","0.0-61.0-0.8","2673","6204","18","Female","false","true","false","true","""event"",""trial"",""time""
""blur"",""3"",""12754""
""focus"",""3"",""12922""
""fullscreenenter"",""5"",""22060""
","""event"",""trial"",""time""
""blur"",""3"",""12754""
","""event"",""trial"",""time""
""focus"",""3"",""12922""
","""event"",""trial"",""time""
""fullscreenenter"",""5"",""22060""
","
","377.09999990463257","","49","","","3000","1","","","images/earth.jpg","images/tutrocket1","images/tutrocket2","null","images/tutrocket2","","1","practice","null","1","","",""
"d3-animate-choice","86","468143","0.0-61.0-1.8","2673","6204","18","Female","false","true","false","true","""event"",""trial"",""time""
""blur"",""3"",""12754""
""focus"",""3"",""12922""
""fullscreenenter"",""5"",""22060""
","""event"",""trial"",""time""
""blur"",""3"",""12754""
","""event"",""trial"",""time""
""focus"",""3"",""12922""
","""event"",""trial"",""time""
""fullscreenenter"",""5"",""22060""
","
","819.8000001907349","","49","","","3000","1","","","images/tutgreenplanet.jpg","images/tutalien2","images/tutalien1","images/tutrocket2","images/tutalien1","images/t.png","2","practice","false","1","rare","1","2023-02-06 20:45:28.335"
"two-step-fixation","87","469159","0.0-61.0-2.8","2673","6204","18","Female","false","true","false","true","""event"",""trial"",""time""
""blur"",""3"",""12754""
""focus"",""3"",""12922""
""fullscreenenter"",""5"",""22060""
","""event"",""trial"",""time""
""blur"",""3"",""12754""
","""event"",""trial"",""time""
""focus"",""3"",""12922""
","""event"",""trial"",""time""
""fullscreenenter"",""5"",""22060""
","
","","images/earth.jpg","","","","","","","","","","","","","","fixation","","","","","",""
"d3-animate-choice","88","471527","0.0-61.0-0.9","2673","6204","18","Female","false","true","false","true","""event"",""trial"",""time""
""blur"",""3"",""12754""
""focus"",""3"",""12922""
""fullscreenenter"",""5"",""22060""
","""event"",""trial"",""time""
""blur"",""3"",""12754""
","""event"",""trial"",""time""
""focus"",""3"",""12922""
","""event"",""trial"",""time""
""fullscreenenter"",""5"",""22060""
","
","356.40000009536743","","49","","","3000","1","","","images/earth.jpg","images/tutrocket1","images/tutrocket2","null","images/tutrocket2","","1","practice","null","1","","",""
"d3-animate-choice","89","474311","0.0-61.0-1.9","2673","6204","18","Female","false","true","false","true","""event"",""trial"",""time""
""blur"",""3"",""12754""
""focus"",""3"",""12922""
""fullscreenenter"",""5"",""22060""
","""event"",""trial"",""time""
""blur"",""3"",""12754""
","""event"",""trial"",""time""
""focus"",""3"",""12922""
","""event"",""trial"",""time""
""fullscreenenter"",""5"",""22060""
","
","775.0999999046326","","48","","","3000","1","","","images/tutyellowplanet.jpg","images/tutalien4","images/tutalien3","images/tutrocket2","images/tutalien4","images/t.png","2","practice","true","2","common","1","2023-02-06 20:45:34.502"
"two-step-fixation","90","475319","0.0-61.0-2.9","2673","6204","18","Female","false","true","false","true","""event"",""trial"",""time""
""blur"",""3"",""12754""
""focus"",""3"",""12922""
""fullscreenenter"",""5"",""22060""
","""event"",""trial"",""time""
""blur"",""3"",""12754""
","""event"",""trial"",""time""
""focus"",""3"",""12922""
","""event"",""trial"",""time""
""fullscreenenter"",""5"",""22060""
","
","","images/earth.jpg","","","","","","","","","","","","","","fixation","","","","","",""
"d3-animate-choice","91","477685","0.0-61.0-0.10","2673","6204","18","Female","false","true","false","true","""event"",""trial"",""time""
""blur"",""3"",""12754""
""focus"",""3"",""12922""
""fullscreenenter"",""5"",""22060""
","""event"",""trial"",""time""
""blur"",""3"",""12754""
","""event"",""trial"",""time""
""focus"",""3"",""12922""
","""event"",""trial"",""time""
""fullscreenenter"",""5"",""22060""
","
","360.09999990463257","","49","","","3000","1","","","images/earth.jpg","images/tutrocket1","images/tutrocket2","null","images/tutrocket2","","1","practice","null","1","","",""
"d3-animate-choice","92","480295","0.0-61.0-1.10","2673","6204","18","Female","false","true","false","true","""event"",""trial"",""time""
""blur"",""3"",""12754""
""focus"",""3"",""12922""
""fullscreenenter"",""5"",""22060""
","""event"",""trial"",""time""
""blur"",""3"",""12754""
","""event"",""trial"",""time""
""focus"",""3"",""12922""
","""event"",""trial"",""time""
""fullscreenenter"",""5"",""22060""
","
","598.8000001907349","","48","","","3000","1","","","images/tutyellowplanet.jpg","images/tutalien4","images/tutalien3","images/tutrocket2","images/tutalien4","images/t.png","2","practice","true","2","common","1","2023-02-06 20:45:40.486"
"two-step-fixation","93","481303","0.0-61.0-2.10","2673","6204","18","Female","false","true","false","true","""event"",""trial"",""time""
""blur"",""3"",""12754""
""focus"",""3"",""12922""
""fullscreenenter"",""5"",""22060""
","""event"",""trial"",""time""
""blur"",""3"",""12754""
","""event"",""trial"",""time""
""focus"",""3"",""12922""
","""event"",""trial"",""time""
""fullscreenenter"",""5"",""22060""
","
","","images/earth.jpg","","","","","","","","","","","","","","fixation","","","","","",""
"d3-animate-choice","94","483752","0.0-61.0-0.11","2673","6204","18","Female","false","true","false","true","""event"",""trial"",""time""
""blur"",""3"",""12754""
""focus"",""3"",""12922""
""fullscreenenter"",""5"",""22060""
","""event"",""trial"",""time""
""blur"",""3"",""12754""
","""event"",""trial"",""time""
""focus"",""3"",""12922""
","""event"",""trial"",""time""
""fullscreenenter"",""5"",""22060""
","
","433.80000019073486","","49","","","3000","1","","","images/earth.jpg","images/tutrocket1","images/tutrocket2","null","images/tutrocket2","","1","practice","null","1","","",""
"d3-animate-choice","95","486224","0.0-61.0-1.11","2673","6204","18","Female","false","true","false","true","""event"",""trial"",""time""
""blur"",""3"",""12754""
""focus"",""3"",""12922""
""fullscreenenter"",""5"",""22060""
","""event"",""trial"",""time""
""blur"",""3"",""12754""
","""event"",""trial"",""time""
""focus"",""3"",""12922""
","""event"",""trial"",""time""
""fullscreenenter"",""5"",""22060""
","
","460.5","","48","","","3000","1","","","images/tutyellowplanet.jpg","images/tutalien4","images/tutalien3","images/tutrocket2","images/tutalien4","images/nothing.png","2","practice","true","2","common","0","2023-02-06 20:45:46.415"
"two-step-fixation","96","487239","0.0-61.0-2.11","2673","6204","18","Female","false","true","false","true","""event"",""trial"",""time""
""blur"",""3"",""12754""
""focus"",""3"",""12922""
""fullscreenenter"",""5"",""22060""
","""event"",""trial"",""time""
""blur"",""3"",""12754""
","""event"",""trial"",""time""
""focus"",""3"",""12922""
","""event"",""trial"",""time""
""fullscreenenter"",""5"",""22060""
","
","","images/earth.jpg","","","","","","","","","","","","","","fixation","","","","","",""
"d3-animate-choice","97","489655","0.0-61.0-0.12","2673","6204","18","Female","false","true","false","true","""event"",""trial"",""time""
""blur"",""3"",""12754""
""focus"",""3"",""12922""
""fullscreenenter"",""5"",""22060""
","""event"",""trial"",""time""
""blur"",""3"",""12754""
","""event"",""trial"",""time""
""focus"",""3"",""12922""
","""event"",""trial"",""time""
""fullscreenenter"",""5"",""22060""
","
","407.90000009536743","","49","","","3000","1","","","images/earth.jpg","images/tutrocket1","images/tutrocket2","null","images/tutrocket2","","1","practice","null","1","","",""
"d3-animate-choice","98","492492","0.0-61.0-1.12","2673","6204","18","Female","false","true","false","true","""event"",""trial"",""time""
""blur"",""3"",""12754""
""focus"",""3"",""12922""
""fullscreenenter"",""5"",""22060""
","""event"",""trial"",""time""
""blur"",""3"",""12754""
","""event"",""trial"",""time""
""focus"",""3"",""12922""
","""event"",""trial"",""time""
""fullscreenenter"",""5"",""22060""
","
","830","","49","","","3000","1","","","images/tutyellowplanet.jpg","images/tutalien4","images/tutalien3","images/tutrocket2","images/tutalien3","images/t.png","2","practice","true","1","common","1","2023-02-06 20:45:52.683"
"two-step-fixation","99","493504","0.0-61.0-2.12","2673","6204","18","Female","false","true","false","true","""event"",""trial"",""time""
""blur"",""3"",""12754""
""focus"",""3"",""12922""
""fullscreenenter"",""5"",""22060""
","""event"",""trial"",""time""
""blur"",""3"",""12754""
","""event"",""trial"",""time""
""focus"",""3"",""12922""
","""event"",""trial"",""time""
""fullscreenenter"",""5"",""22060""
","
","","images/earth.jpg","","","","","","","","","","","","","","fixation","","","","","",""
"d3-animate-choice","100","495967","0.0-61.0-0.13","2673","6204","18","Female","false","true","false","true","""event"",""trial"",""time""
""blur"",""3"",""12754""
""focus"",""3"",""12922""
""fullscreenenter"",""5"",""22060""
","""event"",""trial"",""time""
""blur"",""3"",""12754""
","""event"",""trial"",""time""
""focus"",""3"",""12922""
","""event"",""trial"",""time""
""fullscreenenter"",""5"",""22060""
","
","455.5","","49","","","3000","1","","","images/earth.jpg","images/tutrocket1","images/tutrocket2","null","images/tutrocket2","","1","practice","null","1","","",""
"d3-animate-choice","101","498668","0.0-61.0-1.13","2673","6204","18","Female","false","true","false","true","""event"",""trial"",""time""
""blur"",""3"",""12754""
""focus"",""3"",""12922""
""fullscreenenter"",""5"",""22060""
","""event"",""trial"",""time""
""blur"",""3"",""12754""
","""event"",""trial"",""time""
""focus"",""3"",""12922""
","""event"",""trial"",""time""
""fullscreenenter"",""5"",""22060""
","
","691.5","","49","","","3000","1","","","images/tutyellowplanet.jpg","images/tutalien4","images/tutalien3","images/tutrocket2","images/tutalien3","images/nothing.png","2","practice","true","1","common","0","2023-02-06 20:45:58.860"
"two-step-fixation","102","499674","0.0-61.0-2.13","2673","6204","18","Female","false","true","false","true","""event"",""trial"",""time""
""blur"",""3"",""12754""
""focus"",""3"",""12922""
""fullscreenenter"",""5"",""22060""
","""event"",""trial"",""time""
""blur"",""3"",""12754""
","""event"",""trial"",""time""
""focus"",""3"",""12922""
","""event"",""trial"",""time""
""fullscreenenter"",""5"",""22060""
","
","","images/earth.jpg","","","","","","","","","","","","","","fixation","","","","","",""
"d3-animate-choice","103","502272","0.0-61.0-0.14","2673","6204","18","Female","false","true","false","true","""event"",""trial"",""time""
""blur"",""3"",""12754""
""focus"",""3"",""12922""
""fullscreenenter"",""5"",""22060""
","""event"",""trial"",""time""
""blur"",""3"",""12754""
","""event"",""trial"",""time""
""focus"",""3"",""12922""
","""event"",""trial"",""time""
""fullscreenenter"",""5"",""22060""
","
","583.9000000953674","","48","","","3000","1","","","images/earth.jpg","images/tutrocket1","images/tutrocket2","null","images/tutrocket1","","1","practice","null","2","","",""
"d3-animate-choice","104","504768","0.0-61.0-1.14","2673","6204","18","Female","false","true","false","true","""event"",""trial"",""time""
""blur"",""3"",""12754""
""focus"",""3"",""12922""
""fullscreenenter"",""5"",""22060""
","""event"",""trial"",""time""
""blur"",""3"",""12754""
","""event"",""trial"",""time""
""focus"",""3"",""12922""
","""event"",""trial"",""time""
""fullscreenenter"",""5"",""22060""
","
","489","","48","","","3000","1","","","images/tutgreenplanet.jpg","images/tutalien2","images/tutalien1","images/tutrocket1","images/tutalien2","images/nothing.png","2","practice","true","2","common","0","2023-02-06 20:46:04.959"
"two-step-fixation","105","505772","0.0-61.0-2.14","2673","6204","18","Female","false","true","false","true","""event"",""trial"",""time""
""blur"",""3"",""12754""
""focus"",""3"",""12922""
""fullscreenenter"",""5"",""22060""
","""event"",""trial"",""time""
""blur"",""3"",""12754""
","""event"",""trial"",""time""
""focus"",""3"",""12922""
","""event"",""trial"",""time""
""fullscreenenter"",""5"",""22060""
","
","","images/earth.jpg","","","","","","","","","","","","","","fixation","","","","","",""
"d3-animate-choice","106","508144","0.0-61.0-0.15","2673","6204","18","Female","false","true","false","true","""event"",""trial"",""time""
""blur"",""3"",""12754""
""focus"",""3"",""12922""
""fullscreenenter"",""5"",""22060""
","""event"",""trial"",""time""
""blur"",""3"",""12754""
","""event"",""trial"",""time""
""focus"",""3"",""12922""
","""event"",""trial"",""time""
""fullscreenenter"",""5"",""22060""
","
","360.90000009536743","","48","","","3000","1","","","images/earth.jpg","images/tutrocket1","images/tutrocket2","null","images/tutrocket1","","1","practice","null","2","","",""
"d3-animate-choice","107","510503","0.0-61.0-1.15","2673","6204","18","Female","false","true","false","true","""event"",""trial"",""time""
""blur"",""3"",""12754""
""focus"",""3"",""12922""
""fullscreenenter"",""5"",""22060""
","""event"",""trial"",""time""
""blur"",""3"",""12754""
","""event"",""trial"",""time""
""focus"",""3"",""12922""
","""event"",""trial"",""time""
""fullscreenenter"",""5"",""22060""
","
","346.7000002861023","","49","","","3000","1","","","images/tutgreenplanet.jpg","images/tutalien2","images/tutalien1","images/tutrocket1","images/tutalien1","images/nothing.png","2","practice","true","1","common","0","2023-02-06 20:46:10.694"
"two-step-fixation","108","511511","0.0-61.0-2.15","2673","6204","18","Female","false","true","false","true","""event"",""trial"",""time""
""blur"",""3"",""12754""
""focus"",""3"",""12922""
""fullscreenenter"",""5"",""22060""
","""event"",""trial"",""time""
""blur"",""3"",""12754""
","""event"",""trial"",""time""
""focus"",""3"",""12922""
","""event"",""trial"",""time""
""fullscreenenter"",""5"",""22060""
","
","","images/earth.jpg","","","","","","","","","","","","","","fixation","","","","","",""
"d3-animate-choice","109","513820","0.0-61.0-0.16","2673","6204","18","Female","false","true","false","true","""event"",""trial"",""time""
""blur"",""3"",""12754""
""focus"",""3"",""12922""
""fullscreenenter"",""5"",""22060""
","""event"",""trial"",""time""
""blur"",""3"",""12754""
","""event"",""trial"",""time""
""focus"",""3"",""12922""
","""event"",""trial"",""time""
""fullscreenenter"",""5"",""22060""
","
","303.19999980926514","","49","","","3000","1","","","images/earth.jpg","images/tutrocket1","images/tutrocket2","null","images/tutrocket2","","1","practice","null","1","","",""
"d3-animate-choice","110","516535","0.0-61.0-1.16","2673","6204","18","Female","false","true","false","true","""event"",""trial"",""time""
""blur"",""3"",""12754""
""focus"",""3"",""12922""
""fullscreenenter"",""5"",""22060""
","""event"",""trial"",""time""
""blur"",""3"",""12754""
","""event"",""trial"",""time""
""focus"",""3"",""12922""
","""event"",""trial"",""time""
""fullscreenenter"",""5"",""22060""
","
","703.4000000953674","","49","","","3000","1","","","images/tutgreenplanet.jpg","images/tutalien2","images/tutalien1","images/tutrocket2","images/tutalien1","images/nothing.png","2","practice","false","1","rare","0","2023-02-06 20:46:16.726"
"two-step-fixation","111","517543","0.0-61.0-2.16","2673","6204","18","Female","false","true","false","true","""event"",""trial"",""time""
""blur"",""3"",""12754""
""focus"",""3"",""12922""
""fullscreenenter"",""5"",""22060""
","""event"",""trial"",""time""
""blur"",""3"",""12754""
","""event"",""trial"",""time""
""focus"",""3"",""12922""
","""event"",""trial"",""time""
""fullscreenenter"",""5"",""22060""
","
","","images/earth.jpg","","","","","","","","","","","","","","fixation","","","","","",""
"d3-animate-choice","112","519842","0.0-61.0-0.17","2673","6204","18","Female","false","true","false","true","""event"",""trial"",""time""
""blur"",""3"",""12754""
""focus"",""3"",""12922""
""fullscreenenter"",""5"",""22060""
","""event"",""trial"",""time""
""blur"",""3"",""12754""
","""event"",""trial"",""time""
""focus"",""3"",""12922""
","""event"",""trial"",""time""
""fullscreenenter"",""5"",""22060""
","
","293.7000002861023","","49","","","3000","1","","","images/earth.jpg","images/tutrocket1","images/tutrocket2","null","images/tutrocket2","","1","practice","null","1","","",""
"d3-animate-choice","113","522519","0.0-61.0-1.17","2673","6204","18","Female","false","true","false","true","""event"",""trial"",""time""
""blur"",""3"",""12754""
""focus"",""3"",""12922""
""fullscreenenter"",""5"",""22060""
","""event"",""trial"",""time""
""blur"",""3"",""12754""
","""event"",""trial"",""time""
""focus"",""3"",""12922""
","""event"",""trial"",""time""
""fullscreenenter"",""5"",""22060""
","
","664.5","","49","","","3000","1","","","images/tutgreenplanet.jpg","images/tutalien2","images/tutalien1","images/tutrocket2","images/tutalien1","images/nothing.png","2","practice","false","1","rare","0","2023-02-06 20:46:22.710"
"two-step-fixation","114","523527","0.0-61.0-2.17","2673","6204","18","Female","false","true","false","true","""event"",""trial"",""time""
""blur"",""3"",""12754""
""focus"",""3"",""12922""
""fullscreenenter"",""5"",""22060""
","""event"",""trial"",""time""
""blur"",""3"",""12754""
","""event"",""trial"",""time""
""focus"",""3"",""12922""
","""event"",""trial"",""time""
""fullscreenenter"",""5"",""22060""
","
","","images/earth.jpg","","","","","","","","","","","","","","fixation","","","","","",""
"d3-animate-choice","115","525909","0.0-61.0-0.18","2673","6204","18","Female","false","true","false","true","""event"",""trial"",""time""
""blur"",""3"",""12754""
""focus"",""3"",""12922""
""fullscreenenter"",""5"",""22060""
","""event"",""trial"",""time""
""blur"",""3"",""12754""
","""event"",""trial"",""time""
""focus"",""3"",""12922""
","""event"",""trial"",""time""
""fullscreenenter"",""5"",""22060""
","
","372.5","","49","","","3000","1","","","images/earth.jpg","images/tutrocket1","images/tutrocket2","null","images/tutrocket2","","1","practice","null","1","","",""
"d3-animate-choice","116","529184","0.0-61.0-1.18","2673","6204","18","Female","false","true","false","true","""event"",""trial"",""time""
""blur"",""3"",""12754""
""focus"",""3"",""12922""
""fullscreenenter"",""5"",""22060""
","""event"",""trial"",""time""
""blur"",""3"",""12754""
","""event"",""trial"",""time""
""focus"",""3"",""12922""
","""event"",""trial"",""time""
""fullscreenenter"",""5"",""22060""
","
","1259.7999997138977","","48","","","3000","1","","","images/tutyellowplanet.jpg","images/tutalien4","images/tutalien3","images/tutrocket2","images/tutalien4","images/t.png","2","practice","true","2","common","1","2023-02-06 20:46:29.375"
"two-step-fixation","117","530192","0.0-61.0-2.18","2673","6204","18","Female","false","true","false","true","""event"",""trial"",""time""
""blur"",""3"",""12754""
""focus"",""3"",""12922""
""fullscreenenter"",""5"",""22060""
","""event"",""trial"",""time""
""blur"",""3"",""12754""
","""event"",""trial"",""time""
""focus"",""3"",""12922""
","""event"",""trial"",""time""
""fullscreenenter"",""5"",""22060""
","
","","images/earth.jpg","","","","","","","","","","","","","","fixation","","","","","",""
"d3-animate-choice","118","532508","0.0-61.0-0.19","2673","6204","18","Female","false","true","false","true","""event"",""trial"",""time""
""blur"",""3"",""12754""
""focus"",""3"",""12922""
""fullscreenenter"",""5"",""22060""
","""event"",""trial"",""time""
""blur"",""3"",""12754""
","""event"",""trial"",""time""
""focus"",""3"",""12922""
","""event"",""trial"",""time""
""fullscreenenter"",""5"",""22060""
","
","303.2999997138977","","49","","","3000","1","","","images/earth.jpg","images/tutrocket1","images/tutrocket2","null","images/tutrocket2","","1","practice","null","1","","",""
"d3-animate-choice","119","535104","0.0-61.0-1.19","2673","6204","18","Female","false","true","false","true","""event"",""trial"",""time""
""blur"",""3"",""12754""
""focus"",""3"",""12922""
""fullscreenenter"",""5"",""22060""
","""event"",""trial"",""time""
""blur"",""3"",""12754""
","""event"",""trial"",""time""
""focus"",""3"",""12922""
","""event"",""trial"",""time""
""fullscreenenter"",""5"",""22060""
","
","584.9000000953674","","48","","","3000","1","","","images/tutgreenplanet.jpg","images/tutalien2","images/tutalien1","images/tutrocket2","images/tutalien2","images/t.png","2","practice","false","2","rare","1","2023-02-06 20:46:35.295"
"two-step-fixation","120","536112","0.0-61.0-2.19","2673","6204","18","Female","false","true","false","true","""event"",""trial"",""time""
""blur"",""3"",""12754""
""focus"",""3"",""12922""
""fullscreenenter"",""5"",""22060""
","""event"",""trial"",""time""
""blur"",""3"",""12754""
","""event"",""trial"",""time""
""focus"",""3"",""12922""
","""event"",""trial"",""time""
""fullscreenenter"",""5"",""22060""
","
","","images/earth.jpg","","","","","","","","","","","","","","fixation","","","","","",""
"d3-instructions","121","538993","0.0-62.0","2673","6204","18","Female","false","true","false","true","""event"",""trial"",""time""
""blur"",""3"",""12754""
""focus"",""3"",""12922""
""fullscreenenter"",""5"",""22060""
","""event"",""trial"",""time""
""blur"",""3"",""12754""
","""event"",""trial"",""time""
""focus"",""3"",""12922""
","""event"",""trial"",""time""
""fullscreenenter"",""5"",""22060""
","
","","","","","","","","","","","","","","","","","","","","","",""
"audio-keyboard-response","122","543439","0.0-63.0","2673","6204","18","Female","false","true","false","true","""event"",""trial"",""time""
""blur"",""3"",""12754""
""focus"",""3"",""12922""
""fullscreenenter"",""5"",""22060""
","""event"",""trial"",""time""
""blur"",""3"",""12754""
","""event"",""trial"",""time""
""focus"",""3"",""12922""
","""event"",""trial"",""time""
""fullscreenenter"",""5"",""22060""
","
","4443","audio/instructions/treasure_feedback.wav","32","","","","","","","","","","","","","","","","","","",""
"d3-instructions","123","563522","0.0-64.0","2673","6204","18","Female","false","true","false","true","""event"",""trial"",""time""
""blur"",""3"",""12754""
""focus"",""3"",""12922""
""fullscreenenter"",""5"",""22060""
","""event"",""trial"",""time""
""blur"",""3"",""12754""
","""event"",""trial"",""time""
""focus"",""3"",""12922""
","""event"",""trial"",""time""
""fullscreenenter"",""5"",""22060""
","
","","","","","","","","","","","","","","","","","","","","","",""
"d3-instructions","124","580126","0.0-65.0","2673","6204","18","Female","false","true","false","true","""event"",""trial"",""time""
""blur"",""3"",""12754""
""focus"",""3"",""12922""
""fullscreenenter"",""5"",""22060""
","""event"",""trial"",""time""
""blur"",""3"",""12754""
","""event"",""trial"",""time""
""focus"",""3"",""12922""
","""event"",""trial"",""time""
""fullscreenenter"",""5"",""22060""
","
","","","","","","","","","","","","","","","","","","","","","",""
"d3-instructions","125","609057","0.0-66.0","2673","6204","18","Female","false","true","false","true","""event"",""trial"",""time""
""blur"",""3"",""12754""
""focus"",""3"",""12922""
""fullscreenenter"",""5"",""22060""
","""event"",""trial"",""time""
""blur"",""3"",""12754""
","""event"",""trial"",""time""
""focus"",""3"",""12922""
","""event"",""trial"",""time""
""fullscreenenter"",""5"",""22060""
","
","","","","","","","","","","","","","","","","","","","","","",""
"d3-instructions","126","627673","0.0-67.0","2673","6204","18","Female","false","true","false","true","""event"",""trial"",""time""
""blur"",""3"",""12754""
""focus"",""3"",""12922""
""fullscreenenter"",""5"",""22060""
","""event"",""trial"",""time""
""blur"",""3"",""12754""
","""event"",""trial"",""time""
""focus"",""3"",""12922""
","""event"",""trial"",""time""
""fullscreenenter"",""5"",""22060""
","
","","","","","","","","","","","","","","","","","","","","","",""
"d3-instructions","127","630905","0.0-68.0","2673","6204","18","Female","false","true","false","true","""event"",""trial"",""time""
""blur"",""3"",""12754""
""focus"",""3"",""12922""
""fullscreenenter"",""5"",""22060""
","""event"",""trial"",""time""
""blur"",""3"",""12754""
","""event"",""trial"",""time""
""focus"",""3"",""12922""
","""event"",""trial"",""time""
""fullscreenenter"",""5"",""22060""
","
","","","","","","","","","","","","","","","","","","","","","",""
"instructions-quiz","128","633347","0.0-69.0","2673","6204","18","Female","false","true","false","true","""event"",""trial"",""time""
""blur"",""3"",""12754""
""focus"",""3"",""12922""
""fullscreenenter"",""5"",""22060""
","""event"",""trial"",""time""
""blur"",""3"",""12754""
","""event"",""trial"",""time""
""focus"",""3"",""12922""
","""event"",""trial"",""time""
""fullscreenenter"",""5"",""22060""
","
","2438.0999999046326","audio/quiz/Q1_Prompt.wav","","1","","","","","","","","","","","","","","","","","",""
"audio-keyboard-response","129","642516","0.0-70.0","2673","6204","18","Female","false","true","false","true","""event"",""trial"",""time""
""blur"",""3"",""12754""
""focus"",""3"",""12922""
""fullscreenenter"",""5"",""22060""
","""event"",""trial"",""time""
""blur"",""3"",""12754""
","""event"",""trial"",""time""
""focus"",""3"",""12922""
","""event"",""trial"",""time""
""fullscreenenter"",""5"",""22060""
","
","null","audio/quiz/Q1_Correct.wav","null","","","","","","","","","","","","","","","","","","",""
"instructions-quiz","130","647253","0.0-71.0","2673","6204","18","Female","false","true","false","true","""event"",""trial"",""time""
""blur"",""3"",""12754""
""focus"",""3"",""12922""
""fullscreenenter"",""5"",""22060""
","""event"",""trial"",""time""
""blur"",""3"",""12754""
","""event"",""trial"",""time""
""focus"",""3"",""12922""
","""event"",""trial"",""time""
""fullscreenenter"",""5"",""22060""
","
","4733.099999904633","audio/quiz/Q2_Prompt.wav","","0","","","","","","","","","","","","","","","","","",""
"audio-keyboard-response","131","660121","0.0-72.0","2673","6204","18","Female","false","true","false","true","""event"",""trial"",""time""
""blur"",""3"",""12754""
""focus"",""3"",""12922""
""fullscreenenter"",""5"",""22060""
","""event"",""trial"",""time""
""blur"",""3"",""12754""
","""event"",""trial"",""time""
""focus"",""3"",""12922""
","""event"",""trial"",""time""
""fullscreenenter"",""5"",""22060""
","
","null","audio/quiz/Q2_Correct.wav","null","","","","","","","","","","","","","","","","","","",""
"instructions-quiz","132","662398","0.0-73.0","2673","6204","18","Female","false","true","false","true","""event"",""trial"",""time""
""blur"",""3"",""12754""
""focus"",""3"",""12922""
""fullscreenenter"",""5"",""22060""
","""event"",""trial"",""time""
""blur"",""3"",""12754""
","""event"",""trial"",""time""
""focus"",""3"",""12922""
","""event"",""trial"",""time""
""fullscreenenter"",""5"",""22060""
","
","2273","audio/quiz/Q3_Prompt.wav","","1","","","","","","","","","","","","","","","","","",""
"audio-keyboard-response","133","668202","0.0-74.0","2673","6204","18","Female","false","true","false","true","""event"",""trial"",""time""
""blur"",""3"",""12754""
""focus"",""3"",""12922""
""fullscreenenter"",""5"",""22060""
","""event"",""trial"",""time""
""blur"",""3"",""12754""
","""event"",""trial"",""time""
""focus"",""3"",""12922""
","""event"",""trial"",""time""
""fullscreenenter"",""5"",""22060""
","
","null","audio/quiz/Q3_Correct.wav","null","","","","","","","","","","","","","","","","","","",""
"d3-instructions","134","682998","0.0-75.0","2673","6204","18","Female","false","true","false","true","""event"",""trial"",""time""
""blur"",""3"",""12754""
""focus"",""3"",""12922""
""fullscreenenter"",""5"",""22060""
","""event"",""trial"",""time""
""blur"",""3"",""12754""
","""event"",""trial"",""time""
""focus"",""3"",""12922""
","""event"",""trial"",""time""
""fullscreenenter"",""5"",""22060""
","
","","","","","","","","","","","","","","","","","","","","","",""
"pavlovia","135","683003","0.0-76.0","2673","6204","18","Female","false","true","false","true","""event"",""trial"",""time""
""blur"",""3"",""12754""
""focus"",""3"",""12922""
""fullscreenenter"",""5"",""22060""
","""event"",""trial"",""time""
""blur"",""3"",""12754""
","""event"",""trial"",""time""
""focus"",""3"",""12922""
","""event"",""trial"",""time""
""fullscreenenter"",""5"",""22060""
","
","","","","","","","","","","","","","","","","","","","","","",""
"d3-animate-choice","136","685700","0.0-77.0-0.0","2673","6204","18","Female","false","true","false","true","""event"",""trial"",""time""
""blur"",""3"",""12754""
""focus"",""3"",""12922""
""fullscreenenter"",""5"",""22060""
","""event"",""trial"",""time""
""blur"",""3"",""12754""
","""event"",""trial"",""time""
""focus"",""3"",""12922""
","""event"",""trial"",""time""
""fullscreenenter"",""5"",""22060""
","
","690.6999998092651","","49","","","3000","1","","","images/earth.jpg","images/rocket1","images/rocket2","null","images/rocket2","","1","real","null","1","","",""
"d3-animate-choice","137","688411","0.0-77.0-1.0","2673","6204","18","Female","false","true","false","true","""event"",""trial"",""time""
""blur"",""3"",""12754""
""focus"",""3"",""12922""
""fullscreenenter"",""5"",""22060""
","""event"",""trial"",""time""
""blur"",""3"",""12754""
","""event"",""trial"",""time""
""focus"",""3"",""12922""
","""event"",""trial"",""time""
""fullscreenenter"",""5"",""22060""
","
","703.9000000953674","","49","","","3000","1","","","images/purpleplanet.jpg","images/alien4","images/alien3","images/rocket2","images/alien3","images/nothing.png","2","real","true","1","common","0","2023-02-06 20:49:08.603"
"two-step-fixation","138","689422","0.0-77.0-2.0","2673","6204","18","Female","false","true","false","true","""event"",""trial"",""time""
""blur"",""3"",""12754""
""focus"",""3"",""12922""
""fullscreenenter"",""5"",""22060""
","""event"",""trial"",""time""
""blur"",""3"",""12754""
","""event"",""trial"",""time""
""focus"",""3"",""12922""
","""event"",""trial"",""time""
""fullscreenenter"",""5"",""22060""
","
","","images/earth.jpg","","","","","","","","","","","","","","fixation","","","","","",""
"d3-animate-choice","139","691812","0.0-77.0-0.1","2673","6204","18","Female","false","true","false","true","""event"",""trial"",""time""
""blur"",""3"",""12754""
""focus"",""3"",""12922""
""fullscreenenter"",""5"",""22060""
","""event"",""trial"",""time""
""blur"",""3"",""12754""
","""event"",""trial"",""time""
""focus"",""3"",""12922""
","""event"",""trial"",""time""
""fullscreenenter"",""5"",""22060""
","
","383.30000019073486","","48","","","3000","1","","","images/earth.jpg","images/rocket1","images/rocket2","null","images/rocket1","","1","real","null","2","","",""
"d3-animate-choice","140","694804","0.0-77.0-1.1","2673","6204","18","Female","false","true","false","true","""event"",""trial"",""time""
""blur"",""3"",""12754""
""focus"",""3"",""12922""
""fullscreenenter"",""5"",""22060""
","""event"",""trial"",""time""
""blur"",""3"",""12754""
","""event"",""trial"",""time""
""focus"",""3"",""12922""
","""event"",""trial"",""time""
""fullscreenenter"",""5"",""22060""
","
","981.5999999046326","","48","","","3000","1","","","images/purpleplanet.jpg","images/alien4","images/alien3","images/rocket1","images/alien4","images/t.png","2","real","false","2","rare","1","2023-02-06 20:49:14.995"
"two-step-fixation","141","695812","0.0-77.0-2.1","2673","6204","18","Female","false","true","false","true","""event"",""trial"",""time""
""blur"",""3"",""12754""
""focus"",""3"",""12922""
""fullscreenenter"",""5"",""22060""
","""event"",""trial"",""time""
""blur"",""3"",""12754""
","""event"",""trial"",""time""
""focus"",""3"",""12922""
","""event"",""trial"",""time""
""fullscreenenter"",""5"",""22060""
","
","","images/earth.jpg","","","","","","","","","","","","","","fixation","","","","","",""
"d3-animate-choice","142","698516","0.0-77.0-0.2","2673","6204","18","Female","false","true","false","true","""event"",""trial"",""time""
""blur"",""3"",""12754""
""focus"",""3"",""12922""
""fullscreenenter"",""5"",""22060""
","""event"",""trial"",""time""
""blur"",""3"",""12754""
","""event"",""trial"",""time""
""focus"",""3"",""12922""
","""event"",""trial"",""time""
""fullscreenenter"",""5"",""22060""
","
","694.7000002861023","","48","","","3000","1","","","images/earth.jpg","images/rocket1","images/rocket2","null","images/rocket1","","1","real","null","2","","",""
"d3-animate-choice","143","701519","0.0-77.0-1.2","2673","6204","18","Female","false","true","false","true","""event"",""trial"",""time""
""blur"",""3"",""12754""
""focus"",""3"",""12922""
""fullscreenenter"",""5"",""22060""
","""event"",""trial"",""time""
""blur"",""3"",""12754""
","""event"",""trial"",""time""
""focus"",""3"",""12922""
","""event"",""trial"",""time""
""fullscreenenter"",""5"",""22060""
","
","994.1999998092651","","48","","","3000","1","","","images/redplanet1.jpg","images/alien2","images/alien1","images/rocket1","images/alien2","images/nothing.png","2","real","true","2","common","0","2023-02-06 20:49:21.710"
"two-step-fixation","144","702524","0.0-77.0-2.2","2673","6204","18","Female","false","true","false","true","""event"",""trial"",""time""
""blur"",""3"",""12754""
""focus"",""3"",""12922""
""fullscreenenter"",""5"",""22060""
","""event"",""trial"",""time""
""blur"",""3"",""12754""
","""event"",""trial"",""time""
""focus"",""3"",""12922""
","""event"",""trial"",""time""
""fullscreenenter"",""5"",""22060""
","
","","images/earth.jpg","","","","","","","","","","","","","","fixation","","","","","",""
"d3-animate-choice","145","704996","0.0-77.0-0.3","2673","6204","18","Female","false","true","false","true","""event"",""trial"",""time""
""blur"",""3"",""12754""
""focus"",""3"",""12922""
""fullscreenenter"",""5"",""22060""
","""event"",""trial"",""time""
""blur"",""3"",""12754""
","""event"",""trial"",""time""
""focus"",""3"",""12922""
","""event"",""trial"",""time""
""fullscreenenter"",""5"",""22060""
","
","465.09999990463257","","49","","","3000","1","","","images/earth.jpg","images/rocket1","images/rocket2","null","images/rocket2","","1","real","null","1","","",""
"d3-animate-choice","146","707396","0.0-77.0-1.3","2673","6204","18","Female","false","true","false","true","""event"",""trial"",""time""
""blur"",""3"",""12754""
""focus"",""3"",""12922""
""fullscreenenter"",""5"",""22060""
","""event"",""trial"",""time""
""blur"",""3"",""12754""
","""event"",""trial"",""time""
""focus"",""3"",""12922""
","""event"",""trial"",""time""
""fullscreenenter"",""5"",""22060""
","
","392.30000019073486","","48","","","3000","1","","","images/purpleplanet.jpg","images/alien4","images/alien3","images/rocket2","images/alien4","images/nothing.png","2","real","true","2","common","0","2023-02-06 20:49:27.587"
"two-step-fixation","147","708404","0.0-77.0-2.3","2673","6204","18","Female","false","true","false","true","""event"",""trial"",""time""
""blur"",""3"",""12754""
""focus"",""3"",""12922""
""fullscreenenter"",""5"",""22060""
","""event"",""trial"",""time""
""blur"",""3"",""12754""
","""event"",""trial"",""time""
""focus"",""3"",""12922""
","""event"",""trial"",""time""
""fullscreenenter"",""5"",""22060""
","
","","images/earth.jpg","","","","","","","","","","","","","","fixation","","","","","",""
"d3-animate-choice","148","710964","0.0-77.0-0.4","2673","6204","18","Female","false","true","false","true","""event"",""trial"",""time""
""blur"",""3"",""12754""
""focus"",""3"",""12922""
""fullscreenenter"",""5"",""22060""
","""event"",""trial"",""time""
""blur"",""3"",""12754""
","""event"",""trial"",""time""
""focus"",""3"",""12922""
","""event"",""trial"",""time""
""fullscreenenter"",""5"",""22060""
","
","547.5","","49","","","3000","1","","","images/earth.jpg","images/rocket1","images/rocket2","null","images/rocket2","","1","real","null","1","","",""
"d3-animate-choice","149","713486","0.0-77.0-1.4","2673","6204","18","Female","false","true","false","true","""event"",""trial"",""time""
""blur"",""3"",""12754""
""focus"",""3"",""12922""
""fullscreenenter"",""5"",""22060""
","""event"",""trial"",""time""
""blur"",""3"",""12754""
","""event"",""trial"",""time""
""focus"",""3"",""12922""
","""event"",""trial"",""time""
""fullscreenenter"",""5"",""22060""
","
","507.40000009536743","","49","","","3000","1","","","images/redplanet1.jpg","images/alien2","images/alien1","images/rocket2","images/alien1","images/nothing.png","2","real","false","1","rare","0","2023-02-06 20:49:33.678"
"two-step-fixation","150","714494","0.0-77.0-2.4","2673","6204","18","Female","false","true","false","true","""event"",""trial"",""time""
""blur"",""3"",""12754""
""focus"",""3"",""12922""
""fullscreenenter"",""5"",""22060""
","""event"",""trial"",""time""
""blur"",""3"",""12754""
","""event"",""trial"",""time""
""focus"",""3"",""12922""
","""event"",""trial"",""time""
""fullscreenenter"",""5"",""22060""
","
","","images/earth.jpg","","","","","","","","","","","","","","fixation","","","","","",""
"d3-animate-choice","151","717038","0.0-77.0-0.5","2673","6204","18","Female","false","true","false","true","""event"",""trial"",""time""
""blur"",""3"",""12754""
""focus"",""3"",""12922""
""fullscreenenter"",""5"",""22060""
","""event"",""trial"",""time""
""blur"",""3"",""12754""
","""event"",""trial"",""time""
""focus"",""3"",""12922""
","""event"",""trial"",""time""
""fullscreenenter"",""5"",""22060""
","
","537","","49","","","3000","1","","","images/earth.jpg","images/rocket1","images/rocket2","null","images/rocket2","","1","real","null","1","","",""
"d3-animate-choice","152","719428","0.0-77.0-1.5","2673","6204","18","Female","false","true","false","true","""event"",""trial"",""time""
""blur"",""3"",""12754""
""focus"",""3"",""12922""
""fullscreenenter"",""5"",""22060""
","""event"",""trial"",""time""
""blur"",""3"",""12754""
","""event"",""trial"",""time""
""focus"",""3"",""12922""
","""event"",""trial"",""time""
""fullscreenenter"",""5"",""22060""
","
","378.5","","49","","","3000","1","","","images/purpleplanet.jpg","images/alien4","images/alien3","images/rocket2","images/alien3","images/t.png","2","real","true","1","common","1","2023-02-06 20:49:39.619"
"two-step-fixation","153","720436","0.0-77.0-2.5","2673","6204","18","Female","false","true","false","true","""event"",""trial"",""time""
""blur"",""3"",""12754""
""focus"",""3"",""12922""
""fullscreenenter"",""5"",""22060""
","""event"",""trial"",""time""
""blur"",""3"",""12754""
","""event"",""trial"",""time""
""focus"",""3"",""12922""
","""event"",""trial"",""time""
""fullscreenenter"",""5"",""22060""
","
","","images/earth.jpg","","","","","","","","","","","","","","fixation","","","","","",""
"d3-animate-choice","154","722874","0.0-77.0-0.6","2673","6204","18","Female","false","true","false","true","""event"",""trial"",""time""
""blur"",""3"",""12754""
""focus"",""3"",""12922""
""fullscreenenter"",""5"",""22060""
","""event"",""trial"",""time""
""blur"",""3"",""12754""
","""event"",""trial"",""time""
""focus"",""3"",""12922""
","""event"",""trial"",""time""
""fullscreenenter"",""5"",""22060""
","
","431.59999990463257","","48","","","3000","1","","","images/earth.jpg","images/rocket1","images/rocket2","null","images/rocket1","","1","real","null","2","","",""
"d3-animate-choice","155","725630","0.0-77.0-1.6","2673","6204","18","Female","false","true","false","true","""event"",""trial"",""time""
""blur"",""3"",""12754""
""focus"",""3"",""12922""
""fullscreenenter"",""5"",""22060""
","""event"",""trial"",""time""
""blur"",""3"",""12754""
","""event"",""trial"",""time""
""focus"",""3"",""12922""
","""event"",""trial"",""time""
""fullscreenenter"",""5"",""22060""
","
","741.5999999046326","","48","","","3000","1","","","images/redplanet1.jpg","images/alien2","images/alien1","images/rocket1","images/alien2","images/t.png","2","real","true","2","common","1","2023-02-06 20:49:45.822"
"two-step-fixation","156","726638","0.0-77.0-2.6","2673","6204","18","Female","false","true","false","true","""event"",""trial"",""time""
""blur"",""3"",""12754""
""focus"",""3"",""12922""
""fullscreenenter"",""5"",""22060""
","""event"",""trial"",""time""
""blur"",""3"",""12754""
","""event"",""trial"",""time""
""focus"",""3"",""12922""
","""event"",""trial"",""time""
""fullscreenenter"",""5"",""22060""
","
","","images/earth.jpg","","","","","","","","","","","","","","fixation","","","","","",""
"d3-animate-choice","157","728958","0.0-77.0-0.7","2673","6204","18","Female","false","true","false","true","""event"",""trial"",""time""
""blur"",""3"",""12754""
""focus"",""3"",""12922""
""fullscreenenter"",""5"",""22060""
","""event"",""trial"",""time""
""blur"",""3"",""12754""
","""event"",""trial"",""time""
""focus"",""3"",""12922""
","""event"",""trial"",""time""
""fullscreenenter"",""5"",""22060""
","
","306.09999990463257","","48","","","3000","1","","","images/earth.jpg","images/rocket1","images/rocket2","null","images/rocket1","","1","real","null","2","","",""
"d3-animate-choice","158","731620","0.0-77.0-1.7","2673","6204","18","Female","false","true","false","true","""event"",""trial"",""time""
""blur"",""3"",""12754""
""focus"",""3"",""12922""
""fullscreenenter"",""5"",""22060""
","""event"",""trial"",""time""
""blur"",""3"",""12754""
","""event"",""trial"",""time""
""focus"",""3"",""12922""
","""event"",""trial"",""time""
""fullscreenenter"",""5"",""22060""
","
","650","","49","","","3000","1","","","images/purpleplanet.jpg","images/alien4","images/alien3","images/rocket1","images/alien3","images/t.png","2","real","false","1","rare","1","2023-02-06 20:49:51.811"
"two-step-fixation","159","732628","0.0-77.0-2.7","2673","6204","18","Female","false","true","false","true","""event"",""trial"",""time""
""blur"",""3"",""12754""
""focus"",""3"",""12922""
""fullscreenenter"",""5"",""22060""
","""event"",""trial"",""time""
""blur"",""3"",""12754""
","""event"",""trial"",""time""
""focus"",""3"",""12922""
","""event"",""trial"",""time""
""fullscreenenter"",""5"",""22060""
","
","","images/earth.jpg","","","","","","","","","","","","","","fixation","","","","","",""
"d3-animate-choice","160","734980","0.0-77.0-0.8","2673","6204","18","Female","false","true","false","true","""event"",""trial"",""time""
""blur"",""3"",""12754""
""focus"",""3"",""12922""
""fullscreenenter"",""5"",""22060""
","""event"",""trial"",""time""
""blur"",""3"",""12754""
","""event"",""trial"",""time""
""focus"",""3"",""12922""
","""event"",""trial"",""time""
""fullscreenenter"",""5"",""22060""
","
","340","","48","","","3000","1","","","images/earth.jpg","images/rocket1","images/rocket2","null","images/rocket1","","1","real","null","2","","",""
"d3-animate-choice","161","737774","0.0-77.0-1.8","2673","6204","18","Female","false","true","false","true","""event"",""trial"",""time""
""blur"",""3"",""12754""
""focus"",""3"",""12922""
""fullscreenenter"",""5"",""22060""
","""event"",""trial"",""time""
""blur"",""3"",""12754""
","""event"",""trial"",""time""
""focus"",""3"",""12922""
","""event"",""trial"",""time""
""fullscreenenter"",""5"",""22060""
","
","789","","49","","","3000","1","","","images/purpleplanet.jpg","images/alien4","images/alien3","images/rocket1","images/alien3","images/nothing.png","2","real","false","1","rare","0","2023-02-06 20:49:57.965"
"two-step-fixation","162","738783","0.0-77.0-2.8","2673","6204","18","Female","false","true","false","true","""event"",""trial"",""time""
""blur"",""3"",""12754""
""focus"",""3"",""12922""
""fullscreenenter"",""5"",""22060""
","""event"",""trial"",""time""
""blur"",""3"",""12754""
","""event"",""trial"",""time""
""focus"",""3"",""12922""
","""event"",""trial"",""time""
""fullscreenenter"",""5"",""22060""
","
","","images/earth.jpg","","","","","","","","","","","","","","fixation","","","","","",""
"d3-animate-choice","163","741348","0.0-77.0-0.9","2673","6204","18","Female","false","true","false","true","""event"",""trial"",""time""
""blur"",""3"",""12754""
""focus"",""3"",""12922""
""fullscreenenter"",""5"",""22060""
","""event"",""trial"",""time""
""blur"",""3"",""12754""
","""event"",""trial"",""time""
""focus"",""3"",""12922""
","""event"",""trial"",""time""
""fullscreenenter"",""5"",""22060""
","
","553.3999996185303","","49","","","3000","1","","","images/earth.jpg","images/rocket1","images/rocket2","null","images/rocket2","","1","real","null","1","","",""
"d3-animate-choice","164","744541","0.0-77.0-1.9","2673","6204","18","Female","false","true","false","true","""event"",""trial"",""time""
""blur"",""3"",""12754""
""focus"",""3"",""12922""
""fullscreenenter"",""5"",""22060""
","""event"",""trial"",""time""
""blur"",""3"",""12754""
","""event"",""trial"",""time""
""focus"",""3"",""12922""
","""event"",""trial"",""time""
""fullscreenenter"",""5"",""22060""
","
","1181.5","","48","","","3000","1","","","images/purpleplanet.jpg","images/alien4","images/alien3","images/rocket2","images/alien4","images/t.png","2","real","true","2","common","1","2023-02-06 20:50:04.732"
"two-step-fixation","165","745550","0.0-77.0-2.9","2673","6204","18","Female","false","true","false","true","""event"",""trial"",""time""
""blur"",""3"",""12754""
""focus"",""3"",""12922""
""fullscreenenter"",""5"",""22060""
","""event"",""trial"",""time""
""blur"",""3"",""12754""
","""event"",""trial"",""time""
""focus"",""3"",""12922""
","""event"",""trial"",""time""
""fullscreenenter"",""5"",""22060""
","
","","images/earth.jpg","","","","","","","","","","","","","","fixation","","","","","",""
"d3-animate-choice","166","747886","0.0-77.0-0.10","2673","6204","18","Female","false","true","false","true","""event"",""trial"",""time""
""blur"",""3"",""12754""
""focus"",""3"",""12922""
""fullscreenenter"",""5"",""22060""
","""event"",""trial"",""time""
""blur"",""3"",""12754""
","""event"",""trial"",""time""
""focus"",""3"",""12922""
","""event"",""trial"",""time""
""fullscreenenter"",""5"",""22060""
","
","322.90000009536743","","49","","","3000","1","","","images/earth.jpg","images/rocket1","images/rocket2","null","images/rocket2","","1","real","null","1","","",""
"d3-animate-choice","167","751149","0.0-77.0-1.10","2673","6204","18","Female","false","true","false","true","""event"",""trial"",""time""
""blur"",""3"",""12754""
""focus"",""3"",""12922""
""fullscreenenter"",""5"",""22060""
","""event"",""trial"",""time""
""blur"",""3"",""12754""
","""event"",""trial"",""time""
""focus"",""3"",""12922""
","""event"",""trial"",""time""
""fullscreenenter"",""5"",""22060""
","
","1255.0999999046326","","48","","","3000","1","","","images/redplanet1.jpg","images/alien2","images/alien1","images/rocket2","images/alien2","images/nothing.png","2","real","false","2","rare","0","2023-02-06 20:50:11.340"
"two-step-fixation","168","752155","0.0-77.0-2.10","2673","6204","18","Female","false","true","false","true","""event"",""trial"",""time""
""blur"",""3"",""12754""
""focus"",""3"",""12922""
""fullscreenenter"",""5"",""22060""
","""event"",""trial"",""time""
""blur"",""3"",""12754""
","""event"",""trial"",""time""
""focus"",""3"",""12922""
","""event"",""trial"",""time""
""fullscreenenter"",""5"",""22060""
","
","","images/earth.jpg","","","","","","","","","","","","","","fixation","","","","","",""
"d3-animate-choice","169","754524","0.0-77.0-0.11","2673","6204","18","Female","false","true","false","true","""event"",""trial"",""time""
""blur"",""3"",""12754""
""focus"",""3"",""12922""
""fullscreenenter"",""5"",""22060""
","""event"",""trial"",""time""
""blur"",""3"",""12754""
","""event"",""trial"",""time""
""focus"",""3"",""12922""
","""event"",""trial"",""time""
""fullscreenenter"",""5"",""22060""
","
","360.69999980926514","","49","","","3000","1","","","images/earth.jpg","images/rocket1","images/rocket2","null","images/rocket2","","1","real","null","1","","",""
"d3-animate-choice","170","757214","0.0-77.0-1.11","2673","6204","18","Female","false","true","false","true","""event"",""trial"",""time""
""blur"",""3"",""12754""
""focus"",""3"",""12922""
""fullscreenenter"",""5"",""22060""
","""event"",""trial"",""time""
""blur"",""3"",""12754""
","""event"",""trial"",""time""
""focus"",""3"",""12922""
","""event"",""trial"",""time""
""fullscreenenter"",""5"",""22060""
","
","679.5","","48","","","3000","1","","","images/purpleplanet.jpg","images/alien4","images/alien3","images/rocket2","images/alien4","images/t.png","2","real","true","2","common","1","2023-02-06 20:50:17.406"
"two-step-fixation","171","758222","0.0-77.0-2.11","2673","6204","18","Female","false","true","false","true","""event"",""trial"",""time""
""blur"",""3"",""12754""
""focus"",""3"",""12922""
""fullscreenenter"",""5"",""22060""
","""event"",""trial"",""time""
""blur"",""3"",""12754""
","""event"",""trial"",""time""
""focus"",""3"",""12922""
","""event"",""trial"",""time""
""fullscreenenter"",""5"",""22060""
","
","","images/earth.jpg","","","","","","","","","","","","","","fixation","","","","","",""
"d3-animate-choice","172","760541","0.0-77.0-0.12","2673","6204","18","Female","false","true","false","true","""event"",""trial"",""time""
""blur"",""3"",""12754""
""focus"",""3"",""12922""
""fullscreenenter"",""5"",""22060""
","""event"",""trial"",""time""
""blur"",""3"",""12754""
","""event"",""trial"",""time""
""focus"",""3"",""12922""
","""event"",""trial"",""time""
""fullscreenenter"",""5"",""22060""
","
","312.30000019073486","","49","","","3000","1","","","images/earth.jpg","images/rocket1","images/rocket2","null","images/rocket2","","1","real","null","1","","",""
"d3-animate-choice","173","763396","0.0-77.0-1.12","2673","6204","18","Female","false","true","false","true","""event"",""trial"",""time""
""blur"",""3"",""12754""
""focus"",""3"",""12922""
""fullscreenenter"",""5"",""22060""
","""event"",""trial"",""time""
""blur"",""3"",""12754""
","""event"",""trial"",""time""
""focus"",""3"",""12922""
","""event"",""trial"",""time""
""fullscreenenter"",""5"",""22060""
","
","846","","49","","","3000","1","","","images/redplanet1.jpg","images/alien2","images/alien1","images/rocket2","images/alien1","images/nothing.png","2","real","false","1","rare","0","2023-02-06 20:50:23.587"
"two-step-fixation","174","764404","0.0-77.0-2.12","2673","6204","18","Female","false","true","false","true","""event"",""trial"",""time""
""blur"",""3"",""12754""
""focus"",""3"",""12922""
""fullscreenenter"",""5"",""22060""
","""event"",""trial"",""time""
""blur"",""3"",""12754""
","""event"",""trial"",""time""
""focus"",""3"",""12922""
","""event"",""trial"",""time""
""fullscreenenter"",""5"",""22060""
","
","","images/earth.jpg","","","","","","","","","","","","","","fixation","","","","","",""
"d3-animate-choice","175","766702","0.0-77.0-0.13","2673","6204","18","Female","false","true","false","true","""event"",""trial"",""time""
""blur"",""3"",""12754""
""focus"",""3"",""12922""
""fullscreenenter"",""5"",""22060""
","""event"",""trial"",""time""
""blur"",""3"",""12754""
","""event"",""trial"",""time""
""focus"",""3"",""12922""
","""event"",""trial"",""time""
""fullscreenenter"",""5"",""22060""
","
","287.59999990463257","","48","","","3000","1","","","images/earth.jpg","images/rocket1","images/rocket2","null","images/rocket1","","1","real","null","2","","",""
"d3-animate-choice","176","769652","0.0-77.0-1.13","2673","6204","18","Female","false","true","false","true","""event"",""trial"",""time""
""blur"",""3"",""12754""
""focus"",""3"",""12922""
""fullscreenenter"",""5"",""22060""
","""event"",""trial"",""time""
""blur"",""3"",""12754""
","""event"",""trial"",""time""
""focus"",""3"",""12922""
","""event"",""trial"",""time""
""fullscreenenter"",""5"",""22060""
","
","940.3000001907349","","48","","","3000","1","","","images/redplanet1.jpg","images/alien2","images/alien1","images/rocket1","images/alien2","images/t.png","2","real","true","2","common","1","2023-02-06 20:50:29.843"
"two-step-fixation","177","770657","0.0-77.0-2.13","2673","6204","18","Female","false","true","false","true","""event"",""trial"",""time""
""blur"",""3"",""12754""
""focus"",""3"",""12922""
""fullscreenenter"",""5"",""22060""
","""event"",""trial"",""time""
""blur"",""3"",""12754""
","""event"",""trial"",""time""
""focus"",""3"",""12922""
","""event"",""trial"",""time""
""fullscreenenter"",""5"",""22060""
","
","","images/earth.jpg","","","","","","","","","","","","","","fixation","","","","","",""
