"trial_type","trial_index","time_elapsed","internal_node_id","participant_id","subject_id","age","gender","rocket_sides","red_planet_first_rocket","red_display_order","purple_display_order","interactions","blur_events","focus_events","fullscreenenter_events","fullscreenexit_events","rt","stimulus","key_press","button_pressed","success","duration","valid_pressed","rts","keys","planet_text","right_text","left_text","center_text","chosen_text","reward_text","trial_stage","practice_trial","transition_type","choice","transition","reward","timestamp"
"pavlovia","0","7","0.0-0.0","1045","5250","10","Male","false","false","false","true","""event"",""trial"",""time""
""blur"",""0"",""0""
""focus"",""1"",""10735""
","""event"",""trial"",""time""
""blur"",""0"",""0""
","""event"",""trial"",""time""
""focus"",""1"",""10735""
","
","
","","","","","","","","","","","","","","","","","","","","","",""
"html-keyboard-response","1","12373","0.0-1.0","1045","5250","10","Male","false","false","false","true","""event"",""trial"",""time""
""blur"",""0"",""0""
""focus"",""1"",""10735""
","""event"",""trial"",""time""
""blur"",""0"",""0""
","""event"",""trial"",""time""
""focus"",""1"",""10735""
","
","
","12363","Welcome! Press the space bar to begin.","32","","","","","","","","","","","","","","","","","","",""
"audio-keyboard-response","2","15852","0.0-2.0","1045","5250","10","Male","false","false","false","true","""event"",""trial"",""time""
""blur"",""0"",""0""
""focus"",""1"",""10735""
","""event"",""trial"",""time""
""blur"",""0"",""0""
","""event"",""trial"",""time""
""focus"",""1"",""10735""
","
","
","3480","audio/beep_loop.wav","32","","","","","","","","","","","","","","","","","","",""
"audio-button-response","3","17794","0.0-3.0","1045","5250","10","Male","false","false","false","true","""event"",""trial"",""time""
""blur"",""0"",""0""
""focus"",""1"",""10735""
","""event"",""trial"",""time""
""blur"",""0"",""0""
","""event"",""trial"",""time""
""focus"",""1"",""10735""
","
","
","NaN","audio/fish.mp3","","1","","","","","","","","","","","","","","","","","",""
"audio-button-response","4","20399","0.0-4.0","1045","5250","10","Male","false","false","false","true","""event"",""trial"",""time""
""blur"",""0"",""0""
""focus"",""1"",""10735""
""fullscreenenter"",""5"",""23456""
","""event"",""trial"",""time""
""blur"",""0"",""0""
","""event"",""trial"",""time""
""focus"",""1"",""10735""
","""event"",""trial"",""time""
""fullscreenenter"",""5"",""23456""
","
","NaN","audio/tiger.mp3","","4","","","","","","","","","","","","","","","","","",""
"fullscreen","5","24444","0.0-5.0","1045","5250","10","Male","false","false","false","true","""event"",""trial"",""time""
""blur"",""0"",""0""
""focus"",""1"",""10735""
""fullscreenenter"",""5"",""23456""
","""event"",""trial"",""time""
""blur"",""0"",""0""
","""event"",""trial"",""time""
""focus"",""1"",""10735""
","""event"",""trial"",""time""
""fullscreenenter"",""5"",""23456""
","
","","","","","true","","","","","","","","","","","","","","","","",""
"d3-instructions","6","38726","0.0-6.0","1045","5250","10","Male","false","false","false","true","""event"",""trial"",""time""
""blur"",""0"",""0""
""focus"",""1"",""10735""
""fullscreenenter"",""5"",""23456""
","""event"",""trial"",""time""
""blur"",""0"",""0""
","""event"",""trial"",""time""
""focus"",""1"",""10735""
","""event"",""trial"",""time""
""fullscreenenter"",""5"",""23456""
","
","","","","","","","","","","","","","","","","","","","","","",""
"d3-instructions","7","40940","0.0-7.0","1045","5250","10","Male","false","false","false","true","""event"",""trial"",""time""
""blur"",""0"",""0""
""focus"",""1"",""10735""
""fullscreenenter"",""5"",""23456""
","""event"",""trial"",""time""
""blur"",""0"",""0""
","""event"",""trial"",""time""
""focus"",""1"",""10735""
","""event"",""trial"",""time""
""fullscreenenter"",""5"",""23456""
","
","","","","","","","","","","","","","","","","","","","","","",""
"d3-instructions","8","42763","0.0-8.0","1045","5250","10","Male","false","false","false","true","""event"",""trial"",""time""
""blur"",""0"",""0""
""focus"",""1"",""10735""
""fullscreenenter"",""5"",""23456""
","""event"",""trial"",""time""
""blur"",""0"",""0""
","""event"",""trial"",""time""
""focus"",""1"",""10735""
","""event"",""trial"",""time""
""fullscreenenter"",""5"",""23456""
","
","","","","","","","","","","","","","","","","","","","","","",""
"d3-instructions","9","43539","0.0-9.0","1045","5250","10","Male","false","false","false","true","""event"",""trial"",""time""
""blur"",""0"",""0""
""focus"",""1"",""10735""
""fullscreenenter"",""5"",""23456""
","""event"",""trial"",""time""
""blur"",""0"",""0""
","""event"",""trial"",""time""
""focus"",""1"",""10735""
","""event"",""trial"",""time""
""fullscreenenter"",""5"",""23456""
","
","","","","","","","","","","","","","","","","","","","","","",""
"d3-instructions","10","52605","0.0-10.0","1045","5250","10","Male","false","false","false","true","""event"",""trial"",""time""
""blur"",""0"",""0""
""focus"",""1"",""10735""
""fullscreenenter"",""5"",""23456""
","""event"",""trial"",""time""
""blur"",""0"",""0""
","""event"",""trial"",""time""
""focus"",""1"",""10735""
","""event"",""trial"",""time""
""fullscreenenter"",""5"",""23456""
","
","","","","","","","","","","","","","","","","","","","","","",""
"d3-animate-choice","11","55954","0.0-11.0","1045","5250","10","Male","false","false","false","true","""event"",""trial"",""time""
""blur"",""0"",""0""
""focus"",""1"",""10735""
""fullscreenenter"",""5"",""23456""
","""event"",""trial"",""time""
""blur"",""0"",""0""
","""event"",""trial"",""time""
""focus"",""1"",""10735""
","""event"",""trial"",""time""
""fullscreenenter"",""5"",""23456""
","
","1339","","49","","","3000","1","1586,2139,2330,2500,2658,2842,3010,3219","48,49,48,49,48,49,48,49","images/tutgreenplanet.jpg","images/tutalien1","images/tutalien2","null","images/tutalien2","","NA","practice","null","","","",""
"d3-animate-choice","12","57992","0.0-12.0","1045","5250","10","Male","false","false","false","true","""event"",""trial"",""time""
""blur"",""0"",""0""
""focus"",""1"",""10735""
""fullscreenenter"",""5"",""23456""
","""event"",""trial"",""time""
""blur"",""0"",""0""
","""event"",""trial"",""time""
""focus"",""1"",""10735""
","""event"",""trial"",""time""
""fullscreenenter"",""5"",""23456""
","
","30","","48","","","3000","1","222,392,560,743,919,1071,1270,1422,1614,1805,1944","49,48,49,48,49,48,49,48,49,48,49","images/tutgreenplanet.jpg","images/tutalien1","images/tutalien2","null","images/tutalien1","","NA","practice","null","","","",""
"d3-animate-choice","13","60101","0.0-13.0","1045","5250","10","Male","false","false","false","true","""event"",""trial"",""time""
""blur"",""0"",""0""
""focus"",""1"",""10735""
""fullscreenenter"",""5"",""23456""
","""event"",""trial"",""time""
""blur"",""0"",""0""
","""event"",""trial"",""time""
""focus"",""1"",""10735""
","""event"",""trial"",""time""
""fullscreenenter"",""5"",""23456""
","
","105","","48","","","3000","1","244,449,570,785,931,1194,1409,1649,1914","49,48,49,48,49,49,49,49,49","images/tutgreenplanet.jpg","images/tutalien1","images/tutalien2","null","images/tutalien1","","NA","practice","null","","","",""
"d3-animate-choice","14","62168","0.0-14.0","1045","5250","10","Male","false","false","false","true","""event"",""trial"",""time""
""blur"",""0"",""0""
""focus"",""1"",""10735""
""fullscreenenter"",""5"",""23456""
","""event"",""trial"",""time""
""blur"",""0"",""0""
","""event"",""trial"",""time""
""focus"",""1"",""10735""
","""event"",""trial"",""time""
""fullscreenenter"",""5"",""23456""
","
","61","","49","","","3000","1","308,1773","49,48","images/tutgreenplanet.jpg","images/tutalien1","images/tutalien2","null","images/tutalien2","","NA","practice","null","","","",""
"d3-instructions","15","66788","0.0-15.0","1045","5250","10","Male","false","false","false","true","""event"",""trial"",""time""
""blur"",""0"",""0""
""focus"",""1"",""10735""
""fullscreenenter"",""5"",""23456""
","""event"",""trial"",""time""
""blur"",""0"",""0""
","""event"",""trial"",""time""
""focus"",""1"",""10735""
","""event"",""trial"",""time""
""fullscreenenter"",""5"",""23456""
","
","","","","","","","","","","","","","","","","","","","","","",""
"d3-instructions","16","68748","0.0-16.0","1045","5250","10","Male","false","false","false","true","""event"",""trial"",""time""
""blur"",""0"",""0""
""focus"",""1"",""10735""
""fullscreenenter"",""5"",""23456""
","""event"",""trial"",""time""
""blur"",""0"",""0""
","""event"",""trial"",""time""
""focus"",""1"",""10735""
","""event"",""trial"",""time""
""fullscreenenter"",""5"",""23456""
","
","","","","","","","","","","","","","","","","","","","","","",""
"d3-instructions","17","71532","0.0-17.0","1045","5250","10","Male","false","false","false","true","""event"",""trial"",""time""
""blur"",""0"",""0""
""focus"",""1"",""10735""
""fullscreenenter"",""5"",""23456""
","""event"",""trial"",""time""
""blur"",""0"",""0""
","""event"",""trial"",""time""
""focus"",""1"",""10735""
","""event"",""trial"",""time""
""fullscreenenter"",""5"",""23456""
","
","","","","","","","","","","","","","","","","","","","","","",""
"d3-instructions","18","75407","0.0-18.0","1045","5250","10","Male","false","false","false","true","""event"",""trial"",""time""
""blur"",""0"",""0""
""focus"",""1"",""10735""
""fullscreenenter"",""5"",""23456""
","""event"",""trial"",""time""
""blur"",""0"",""0""
","""event"",""trial"",""time""
""focus"",""1"",""10735""
","""event"",""trial"",""time""
""fullscreenenter"",""5"",""23456""
","
","","","","","","","","","","","","","","","","","","","","","",""
"d3-instructions","19","77092","0.0-19.0","1045","5250","10","Male","false","false","false","true","""event"",""trial"",""time""
""blur"",""0"",""0""
""focus"",""1"",""10735""
""fullscreenenter"",""5"",""23456""
","""event"",""trial"",""time""
""blur"",""0"",""0""
","""event"",""trial"",""time""
""focus"",""1"",""10735""
","""event"",""trial"",""time""
""fullscreenenter"",""5"",""23456""
","
","","","","","","","","","","","","","","","","","","","","","",""
"d3-animate-choice","20","80654","0.0-20.0","1045","5250","10","Male","false","false","false","true","""event"",""trial"",""time""
""blur"",""0"",""0""
""focus"",""1"",""10735""
""fullscreenenter"",""5"",""23456""
","""event"",""trial"",""time""
""blur"",""0"",""0""
","""event"",""trial"",""time""
""focus"",""1"",""10735""
","""event"",""trial"",""time""
""fullscreenenter"",""5"",""23456""
","
","1557","","49","","","3000","1","","","images/tutyellowplanet.jpg","null","images/tutalien3","null","images/tutalien3","images/nothing.png","NA","practice","null","","","",""
"d3-animate-choice","21","83710","0.0-21.0","1045","5250","10","Male","false","false","false","true","""event"",""trial"",""time""
""blur"",""0"",""0""
""focus"",""1"",""10735""
""fullscreenenter"",""5"",""23456""
","""event"",""trial"",""time""
""blur"",""0"",""0""
","""event"",""trial"",""time""
""focus"",""1"",""10735""
","""event"",""trial"",""time""
""fullscreenenter"",""5"",""23456""
","
","596","","48","","","3000","1","1052","49","images/tutyellowplanet.jpg","null","images/tutalien3","null","images/tutalien3","images/t.png","NA","practice","null","","","",""
"d3-animate-choice","22","86145","0.0-22.0","1045","5250","10","Male","false","false","false","true","""event"",""trial"",""time""
""blur"",""0"",""0""
""focus"",""1"",""10735""
""fullscreenenter"",""5"",""23456""
","""event"",""trial"",""time""
""blur"",""0"",""0""
","""event"",""trial"",""time""
""focus"",""1"",""10735""
","""event"",""trial"",""time""
""fullscreenenter"",""5"",""23456""
","
","428","","49","","","3000","1","1684,1923,2140","49,49,49","images/tutyellowplanet.jpg","null","images/tutalien3","null","images/tutalien3","images/nothing.png","NA","practice","null","","","",""
"d3-animate-choice","23","88153","0.0-23.0","1045","5250","10","Male","false","false","false","true","""event"",""trial"",""time""
""blur"",""0"",""0""
""focus"",""1"",""10735""
""fullscreenenter"",""5"",""23456""
","""event"",""trial"",""time""
""blur"",""0"",""0""
","""event"",""trial"",""time""
""focus"",""1"",""10735""
","""event"",""trial"",""time""
""fullscreenenter"",""5"",""23456""
","
","1","","49","","","3000","1","272,535,809,1097,1352,1616,1856","49,49,49,49,49,49,49","images/tutyellowplanet.jpg","null","images/tutalien3","null","images/tutalien3","images/nothing.png","NA","practice","null","","","",""
"d3-animate-choice","24","90269","0.0-24.0","1045","5250","10","Male","false","false","false","true","""event"",""trial"",""time""
""blur"",""0"",""0""
""focus"",""1"",""10735""
""fullscreenenter"",""5"",""23456""
","""event"",""trial"",""time""
""blur"",""0"",""0""
","""event"",""trial"",""time""
""focus"",""1"",""10735""
","""event"",""trial"",""time""
""fullscreenenter"",""5"",""23456""
","
","113","","49","","","3000","1","361,664,944,1217,1495,1760","49,49,49,49,49,49","images/tutyellowplanet.jpg","null","images/tutalien3","null","images/tutalien3","images/t.png","NA","practice","null","","","",""
"d3-animate-choice","25","92432","0.0-25.0","1045","5250","10","Male","false","false","false","true","""event"",""trial"",""time""
""blur"",""0"",""0""
""focus"",""1"",""10735""
""fullscreenenter"",""5"",""23456""
","""event"",""trial"",""time""
""blur"",""0"",""0""
","""event"",""trial"",""time""
""focus"",""1"",""10735""
","""event"",""trial"",""time""
""fullscreenenter"",""5"",""23456""
","
","154","","49","","","3000","1","427,723,1002,1234,1475,1730,2002","49,49,49,49,49,49,49","images/tutyellowplanet.jpg","null","images/tutalien3","null","images/tutalien3","images/nothing.png","NA","practice","null","","","",""
"d3-animate-choice","26","94520","0.0-26.0","1045","5250","10","Male","false","false","false","true","""event"",""trial"",""time""
""blur"",""0"",""0""
""focus"",""1"",""10735""
""fullscreenenter"",""5"",""23456""
","""event"",""trial"",""time""
""blur"",""0"",""0""
","""event"",""trial"",""time""
""focus"",""1"",""10735""
","""event"",""trial"",""time""
""fullscreenenter"",""5"",""23456""
","
","81","","49","","","3000","1","362,593,890,1731","49,49,49,49","images/tutyellowplanet.jpg","null","images/tutalien3","null","images/tutalien3","images/t.png","NA","practice","null","","","",""
"d3-animate-choice","27","96974","0.0-27.0","1045","5250","10","Male","false","false","false","true","""event"",""trial"",""time""
""blur"",""0"",""0""
""focus"",""1"",""10735""
""fullscreenenter"",""5"",""23456""
","""event"",""trial"",""time""
""blur"",""0"",""0""
","""event"",""trial"",""time""
""focus"",""1"",""10735""
","""event"",""trial"",""time""
""fullscreenenter"",""5"",""23456""
","
","448","","49","","","3000","1","760,1048,1585,2001,2320","49,49,49,49,49","images/tutyellowplanet.jpg","null","images/tutalien3","null","images/tutalien3","images/t.png","NA","practice","null","","","",""
"d3-animate-choice","28","99132","0.0-28.0","1045","5250","10","Male","false","false","false","true","""event"",""trial"",""time""
""blur"",""0"",""0""
""focus"",""1"",""10735""
""fullscreenenter"",""5"",""23456""
","""event"",""trial"",""time""
""blur"",""0"",""0""
","""event"",""trial"",""time""
""focus"",""1"",""10735""
","""event"",""trial"",""time""
""fullscreenenter"",""5"",""23456""
","
","156","","49","","","3000","1","771,1044,1363,1699,1957","49,49,49,49,49","images/tutyellowplanet.jpg","null","images/tutalien3","null","images/tutalien3","images/t.png","NA","practice","null","","","",""
"d3-animate-choice","29","101236","0.0-29.0","1045","5250","10","Male","false","false","false","true","""event"",""trial"",""time""
""blur"",""0"",""0""
""focus"",""1"",""10735""
""fullscreenenter"",""5"",""23456""
","""event"",""trial"",""time""
""blur"",""0"",""0""
","""event"",""trial"",""time""
""focus"",""1"",""10735""
","""event"",""trial"",""time""
""fullscreenenter"",""5"",""23456""
","
","102","","49","","","3000","1","549,1037,1388,1790","49,49,49,49","images/tutyellowplanet.jpg","null","images/tutalien3","null","images/tutalien3","images/t.png","NA","practice","null","","","",""
"d3-instructions","30","103635","0.0-30.0","1045","5250","10","Male","false","false","false","true","""event"",""trial"",""time""
""blur"",""0"",""0""
""focus"",""1"",""10735""
""fullscreenenter"",""5"",""23456""
","""event"",""trial"",""time""
""blur"",""0"",""0""
","""event"",""trial"",""time""
""focus"",""1"",""10735""
","""event"",""trial"",""time""
""fullscreenenter"",""5"",""23456""
","
","","","","","","","","","","","","","","","","","","","","","",""
"d3-instructions","31","104676","0.0-31.0","1045","5250","10","Male","false","false","false","true","""event"",""trial"",""time""
""blur"",""0"",""0""
""focus"",""1"",""10735""
""fullscreenenter"",""5"",""23456""
","""event"",""trial"",""time""
""blur"",""0"",""0""
","""event"",""trial"",""time""
""focus"",""1"",""10735""
","""event"",""trial"",""time""
""fullscreenenter"",""5"",""23456""
","
","","","","","","","","","","","","","","","","","","","","","",""
"d3-instructions","32","105715","0.0-32.0","1045","5250","10","Male","false","false","false","true","""event"",""trial"",""time""
""blur"",""0"",""0""
""focus"",""1"",""10735""
""fullscreenenter"",""5"",""23456""
","""event"",""trial"",""time""
""blur"",""0"",""0""
","""event"",""trial"",""time""
""focus"",""1"",""10735""
","""event"",""trial"",""time""
""fullscreenenter"",""5"",""23456""
","
","","","","","","","","","","","","","","","","","","","","","",""
"d3-instructions","33","106571","0.0-33.0","1045","5250","10","Male","false","false","false","true","""event"",""trial"",""time""
""blur"",""0"",""0""
""focus"",""1"",""10735""
""fullscreenenter"",""5"",""23456""
","""event"",""trial"",""time""
""blur"",""0"",""0""
","""event"",""trial"",""time""
""focus"",""1"",""10735""
","""event"",""trial"",""time""
""fullscreenenter"",""5"",""23456""
","
","","","","","","","","","","","","","","","","","","","","","",""
"d3-animate-choice","34","109712","0.0-34.0","1045","5250","10","Male","false","false","false","true","""event"",""trial"",""time""
""blur"",""0"",""0""
""focus"",""1"",""10735""
""fullscreenenter"",""5"",""23456""
","""event"",""trial"",""time""
""blur"",""0"",""0""
","""event"",""trial"",""time""
""focus"",""1"",""10735""
","""event"",""trial"",""time""
""fullscreenenter"",""5"",""23456""
","
","1135","","49","","","3000","1","1327,1534,1663,1917,2071,2263,2622,2710,2959,3126","48,49,48,49,48,49,49,48,49,48","images/tutgreenplanet.jpg","images/tutalien1","images/tutalien2","null","images/tutalien2","images/t.png","NA","practice","null","","","",""
"d3-animate-choice","35","111910","0.0-35.0","1045","5250","10","Male","false","false","false","true","""event"",""trial"",""time""
""blur"",""0"",""0""
""focus"",""1"",""10735""
""fullscreenenter"",""5"",""23456""
","""event"",""trial"",""time""
""blur"",""0"",""0""
","""event"",""trial"",""time""
""focus"",""1"",""10735""
","""event"",""trial"",""time""
""fullscreenenter"",""5"",""23456""
","
","192","","49","","","3000","1","385,552,736,904,1456,1704,2042","48,49,48,49,49,49,49","images/tutgreenplanet.jpg","images/tutalien1","images/tutalien2","null","images/tutalien2","images/t.png","NA","practice","null","","","",""
"d3-animate-choice","36","114063","0.0-36.0","1045","5250","10","Male","false","false","false","true","""event"",""trial"",""time""
""blur"",""0"",""0""
""focus"",""1"",""10735""
""fullscreenenter"",""5"",""23456""
","""event"",""trial"",""time""
""blur"",""0"",""0""
","""event"",""trial"",""time""
""focus"",""1"",""10735""
","""event"",""trial"",""time""
""fullscreenenter"",""5"",""23456""
","
","149","","49","","","3000","1","436,803,1108,1467,1852,2139","49,49,49,49,49,49","images/tutgreenplanet.jpg","images/tutalien1","images/tutalien2","null","images/tutalien2","images/t.png","NA","practice","null","","","",""
"d3-animate-choice","37","116312","0.0-37.0","1045","5250","10","Male","false","false","false","true","""event"",""trial"",""time""
""blur"",""0"",""0""
""focus"",""1"",""10735""
""fullscreenenter"",""5"",""23456""
","""event"",""trial"",""time""
""blur"",""0"",""0""
","""event"",""trial"",""time""
""focus"",""1"",""10735""
","""event"",""trial"",""time""
""fullscreenenter"",""5"",""23456""
","
","240","","49","","","3000","1","545,929,1225,1529,1810,2154","49,49,49,49,49,49","images/tutgreenplanet.jpg","images/tutalien1","images/tutalien2","null","images/tutalien2","images/t.png","NA","practice","null","","","",""
"d3-animate-choice","38","118511","0.0-38.0","1045","5250","10","Male","false","false","false","true","""event"",""trial"",""time""
""blur"",""0"",""0""
""focus"",""1"",""10735""
""fullscreenenter"",""5"",""23456""
","""event"",""trial"",""time""
""blur"",""0"",""0""
","""event"",""trial"",""time""
""focus"",""1"",""10735""
","""event"",""trial"",""time""
""fullscreenenter"",""5"",""23456""
","
","193","","49","","","3000","1","530,825,1106,1378,1817,2120","49,49,49,49,49,49","images/tutgreenplanet.jpg","images/tutalien1","images/tutalien2","null","images/tutalien2","images/t.png","NA","practice","null","","","",""
"d3-animate-choice","39","120748","0.0-39.0","1045","5250","10","Male","false","false","false","true","""event"",""trial"",""time""
""blur"",""0"",""0""
""focus"",""1"",""10735""
""fullscreenenter"",""5"",""23456""
","""event"",""trial"",""time""
""blur"",""0"",""0""
","""event"",""trial"",""time""
""focus"",""1"",""10735""
","""event"",""trial"",""time""
""fullscreenenter"",""5"",""23456""
","
","233","","49","","","3000","1","576,883,1249,1753,2113","49,49,49,49,49","images/tutgreenplanet.jpg","images/tutalien1","images/tutalien2","null","images/tutalien2","images/t.png","NA","practice","null","","","",""
"d3-animate-choice","40","122982","0.0-40.0","1045","5250","10","Male","false","false","false","true","""event"",""trial"",""time""
""blur"",""0"",""0""
""focus"",""1"",""10735""
""fullscreenenter"",""5"",""23456""
","""event"",""trial"",""time""
""blur"",""0"",""0""
","""event"",""trial"",""time""
""focus"",""1"",""10735""
","""event"",""trial"",""time""
""fullscreenenter"",""5"",""23456""
","
","229","","49","","","3000","1","638,957,1350,1710,2053","49,49,49,49,49","images/tutgreenplanet.jpg","images/tutalien1","images/tutalien2","null","images/tutalien2","images/nothing.png","NA","practice","null","","","",""
"d3-animate-choice","41","125184","0.0-41.0","1045","5250","10","Male","false","false","false","true","""event"",""trial"",""time""
""blur"",""0"",""0""
""focus"",""1"",""10735""
""fullscreenenter"",""5"",""23456""
","""event"",""trial"",""time""
""blur"",""0"",""0""
","""event"",""trial"",""time""
""focus"",""1"",""10735""
","""event"",""trial"",""time""
""fullscreenenter"",""5"",""23456""
","
","197","","49","","","3000","1","589,963,1260,1611,1979","49,49,49,49,49","images/tutgreenplanet.jpg","images/tutalien1","images/tutalien2","null","images/tutalien2","images/t.png","NA","practice","null","","","",""
"d3-animate-choice","42","127280","0.0-42.0","1045","5250","10","Male","false","false","false","true","""event"",""trial"",""time""
""blur"",""0"",""0""
""focus"",""1"",""10735""
""fullscreenenter"",""5"",""23456""
","""event"",""trial"",""time""
""blur"",""0"",""0""
","""event"",""trial"",""time""
""focus"",""1"",""10735""
","""event"",""trial"",""time""
""fullscreenenter"",""5"",""23456""
","
","88","","49","","","3000","1","410,664,928,1200,1521,1832","49,49,49,49,49,49","images/tutgreenplanet.jpg","images/tutalien1","images/tutalien2","null","images/tutalien2","images/t.png","NA","practice","null","","","",""
"d3-animate-choice","43","129656","0.0-43.0","1045","5250","10","Male","false","false","false","true","""event"",""trial"",""time""
""blur"",""0"",""0""
""focus"",""1"",""10735""
""fullscreenenter"",""5"",""23456""
","""event"",""trial"",""time""
""blur"",""0"",""0""
","""event"",""trial"",""time""
""focus"",""1"",""10735""
","""event"",""trial"",""time""
""fullscreenenter"",""5"",""23456""
","
","369","","49","","","3000","1","777,1056,1418,2048","49,49,49,49","images/tutgreenplanet.jpg","images/tutalien1","images/tutalien2","null","images/tutalien2","images/t.png","NA","practice","null","","","",""
"d3-instructions","44","131754","0.0-44.0","1045","5250","10","Male","false","false","false","true","""event"",""trial"",""time""
""blur"",""0"",""0""
""focus"",""1"",""10735""
""fullscreenenter"",""5"",""23456""
","""event"",""trial"",""time""
""blur"",""0"",""0""
","""event"",""trial"",""time""
""focus"",""1"",""10735""
","""event"",""trial"",""time""
""fullscreenenter"",""5"",""23456""
","
","","","","","","","","","","","","","","","","","","","","","",""
"d3-instructions","45","132834","0.0-45.0","1045","5250","10","Male","false","false","false","true","""event"",""trial"",""time""
""blur"",""0"",""0""
""focus"",""1"",""10735""
""fullscreenenter"",""5"",""23456""
","""event"",""trial"",""time""
""blur"",""0"",""0""
","""event"",""trial"",""time""
""focus"",""1"",""10735""
","""event"",""trial"",""time""
""fullscreenenter"",""5"",""23456""
","
","","","","","","","","","","","","","","","","","","","","","",""
"d3-instructions","46","133962","0.0-46.0","1045","5250","10","Male","false","false","false","true","""event"",""trial"",""time""
""blur"",""0"",""0""
""focus"",""1"",""10735""
""fullscreenenter"",""5"",""23456""
","""event"",""trial"",""time""
""blur"",""0"",""0""
","""event"",""trial"",""time""
""focus"",""1"",""10735""
","""event"",""trial"",""time""
""fullscreenenter"",""5"",""23456""
","
","","","","","","","","","","","","","","","","","","","","","",""
"d3-instructions","47","135114","0.0-47.0","1045","5250","10","Male","false","false","false","true","""event"",""trial"",""time""
""blur"",""0"",""0""
""focus"",""1"",""10735""
""fullscreenenter"",""5"",""23456""
","""event"",""trial"",""time""
""blur"",""0"",""0""
","""event"",""trial"",""time""
""focus"",""1"",""10735""
","""event"",""trial"",""time""
""fullscreenenter"",""5"",""23456""
","
","","","","","","","","","","","","","","","","","","","","","",""
"d3-instructions","48","136267","0.0-48.0","1045","5250","10","Male","false","false","false","true","""event"",""trial"",""time""
""blur"",""0"",""0""
""focus"",""1"",""10735""
""fullscreenenter"",""5"",""23456""
","""event"",""trial"",""time""
""blur"",""0"",""0""
","""event"",""trial"",""time""
""focus"",""1"",""10735""
","""event"",""trial"",""time""
""fullscreenenter"",""5"",""23456""
","
","","","","","","","","","","","","","","","","","","","","","",""
"d3-instructions","49","137266","0.0-49.0","1045","5250","10","Male","false","false","false","true","""event"",""trial"",""time""
""blur"",""0"",""0""
""focus"",""1"",""10735""
""fullscreenenter"",""5"",""23456""
","""event"",""trial"",""time""
""blur"",""0"",""0""
","""event"",""trial"",""time""
""focus"",""1"",""10735""
","""event"",""trial"",""time""
""fullscreenenter"",""5"",""23456""
","
","","","","","","","","","","","","","","","","","","","","","",""
"d3-instructions","50","138458","0.0-50.0","1045","5250","10","Male","false","false","false","true","""event"",""trial"",""time""
""blur"",""0"",""0""
""focus"",""1"",""10735""
""fullscreenenter"",""5"",""23456""
","""event"",""trial"",""time""
""blur"",""0"",""0""
","""event"",""trial"",""time""
""focus"",""1"",""10735""
","""event"",""trial"",""time""
""fullscreenenter"",""5"",""23456""
","
","","","","","","","","","","","","","","","","","","","","","",""
"d3-instructions","51","142310","0.0-51.0","1045","5250","10","Male","false","false","false","true","""event"",""trial"",""time""
""blur"",""0"",""0""
""focus"",""1"",""10735""
""fullscreenenter"",""5"",""23456""
","""event"",""trial"",""time""
""blur"",""0"",""0""
","""event"",""trial"",""time""
""focus"",""1"",""10735""
","""event"",""trial"",""time""
""fullscreenenter"",""5"",""23456""
","
","","","","","","","","","","","","","","","","","","","","","",""
"d3-instructions","52","144423","0.0-52.0","1045","5250","10","Male","false","false","false","true","""event"",""trial"",""time""
""blur"",""0"",""0""
""focus"",""1"",""10735""
""fullscreenenter"",""5"",""23456""
","""event"",""trial"",""time""
""blur"",""0"",""0""
","""event"",""trial"",""time""
""focus"",""1"",""10735""
","""event"",""trial"",""time""
""fullscreenenter"",""5"",""23456""
","
","","","","","","","","","","","","","","","","","","","","","",""
"d3-instructions","53","146238","0.0-53.0","1045","5250","10","Male","false","false","false","true","""event"",""trial"",""time""
""blur"",""0"",""0""
""focus"",""1"",""10735""
""fullscreenenter"",""5"",""23456""
","""event"",""trial"",""time""
""blur"",""0"",""0""
","""event"",""trial"",""time""
""focus"",""1"",""10735""
","""event"",""trial"",""time""
""fullscreenenter"",""5"",""23456""
","
","","","","","","","","","","","","","","","","","","","","","",""
"d3-instructions","54","148623","0.0-54.0","1045","5250","10","Male","false","false","false","true","""event"",""trial"",""time""
""blur"",""0"",""0""
""focus"",""1"",""10735""
""fullscreenenter"",""5"",""23456""
","""event"",""trial"",""time""
""blur"",""0"",""0""
","""event"",""trial"",""time""
""focus"",""1"",""10735""
","""event"",""trial"",""time""
""fullscreenenter"",""5"",""23456""
","
","","","","","","","","","","","","","","","","","","","","","",""
"d3-instructions","55","149807","0.0-55.0","1045","5250","10","Male","false","false","false","true","""event"",""trial"",""time""
""blur"",""0"",""0""
""focus"",""1"",""10735""
""fullscreenenter"",""5"",""23456""
","""event"",""trial"",""time""
""blur"",""0"",""0""
","""event"",""trial"",""time""
""focus"",""1"",""10735""
","""event"",""trial"",""time""
""fullscreenenter"",""5"",""23456""
","
","","","","","","","","","","","","","","","","","","","","","",""
"d3-instructions","56","150840","0.0-56.0","1045","5250","10","Male","false","false","false","true","""event"",""trial"",""time""
""blur"",""0"",""0""
""focus"",""1"",""10735""
""fullscreenenter"",""5"",""23456""
","""event"",""trial"",""time""
""blur"",""0"",""0""
","""event"",""trial"",""time""
""focus"",""1"",""10735""
","""event"",""trial"",""time""
""fullscreenenter"",""5"",""23456""
","
","","","","","","","","","","","","","","","","","","","","","",""
"d3-instructions","57","151752","0.0-57.0","1045","5250","10","Male","false","false","false","true","""event"",""trial"",""time""
""blur"",""0"",""0""
""focus"",""1"",""10735""
""fullscreenenter"",""5"",""23456""
","""event"",""trial"",""time""
""blur"",""0"",""0""
","""event"",""trial"",""time""
""focus"",""1"",""10735""
","""event"",""trial"",""time""
""fullscreenenter"",""5"",""23456""
","
","","","","","","","","","","","","","","","","","","","","","",""
"d3-instructions","58","153126","0.0-58.0","1045","5250","10","Male","false","false","false","true","""event"",""trial"",""time""
""blur"",""0"",""0""
""focus"",""1"",""10735""
""fullscreenenter"",""5"",""23456""
","""event"",""trial"",""time""
""blur"",""0"",""0""
","""event"",""trial"",""time""
""focus"",""1"",""10735""
","""event"",""trial"",""time""
""fullscreenenter"",""5"",""23456""
","
","","","","","","","","","","","","","","","","","","","","","",""
"d3-instructions","59","154079","0.0-59.0","1045","5250","10","Male","false","false","false","true","""event"",""trial"",""time""
""blur"",""0"",""0""
""focus"",""1"",""10735""
""fullscreenenter"",""5"",""23456""
","""event"",""trial"",""time""
""blur"",""0"",""0""
","""event"",""trial"",""time""
""focus"",""1"",""10735""
","""event"",""trial"",""time""
""fullscreenenter"",""5"",""23456""
","
","","","","","","","","","","","","","","","","","","","","","",""
"d3-instructions","60","155094","0.0-60.0","1045","5250","10","Male","false","false","false","true","""event"",""trial"",""time""
""blur"",""0"",""0""
""focus"",""1"",""10735""
""fullscreenenter"",""5"",""23456""
","""event"",""trial"",""time""
""blur"",""0"",""0""
","""event"",""trial"",""time""
""focus"",""1"",""10735""
","""event"",""trial"",""time""
""fullscreenenter"",""5"",""23456""
","
","","","","","","","","","","","","","","","","","","","","","",""
"d3-animate-choice","61","157608","0.0-61.0-0.0","1045","5250","10","Male","false","false","false","true","""event"",""trial"",""time""
""blur"",""0"",""0""
""focus"",""1"",""10735""
""fullscreenenter"",""5"",""23456""
","""event"",""trial"",""time""
""blur"",""0"",""0""
","""event"",""trial"",""time""
""focus"",""1"",""10735""
","""event"",""trial"",""time""
""fullscreenenter"",""5"",""23456""
","
","510","","49","","","3000","1","805,1045,1277,1597,1845,2133,2396","49,49,49,49,49,49,49","images/earth.jpg","images/tutrocket1","images/tutrocket2","null","images/tutrocket2","","1","practice","null","1","","",""
"d3-animate-choice","62","159762","0.0-61.0-1.0","1045","5250","10","Male","false","false","false","true","""event"",""trial"",""time""
""blur"",""0"",""0""
""focus"",""1"",""10735""
""fullscreenenter"",""5"",""23456""
","""event"",""trial"",""time""
""blur"",""0"",""0""
","""event"",""trial"",""time""
""focus"",""1"",""10735""
","""event"",""trial"",""time""
""fullscreenenter"",""5"",""23456""
","
","146","","49","","","3000","1","444,731,1058,1578,1914","49,49,49,49,49","images/tutgreenplanet.jpg","images/tutalien2","images/tutalien1","images/tutrocket2","images/tutalien1","images/nothing.png","2","practice","true","1","common","0","2022-12-13 23:35:38.983"
"two-step-fixation","63","160767","0.0-61.0-2.0","1045","5250","10","Male","false","false","false","true","""event"",""trial"",""time""
""blur"",""0"",""0""
""focus"",""1"",""10735""
""fullscreenenter"",""5"",""23456""
","""event"",""trial"",""time""
""blur"",""0"",""0""
","""event"",""trial"",""time""
""focus"",""1"",""10735""
","""event"",""trial"",""time""
""fullscreenenter"",""5"",""23456""
","
","","images/earth.jpg","","","","","","","","","","","","","","fixation","","","","","",""
"d3-animate-choice","64","162929","0.0-61.0-0.1","1045","5250","10","Male","false","false","false","true","""event"",""trial"",""time""
""blur"",""0"",""0""
""focus"",""1"",""10735""
""fullscreenenter"",""5"",""23456""
","""event"",""trial"",""time""
""blur"",""0"",""0""
","""event"",""trial"",""time""
""focus"",""1"",""10735""
","""event"",""trial"",""time""
""fullscreenenter"",""5"",""23456""
","
","158","","49","","","3000","1","416,670,967,1254,1551,1823,2101","49,49,49,49,49,49,49","images/earth.jpg","images/tutrocket1","images/tutrocket2","null","images/tutrocket2","","1","practice","null","1","","",""
"d3-animate-choice","65","165221","0.0-61.0-1.1","1045","5250","10","Male","false","false","false","true","""event"",""trial"",""time""
""blur"",""0"",""0""
""focus"",""1"",""10735""
""fullscreenenter"",""5"",""23456""
","""event"",""trial"",""time""
""blur"",""0"",""0""
","""event"",""trial"",""time""
""focus"",""1"",""10735""
","""event"",""trial"",""time""
""fullscreenenter"",""5"",""23456""
","
","285","","49","","","3000","1","547,843,1107,1418,1707,2003","49,49,49,49,49,49","images/tutgreenplanet.jpg","images/tutalien2","images/tutalien1","images/tutrocket2","images/tutalien1","images/nothing.png","2","practice","true","1","common","0","2022-12-13 23:35:44.443"
"two-step-fixation","66","166226","0.0-61.0-2.1","1045","5250","10","Male","false","false","false","true","""event"",""trial"",""time""
""blur"",""0"",""0""
""focus"",""1"",""10735""
""fullscreenenter"",""5"",""23456""
","""event"",""trial"",""time""
""blur"",""0"",""0""
","""event"",""trial"",""time""
""focus"",""1"",""10735""
","""event"",""trial"",""time""
""fullscreenenter"",""5"",""23456""
","
","","images/earth.jpg","","","","","","","","","","","","","","fixation","","","","","",""
"d3-animate-choice","67","168337","0.0-61.0-0.2","1045","5250","10","Male","false","false","false","true","""event"",""trial"",""time""
""blur"",""0"",""0""
""focus"",""1"",""10735""
""fullscreenenter"",""5"",""23456""
","""event"",""trial"",""time""
""blur"",""0"",""0""
","""event"",""trial"",""time""
""focus"",""1"",""10735""
","""event"",""trial"",""time""
""fullscreenenter"",""5"",""23456""
","
","106","","48","","","3000","1","278,458,641,850,1018,1226,1465,1739,1922","48,48,48,48,48,48,48,48,48","images/earth.jpg","images/tutrocket1","images/tutrocket2","null","images/tutrocket1","","1","practice","null","2","","",""
"d3-animate-choice","68","170347","0.0-61.0-1.2","1045","5250","10","Male","false","false","false","true","""event"",""trial"",""time""
""blur"",""0"",""0""
""focus"",""1"",""10735""
""fullscreenenter"",""5"",""23456""
","""event"",""trial"",""time""
""blur"",""0"",""0""
","""event"",""trial"",""time""
""focus"",""1"",""10735""
","""event"",""trial"",""time""
""fullscreenenter"",""5"",""23456""
","
","7","","48","","","3000","1","211,411,608,851,1052,1227,1434,1642,1851","48,48,48,48,48,48,48,48,48","images/tutyellowplanet.jpg","images/tutalien4","images/tutalien3","images/tutrocket1","images/tutalien4","images/t.png","2","practice","true","2","common","1","2022-12-13 23:35:49.568"
"two-step-fixation","69","171349","0.0-61.0-2.2","1045","5250","10","Male","false","false","false","true","""event"",""trial"",""time""
""blur"",""0"",""0""
""focus"",""1"",""10735""
""fullscreenenter"",""5"",""23456""
","""event"",""trial"",""time""
""blur"",""0"",""0""
","""event"",""trial"",""time""
""focus"",""1"",""10735""
","""event"",""trial"",""time""
""fullscreenenter"",""5"",""23456""
","
","","images/earth.jpg","","","","","","","","","","","","","","fixation","","","","","",""
"d3-animate-choice","70","173416","0.0-61.0-0.3","1045","5250","10","Male","false","false","false","true","""event"",""trial"",""time""
""blur"",""0"",""0""
""focus"",""1"",""10735""
""fullscreenenter"",""5"",""23456""
","""event"",""trial"",""time""
""blur"",""0"",""0""
","""event"",""trial"",""time""
""focus"",""1"",""10735""
","""event"",""trial"",""time""
""fullscreenenter"",""5"",""23456""
","
","63","","48","","","3000","1","295,535,729,1136,1335,1527,1718,1935","48,48,48,48,48,48,48,48","images/earth.jpg","images/tutrocket1","images/tutrocket2","null","images/tutrocket1","","1","practice","null","2","","",""
"d3-animate-choice","71","175523","0.0-61.0-1.3","1045","5250","10","Male","false","false","false","true","""event"",""trial"",""time""
""blur"",""0"",""0""
""focus"",""1"",""10735""
""fullscreenenter"",""5"",""23456""
","""event"",""trial"",""time""
""blur"",""0"",""0""
","""event"",""trial"",""time""
""focus"",""1"",""10735""
","""event"",""trial"",""time""
""fullscreenenter"",""5"",""23456""
","
","99","","48","","","3000","1","299,539,778,979,1227,1507,1715","48,48,48,48,48,48,48","images/tutyellowplanet.jpg","images/tutalien4","images/tutalien3","images/tutrocket1","images/tutalien4","images/nothing.png","2","practice","true","2","common","0","2022-12-13 23:35:54.744"
"two-step-fixation","72","176527","0.0-61.0-2.3","1045","5250","10","Male","false","false","false","true","""event"",""trial"",""time""
""blur"",""0"",""0""
""focus"",""1"",""10735""
""fullscreenenter"",""5"",""23456""
","""event"",""trial"",""time""
""blur"",""0"",""0""
","""event"",""trial"",""time""
""focus"",""1"",""10735""
","""event"",""trial"",""time""
""fullscreenenter"",""5"",""23456""
","
","","images/earth.jpg","","","","","","","","","","","","","","fixation","","","","","",""
"d3-animate-choice","73","178633","0.0-61.0-0.4","1045","5250","10","Male","false","false","false","true","""event"",""trial"",""time""
""blur"",""0"",""0""
""focus"",""1"",""10735""
""fullscreenenter"",""5"",""23456""
","""event"",""trial"",""time""
""blur"",""0"",""0""
","""event"",""trial"",""time""
""focus"",""1"",""10735""
","""event"",""trial"",""time""
""fullscreenenter"",""5"",""23456""
","
","100","","49","","","3000","1","446,605,764,933,1093,1253,1413,1589,1773,1974","49,49,49,49,49,49,49,49,49,49","images/earth.jpg","images/tutrocket1","images/tutrocket2","null","images/tutrocket2","","1","practice","null","1","","",""
"d3-animate-choice","74","180689","0.0-61.0-1.4","1045","5250","10","Male","false","false","false","true","""event"",""trial"",""time""
""blur"",""0"",""0""
""focus"",""1"",""10735""
""fullscreenenter"",""5"",""23456""
","""event"",""trial"",""time""
""blur"",""0"",""0""
","""event"",""trial"",""time""
""focus"",""1"",""10735""
","""event"",""trial"",""time""
""fullscreenenter"",""5"",""23456""
","
","49","","49","","","3000","1","244,410,586,770,938,1121,1314,1489,1681,1834","49,49,49,49,49,49,49,49,49,49","images/tutgreenplanet.jpg","images/tutalien2","images/tutalien1","images/tutrocket2","images/tutalien1","images/t.png","2","practice","true","1","common","1","2022-12-13 23:35:59.910"
"two-step-fixation","75","181691","0.0-61.0-2.4","1045","5250","10","Male","false","false","false","true","""event"",""trial"",""time""
""blur"",""0"",""0""
""focus"",""1"",""10735""
""fullscreenenter"",""5"",""23456""
","""event"",""trial"",""time""
""blur"",""0"",""0""
","""event"",""trial"",""time""
""focus"",""1"",""10735""
","""event"",""trial"",""time""
""fullscreenenter"",""5"",""23456""
","
","","images/earth.jpg","","","","","","","","","","","","","","fixation","","","","","",""
"d3-animate-choice","76","183803","0.0-61.0-0.5","1045","5250","10","Male","false","false","false","true","""event"",""trial"",""time""
""blur"",""0"",""0""
""focus"",""1"",""10735""
""fullscreenenter"",""5"",""23456""
","""event"",""trial"",""time""
""blur"",""0"",""0""
","""event"",""trial"",""time""
""focus"",""1"",""10735""
","""event"",""trial"",""time""
""fullscreenenter"",""5"",""23456""
","
","104","","49","","","3000","1","256,776,936,1122,1297,1447,1591,1752,1928,2087","49,49,49,49,49,49,49,49,49,49","images/earth.jpg","images/tutrocket1","images/tutrocket2","null","images/tutrocket2","","1","practice","null","1","","",""
"d3-animate-choice","77","185987","0.0-61.0-1.5","1045","5250","10","Male","false","false","false","true","""event"",""trial"",""time""
""blur"",""0"",""0""
""focus"",""1"",""10735""
""fullscreenenter"",""5"",""23456""
","""event"",""trial"",""time""
""blur"",""0"",""0""
","""event"",""trial"",""time""
""focus"",""1"",""10735""
","""event"",""trial"",""time""
""fullscreenenter"",""5"",""23456""
","
","174","","49","","","3000","1","359,527,703,855,1175,1336,1488,1839","49,49,49,49,49,49,192,49","images/tutgreenplanet.jpg","images/tutalien2","images/tutalien1","images/tutrocket2","images/tutalien1","images/nothing.png","2","practice","true","1","common","0","2022-12-13 23:36:05.209"
"two-step-fixation","78","186991","0.0-61.0-2.5","1045","5250","10","Male","false","false","false","true","""event"",""trial"",""time""
""blur"",""0"",""0""
""focus"",""1"",""10735""
""fullscreenenter"",""5"",""23456""
","""event"",""trial"",""time""
""blur"",""0"",""0""
","""event"",""trial"",""time""
""focus"",""1"",""10735""
","""event"",""trial"",""time""
""fullscreenenter"",""5"",""23456""
","
","","images/earth.jpg","","","","","","","","","","","","","","fixation","","","","","",""
"d3-animate-choice","79","189048","0.0-61.0-0.6","1045","5250","10","Male","false","false","false","true","""event"",""trial"",""time""
""blur"",""0"",""0""
""focus"",""1"",""10735""
""fullscreenenter"",""5"",""23456""
","""event"",""trial"",""time""
""blur"",""0"",""0""
","""event"",""trial"",""time""
""focus"",""1"",""10735""
","""event"",""trial"",""time""
""fullscreenenter"",""5"",""23456""
","
","54","","48","","","3000","1","268,484,709,974,1197,1412,1644,1861","48,48,48,48,48,48,48,48","images/earth.jpg","images/tutrocket1","images/tutrocket2","null","images/tutrocket1","","1","practice","null","2","","",""
"d3-animate-choice","80","191161","0.0-61.0-1.6","1045","5250","10","Male","false","false","false","true","""event"",""trial"",""time""
""blur"",""0"",""0""
""focus"",""1"",""10735""
""fullscreenenter"",""5"",""23456""
","""event"",""trial"",""time""
""blur"",""0"",""0""
","""event"",""trial"",""time""
""focus"",""1"",""10735""
","""event"",""trial"",""time""
""fullscreenenter"",""5"",""23456""
","
","107","","48","","","3000","1","179,355,619,875,1154,1419,1691,1955","48,48,48,48,48,48,48,48","images/tutyellowplanet.jpg","images/tutalien4","images/tutalien3","images/tutrocket1","images/tutalien4","images/t.png","2","practice","true","2","common","1","2022-12-13 23:36:10.382"
"two-step-fixation","81","192162","0.0-61.0-2.6","1045","5250","10","Male","false","false","false","true","""event"",""trial"",""time""
""blur"",""0"",""0""
""focus"",""1"",""10735""
""fullscreenenter"",""5"",""23456""
","""event"",""trial"",""time""
""blur"",""0"",""0""
","""event"",""trial"",""time""
""focus"",""1"",""10735""
","""event"",""trial"",""time""
""fullscreenenter"",""5"",""23456""
","
","","images/earth.jpg","","","","","","","","","","","","","","fixation","","","","","",""
"d3-animate-choice","82","194418","0.0-61.0-0.7","1045","5250","10","Male","false","false","false","true","""event"",""trial"",""time""
""blur"",""0"",""0""
""focus"",""1"",""10735""
""fullscreenenter"",""5"",""23456""
","""event"",""trial"",""time""
""blur"",""0"",""0""
","""event"",""trial"",""time""
""focus"",""1"",""10735""
","""event"",""trial"",""time""
""fullscreenenter"",""5"",""23456""
","
","249","","48","","","3000","1","545,817,1162,1449,1744,2033","48,48,48,48,48,48","images/earth.jpg","images/tutrocket1","images/tutrocket2","null","images/tutrocket1","","1","practice","null","2","","",""
"d3-animate-choice","83","196467","0.0-61.0-1.7","1045","5250","10","Male","false","false","false","true","""event"",""trial"",""time""
""blur"",""0"",""0""
""focus"",""1"",""10735""
""fullscreenenter"",""5"",""23456""
","""event"",""trial"",""time""
""blur"",""0"",""0""
","""event"",""trial"",""time""
""focus"",""1"",""10735""
","""event"",""trial"",""time""
""fullscreenenter"",""5"",""23456""
","
","40","","48","","","3000","1","362,679,960,1248,1584,1903","48,48,48,48,48,48","images/tutyellowplanet.jpg","images/tutalien4","images/tutalien3","images/tutrocket1","images/tutalien4","images/t.png","2","practice","true","2","common","1","2022-12-13 23:36:15.688"
"two-step-fixation","84","197469","0.0-61.0-2.7","1045","5250","10","Male","false","false","false","true","""event"",""trial"",""time""
""blur"",""0"",""0""
""focus"",""1"",""10735""
""fullscreenenter"",""5"",""23456""
","""event"",""trial"",""time""
""blur"",""0"",""0""
","""event"",""trial"",""time""
""focus"",""1"",""10735""
","""event"",""trial"",""time""
""fullscreenenter"",""5"",""23456""
","
","","images/earth.jpg","","","","","","","","","","","","","","fixation","","","","","",""
"d3-animate-choice","85","199523","0.0-61.0-0.8","1045","5250","10","Male","false","false","false","true","""event"",""trial"",""time""
""blur"",""0"",""0""
""focus"",""1"",""10735""
""fullscreenenter"",""5"",""23456""
","""event"",""trial"",""time""
""blur"",""0"",""0""
","""event"",""trial"",""time""
""focus"",""1"",""10735""
","""event"",""trial"",""time""
""fullscreenenter"",""5"",""23456""
","
","48","","48","","","3000","1","286,518,742,958,1265,1600,1903","48,48,48,48,48,48,48","images/earth.jpg","images/tutrocket1","images/tutrocket2","null","images/tutrocket1","","1","practice","null","2","","",""
"d3-animate-choice","86","201614","0.0-61.0-1.8","1045","5250","10","Male","false","false","false","true","""event"",""trial"",""time""
""blur"",""0"",""0""
""focus"",""1"",""10735""
""fullscreenenter"",""5"",""23456""
","""event"",""trial"",""time""
""blur"",""0"",""0""
","""event"",""trial"",""time""
""focus"",""1"",""10735""
","""event"",""trial"",""time""
""fullscreenenter"",""5"",""23456""
","
","89","","48","","","3000","1","353,609,889,1144,1393,1681,2041","48,48,48,48,48,48,48","images/tutyellowplanet.jpg","images/tutalien4","images/tutalien3","images/tutrocket1","images/tutalien4","images/t.png","2","practice","true","2","common","1","2022-12-13 23:36:20.836"
"two-step-fixation","87","202617","0.0-61.0-2.8","1045","5250","10","Male","false","false","false","true","""event"",""trial"",""time""
""blur"",""0"",""0""
""focus"",""1"",""10735""
""fullscreenenter"",""5"",""23456""
","""event"",""trial"",""time""
""blur"",""0"",""0""
","""event"",""trial"",""time""
""focus"",""1"",""10735""
","""event"",""trial"",""time""
""fullscreenenter"",""5"",""23456""
","
","","images/earth.jpg","","","","","","","","","","","","","","fixation","","","","","",""
"d3-animate-choice","88","205185","0.0-61.0-0.9","1045","5250","10","Male","false","false","false","true","""event"",""trial"",""time""
""blur"",""0"",""0""
""focus"",""1"",""10735""
""fullscreenenter"",""5"",""23456""
","""event"",""trial"",""time""
""blur"",""0"",""0""
","""event"",""trial"",""time""
""focus"",""1"",""10735""
","""event"",""trial"",""time""
""fullscreenenter"",""5"",""23456""
","
","564","","48","","","3000","1","795,1053,1308,1756,2061,2405","48,48,48,48,48,48","images/earth.jpg","images/tutrocket1","images/tutrocket2","null","images/tutrocket1","","1","practice","null","2","","",""
"d3-animate-choice","89","207394","0.0-61.0-1.9","1045","5250","10","Male","false","false","false","true","""event"",""trial"",""time""
""blur"",""0"",""0""
""focus"",""1"",""10735""
""fullscreenenter"",""5"",""23456""
","""event"",""trial"",""time""
""blur"",""0"",""0""
","""event"",""trial"",""time""
""focus"",""1"",""10735""
","""event"",""trial"",""time""
""fullscreenenter"",""5"",""23456""
","
","202","","48","","","3000","1","533,769,1058,1313,1593,2003,2195","48,48,48,48,48,48,48","images/tutyellowplanet.jpg","images/tutalien4","images/tutalien3","images/tutrocket1","images/tutalien4","images/t.png","2","practice","true","2","common","1","2022-12-13 23:36:26.615"
"two-step-fixation","90","208396","0.0-61.0-2.9","1045","5250","10","Male","false","false","false","true","""event"",""trial"",""time""
""blur"",""0"",""0""
""focus"",""1"",""10735""
""fullscreenenter"",""5"",""23456""
","""event"",""trial"",""time""
""blur"",""0"",""0""
","""event"",""trial"",""time""
""focus"",""1"",""10735""
","""event"",""trial"",""time""
""fullscreenenter"",""5"",""23456""
","
","","images/earth.jpg","","","","","","","","","","","","","","fixation","","","","","",""
"d3-animate-choice","91","210856","0.0-61.0-0.10","1045","5250","10","Male","false","false","false","true","""event"",""trial"",""time""
""blur"",""0"",""0""
""focus"",""1"",""10735""
""fullscreenenter"",""5"",""23456""
","""event"",""trial"",""time""
""blur"",""0"",""0""
","""event"",""trial"",""time""
""focus"",""1"",""10735""
","""event"",""trial"",""time""
""fullscreenenter"",""5"",""23456""
","
","455","","48","","","3000","1","1143,1446,1695","48,48,48","images/earth.jpg","images/tutrocket1","images/tutrocket2","null","images/tutrocket1","","1","practice","null","2","","",""
"d3-animate-choice","92","214162","0.0-61.0-1.10","1045","5250","10","Male","false","false","false","true","""event"",""trial"",""time""
""blur"",""0"",""0""
""focus"",""1"",""10735""
""fullscreenenter"",""5"",""23456""
","""event"",""trial"",""time""
""blur"",""0"",""0""
","""event"",""trial"",""time""
""focus"",""1"",""10735""
","""event"",""trial"",""time""
""fullscreenenter"",""5"",""23456""
","
","1297","","48","","","3000","1","","","images/tutgreenplanet.jpg","images/tutalien2","images/tutalien1","images/tutrocket1","images/tutalien2","images/nothing.png","2","practice","false","2","rare","0","2022-12-13 23:36:33.383"
"two-step-fixation","93","215164","0.0-61.0-2.10","1045","5250","10","Male","false","false","false","true","""event"",""trial"",""time""
""blur"",""0"",""0""
""focus"",""1"",""10735""
""fullscreenenter"",""5"",""23456""
","""event"",""trial"",""time""
""blur"",""0"",""0""
","""event"",""trial"",""time""
""focus"",""1"",""10735""
","""event"",""trial"",""time""
""fullscreenenter"",""5"",""23456""
","
","","images/earth.jpg","","","","","","","","","","","","","","fixation","","","","","",""
"d3-animate-choice","94","217442","0.0-61.0-0.11","1045","5250","10","Male","false","false","false","true","""event"",""trial"",""time""
""blur"",""0"",""0""
""focus"",""1"",""10735""
""fullscreenenter"",""5"",""23456""
""fullscreenexit"",""95"",""217816""
","""event"",""trial"",""time""
""blur"",""0"",""0""
","""event"",""trial"",""time""
""focus"",""1"",""10735""
","""event"",""trial"",""time""
""fullscreenenter"",""5"",""23456""
","""event"",""trial"",""time""
""fullscreenexit"",""95"",""217816""
","273","","48","","","3000","1","","","images/earth.jpg","images/tutrocket1","images/tutrocket2","null","images/tutrocket1","","1","practice","null","2","","",""
"d3-animate-choice","95","220975","0.0-61.0-1.11","1045","5250","10","Male","false","false","false","true","""event"",""trial"",""time""
""blur"",""0"",""0""
""focus"",""1"",""10735""
""fullscreenenter"",""5"",""23456""
""fullscreenexit"",""95"",""217816""
","""event"",""trial"",""time""
""blur"",""0"",""0""
","""event"",""trial"",""time""
""focus"",""1"",""10735""
","""event"",""trial"",""time""
""fullscreenenter"",""5"",""23456""
","""event"",""trial"",""time""
""fullscreenexit"",""95"",""217816""
","1530","","48","","","3000","1","","","images/tutyellowplanet.jpg","images/tutalien4","images/tutalien3","images/tutrocket1","images/tutalien4","images/nothing.png","2","practice","true","2","common","0","2022-12-13 23:36:40.197"
"two-step-fixation","96","221977","0.0-61.0-2.11","1045","5250","10","Male","false","false","false","true","""event"",""trial"",""time""
""blur"",""0"",""0""
""focus"",""1"",""10735""
""fullscreenenter"",""5"",""23456""
""fullscreenexit"",""95"",""217816""
","""event"",""trial"",""time""
""blur"",""0"",""0""
","""event"",""trial"",""time""
""focus"",""1"",""10735""
","""event"",""trial"",""time""
""fullscreenenter"",""5"",""23456""
","""event"",""trial"",""time""
""fullscreenexit"",""95"",""217816""
","","images/earth.jpg","","","","","","","","","","","","","","fixation","","","","","",""
"d3-animate-choice","97","224333","0.0-61.0-0.12","1045","5250","10","Male","false","false","false","true","""event"",""trial"",""time""
""blur"",""0"",""0""
""focus"",""1"",""10735""
""fullscreenenter"",""5"",""23456""
""fullscreenexit"",""95"",""217816""
","""event"",""trial"",""time""
""blur"",""0"",""0""
","""event"",""trial"",""time""
""focus"",""1"",""10735""
","""event"",""trial"",""time""
""fullscreenenter"",""5"",""23456""
","""event"",""trial"",""time""
""fullscreenexit"",""95"",""217816""
","354","","48","","","3000","1","","","images/earth.jpg","images/tutrocket1","images/tutrocket2","null","images/tutrocket1","","1","practice","null","2","","",""
"d3-animate-choice","98","227189","0.0-61.0-1.12","1045","5250","10","Male","false","false","false","true","""event"",""trial"",""time""
""blur"",""0"",""0""
""focus"",""1"",""10735""
""fullscreenenter"",""5"",""23456""
""fullscreenexit"",""95"",""217816""
","""event"",""trial"",""time""
""blur"",""0"",""0""
","""event"",""trial"",""time""
""focus"",""1"",""10735""
","""event"",""trial"",""time""
""fullscreenenter"",""5"",""23456""
","""event"",""trial"",""time""
""fullscreenexit"",""95"",""217816""
","853","","48","","","3000","1","","","images/tutyellowplanet.jpg","images/tutalien4","images/tutalien3","images/tutrocket1","images/tutalien4","images/nothing.png","2","practice","true","2","common","0","2022-12-13 23:36:46.411"
"two-step-fixation","99","228193","0.0-61.0-2.12","1045","5250","10","Male","false","false","false","true","""event"",""trial"",""time""
""blur"",""0"",""0""
""focus"",""1"",""10735""
""fullscreenenter"",""5"",""23456""
""fullscreenexit"",""95"",""217816""
""blur"",""100"",""230963""
","""event"",""trial"",""time""
""blur"",""0"",""0""
""blur"",""100"",""230963""
","""event"",""trial"",""time""
""focus"",""1"",""10735""
","""event"",""trial"",""time""
""fullscreenenter"",""5"",""23456""
","""event"",""trial"",""time""
""fullscreenexit"",""95"",""217816""
","","images/earth.jpg","","","","","","","","","","","","","","fixation","","","","","",""
"d3-animate-choice","100","231156","0.0-61.0-0.13","1045","5250","10","Male","false","false","false","true","""event"",""trial"",""time""
""blur"",""0"",""0""
""focus"",""1"",""10735""
""fullscreenenter"",""5"",""23456""
""fullscreenexit"",""95"",""217816""
""blur"",""100"",""230963""
""focus"",""101"",""232472""
""blur"",""101"",""233879""
","""event"",""trial"",""time""
""blur"",""0"",""0""
""blur"",""100"",""230963""
""blur"",""101"",""233879""
","""event"",""trial"",""time""
""focus"",""1"",""10735""
""focus"",""101"",""232472""
","""event"",""trial"",""time""
""fullscreenenter"",""5"",""23456""
","""event"",""trial"",""time""
""fullscreenexit"",""95"",""217816""
","957","","48","","","3000","1","1147,1353,1521","48,48,48","images/earth.jpg","images/tutrocket1","images/tutrocket2","null","images/tutrocket1","","1","practice","null","2","","",""
"d3-animate-choice","101","234898","0.0-61.0-1.13","1045","5250","10","Male","false","false","false","true","""event"",""trial"",""time""
""blur"",""0"",""0""
""focus"",""1"",""10735""
""fullscreenenter"",""5"",""23456""
""fullscreenexit"",""95"",""217816""
""blur"",""100"",""230963""
""focus"",""101"",""232472""
""blur"",""101"",""233879""
","""event"",""trial"",""time""
""blur"",""0"",""0""
""blur"",""100"",""230963""
""blur"",""101"",""233879""
","""event"",""trial"",""time""
""focus"",""1"",""10735""
""focus"",""101"",""232472""
","""event"",""trial"",""time""
""fullscreenenter"",""5"",""23456""
","""event"",""trial"",""time""
""fullscreenexit"",""95"",""217816""
","1736","","48","","","3000","1","","","images/tutyellowplanet.jpg","images/tutalien4","images/tutalien3","images/tutrocket1","images/tutalien4","images/nothing.png","2","practice","true","2","common","0","2022-12-13 23:36:54.119"
"two-step-fixation","102","235902","0.0-61.0-2.13","1045","5250","10","Male","false","false","false","true","""event"",""trial"",""time""
""blur"",""0"",""0""
""focus"",""1"",""10735""
""fullscreenenter"",""5"",""23456""
""fullscreenexit"",""95"",""217816""
""blur"",""100"",""230963""
""focus"",""101"",""232472""
""blur"",""101"",""233879""
","""event"",""trial"",""time""
""blur"",""0"",""0""
""blur"",""100"",""230963""
""blur"",""101"",""233879""
","""event"",""trial"",""time""
""focus"",""1"",""10735""
""focus"",""101"",""232472""
","""event"",""trial"",""time""
""fullscreenenter"",""5"",""23456""
","""event"",""trial"",""time""
""fullscreenexit"",""95"",""217816""
","","images/earth.jpg","","","","","","","","","","","","","","fixation","","","","","",""
"d3-animate-choice","103","239909","0.0-61.0-0.14","1045","5250","10","Male","false","false","false","true","""event"",""trial"",""time""
""blur"",""0"",""0""
""focus"",""1"",""10735""
""fullscreenenter"",""5"",""23456""
""fullscreenexit"",""95"",""217816""
""blur"",""100"",""230963""
""focus"",""101"",""232472""
""blur"",""101"",""233879""
","""event"",""trial"",""time""
""blur"",""0"",""0""
""blur"",""100"",""230963""
""blur"",""101"",""233879""
","""event"",""trial"",""time""
""focus"",""1"",""10735""
""focus"",""101"",""232472""
","""event"",""trial"",""time""
""fullscreenenter"",""5"",""23456""
","""event"",""trial"",""time""
""fullscreenexit"",""95"",""217816""
","null","","null","","","3000","0","","","images/earth.jpg","images/tutrocket1","images/tutrocket2","null","","","1","practice","null","","","",""
"d3-animate-choice","104","240916","0.0-61.0-1.14","1045","5250","10","Male","false","false","false","true","""event"",""trial"",""time""
""blur"",""0"",""0""
""focus"",""1"",""10735""
""fullscreenenter"",""5"",""23456""
""fullscreenexit"",""95"",""217816""
""blur"",""100"",""230963""
""focus"",""101"",""232472""
""blur"",""101"",""233879""
","""event"",""trial"",""time""
""blur"",""0"",""0""
""blur"",""100"",""230963""
""blur"",""101"",""233879""
","""event"",""trial"",""time""
""focus"",""1"",""10735""
""focus"",""101"",""232472""
","""event"",""trial"",""time""
""fullscreenenter"",""5"",""23456""
","""event"",""trial"",""time""
""fullscreenexit"",""95"",""217816""
","null","","null","","","0","0","","","images/earth.jpg","images/tutrocket1","images/tutrocket2","null","","","2","practice","null","","","0","2022-12-13 23:37:00.138"
"two-step-fixation","105","241922","0.0-61.0-2.14","1045","5250","10","Male","false","false","false","true","""event"",""trial"",""time""
""blur"",""0"",""0""
""focus"",""1"",""10735""
""fullscreenenter"",""5"",""23456""
""fullscreenexit"",""95"",""217816""
""blur"",""100"",""230963""
""focus"",""101"",""232472""
""blur"",""101"",""233879""
","""event"",""trial"",""time""
""blur"",""0"",""0""
""blur"",""100"",""230963""
""blur"",""101"",""233879""
","""event"",""trial"",""time""
""focus"",""1"",""10735""
""focus"",""101"",""232472""
","""event"",""trial"",""time""
""fullscreenenter"",""5"",""23456""
","""event"",""trial"",""time""
""fullscreenexit"",""95"",""217816""
","","images/earth.jpg","","","","","","","","","","","","","","fixation","","","","","",""
"d3-animate-choice","106","245930","0.0-61.0-0.15","1045","5250","10","Male","false","false","false","true","""event"",""trial"",""time""
""blur"",""0"",""0""
""focus"",""1"",""10735""
""fullscreenenter"",""5"",""23456""
""fullscreenexit"",""95"",""217816""
""blur"",""100"",""230963""
""focus"",""101"",""232472""
""blur"",""101"",""233879""
","""event"",""trial"",""time""
""blur"",""0"",""0""
""blur"",""100"",""230963""
""blur"",""101"",""233879""
","""event"",""trial"",""time""
""focus"",""1"",""10735""
""focus"",""101"",""232472""
","""event"",""trial"",""time""
""fullscreenenter"",""5"",""23456""
","""event"",""trial"",""time""
""fullscreenexit"",""95"",""217816""
","null","","null","","","3000","0","","","images/earth.jpg","images/tutrocket1","images/tutrocket2","null","","","1","practice","null","","","",""
"d3-animate-choice","107","246938","0.0-61.0-1.15","1045","5250","10","Male","false","false","false","true","""event"",""trial"",""time""
""blur"",""0"",""0""
""focus"",""1"",""10735""
""fullscreenenter"",""5"",""23456""
""fullscreenexit"",""95"",""217816""
""blur"",""100"",""230963""
""focus"",""101"",""232472""
""blur"",""101"",""233879""
","""event"",""trial"",""time""
""blur"",""0"",""0""
""blur"",""100"",""230963""
""blur"",""101"",""233879""
","""event"",""trial"",""time""
""focus"",""1"",""10735""
""focus"",""101"",""232472""
","""event"",""trial"",""time""
""fullscreenenter"",""5"",""23456""
","""event"",""trial"",""time""
""fullscreenexit"",""95"",""217816""
","null","","null","","","0","0","","","images/earth.jpg","images/tutrocket1","images/tutrocket2","null","","","2","practice","null","","","0","2022-12-13 23:37:06.160"
"two-step-fixation","108","247941","0.0-61.0-2.15","1045","5250","10","Male","false","false","false","true","""event"",""trial"",""time""
""blur"",""0"",""0""
""focus"",""1"",""10735""
""fullscreenenter"",""5"",""23456""
""fullscreenexit"",""95"",""217816""
""blur"",""100"",""230963""
""focus"",""101"",""232472""
""blur"",""101"",""233879""
","""event"",""trial"",""time""
""blur"",""0"",""0""
""blur"",""100"",""230963""
""blur"",""101"",""233879""
","""event"",""trial"",""time""
""focus"",""1"",""10735""
""focus"",""101"",""232472""
","""event"",""trial"",""time""
""fullscreenenter"",""5"",""23456""
","""event"",""trial"",""time""
""fullscreenexit"",""95"",""217816""
","","images/earth.jpg","","","","","","","","","","","","","","fixation","","","","","",""
"d3-animate-choice","109","251950","0.0-61.0-0.16","1045","5250","10","Male","false","false","false","true","""event"",""trial"",""time""
""blur"",""0"",""0""
""focus"",""1"",""10735""
""fullscreenenter"",""5"",""23456""
""fullscreenexit"",""95"",""217816""
""blur"",""100"",""230963""
""focus"",""101"",""232472""
""blur"",""101"",""233879""
","""event"",""trial"",""time""
""blur"",""0"",""0""
""blur"",""100"",""230963""
""blur"",""101"",""233879""
","""event"",""trial"",""time""
""focus"",""1"",""10735""
""focus"",""101"",""232472""
","""event"",""trial"",""time""
""fullscreenenter"",""5"",""23456""
","""event"",""trial"",""time""
""fullscreenexit"",""95"",""217816""
","null","","null","","","3000","0","","","images/earth.jpg","images/tutrocket1","images/tutrocket2","null","","","1","practice","null","","","",""
"d3-animate-choice","110","252959","0.0-61.0-1.16","1045","5250","10","Male","false","false","false","true","""event"",""trial"",""time""
""blur"",""0"",""0""
""focus"",""1"",""10735""
""fullscreenenter"",""5"",""23456""
""fullscreenexit"",""95"",""217816""
""blur"",""100"",""230963""
""focus"",""101"",""232472""
""blur"",""101"",""233879""
","""event"",""trial"",""time""
""blur"",""0"",""0""
""blur"",""100"",""230963""
""blur"",""101"",""233879""
","""event"",""trial"",""time""
""focus"",""1"",""10735""
""focus"",""101"",""232472""
","""event"",""trial"",""time""
""fullscreenenter"",""5"",""23456""
","""event"",""trial"",""time""
""fullscreenexit"",""95"",""217816""
","null","","null","","","0","0","","","images/earth.jpg","images/tutrocket1","images/tutrocket2","null","","","2","practice","null","","","0","2022-12-13 23:37:12.181"
"two-step-fixation","111","253962","0.0-61.0-2.16","1045","5250","10","Male","false","false","false","true","""event"",""trial"",""time""
""blur"",""0"",""0""
""focus"",""1"",""10735""
""fullscreenenter"",""5"",""23456""
""fullscreenexit"",""95"",""217816""
""blur"",""100"",""230963""
""focus"",""101"",""232472""
""blur"",""101"",""233879""
""focus"",""112"",""257094""
","""event"",""trial"",""time""
""blur"",""0"",""0""
""blur"",""100"",""230963""
""blur"",""101"",""233879""
","""event"",""trial"",""time""
""focus"",""1"",""10735""
""focus"",""101"",""232472""
""focus"",""112"",""257094""
","""event"",""trial"",""time""
""fullscreenenter"",""5"",""23456""
","""event"",""trial"",""time""
""fullscreenexit"",""95"",""217816""
","","images/earth.jpg","","","","","","","","","","","","","","fixation","","","","","",""
"d3-animate-choice","112","257973","0.0-61.0-0.17","1045","5250","10","Male","false","false","false","true","""event"",""trial"",""time""
""blur"",""0"",""0""
""focus"",""1"",""10735""
""fullscreenenter"",""5"",""23456""
""fullscreenexit"",""95"",""217816""
""blur"",""100"",""230963""
""focus"",""101"",""232472""
""blur"",""101"",""233879""
""focus"",""112"",""257094""
","""event"",""trial"",""time""
""blur"",""0"",""0""
""blur"",""100"",""230963""
""blur"",""101"",""233879""
","""event"",""trial"",""time""
""focus"",""1"",""10735""
""focus"",""101"",""232472""
""focus"",""112"",""257094""
","""event"",""trial"",""time""
""fullscreenenter"",""5"",""23456""
","""event"",""trial"",""time""
""fullscreenexit"",""95"",""217816""
","3883","","48","","","3000","0","","","images/earth.jpg","images/tutrocket1","images/tutrocket2","null","","","1","practice","null","2","","",""
"d3-animate-choice","113","258980","0.0-61.0-1.17","1045","5250","10","Male","false","false","false","true","""event"",""trial"",""time""
""blur"",""0"",""0""
""focus"",""1"",""10735""
""fullscreenenter"",""5"",""23456""
""fullscreenexit"",""95"",""217816""
""blur"",""100"",""230963""
""focus"",""101"",""232472""
""blur"",""101"",""233879""
""focus"",""112"",""257094""
","""event"",""trial"",""time""
""blur"",""0"",""0""
""blur"",""100"",""230963""
""blur"",""101"",""233879""
","""event"",""trial"",""time""
""focus"",""1"",""10735""
""focus"",""101"",""232472""
""focus"",""112"",""257094""
","""event"",""trial"",""time""
""fullscreenenter"",""5"",""23456""
","""event"",""trial"",""time""
""fullscreenexit"",""95"",""217816""
","86","","48","","","0","0","326","48","images/earth.jpg","images/tutrocket1","images/tutrocket2","null","","","2","practice","null","2","","0","2022-12-13 23:37:18.201"
"two-step-fixation","114","259983","0.0-61.0-2.17","1045","5250","10","Male","false","false","false","true","""event"",""trial"",""time""
""blur"",""0"",""0""
""focus"",""1"",""10735""
""fullscreenenter"",""5"",""23456""
""fullscreenexit"",""95"",""217816""
""blur"",""100"",""230963""
""focus"",""101"",""232472""
""blur"",""101"",""233879""
""focus"",""112"",""257094""
","""event"",""trial"",""time""
""blur"",""0"",""0""
""blur"",""100"",""230963""
""blur"",""101"",""233879""
","""event"",""trial"",""time""
""focus"",""1"",""10735""
""focus"",""101"",""232472""
""focus"",""112"",""257094""
","""event"",""trial"",""time""
""fullscreenenter"",""5"",""23456""
","""event"",""trial"",""time""
""fullscreenexit"",""95"",""217816""
","","images/earth.jpg","","","","","","","","","","","","","","fixation","","","","","",""
"d3-animate-choice","115","263987","0.0-61.0-0.18","1045","5250","10","Male","false","false","false","true","""event"",""trial"",""time""
""blur"",""0"",""0""
""focus"",""1"",""10735""
""fullscreenenter"",""5"",""23456""
""fullscreenexit"",""95"",""217816""
""blur"",""100"",""230963""
""focus"",""101"",""232472""
""blur"",""101"",""233879""
""focus"",""112"",""257094""
","""event"",""trial"",""time""
""blur"",""0"",""0""
""blur"",""100"",""230963""
""blur"",""101"",""233879""
","""event"",""trial"",""time""
""focus"",""1"",""10735""
""focus"",""101"",""232472""
""focus"",""112"",""257094""
","""event"",""trial"",""time""
""fullscreenenter"",""5"",""23456""
","""event"",""trial"",""time""
""fullscreenexit"",""95"",""217816""
","null","","null","","","3000","0","","","images/earth.jpg","images/tutrocket1","images/tutrocket2","null","","","1","practice","null","","","",""
"d3-animate-choice","116","264995","0.0-61.0-1.18","1045","5250","10","Male","false","false","false","true","""event"",""trial"",""time""
""blur"",""0"",""0""
""focus"",""1"",""10735""
""fullscreenenter"",""5"",""23456""
""fullscreenexit"",""95"",""217816""
""blur"",""100"",""230963""
""focus"",""101"",""232472""
""blur"",""101"",""233879""
""focus"",""112"",""257094""
","""event"",""trial"",""time""
""blur"",""0"",""0""
""blur"",""100"",""230963""
""blur"",""101"",""233879""
","""event"",""trial"",""time""
""focus"",""1"",""10735""
""focus"",""101"",""232472""
""focus"",""112"",""257094""
","""event"",""trial"",""time""
""fullscreenenter"",""5"",""23456""
","""event"",""trial"",""time""
""fullscreenexit"",""95"",""217816""
","186","","48","","","0","0","367,561,767","48,48,48","images/earth.jpg","images/tutrocket1","images/tutrocket2","null","","","2","practice","null","2","","0","2022-12-13 23:37:24.216"
"two-step-fixation","117","265997","0.0-61.0-2.18","1045","5250","10","Male","false","false","false","true","""event"",""trial"",""time""
""blur"",""0"",""0""
""focus"",""1"",""10735""
""fullscreenenter"",""5"",""23456""
""fullscreenexit"",""95"",""217816""
""blur"",""100"",""230963""
""focus"",""101"",""232472""
""blur"",""101"",""233879""
""focus"",""112"",""257094""
","""event"",""trial"",""time""
""blur"",""0"",""0""
""blur"",""100"",""230963""
""blur"",""101"",""233879""
","""event"",""trial"",""time""
""focus"",""1"",""10735""
""focus"",""101"",""232472""
""focus"",""112"",""257094""
","""event"",""trial"",""time""
""fullscreenenter"",""5"",""23456""
","""event"",""trial"",""time""
""fullscreenexit"",""95"",""217816""
","","images/earth.jpg","","","","","","","","","","","","","","fixation","","","","","",""
"d3-animate-choice","118","268880","0.0-61.0-0.19","1045","5250","10","Male","false","false","false","true","""event"",""trial"",""time""
""blur"",""0"",""0""
""focus"",""1"",""10735""
""fullscreenenter"",""5"",""23456""
""fullscreenexit"",""95"",""217816""
""blur"",""100"",""230963""
""focus"",""101"",""232472""
""blur"",""101"",""233879""
""focus"",""112"",""257094""
","""event"",""trial"",""time""
""blur"",""0"",""0""
""blur"",""100"",""230963""
""blur"",""101"",""233879""
","""event"",""trial"",""time""
""focus"",""1"",""10735""
""focus"",""101"",""232472""
""focus"",""112"",""257094""
","""event"",""trial"",""time""
""fullscreenenter"",""5"",""23456""
","""event"",""trial"",""time""
""fullscreenexit"",""95"",""217816""
","877","","48","","","3000","1","1061,1256,1445,1629","48,48,48,48","images/earth.jpg","images/tutrocket1","images/tutrocket2","null","images/tutrocket1","","1","practice","null","2","","",""
"d3-animate-choice","119","271794","0.0-61.0-1.19","1045","5250","10","Male","false","false","false","true","""event"",""trial"",""time""
""blur"",""0"",""0""
""focus"",""1"",""10735""
""fullscreenenter"",""5"",""23456""
""fullscreenexit"",""95"",""217816""
""blur"",""100"",""230963""
""focus"",""101"",""232472""
""blur"",""101"",""233879""
""focus"",""112"",""257094""
","""event"",""trial"",""time""
""blur"",""0"",""0""
""blur"",""100"",""230963""
""blur"",""101"",""233879""
","""event"",""trial"",""time""
""focus"",""1"",""10735""
""focus"",""101"",""232472""
""focus"",""112"",""257094""
","""event"",""trial"",""time""
""fullscreenenter"",""5"",""23456""
","""event"",""trial"",""time""
""fullscreenexit"",""95"",""217816""
","909","","48","","","3000","1","","","images/tutyellowplanet.jpg","images/tutalien4","images/tutalien3","images/tutrocket1","images/tutalien4","images/nothing.png","2","practice","true","2","common","0","2022-12-13 23:37:31.016"
"two-step-fixation","120","272801","0.0-61.0-2.19","1045","5250","10","Male","false","false","false","true","""event"",""trial"",""time""
""blur"",""0"",""0""
""focus"",""1"",""10735""
""fullscreenenter"",""5"",""23456""
""fullscreenexit"",""95"",""217816""
""blur"",""100"",""230963""
""focus"",""101"",""232472""
""blur"",""101"",""233879""
""focus"",""112"",""257094""
""blur"",""121"",""280825""
""focus"",""121"",""282207""
","""event"",""trial"",""time""
""blur"",""0"",""0""
""blur"",""100"",""230963""
""blur"",""101"",""233879""
""blur"",""121"",""280825""
","""event"",""trial"",""time""
""focus"",""1"",""10735""
""focus"",""101"",""232472""
""focus"",""112"",""257094""
""focus"",""121"",""282207""
","""event"",""trial"",""time""
""fullscreenenter"",""5"",""23456""
","""event"",""trial"",""time""
""fullscreenexit"",""95"",""217816""
","","images/earth.jpg","","","","","","","","","","","","","","fixation","","","","","",""
"d3-instructions","121","283526","0.0-62.0","1045","5250","10","Male","false","false","false","true","""event"",""trial"",""time""
""blur"",""0"",""0""
""focus"",""1"",""10735""
""fullscreenenter"",""5"",""23456""
""fullscreenexit"",""95"",""217816""
""blur"",""100"",""230963""
""focus"",""101"",""232472""
""blur"",""101"",""233879""
""focus"",""112"",""257094""
""blur"",""121"",""280825""
""focus"",""121"",""282207""
""blur"",""122"",""286908""
""focus"",""122"",""290787""
","""event"",""trial"",""time""
""blur"",""0"",""0""
""blur"",""100"",""230963""
""blur"",""101"",""233879""
""blur"",""121"",""280825""
""blur"",""122"",""286908""
","""event"",""trial"",""time""
""focus"",""1"",""10735""
""focus"",""101"",""232472""
""focus"",""112"",""257094""
""focus"",""121"",""282207""
""focus"",""122"",""290787""
","""event"",""trial"",""time""
""fullscreenenter"",""5"",""23456""
","""event"",""trial"",""time""
""fullscreenexit"",""95"",""217816""
","","","","","","","","","","","","","","","","","","","","","",""
"audio-keyboard-response","122","291342","0.0-63.0","1045","5250","10","Male","false","false","false","true","""event"",""trial"",""time""
""blur"",""0"",""0""
""focus"",""1"",""10735""
""fullscreenenter"",""5"",""23456""
""fullscreenexit"",""95"",""217816""
""blur"",""100"",""230963""
""focus"",""101"",""232472""
""blur"",""101"",""233879""
""focus"",""112"",""257094""
""blur"",""121"",""280825""
""focus"",""121"",""282207""
""blur"",""122"",""286908""
""focus"",""122"",""290787""
","""event"",""trial"",""time""
""blur"",""0"",""0""
""blur"",""100"",""230963""
""blur"",""101"",""233879""
""blur"",""121"",""280825""
""blur"",""122"",""286908""
","""event"",""trial"",""time""
""focus"",""1"",""10735""
""focus"",""101"",""232472""
""focus"",""112"",""257094""
""focus"",""121"",""282207""
""focus"",""122"",""290787""
","""event"",""trial"",""time""
""fullscreenenter"",""5"",""23456""
","""event"",""trial"",""time""
""fullscreenexit"",""95"",""217816""
","7816","audio/instructions/treasure_feedback.wav","32","","","","","","","","","","","","","","","","","","",""
"d3-instructions","123","299278","0.0-64.0","1045","5250","10","Male","false","false","false","true","""event"",""trial"",""time""
""blur"",""0"",""0""
""focus"",""1"",""10735""
""fullscreenenter"",""5"",""23456""
""fullscreenexit"",""95"",""217816""
""blur"",""100"",""230963""
""focus"",""101"",""232472""
""blur"",""101"",""233879""
""focus"",""112"",""257094""
""blur"",""121"",""280825""
""focus"",""121"",""282207""
""blur"",""122"",""286908""
""focus"",""122"",""290787""
","""event"",""trial"",""time""
""blur"",""0"",""0""
""blur"",""100"",""230963""
""blur"",""101"",""233879""
""blur"",""121"",""280825""
""blur"",""122"",""286908""
","""event"",""trial"",""time""
""focus"",""1"",""10735""
""focus"",""101"",""232472""
""focus"",""112"",""257094""
""focus"",""121"",""282207""
""focus"",""122"",""290787""
","""event"",""trial"",""time""
""fullscreenenter"",""5"",""23456""
","""event"",""trial"",""time""
""fullscreenexit"",""95"",""217816""
","","","","","","","","","","","","","","","","","","","","","",""
"d3-instructions","124","302084","0.0-65.0","1045","5250","10","Male","false","false","false","true","""event"",""trial"",""time""
""blur"",""0"",""0""
""focus"",""1"",""10735""
""fullscreenenter"",""5"",""23456""
""fullscreenexit"",""95"",""217816""
""blur"",""100"",""230963""
""focus"",""101"",""232472""
""blur"",""101"",""233879""
""focus"",""112"",""257094""
""blur"",""121"",""280825""
""focus"",""121"",""282207""
""blur"",""122"",""286908""
""focus"",""122"",""290787""
","""event"",""trial"",""time""
""blur"",""0"",""0""
""blur"",""100"",""230963""
""blur"",""101"",""233879""
""blur"",""121"",""280825""
""blur"",""122"",""286908""
","""event"",""trial"",""time""
""focus"",""1"",""10735""
""focus"",""101"",""232472""
""focus"",""112"",""257094""
""focus"",""121"",""282207""
""focus"",""122"",""290787""
","""event"",""trial"",""time""
""fullscreenenter"",""5"",""23456""
","""event"",""trial"",""time""
""fullscreenexit"",""95"",""217816""
","","","","","","","","","","","","","","","","","","","","","",""
"d3-instructions","125","308933","0.0-66.0","1045","5250","10","Male","false","false","false","true","""event"",""trial"",""time""
""blur"",""0"",""0""
""focus"",""1"",""10735""
""fullscreenenter"",""5"",""23456""
""fullscreenexit"",""95"",""217816""
""blur"",""100"",""230963""
""focus"",""101"",""232472""
""blur"",""101"",""233879""
""focus"",""112"",""257094""
""blur"",""121"",""280825""
""focus"",""121"",""282207""
""blur"",""122"",""286908""
""focus"",""122"",""290787""
","""event"",""trial"",""time""
""blur"",""0"",""0""
""blur"",""100"",""230963""
""blur"",""101"",""233879""
""blur"",""121"",""280825""
""blur"",""122"",""286908""
","""event"",""trial"",""time""
""focus"",""1"",""10735""
""focus"",""101"",""232472""
""focus"",""112"",""257094""
""focus"",""121"",""282207""
""focus"",""122"",""290787""
","""event"",""trial"",""time""
""fullscreenenter"",""5"",""23456""
","""event"",""trial"",""time""
""fullscreenexit"",""95"",""217816""
","","","","","","","","","","","","","","","","","","","","","",""
"d3-instructions","126","310845","0.0-67.0","1045","5250","10","Male","false","false","false","true","""event"",""trial"",""time""
""blur"",""0"",""0""
""focus"",""1"",""10735""
""fullscreenenter"",""5"",""23456""
""fullscreenexit"",""95"",""217816""
""blur"",""100"",""230963""
""focus"",""101"",""232472""
""blur"",""101"",""233879""
""focus"",""112"",""257094""
""blur"",""121"",""280825""
""focus"",""121"",""282207""
""blur"",""122"",""286908""
""focus"",""122"",""290787""
","""event"",""trial"",""time""
""blur"",""0"",""0""
""blur"",""100"",""230963""
""blur"",""101"",""233879""
""blur"",""121"",""280825""
""blur"",""122"",""286908""
","""event"",""trial"",""time""
""focus"",""1"",""10735""
""focus"",""101"",""232472""
""focus"",""112"",""257094""
""focus"",""121"",""282207""
""focus"",""122"",""290787""
","""event"",""trial"",""time""
""fullscreenenter"",""5"",""23456""
","""event"",""trial"",""time""
""fullscreenexit"",""95"",""217816""
","","","","","","","","","","","","","","","","","","","","","",""
"d3-instructions","127","315430","0.0-68.0","1045","5250","10","Male","false","false","false","true","""event"",""trial"",""time""
""blur"",""0"",""0""
""focus"",""1"",""10735""
""fullscreenenter"",""5"",""23456""
""fullscreenexit"",""95"",""217816""
""blur"",""100"",""230963""
""focus"",""101"",""232472""
""blur"",""101"",""233879""
""focus"",""112"",""257094""
""blur"",""121"",""280825""
""focus"",""121"",""282207""
""blur"",""122"",""286908""
""focus"",""122"",""290787""
","""event"",""trial"",""time""
""blur"",""0"",""0""
""blur"",""100"",""230963""
""blur"",""101"",""233879""
""blur"",""121"",""280825""
""blur"",""122"",""286908""
","""event"",""trial"",""time""
""focus"",""1"",""10735""
""focus"",""101"",""232472""
""focus"",""112"",""257094""
""focus"",""121"",""282207""
""focus"",""122"",""290787""
","""event"",""trial"",""time""
""fullscreenenter"",""5"",""23456""
","""event"",""trial"",""time""
""fullscreenexit"",""95"",""217816""
","","","","","","","","","","","","","","","","","","","","","",""
"instructions-quiz","128","319809","0.0-69.0","1045","5250","10","Male","false","false","false","true","""event"",""trial"",""time""
""blur"",""0"",""0""
""focus"",""1"",""10735""
""fullscreenenter"",""5"",""23456""
""fullscreenexit"",""95"",""217816""
""blur"",""100"",""230963""
""focus"",""101"",""232472""
""blur"",""101"",""233879""
""focus"",""112"",""257094""
""blur"",""121"",""280825""
""focus"",""121"",""282207""
""blur"",""122"",""286908""
""focus"",""122"",""290787""
","""event"",""trial"",""time""
""blur"",""0"",""0""
""blur"",""100"",""230963""
""blur"",""101"",""233879""
""blur"",""121"",""280825""
""blur"",""122"",""286908""
","""event"",""trial"",""time""
""focus"",""1"",""10735""
""focus"",""101"",""232472""
""focus"",""112"",""257094""
""focus"",""121"",""282207""
""focus"",""122"",""290787""
","""event"",""trial"",""time""
""fullscreenenter"",""5"",""23456""
","""event"",""trial"",""time""
""fullscreenexit"",""95"",""217816""
","4376","audio/quiz/Q1_Prompt.wav","","1","","","","","","","","","","","","","","","","","",""
"audio-keyboard-response","129","322996","0.0-70.0","1045","5250","10","Male","false","false","false","true","""event"",""trial"",""time""
""blur"",""0"",""0""
""focus"",""1"",""10735""
""fullscreenenter"",""5"",""23456""
""fullscreenexit"",""95"",""217816""
""blur"",""100"",""230963""
""focus"",""101"",""232472""
""blur"",""101"",""233879""
""focus"",""112"",""257094""
""blur"",""121"",""280825""
""focus"",""121"",""282207""
""blur"",""122"",""286908""
""focus"",""122"",""290787""
","""event"",""trial"",""time""
""blur"",""0"",""0""
""blur"",""100"",""230963""
""blur"",""101"",""233879""
""blur"",""121"",""280825""
""blur"",""122"",""286908""
","""event"",""trial"",""time""
""focus"",""1"",""10735""
""focus"",""101"",""232472""
""focus"",""112"",""257094""
""focus"",""121"",""282207""
""focus"",""122"",""290787""
","""event"",""trial"",""time""
""fullscreenenter"",""5"",""23456""
","""event"",""trial"",""time""
""fullscreenexit"",""95"",""217816""
","3190","audio/quiz/Q1_Correct.wav","32","","","","","","","","","","","","","","","","","","",""
"instructions-quiz","130","330679","0.0-71.0","1045","5250","10","Male","false","false","false","true","""event"",""trial"",""time""
""blur"",""0"",""0""
""focus"",""1"",""10735""
""fullscreenenter"",""5"",""23456""
""fullscreenexit"",""95"",""217816""
""blur"",""100"",""230963""
""focus"",""101"",""232472""
""blur"",""101"",""233879""
""focus"",""112"",""257094""
""blur"",""121"",""280825""
""focus"",""121"",""282207""
""blur"",""122"",""286908""
""focus"",""122"",""290787""
","""event"",""trial"",""time""
""blur"",""0"",""0""
""blur"",""100"",""230963""
""blur"",""101"",""233879""
""blur"",""121"",""280825""
""blur"",""122"",""286908""
","""event"",""trial"",""time""
""focus"",""1"",""10735""
""focus"",""101"",""232472""
""focus"",""112"",""257094""
""focus"",""121"",""282207""
""focus"",""122"",""290787""
","""event"",""trial"",""time""
""fullscreenenter"",""5"",""23456""
","""event"",""trial"",""time""
""fullscreenexit"",""95"",""217816""
","7681","audio/quiz/Q2_Prompt.wav","","0","","","","","","","","","","","","","","","","","",""
"audio-keyboard-response","131","338004","0.0-72.0","1045","5250","10","Male","false","false","false","true","""event"",""trial"",""time""
""blur"",""0"",""0""
""focus"",""1"",""10735""
""fullscreenenter"",""5"",""23456""
""fullscreenexit"",""95"",""217816""
""blur"",""100"",""230963""
""focus"",""101"",""232472""
""blur"",""101"",""233879""
""focus"",""112"",""257094""
""blur"",""121"",""280825""
""focus"",""121"",""282207""
""blur"",""122"",""286908""
""focus"",""122"",""290787""
","""event"",""trial"",""time""
""blur"",""0"",""0""
""blur"",""100"",""230963""
""blur"",""101"",""233879""
""blur"",""121"",""280825""
""blur"",""122"",""286908""
","""event"",""trial"",""time""
""focus"",""1"",""10735""
""focus"",""101"",""232472""
""focus"",""112"",""257094""
""focus"",""121"",""282207""
""focus"",""122"",""290787""
","""event"",""trial"",""time""
""fullscreenenter"",""5"",""23456""
","""event"",""trial"",""time""
""fullscreenexit"",""95"",""217816""
","7326","audio/quiz/Q2_Correct.wav","32","","","","","","","","","","","","","","","","","","",""
"instructions-quiz","132","342184","0.0-73.0","1045","5250","10","Male","false","false","false","true","""event"",""trial"",""time""
""blur"",""0"",""0""
""focus"",""1"",""10735""
""fullscreenenter"",""5"",""23456""
""fullscreenexit"",""95"",""217816""
""blur"",""100"",""230963""
""focus"",""101"",""232472""
""blur"",""101"",""233879""
""focus"",""112"",""257094""
""blur"",""121"",""280825""
""focus"",""121"",""282207""
""blur"",""122"",""286908""
""focus"",""122"",""290787""
","""event"",""trial"",""time""
""blur"",""0"",""0""
""blur"",""100"",""230963""
""blur"",""101"",""233879""
""blur"",""121"",""280825""
""blur"",""122"",""286908""
","""event"",""trial"",""time""
""focus"",""1"",""10735""
""focus"",""101"",""232472""
""focus"",""112"",""257094""
""focus"",""121"",""282207""
""focus"",""122"",""290787""
","""event"",""trial"",""time""
""fullscreenenter"",""5"",""23456""
","""event"",""trial"",""time""
""fullscreenexit"",""95"",""217816""
","4180","audio/quiz/Q3_Prompt.wav","","1","","","","","","","","","","","","","","","","","",""
"audio-keyboard-response","133","346139","0.0-74.0","1045","5250","10","Male","false","false","false","true","""event"",""trial"",""time""
""blur"",""0"",""0""
""focus"",""1"",""10735""
""fullscreenenter"",""5"",""23456""
""fullscreenexit"",""95"",""217816""
""blur"",""100"",""230963""
""focus"",""101"",""232472""
""blur"",""101"",""233879""
""focus"",""112"",""257094""
""blur"",""121"",""280825""
""focus"",""121"",""282207""
""blur"",""122"",""286908""
""focus"",""122"",""290787""
","""event"",""trial"",""time""
""blur"",""0"",""0""
""blur"",""100"",""230963""
""blur"",""101"",""233879""
""blur"",""121"",""280825""
""blur"",""122"",""286908""
","""event"",""trial"",""time""
""focus"",""1"",""10735""
""focus"",""101"",""232472""
""focus"",""112"",""257094""
""focus"",""121"",""282207""
""focus"",""122"",""290787""
","""event"",""trial"",""time""
""fullscreenenter"",""5"",""23456""
","""event"",""trial"",""time""
""fullscreenexit"",""95"",""217816""
","3959","audio/quiz/Q3_Correct.wav","32","","","","","","","","","","","","","","","","","","",""
"d3-instructions","134","349966","0.0-75.0","1045","5250","10","Male","false","false","false","true","""event"",""trial"",""time""
""blur"",""0"",""0""
""focus"",""1"",""10735""
""fullscreenenter"",""5"",""23456""
""fullscreenexit"",""95"",""217816""
""blur"",""100"",""230963""
""focus"",""101"",""232472""
""blur"",""101"",""233879""
""focus"",""112"",""257094""
""blur"",""121"",""280825""
""focus"",""121"",""282207""
""blur"",""122"",""286908""
""focus"",""122"",""290787""
","""event"",""trial"",""time""
""blur"",""0"",""0""
""blur"",""100"",""230963""
""blur"",""101"",""233879""
""blur"",""121"",""280825""
""blur"",""122"",""286908""
","""event"",""trial"",""time""
""focus"",""1"",""10735""
""focus"",""101"",""232472""
""focus"",""112"",""257094""
""focus"",""121"",""282207""
""focus"",""122"",""290787""
","""event"",""trial"",""time""
""fullscreenenter"",""5"",""23456""
","""event"",""trial"",""time""
""fullscreenexit"",""95"",""217816""
","","","","","","","","","","","","","","","","","","","","","",""
"d3-animate-choice","135","353367","0.0-76.0-0.0","1045","5250","10","Male","false","false","false","true","""event"",""trial"",""time""
""blur"",""0"",""0""
""focus"",""1"",""10735""
""fullscreenenter"",""5"",""23456""
""fullscreenexit"",""95"",""217816""
""blur"",""100"",""230963""
""focus"",""101"",""232472""
""blur"",""101"",""233879""
""focus"",""112"",""257094""
""blur"",""121"",""280825""
""focus"",""121"",""282207""
""blur"",""122"",""286908""
""focus"",""122"",""290787""
","""event"",""trial"",""time""
""blur"",""0"",""0""
""blur"",""100"",""230963""
""blur"",""101"",""233879""
""blur"",""121"",""280825""
""blur"",""122"",""286908""
","""event"",""trial"",""time""
""focus"",""1"",""10735""
""focus"",""101"",""232472""
""focus"",""112"",""257094""
""focus"",""121"",""282207""
""focus"",""122"",""290787""
","""event"",""trial"",""time""
""fullscreenenter"",""5"",""23456""
","""event"",""trial"",""time""
""fullscreenexit"",""95"",""217816""
","1396","","48","","","3000","1","1564,1764,1987,2188,2364,2558,2750,2963,3348","48,48,48,48,48,48,48,48,48","images/earth.jpg","images/rocket1","images/rocket2","null","images/rocket1","","1","real","null","2","","",""
"d3-animate-choice","136","355592","0.0-76.0-1.0","1045","5250","10","Male","false","false","false","true","""event"",""trial"",""time""
""blur"",""0"",""0""
""focus"",""1"",""10735""
""fullscreenenter"",""5"",""23456""
""fullscreenexit"",""95"",""217816""
""blur"",""100"",""230963""
""focus"",""101"",""232472""
""blur"",""101"",""233879""
""focus"",""112"",""257094""
""blur"",""121"",""280825""
""focus"",""121"",""282207""
""blur"",""122"",""286908""
""focus"",""122"",""290787""
","""event"",""trial"",""time""
""blur"",""0"",""0""
""blur"",""100"",""230963""
""blur"",""101"",""233879""
""blur"",""121"",""280825""
""blur"",""122"",""286908""
","""event"",""trial"",""time""
""focus"",""1"",""10735""
""focus"",""101"",""232472""
""focus"",""112"",""257094""
""focus"",""121"",""282207""
""focus"",""122"",""290787""
","""event"",""trial"",""time""
""fullscreenenter"",""5"",""23456""
","""event"",""trial"",""time""
""fullscreenexit"",""95"",""217816""
","218","","48","","","3000","1","602,819,1018,1225,1580,1862,2089","48,48,48,48,48,48,48","images/redplanet1.jpg","images/alien2","images/alien1","images/rocket1","images/alien2","images/t.png","2","real","false","2","rare","1","2022-12-13 23:38:54.813"
"two-step-fixation","137","356595","0.0-76.0-2.0","1045","5250","10","Male","false","false","false","true","""event"",""trial"",""time""
""blur"",""0"",""0""
""focus"",""1"",""10735""
""fullscreenenter"",""5"",""23456""
""fullscreenexit"",""95"",""217816""
""blur"",""100"",""230963""
""focus"",""101"",""232472""
""blur"",""101"",""233879""
""focus"",""112"",""257094""
""blur"",""121"",""280825""
""focus"",""121"",""282207""
""blur"",""122"",""286908""
""focus"",""122"",""290787""
","""event"",""trial"",""time""
""blur"",""0"",""0""
""blur"",""100"",""230963""
""blur"",""101"",""233879""
""blur"",""121"",""280825""
""blur"",""122"",""286908""
","""event"",""trial"",""time""
""focus"",""1"",""10735""
""focus"",""101"",""232472""
""focus"",""112"",""257094""
""focus"",""121"",""282207""
""focus"",""122"",""290787""
","""event"",""trial"",""time""
""fullscreenenter"",""5"",""23456""
","""event"",""trial"",""time""
""fullscreenexit"",""95"",""217816""
","","images/earth.jpg","","","","","","","","","","","","","","fixation","","","","","",""
"d3-animate-choice","138","360003","0.0-76.0-0.1","1045","5250","10","Male","false","false","false","true","""event"",""trial"",""time""
""blur"",""0"",""0""
""focus"",""1"",""10735""
""fullscreenenter"",""5"",""23456""
""fullscreenexit"",""95"",""217816""
""blur"",""100"",""230963""
""focus"",""101"",""232472""
""blur"",""101"",""233879""
""focus"",""112"",""257094""
""blur"",""121"",""280825""
""focus"",""121"",""282207""
""blur"",""122"",""286908""
""focus"",""122"",""290787""
","""event"",""trial"",""time""
""blur"",""0"",""0""
""blur"",""100"",""230963""
""blur"",""101"",""233879""
""blur"",""121"",""280825""
""blur"",""122"",""286908""
","""event"",""trial"",""time""
""focus"",""1"",""10735""
""focus"",""101"",""232472""
""focus"",""112"",""257094""
""focus"",""121"",""282207""
""focus"",""122"",""290787""
","""event"",""trial"",""time""
""fullscreenenter"",""5"",""23456""
","""event"",""trial"",""time""
""fullscreenexit"",""95"",""217816""
","1406","","48","","","3000","1","1701,2079","48,48","images/earth.jpg","images/rocket1","images/rocket2","null","images/rocket1","","1","real","null","2","","",""
"d3-animate-choice","139","362263","0.0-76.0-1.1","1045","5250","10","Male","false","false","false","true","""event"",""trial"",""time""
""blur"",""0"",""0""
""focus"",""1"",""10735""
""fullscreenenter"",""5"",""23456""
""fullscreenexit"",""95"",""217816""
""blur"",""100"",""230963""
""focus"",""101"",""232472""
""blur"",""101"",""233879""
""focus"",""112"",""257094""
""blur"",""121"",""280825""
""focus"",""121"",""282207""
""blur"",""122"",""286908""
""focus"",""122"",""290787""
","""event"",""trial"",""time""
""blur"",""0"",""0""
""blur"",""100"",""230963""
""blur"",""101"",""233879""
""blur"",""121"",""280825""
""blur"",""122"",""286908""
","""event"",""trial"",""time""
""focus"",""1"",""10735""
""focus"",""101"",""232472""
""focus"",""112"",""257094""
""focus"",""121"",""282207""
""focus"",""122"",""290787""
","""event"",""trial"",""time""
""fullscreenenter"",""5"",""23456""
","""event"",""trial"",""time""
""fullscreenexit"",""95"",""217816""
","252","","48","","","3000","1","596,924,1764","48,48,48","images/purpleplanet.jpg","images/alien4","images/alien3","images/rocket1","images/alien4","images/t.png","2","real","true","2","common","1","2022-12-13 23:39:01.484"
"two-step-fixation","140","363266","0.0-76.0-2.1","1045","5250","10","Male","false","false","false","true","""event"",""trial"",""time""
""blur"",""0"",""0""
""focus"",""1"",""10735""
""fullscreenenter"",""5"",""23456""
""fullscreenexit"",""95"",""217816""
""blur"",""100"",""230963""
""focus"",""101"",""232472""
""blur"",""101"",""233879""
""focus"",""112"",""257094""
""blur"",""121"",""280825""
""focus"",""121"",""282207""
""blur"",""122"",""286908""
""focus"",""122"",""290787""
","""event"",""trial"",""time""
""blur"",""0"",""0""
""blur"",""100"",""230963""
""blur"",""101"",""233879""
""blur"",""121"",""280825""
""blur"",""122"",""286908""
","""event"",""trial"",""time""
""focus"",""1"",""10735""
""focus"",""101"",""232472""
""focus"",""112"",""257094""
""focus"",""121"",""282207""
""focus"",""122"",""290787""
","""event"",""trial"",""time""
""fullscreenenter"",""5"",""23456""
","""event"",""trial"",""time""
""fullscreenexit"",""95"",""217816""
","","images/earth.jpg","","","","","","","","","","","","","","fixation","","","","","",""
"d3-animate-choice","141","365437","0.0-76.0-0.2","1045","5250","10","Male","false","false","false","true","""event"",""trial"",""time""
""blur"",""0"",""0""
""focus"",""1"",""10735""
""fullscreenenter"",""5"",""23456""
""fullscreenexit"",""95"",""217816""
""blur"",""100"",""230963""
""focus"",""101"",""232472""
""blur"",""101"",""233879""
""focus"",""112"",""257094""
""blur"",""121"",""280825""
""focus"",""121"",""282207""
""blur"",""122"",""286908""
""focus"",""122"",""290787""
","""event"",""trial"",""time""
""blur"",""0"",""0""
""blur"",""100"",""230963""
""blur"",""101"",""233879""
""blur"",""121"",""280825""
""blur"",""122"",""286908""
","""event"",""trial"",""time""
""focus"",""1"",""10735""
""focus"",""101"",""232472""
""focus"",""112"",""257094""
""focus"",""121"",""282207""
""focus"",""122"",""290787""
","""event"",""trial"",""time""
""fullscreenenter"",""5"",""23456""
","""event"",""trial"",""time""
""fullscreenexit"",""95"",""217816""
","168","","48","","","3000","1","449,696,975,1248,1519,1775,2039","48,48,48,48,48,48,48","images/earth.jpg","images/rocket1","images/rocket2","null","images/rocket1","","1","real","null","2","","",""
"d3-animate-choice","142","367536","0.0-76.0-1.2","1045","5250","10","Male","false","false","false","true","""event"",""trial"",""time""
""blur"",""0"",""0""
""focus"",""1"",""10735""
""fullscreenenter"",""5"",""23456""
""fullscreenexit"",""95"",""217816""
""blur"",""100"",""230963""
""focus"",""101"",""232472""
""blur"",""101"",""233879""
""focus"",""112"",""257094""
""blur"",""121"",""280825""
""focus"",""121"",""282207""
""blur"",""122"",""286908""
""focus"",""122"",""290787""
","""event"",""trial"",""time""
""blur"",""0"",""0""
""blur"",""100"",""230963""
""blur"",""101"",""233879""
""blur"",""121"",""280825""
""blur"",""122"",""286908""
","""event"",""trial"",""time""
""focus"",""1"",""10735""
""focus"",""101"",""232472""
""focus"",""112"",""257094""
""focus"",""121"",""282207""
""focus"",""122"",""290787""
","""event"",""trial"",""time""
""fullscreenenter"",""5"",""23456""
","""event"",""trial"",""time""
""fullscreenexit"",""95"",""217816""
","91","","48","","","3000","1","338,626,907,1170,1435,1715,1932","48,48,48,48,48,48,48","images/redplanet1.jpg","images/alien2","images/alien1","images/rocket1","images/alien2","images/nothing.png","2","real","false","2","rare","0","2022-12-13 23:39:06.757"
