"trial_type","trial_index","time_elapsed","internal_node_id","participant_id","subject_id","age","gender","rocket_sides","red_planet_first_rocket","red_display_order","purple_display_order","interactions","blur_events","focus_events","fullscreenenter_events","fullscreenexit_events","rt","stimulus","key_press","button_pressed","success","duration","valid_pressed","rts","keys","planet_text","right_text","left_text","center_text","chosen_text","reward_text","trial_stage","practice_trial","transition_type","choice","transition","reward","timestamp"
"pavlovia","0","10","0.0-0.0","1461","4965","13","Female","false","true","true","true","
","
","
","
","
","","","","","","","","","","","","","","","","","","","","","",""
"html-keyboard-response","1","7359","0.0-1.0","1461","4965","13","Female","false","true","true","true","
","
","
","
","
","7348.10000000149","Welcome! Press the space bar to begin.","32","","","","","","","","","","","","","","","","","","",""
"audio-keyboard-response","2","10270","0.0-2.0","1461","4965","13","Female","false","true","true","true","
","
","
","
","
","2131","audio/beep_loop.wav","175","","","","","","","","","","","","","","","","","","",""
"audio-button-response","3","17764","0.0-3.0","1461","4965","13","Female","false","true","true","true","
","
","
","
","
","NaN","audio/fish.mp3","","1","","","","","","","","","","","","","","","","","",""
"audio-button-response","4","21058","0.0-4.0","1461","4965","13","Female","false","true","true","true","""event"",""trial"",""time""
""fullscreenenter"",""5"",""25182""
","
","
","""event"",""trial"",""time""
""fullscreenenter"",""5"",""25182""
","
","NaN","audio/tiger.mp3","","4","","","","","","","","","","","","","","","","","",""
"fullscreen","5","26122","0.0-5.0","1461","4965","13","Female","false","true","true","true","""event"",""trial"",""time""
""fullscreenenter"",""5"",""25182""
","
","
","""event"",""trial"",""time""
""fullscreenenter"",""5"",""25182""
","
","","","","","true","","","","","","","","","","","","","","","","",""
"d3-instructions","6","35139","0.0-6.0","1461","4965","13","Female","false","true","true","true","""event"",""trial"",""time""
""fullscreenenter"",""5"",""25182""
","
","
","""event"",""trial"",""time""
""fullscreenenter"",""5"",""25182""
","
","","","","","","","","","","","","","","","","","","","","","",""
"d3-instructions","7","43236","0.0-7.0","1461","4965","13","Female","false","true","true","true","""event"",""trial"",""time""
""fullscreenenter"",""5"",""25182""
","
","
","""event"",""trial"",""time""
""fullscreenenter"",""5"",""25182""
","
","","","","","","","","","","","","","","","","","","","","","",""
"d3-instructions","8","47207","0.0-8.0","1461","4965","13","Female","false","true","true","true","""event"",""trial"",""time""
""fullscreenenter"",""5"",""25182""
","
","
","""event"",""trial"",""time""
""fullscreenenter"",""5"",""25182""
","
","","","","","","","","","","","","","","","","","","","","","",""
"d3-instructions","9","56874","0.0-9.0","1461","4965","13","Female","false","true","true","true","""event"",""trial"",""time""
""fullscreenenter"",""5"",""25182""
","
","
","""event"",""trial"",""time""
""fullscreenenter"",""5"",""25182""
","
","","","","","","","","","","","","","","","","","","","","","",""
"d3-instructions","10","75681","0.0-10.0","1461","4965","13","Female","false","true","true","true","""event"",""trial"",""time""
""fullscreenenter"",""5"",""25182""
","
","
","""event"",""trial"",""time""
""fullscreenenter"",""5"",""25182""
","
","","","","","","","","","","","","","","","","","","","","","",""
"d3-animate-choice","11","79254","0.0-11.0","1461","4965","13","Female","false","true","true","true","""event"",""trial"",""time""
""fullscreenenter"",""5"",""25182""
","
","
","""event"",""trial"",""time""
""fullscreenenter"",""5"",""25182""
","
","1558.699999999255","","49","","","3000","1","","","images/tutgreenplanet.jpg","images/tutalien1","images/tutalien2","null","images/tutalien2","","NA","practice","null","","","",""
"d3-animate-choice","12","81627","0.0-12.0","1461","4965","13","Female","false","true","true","true","""event"",""trial"",""time""
""fullscreenenter"",""5"",""25182""
","
","
","""event"",""trial"",""time""
""fullscreenenter"",""5"",""25182""
","
","364","","48","","","3000","1","","","images/tutgreenplanet.jpg","images/tutalien1","images/tutalien2","null","images/tutalien1","","NA","practice","null","","","",""
"d3-animate-choice","13","84138","0.0-13.0","1461","4965","13","Female","false","true","true","true","""event"",""trial"",""time""
""fullscreenenter"",""5"",""25182""
","
","
","""event"",""trial"",""time""
""fullscreenenter"",""5"",""25182""
","
","498","","49","","","3000","1","","","images/tutgreenplanet.jpg","images/tutalien1","images/tutalien2","null","images/tutalien2","","NA","practice","null","","","",""
"d3-animate-choice","14","86622","0.0-14.0","1461","4965","13","Female","false","true","true","true","""event"",""trial"",""time""
""fullscreenenter"",""5"",""25182""
","
","
","""event"",""trial"",""time""
""fullscreenenter"",""5"",""25182""
","
","469.3999999985099","","48","","","3000","1","","","images/tutgreenplanet.jpg","images/tutalien1","images/tutalien2","null","images/tutalien1","","NA","practice","null","","","",""
"d3-instructions","15","92149","0.0-15.0","1461","4965","13","Female","false","true","true","true","""event"",""trial"",""time""
""fullscreenenter"",""5"",""25182""
","
","
","""event"",""trial"",""time""
""fullscreenenter"",""5"",""25182""
","
","","","","","","","","","","","","","","","","","","","","","",""
"d3-instructions","16","97323","0.0-16.0","1461","4965","13","Female","false","true","true","true","""event"",""trial"",""time""
""fullscreenenter"",""5"",""25182""
","
","
","""event"",""trial"",""time""
""fullscreenenter"",""5"",""25182""
","
","","","","","","","","","","","","","","","","","","","","","",""
"d3-instructions","17","104731","0.0-17.0","1461","4965","13","Female","false","true","true","true","""event"",""trial"",""time""
""fullscreenenter"",""5"",""25182""
","
","
","""event"",""trial"",""time""
""fullscreenenter"",""5"",""25182""
","
","","","","","","","","","","","","","","","","","","","","","",""
"d3-instructions","18","117008","0.0-18.0","1461","4965","13","Female","false","true","true","true","""event"",""trial"",""time""
""fullscreenenter"",""5"",""25182""
","
","
","""event"",""trial"",""time""
""fullscreenenter"",""5"",""25182""
","
","","","","","","","","","","","","","","","","","","","","","",""
"d3-instructions","19","130224","0.0-19.0","1461","4965","13","Female","false","true","true","true","""event"",""trial"",""time""
""fullscreenenter"",""5"",""25182""
","
","
","""event"",""trial"",""time""
""fullscreenenter"",""5"",""25182""
","
","","","","","","","","","","","","","","","","","","","","","",""
"d3-animate-choice","20","133158","0.0-20.0","1461","4965","13","Female","false","true","true","true","""event"",""trial"",""time""
""fullscreenenter"",""5"",""25182""
","
","
","""event"",""trial"",""time""
""fullscreenenter"",""5"",""25182""
","
","914.3000000007451","","49","","","3000","1","","","images/tutyellowplanet.jpg","null","images/tutalien3","null","images/tutalien3","images/t.png","NA","practice","null","","","",""
"d3-animate-choice","21","135538","0.0-21.0","1461","4965","13","Female","false","true","true","true","""event"",""trial"",""time""
""fullscreenenter"",""5"",""25182""
","
","
","""event"",""trial"",""time""
""fullscreenenter"",""5"",""25182""
","
","350","","49","","","3000","1","2005.4000000022352","49","images/tutyellowplanet.jpg","null","images/tutalien3","null","images/tutalien3","images/t.png","NA","practice","null","","","",""
"d3-animate-choice","22","138934","0.0-22.0","1461","4965","13","Female","false","true","true","true","""event"",""trial"",""time""
""fullscreenenter"",""5"",""25182""
","
","
","""event"",""trial"",""time""
""fullscreenenter"",""5"",""25182""
","
","1382.0999999977648","","49","","","3000","1","2960.300000000745","49","images/tutyellowplanet.jpg","null","images/tutalien3","null","images/tutalien3","images/t.png","NA","practice","null","","","",""
"d3-animate-choice","23","141944","0.0-23.0","1461","4965","13","Female","false","true","true","true","""event"",""trial"",""time""
""fullscreenenter"",""5"",""25182""
","
","
","""event"",""trial"",""time""
""fullscreenenter"",""5"",""25182""
","
","985.5","","49","","","3000","1","","","images/tutyellowplanet.jpg","null","images/tutalien3","null","images/tutalien3","images/nothing.png","NA","practice","null","","","",""
"d3-animate-choice","24","145154","0.0-24.0","1461","4965","13","Female","false","true","true","true","""event"",""trial"",""time""
""fullscreenenter"",""5"",""25182""
","
","
","""event"",""trial"",""time""
""fullscreenenter"",""5"",""25182""
","
","1188.4000000022352","","49","","","3000","1","","","images/tutyellowplanet.jpg","null","images/tutalien3","null","images/tutalien3","images/t.png","NA","practice","null","","","",""
"d3-animate-choice","25","147609","0.0-25.0","1461","4965","13","Female","false","true","true","true","""event"",""trial"",""time""
""fullscreenenter"",""5"",""25182""
","
","
","""event"",""trial"",""time""
""fullscreenenter"",""5"",""25182""
","
","440.6000000014901","","49","","","3000","1","","","images/tutyellowplanet.jpg","null","images/tutalien3","null","images/tutalien3","images/t.png","NA","practice","null","","","",""
"d3-animate-choice","26","150419","0.0-26.0","1461","4965","13","Female","false","true","true","true","""event"",""trial"",""time""
""fullscreenenter"",""5"",""25182""
","
","
","""event"",""trial"",""time""
""fullscreenenter"",""5"",""25182""
","
","794.1000000014901","","49","","","3000","1","","","images/tutyellowplanet.jpg","null","images/tutalien3","null","images/tutalien3","images/t.png","NA","practice","null","","","",""
"d3-animate-choice","27","153235","0.0-27.0","1461","4965","13","Female","false","true","true","true","""event"",""trial"",""time""
""fullscreenenter"",""5"",""25182""
","
","
","""event"",""trial"",""time""
""fullscreenenter"",""5"",""25182""
","
","805.1999999992549","","49","","","3000","1","","","images/tutyellowplanet.jpg","null","images/tutalien3","null","images/tutalien3","images/t.png","NA","practice","null","","","",""
"d3-animate-choice","28","155924","0.0-28.0","1461","4965","13","Female","false","true","true","true","""event"",""trial"",""time""
""fullscreenenter"",""5"",""25182""
","
","
","""event"",""trial"",""time""
""fullscreenenter"",""5"",""25182""
","
","666","","49","","","3000","1","","","images/tutyellowplanet.jpg","null","images/tutalien3","null","images/tutalien3","images/t.png","NA","practice","null","","","",""
"d3-animate-choice","29","158294","0.0-29.0","1461","4965","13","Female","false","true","true","true","""event"",""trial"",""time""
""fullscreenenter"",""5"",""25182""
","
","
","""event"",""trial"",""time""
""fullscreenenter"",""5"",""25182""
","
","345.80000000074506","","49","","","3000","1","","","images/tutyellowplanet.jpg","null","images/tutalien3","null","images/tutalien3","images/t.png","NA","practice","null","","","",""
"d3-instructions","30","175035","0.0-30.0","1461","4965","13","Female","false","true","true","true","""event"",""trial"",""time""
""fullscreenenter"",""5"",""25182""
","
","
","""event"",""trial"",""time""
""fullscreenenter"",""5"",""25182""
","
","","","","","","","","","","","","","","","","","","","","","",""
"d3-instructions","31","189553","0.0-31.0","1461","4965","13","Female","false","true","true","true","""event"",""trial"",""time""
""fullscreenenter"",""5"",""25182""
","
","
","""event"",""trial"",""time""
""fullscreenenter"",""5"",""25182""
","
","","","","","","","","","","","","","","","","","","","","","",""
"d3-instructions","32","194730","0.0-32.0","1461","4965","13","Female","false","true","true","true","""event"",""trial"",""time""
""fullscreenenter"",""5"",""25182""
","
","
","""event"",""trial"",""time""
""fullscreenenter"",""5"",""25182""
","
","","","","","","","","","","","","","","","","","","","","","",""
"d3-instructions","33","203000","0.0-33.0","1461","4965","13","Female","false","true","true","true","""event"",""trial"",""time""
""fullscreenenter"",""5"",""25182""
","
","
","""event"",""trial"",""time""
""fullscreenenter"",""5"",""25182""
","
","","","","","","","","","","","","","","","","","","","","","",""
"d3-animate-choice","34","206456","0.0-34.0","1461","4965","13","Female","false","true","true","true","""event"",""trial"",""time""
""fullscreenenter"",""5"",""25182""
","
","
","""event"",""trial"",""time""
""fullscreenenter"",""5"",""25182""
","
","1447.7999999970198","","49","","","3000","1","","","images/tutgreenplanet.jpg","images/tutalien1","images/tutalien2","null","images/tutalien2","images/nothing.png","NA","practice","null","","","",""
"d3-animate-choice","35","210565","0.0-35.0","1461","4965","13","Female","false","true","true","true","""event"",""trial"",""time""
""fullscreenenter"",""5"",""25182""
","
","
","""event"",""trial"",""time""
""fullscreenenter"",""5"",""25182""
","
","249.39999999850988","","57","","","3000","1","861.7999999970198,1812,2097.199999999255","57,57,48","images/tutgreenplanet.jpg","images/tutalien1","images/tutalien2","null","images/tutalien1","images/nothing.png","NA","practice","null","","","",""
"d3-animate-choice","36","213226","0.0-36.0","1461","4965","13","Female","false","true","true","true","""event"",""trial"",""time""
""fullscreenenter"",""5"",""25182""
","
","
","""event"",""trial"",""time""
""fullscreenenter"",""5"",""25182""
","
","649.8999999985099","","49","","","3000","1","","","images/tutgreenplanet.jpg","images/tutalien1","images/tutalien2","null","images/tutalien2","images/t.png","NA","practice","null","","","",""
"d3-animate-choice","37","215657","0.0-37.0","1461","4965","13","Female","false","true","true","true","""event"",""trial"",""time""
""fullscreenenter"",""5"",""25182""
","
","
","""event"",""trial"",""time""
""fullscreenenter"",""5"",""25182""
","
","409.19999999925494","","49","","","3000","1","","","images/tutgreenplanet.jpg","images/tutalien1","images/tutalien2","null","images/tutalien2","images/t.png","NA","practice","null","","","",""
"d3-animate-choice","38","218106","0.0-38.0","1461","4965","13","Female","false","true","true","true","""event"",""trial"",""time""
""fullscreenenter"",""5"",""25182""
","
","
","""event"",""trial"",""time""
""fullscreenenter"",""5"",""25182""
","
","440.5999999977648","","49","","","3000","1","","","images/tutgreenplanet.jpg","images/tutalien1","images/tutalien2","null","images/tutalien2","images/t.png","NA","practice","null","","","",""
"d3-animate-choice","39","220457","0.0-39.0","1461","4965","13","Female","false","true","true","true","""event"",""trial"",""time""
""fullscreenenter"",""5"",""25182""
","
","
","""event"",""trial"",""time""
""fullscreenenter"",""5"",""25182""
","
","339.80000000074506","","49","","","3000","1","","","images/tutgreenplanet.jpg","images/tutalien1","images/tutalien2","null","images/tutalien2","images/t.png","NA","practice","null","","","",""
"d3-animate-choice","40","223727","0.0-40.0","1461","4965","13","Female","false","true","true","true","""event"",""trial"",""time""
""fullscreenenter"",""5"",""25182""
","
","
","""event"",""trial"",""time""
""fullscreenenter"",""5"",""25182""
","
","1261","","49","","","3000","1","","","images/tutgreenplanet.jpg","images/tutalien1","images/tutalien2","null","images/tutalien2","images/t.png","NA","practice","null","","","",""
"d3-animate-choice","41","226436","0.0-41.0","1461","4965","13","Female","false","true","true","true","""event"",""trial"",""time""
""fullscreenenter"",""5"",""25182""
","
","
","""event"",""trial"",""time""
""fullscreenenter"",""5"",""25182""
","
","695.8999999985099","","49","","","3000","1","","","images/tutgreenplanet.jpg","images/tutalien1","images/tutalien2","null","images/tutalien2","images/t.png","NA","practice","null","","","",""
"d3-animate-choice","42","229616","0.0-42.0","1461","4965","13","Female","false","true","true","true","""event"",""trial"",""time""
""fullscreenenter"",""5"",""25182""
","
","
","""event"",""trial"",""time""
""fullscreenenter"",""5"",""25182""
","
","1157.9000000022352","","49","","","3000","1","","","images/tutgreenplanet.jpg","images/tutalien1","images/tutalien2","null","images/tutalien2","images/t.png","NA","practice","null","","","",""
"d3-animate-choice","43","232146","0.0-43.0","1461","4965","13","Female","false","true","true","true","""event"",""trial"",""time""
""fullscreenenter"",""5"",""25182""
","
","
","""event"",""trial"",""time""
""fullscreenenter"",""5"",""25182""
","
","516.8000000007451","","49","","","3000","1","","","images/tutgreenplanet.jpg","images/tutalien1","images/tutalien2","null","images/tutalien2","images/t.png","NA","practice","null","","","",""
"d3-instructions","44","243995","0.0-44.0","1461","4965","13","Female","false","true","true","true","""event"",""trial"",""time""
""fullscreenenter"",""5"",""25182""
","
","
","""event"",""trial"",""time""
""fullscreenenter"",""5"",""25182""
","
","","","","","","","","","","","","","","","","","","","","","",""
"d3-instructions","45","248114","0.0-45.0","1461","4965","13","Female","false","true","true","true","""event"",""trial"",""time""
""fullscreenenter"",""5"",""25182""
","
","
","""event"",""trial"",""time""
""fullscreenenter"",""5"",""25182""
","
","","","","","","","","","","","","","","","","","","","","","",""
"d3-instructions","46","251054","0.0-46.0","1461","4965","13","Female","false","true","true","true","""event"",""trial"",""time""
""fullscreenenter"",""5"",""25182""
","
","
","""event"",""trial"",""time""
""fullscreenenter"",""5"",""25182""
","
","","","","","","","","","","","","","","","","","","","","","",""
"d3-instructions","47","271546","0.0-47.0","1461","4965","13","Female","false","true","true","true","""event"",""trial"",""time""
""fullscreenenter"",""5"",""25182""
","
","
","""event"",""trial"",""time""
""fullscreenenter"",""5"",""25182""
","
","","","","","","","","","","","","","","","","","","","","","",""
"d3-instructions","48","276242","0.0-48.0","1461","4965","13","Female","false","true","true","true","""event"",""trial"",""time""
""fullscreenenter"",""5"",""25182""
","
","
","""event"",""trial"",""time""
""fullscreenenter"",""5"",""25182""
","
","","","","","","","","","","","","","","","","","","","","","",""
"d3-instructions","49","286492","0.0-49.0","1461","4965","13","Female","false","true","true","true","""event"",""trial"",""time""
""fullscreenenter"",""5"",""25182""
","
","
","""event"",""trial"",""time""
""fullscreenenter"",""5"",""25182""
","
","","","","","","","","","","","","","","","","","","","","","",""
"d3-instructions","50","297844","0.0-50.0","1461","4965","13","Female","false","true","true","true","""event"",""trial"",""time""
""fullscreenenter"",""5"",""25182""
","
","
","""event"",""trial"",""time""
""fullscreenenter"",""5"",""25182""
","
","","","","","","","","","","","","","","","","","","","","","",""
"d3-instructions","51","310943","0.0-51.0","1461","4965","13","Female","false","true","true","true","""event"",""trial"",""time""
""fullscreenenter"",""5"",""25182""
","
","
","""event"",""trial"",""time""
""fullscreenenter"",""5"",""25182""
","
","","","","","","","","","","","","","","","","","","","","","",""
"d3-instructions","52","324944","0.0-52.0","1461","4965","13","Female","false","true","true","true","""event"",""trial"",""time""
""fullscreenenter"",""5"",""25182""
","
","
","""event"",""trial"",""time""
""fullscreenenter"",""5"",""25182""
","
","","","","","","","","","","","","","","","","","","","","","",""
"d3-instructions","53","337413","0.0-53.0","1461","4965","13","Female","false","true","true","true","""event"",""trial"",""time""
""fullscreenenter"",""5"",""25182""
","
","
","""event"",""trial"",""time""
""fullscreenenter"",""5"",""25182""
","
","","","","","","","","","","","","","","","","","","","","","",""
"d3-instructions","54","345030","0.0-54.0","1461","4965","13","Female","false","true","true","true","""event"",""trial"",""time""
""fullscreenenter"",""5"",""25182""
","
","
","""event"",""trial"",""time""
""fullscreenenter"",""5"",""25182""
","
","","","","","","","","","","","","","","","","","","","","","",""
"d3-instructions","55","350976","0.0-55.0","1461","4965","13","Female","false","true","true","true","""event"",""trial"",""time""
""fullscreenenter"",""5"",""25182""
","
","
","""event"",""trial"",""time""
""fullscreenenter"",""5"",""25182""
","
","","","","","","","","","","","","","","","","","","","","","",""
"d3-instructions","56","355038","0.0-56.0","1461","4965","13","Female","false","true","true","true","""event"",""trial"",""time""
""fullscreenenter"",""5"",""25182""
","
","
","""event"",""trial"",""time""
""fullscreenenter"",""5"",""25182""
","
","","","","","","","","","","","","","","","","","","","","","",""
"d3-instructions","57","359930","0.0-57.0","1461","4965","13","Female","false","true","true","true","""event"",""trial"",""time""
""fullscreenenter"",""5"",""25182""
","
","
","""event"",""trial"",""time""
""fullscreenenter"",""5"",""25182""
","
","","","","","","","","","","","","","","","","","","","","","",""
"d3-instructions","58","366502","0.0-58.0","1461","4965","13","Female","false","true","true","true","""event"",""trial"",""time""
""fullscreenenter"",""5"",""25182""
","
","
","""event"",""trial"",""time""
""fullscreenenter"",""5"",""25182""
","
","","","","","","","","","","","","","","","","","","","","","",""
"d3-instructions","59","369102","0.0-59.0","1461","4965","13","Female","false","true","true","true","""event"",""trial"",""time""
""fullscreenenter"",""5"",""25182""
","
","
","""event"",""trial"",""time""
""fullscreenenter"",""5"",""25182""
","
","","","","","","","","","","","","","","","","","","","","","",""
"d3-instructions","60","373937","0.0-60.0","1461","4965","13","Female","false","true","true","true","""event"",""trial"",""time""
""fullscreenenter"",""5"",""25182""
","
","
","""event"",""trial"",""time""
""fullscreenenter"",""5"",""25182""
","
","","","","","","","","","","","","","","","","","","","","","",""
"d3-animate-choice","61","377035","0.0-61.0-0.0","1461","4965","13","Female","false","true","true","true","""event"",""trial"",""time""
""fullscreenenter"",""5"",""25182""
","
","
","""event"",""trial"",""time""
""fullscreenenter"",""5"",""25182""
","
","1091.699999999255","","49","","","3000","1","","","images/earth.jpg","images/tutrocket2","images/tutrocket1","null","images/tutrocket1","","1","practice","null","1","","",""
"d3-animate-choice","62","380156","0.0-61.0-1.0","1461","4965","13","Female","false","true","true","true","""event"",""trial"",""time""
""fullscreenenter"",""5"",""25182""
","
","
","""event"",""trial"",""time""
""fullscreenenter"",""5"",""25182""
","
","1096","","49","","","3000","1","","","images/tutgreenplanet.jpg","images/tutalien2","images/tutalien1","images/tutrocket1","images/tutalien1","images/nothing.png","2","practice","true","1","common","0","2022-12-06 02:18:22.671"
"two-step-fixation","63","381176","0.0-61.0-2.0","1461","4965","13","Female","false","true","true","true","""event"",""trial"",""time""
""fullscreenenter"",""5"",""25182""
","
","
","""event"",""trial"",""time""
""fullscreenenter"",""5"",""25182""
","
","","images/earth.jpg","","","","","","","","","","","","","","fixation","","","","","",""
"d3-animate-choice","64","383316","0.0-61.0-0.1","1461","4965","13","Female","false","true","true","true","""event"",""trial"",""time""
""fullscreenenter"",""5"",""25182""
","
","
","""event"",""trial"",""time""
""fullscreenenter"",""5"",""25182""
","
","107.69999999925494","","49","","","3000","1","","","images/earth.jpg","images/tutrocket2","images/tutrocket1","null","images/tutrocket1","","1","practice","null","1","","",""
"d3-animate-choice","65","386027","0.0-61.0-1.1","1461","4965","13","Female","false","true","true","true","""event"",""trial"",""time""
""fullscreenenter"",""5"",""25182""
","
","
","""event"",""trial"",""time""
""fullscreenenter"",""5"",""25182""
","
","688.1999999992549","","48","","","3000","1","","","images/tutgreenplanet.jpg","images/tutalien2","images/tutalien1","images/tutrocket1","images/tutalien2","images/nothing.png","2","practice","true","2","common","0","2022-12-06 02:18:28.542"
"two-step-fixation","66","387047","0.0-61.0-2.1","1461","4965","13","Female","false","true","true","true","""event"",""trial"",""time""
""fullscreenenter"",""5"",""25182""
","
","
","""event"",""trial"",""time""
""fullscreenenter"",""5"",""25182""
","
","","images/earth.jpg","","","","","","","","","","","","","","fixation","","","","","",""
"d3-animate-choice","67","389362","0.0-61.0-0.2","1461","4965","13","Female","false","true","true","true","""event"",""trial"",""time""
""fullscreenenter"",""5"",""25182""
","
","
","""event"",""trial"",""time""
""fullscreenenter"",""5"",""25182""
","
","305","","48","","","3000","1","","","images/earth.jpg","images/tutrocket2","images/tutrocket1","null","images/tutrocket2","","1","practice","null","2","","",""
"d3-animate-choice","68","392815","0.0-61.0-1.2","1461","4965","13","Female","false","true","true","true","""event"",""trial"",""time""
""fullscreenenter"",""5"",""25182""
","
","
","""event"",""trial"",""time""
""fullscreenenter"",""5"",""25182""
","
","1433.800000000745","","49","","","3000","1","","","images/tutyellowplanet.jpg","images/tutalien4","images/tutalien3","images/tutrocket2","images/tutalien3","images/nothing.png","2","practice","true","1","common","0","2022-12-06 02:18:35.331"
"two-step-fixation","69","393830","0.0-61.0-2.2","1461","4965","13","Female","false","true","true","true","""event"",""trial"",""time""
""fullscreenenter"",""5"",""25182""
","
","
","""event"",""trial"",""time""
""fullscreenenter"",""5"",""25182""
","
","","images/earth.jpg","","","","","","","","","","","","","","fixation","","","","","",""
"d3-animate-choice","70","396076","0.0-61.0-0.3","1461","4965","13","Female","false","true","true","true","""event"",""trial"",""time""
""fullscreenenter"",""5"",""25182""
","
","
","""event"",""trial"",""time""
""fullscreenenter"",""5"",""25182""
","
","229.5","","48","","","3000","1","","","images/earth.jpg","images/tutrocket2","images/tutrocket1","null","images/tutrocket2","","1","practice","null","2","","",""
"d3-animate-choice","71","399094","0.0-61.0-1.3","1461","4965","13","Female","false","true","true","true","""event"",""trial"",""time""
""fullscreenenter"",""5"",""25182""
","
","
","""event"",""trial"",""time""
""fullscreenenter"",""5"",""25182""
","
","1003.6000000014901","","49","","","3000","1","","","images/tutgreenplanet.jpg","images/tutalien2","images/tutalien1","images/tutrocket2","images/tutalien1","images/t.png","2","practice","false","1","rare","1","2022-12-06 02:18:41.609"
"two-step-fixation","72","400106","0.0-61.0-2.3","1461","4965","13","Female","false","true","true","true","""event"",""trial"",""time""
""fullscreenenter"",""5"",""25182""
","
","
","""event"",""trial"",""time""
""fullscreenenter"",""5"",""25182""
","
","","images/earth.jpg","","","","","","","","","","","","","","fixation","","","","","",""
"d3-animate-choice","73","402884","0.0-61.0-0.4","1461","4965","13","Female","false","true","true","true","""event"",""trial"",""time""
""fullscreenenter"",""5"",""25182""
","
","
","""event"",""trial"",""time""
""fullscreenenter"",""5"",""25182""
","
","763.5","","49","","","3000","1","","","images/earth.jpg","images/tutrocket2","images/tutrocket1","null","images/tutrocket1","","1","practice","null","1","","",""
"d3-animate-choice","74","405373","0.0-61.0-1.4","1461","4965","13","Female","false","true","true","true","""event"",""trial"",""time""
""fullscreenenter"",""5"",""25182""
","
","
","""event"",""trial"",""time""
""fullscreenenter"",""5"",""25182""
","
","470.6000000014901","","49","","","3000","1","","","images/tutyellowplanet.jpg","images/tutalien4","images/tutalien3","images/tutrocket1","images/tutalien3","images/nothing.png","2","practice","false","1","rare","0","2022-12-06 02:18:47.888"
"two-step-fixation","75","406390","0.0-61.0-2.4","1461","4965","13","Female","false","true","true","true","""event"",""trial"",""time""
""fullscreenenter"",""5"",""25182""
","
","
","""event"",""trial"",""time""
""fullscreenenter"",""5"",""25182""
","
","","images/earth.jpg","","","","","","","","","","","","","","fixation","","","","","",""
"d3-animate-choice","76","408693","0.0-61.0-0.5","1461","4965","13","Female","false","true","true","true","""event"",""trial"",""time""
""fullscreenenter"",""5"",""25182""
","
","
","""event"",""trial"",""time""
""fullscreenenter"",""5"",""25182""
","
","281.6000000014901","","49","","","3000","1","","","images/earth.jpg","images/tutrocket2","images/tutrocket1","null","images/tutrocket1","","1","practice","null","1","","",""
"d3-animate-choice","77","412118","0.0-61.0-1.5","1461","4965","13","Female","false","true","true","true","""event"",""trial"",""time""
""fullscreenenter"",""5"",""25182""
","
","
","""event"",""trial"",""time""
""fullscreenenter"",""5"",""25182""
","
","1405.6000000014901","","49","","","3000","1","","","images/tutgreenplanet.jpg","images/tutalien2","images/tutalien1","images/tutrocket1","images/tutalien1","images/nothing.png","2","practice","true","1","common","0","2022-12-06 02:18:54.633"
"two-step-fixation","78","413133","0.0-61.0-2.5","1461","4965","13","Female","false","true","true","true","""event"",""trial"",""time""
""fullscreenenter"",""5"",""25182""
","
","
","""event"",""trial"",""time""
""fullscreenenter"",""5"",""25182""
","
","","images/earth.jpg","","","","","","","","","","","","","","fixation","","","","","",""
"d3-animate-choice","79","415399","0.0-61.0-0.6","1461","4965","13","Female","false","true","true","true","""event"",""trial"",""time""
""fullscreenenter"",""5"",""25182""
","
","
","""event"",""trial"",""time""
""fullscreenenter"",""5"",""25182""
","
","258.9000000022352","","48","","","3000","1","","","images/earth.jpg","images/tutrocket2","images/tutrocket1","null","images/tutrocket2","","1","practice","null","2","","",""
"d3-animate-choice","80","418152","0.0-61.0-1.6","1461","4965","13","Female","false","true","true","true","""event"",""trial"",""time""
""fullscreenenter"",""5"",""25182""
","
","
","""event"",""trial"",""time""
""fullscreenenter"",""5"",""25182""
","
","728.1999999992549","","48","","","3000","1","","","images/tutgreenplanet.jpg","images/tutalien2","images/tutalien1","images/tutrocket2","images/tutalien2","images/nothing.png","2","practice","false","2","rare","0","2022-12-06 02:19:00.667"
"two-step-fixation","81","419163","0.0-61.0-2.6","1461","4965","13","Female","false","true","true","true","""event"",""trial"",""time""
""fullscreenenter"",""5"",""25182""
","
","
","""event"",""trial"",""time""
""fullscreenenter"",""5"",""25182""
","
","","images/earth.jpg","","","","","","","","","","","","","","fixation","","","","","",""
"d3-animate-choice","82","421376","0.0-61.0-0.7","1461","4965","13","Female","false","true","true","true","""event"",""trial"",""time""
""fullscreenenter"",""5"",""25182""
","
","
","""event"",""trial"",""time""
""fullscreenenter"",""5"",""25182""
","
","200.39999999850988","","49","","","3000","1","","","images/earth.jpg","images/tutrocket2","images/tutrocket1","null","images/tutrocket1","","1","practice","null","1","","",""
"d3-animate-choice","83","425091","0.0-61.0-1.7","1461","4965","13","Female","false","true","true","true","""event"",""trial"",""time""
""fullscreenenter"",""5"",""25182""
","
","
","""event"",""trial"",""time""
""fullscreenenter"",""5"",""25182""
","
","1698.800000000745","","49","","","3000","1","","","images/tutgreenplanet.jpg","images/tutalien2","images/tutalien1","images/tutrocket1","images/tutalien1","images/nothing.png","2","practice","true","1","common","0","2022-12-06 02:19:07.606"
"two-step-fixation","84","426118","0.0-61.0-2.7","1461","4965","13","Female","false","true","true","true","""event"",""trial"",""time""
""fullscreenenter"",""5"",""25182""
","
","
","""event"",""trial"",""time""
""fullscreenenter"",""5"",""25182""
","
","","images/earth.jpg","","","","","","","","","","","","","","fixation","","","","","",""
"d3-animate-choice","85","428463","0.0-61.0-0.8","1461","4965","13","Female","false","true","true","true","""event"",""trial"",""time""
""fullscreenenter"",""5"",""25182""
","
","
","""event"",""trial"",""time""
""fullscreenenter"",""5"",""25182""
","
","336.79999999701977","","48","","","3000","1","","","images/earth.jpg","images/tutrocket2","images/tutrocket1","null","images/tutrocket2","","1","practice","null","2","","",""
"d3-animate-choice","86","431273","0.0-61.0-1.8","1461","4965","13","Female","false","true","true","true","""event"",""trial"",""time""
""fullscreenenter"",""5"",""25182""
","
","
","""event"",""trial"",""time""
""fullscreenenter"",""5"",""25182""
","
","798.6999999992549","","48","","","3000","1","","","images/tutyellowplanet.jpg","images/tutalien4","images/tutalien3","images/tutrocket2","images/tutalien4","images/t.png","2","practice","true","2","common","1","2022-12-06 02:19:13.788"
"two-step-fixation","87","432290","0.0-61.0-2.8","1461","4965","13","Female","false","true","true","true","""event"",""trial"",""time""
""fullscreenenter"",""5"",""25182""
","
","
","""event"",""trial"",""time""
""fullscreenenter"",""5"",""25182""
","
","","images/earth.jpg","","","","","","","","","","","","","","fixation","","","","","",""
"d3-animate-choice","88","434743","0.0-61.0-0.9","1461","4965","13","Female","false","true","true","true","""event"",""trial"",""time""
""fullscreenenter"",""5"",""25182""
","
","
","""event"",""trial"",""time""
""fullscreenenter"",""5"",""25182""
","
","439.6000000014901","","49","","","3000","1","","","images/earth.jpg","images/tutrocket2","images/tutrocket1","null","images/tutrocket1","","1","practice","null","1","","",""
"d3-animate-choice","89","437193","0.0-61.0-1.9","1461","4965","13","Female","false","true","true","true","""event"",""trial"",""time""
""fullscreenenter"",""5"",""25182""
","
","
","""event"",""trial"",""time""
""fullscreenenter"",""5"",""25182""
","
","442.9000000022352","","49","","","3000","1","","","images/tutgreenplanet.jpg","images/tutalien2","images/tutalien1","images/tutrocket1","images/tutalien1","images/nothing.png","2","practice","true","1","common","0","2022-12-06 02:19:19.708"
"two-step-fixation","90","438213","0.0-61.0-2.9","1461","4965","13","Female","false","true","true","true","""event"",""trial"",""time""
""fullscreenenter"",""5"",""25182""
","
","
","""event"",""trial"",""time""
""fullscreenenter"",""5"",""25182""
","
","","images/earth.jpg","","","","","","","","","","","","","","fixation","","","","","",""
"d3-animate-choice","91","440488","0.0-61.0-0.10","1461","4965","13","Female","false","true","true","true","""event"",""trial"",""time""
""fullscreenenter"",""5"",""25182""
","
","
","""event"",""trial"",""time""
""fullscreenenter"",""5"",""25182""
","
","255.80000000074506","","48","","","3000","1","","","images/earth.jpg","images/tutrocket2","images/tutrocket1","null","images/tutrocket2","","1","practice","null","2","","",""
"d3-animate-choice","92","443199","0.0-61.0-1.10","1461","4965","13","Female","false","true","true","true","""event"",""trial"",""time""
""fullscreenenter"",""5"",""25182""
","
","
","""event"",""trial"",""time""
""fullscreenenter"",""5"",""25182""
","
","692.1999999992549","","48","","","3000","1","","","images/tutyellowplanet.jpg","images/tutalien4","images/tutalien3","images/tutrocket2","images/tutalien4","images/nothing.png","2","practice","true","2","common","0","2022-12-06 02:19:25.714"
"two-step-fixation","93","444213","0.0-61.0-2.10","1461","4965","13","Female","false","true","true","true","""event"",""trial"",""time""
""fullscreenenter"",""5"",""25182""
","
","
","""event"",""trial"",""time""
""fullscreenenter"",""5"",""25182""
","
","","images/earth.jpg","","","","","","","","","","","","","","fixation","","","","","",""
"d3-animate-choice","94","446539","0.0-61.0-0.11","1461","4965","13","Female","false","true","true","true","""event"",""trial"",""time""
""fullscreenenter"",""5"",""25182""
","
","
","""event"",""trial"",""time""
""fullscreenenter"",""5"",""25182""
","
","313.1000000014901","","48","","","3000","1","","","images/earth.jpg","images/tutrocket2","images/tutrocket1","null","images/tutrocket2","","1","practice","null","2","","",""
"d3-animate-choice","95","449103","0.0-61.0-1.11","1461","4965","13","Female","false","true","true","true","""event"",""trial"",""time""
""fullscreenenter"",""5"",""25182""
","
","
","""event"",""trial"",""time""
""fullscreenenter"",""5"",""25182""
","
","549.6000000014901","","48","","","3000","1","","","images/tutyellowplanet.jpg","images/tutalien4","images/tutalien3","images/tutrocket2","images/tutalien4","images/nothing.png","2","practice","true","2","common","0","2022-12-06 02:19:31.619"
"two-step-fixation","96","450118","0.0-61.0-2.11","1461","4965","13","Female","false","true","true","true","""event"",""trial"",""time""
""fullscreenenter"",""5"",""25182""
","
","
","""event"",""trial"",""time""
""fullscreenenter"",""5"",""25182""
","
","","images/earth.jpg","","","","","","","","","","","","","","fixation","","","","","",""
"d3-animate-choice","97","452385","0.0-61.0-0.12","1461","4965","13","Female","false","true","true","true","""event"",""trial"",""time""
""fullscreenenter"",""5"",""25182""
","
","
","""event"",""trial"",""time""
""fullscreenenter"",""5"",""25182""
","
","250.40000000223517","","48","","","3000","1","","","images/earth.jpg","images/tutrocket2","images/tutrocket1","null","images/tutrocket2","","1","practice","null","2","","",""
"d3-animate-choice","98","455197","0.0-61.0-1.12","1461","4965","13","Female","false","true","true","true","""event"",""trial"",""time""
""fullscreenenter"",""5"",""25182""
","
","
","""event"",""trial"",""time""
""fullscreenenter"",""5"",""25182""
","
","800.6999999992549","","49","","","3000","1","","","images/tutyellowplanet.jpg","images/tutalien4","images/tutalien3","images/tutrocket2","images/tutalien3","images/t.png","2","practice","true","1","common","1","2022-12-06 02:19:37.713"
"two-step-fixation","99","456210","0.0-61.0-2.12","1461","4965","13","Female","false","true","true","true","""event"",""trial"",""time""
""fullscreenenter"",""5"",""25182""
","
","
","""event"",""trial"",""time""
""fullscreenenter"",""5"",""25182""
","
","","images/earth.jpg","","","","","","","","","","","","","","fixation","","","","","",""
"d3-animate-choice","100","458503","0.0-61.0-0.13","1461","4965","13","Female","false","true","true","true","""event"",""trial"",""time""
""fullscreenenter"",""5"",""25182""
","
","
","""event"",""trial"",""time""
""fullscreenenter"",""5"",""25182""
","
","278","","48","","","3000","1","","","images/earth.jpg","images/tutrocket2","images/tutrocket1","null","images/tutrocket2","","1","practice","null","2","","",""
"d3-animate-choice","101","461358","0.0-61.0-1.13","1461","4965","13","Female","false","true","true","true","""event"",""trial"",""time""
""fullscreenenter"",""5"",""25182""
","
","
","""event"",""trial"",""time""
""fullscreenenter"",""5"",""25182""
","
","836.6000000014901","","49","","","3000","1","","","images/tutyellowplanet.jpg","images/tutalien4","images/tutalien3","images/tutrocket2","images/tutalien3","images/nothing.png","2","practice","true","1","common","0","2022-12-06 02:19:43.873"
"two-step-fixation","102","462378","0.0-61.0-2.13","1461","4965","13","Female","false","true","true","true","""event"",""trial"",""time""
""fullscreenenter"",""5"",""25182""
","
","
","""event"",""trial"",""time""
""fullscreenenter"",""5"",""25182""
","
","","images/earth.jpg","","","","","","","","","","","","","","fixation","","","","","",""
"d3-animate-choice","103","464679","0.0-61.0-0.14","1461","4965","13","Female","false","true","true","true","""event"",""trial"",""time""
""fullscreenenter"",""5"",""25182""
","
","
","""event"",""trial"",""time""
""fullscreenenter"",""5"",""25182""
","
","285.5","","48","","","3000","1","","","images/earth.jpg","images/tutrocket2","images/tutrocket1","null","images/tutrocket2","","1","practice","null","2","","",""
"d3-animate-choice","104","468414","0.0-61.0-1.14","1461","4965","13","Female","false","true","true","true","""event"",""trial"",""time""
""fullscreenenter"",""5"",""25182""
","
","
","""event"",""trial"",""time""
""fullscreenenter"",""5"",""25182""
","
","1722.199999999255","","49","","","3000","1","","","images/tutgreenplanet.jpg","images/tutalien2","images/tutalien1","images/tutrocket2","images/tutalien1","images/nothing.png","2","practice","false","1","rare","0","2022-12-06 02:19:50.929"
"two-step-fixation","105","469431","0.0-61.0-2.14","1461","4965","13","Female","false","true","true","true","""event"",""trial"",""time""
""fullscreenenter"",""5"",""25182""
","
","
","""event"",""trial"",""time""
""fullscreenenter"",""5"",""25182""
","
","","images/earth.jpg","","","","","","","","","","","","","","fixation","","","","","",""
"d3-animate-choice","106","471799","0.0-61.0-0.15","1461","4965","13","Female","false","true","true","true","""event"",""trial"",""time""
""fullscreenenter"",""5"",""25182""
","
","
","""event"",""trial"",""time""
""fullscreenenter"",""5"",""25182""
","
","352.30000000074506","","49","","","3000","1","","","images/earth.jpg","images/tutrocket2","images/tutrocket1","null","images/tutrocket1","","1","practice","null","1","","",""
"d3-animate-choice","107","474684","0.0-61.0-1.15","1461","4965","13","Female","false","true","true","true","""event"",""trial"",""time""
""fullscreenenter"",""5"",""25182""
","
","
","""event"",""trial"",""time""
""fullscreenenter"",""5"",""25182""
","
","865.8000000007451","","48","","","3000","1","","","images/tutgreenplanet.jpg","images/tutalien2","images/tutalien1","images/tutrocket1","images/tutalien2","images/t.png","2","practice","true","2","common","1","2022-12-06 02:19:57.199"
"two-step-fixation","108","475694","0.0-61.0-2.15","1461","4965","13","Female","false","true","true","true","""event"",""trial"",""time""
""fullscreenenter"",""5"",""25182""
","
","
","""event"",""trial"",""time""
""fullscreenenter"",""5"",""25182""
","
","","images/earth.jpg","","","","","","","","","","","","","","fixation","","","","","",""
"d3-animate-choice","109","478021","0.0-61.0-0.16","1461","4965","13","Female","false","true","true","true","""event"",""trial"",""time""
""fullscreenenter"",""5"",""25182""
","
","
","""event"",""trial"",""time""
""fullscreenenter"",""5"",""25182""
","
","310.19999999925494","","49","","","3000","1","","","images/earth.jpg","images/tutrocket2","images/tutrocket1","null","images/tutrocket1","","1","practice","null","1","","",""
"d3-animate-choice","110","480829","0.0-61.0-1.16","1461","4965","13","Female","false","true","true","true","""event"",""trial"",""time""
""fullscreenenter"",""5"",""25182""
","
","
","""event"",""trial"",""time""
""fullscreenenter"",""5"",""25182""
","
","784.1999999992549","","48","","","3000","1","","","images/tutgreenplanet.jpg","images/tutalien2","images/tutalien1","images/tutrocket1","images/tutalien2","images/nothing.png","2","practice","true","2","common","0","2022-12-06 02:20:03.345"
"two-step-fixation","111","481842","0.0-61.0-2.16","1461","4965","13","Female","false","true","true","true","""event"",""trial"",""time""
""fullscreenenter"",""5"",""25182""
","
","
","""event"",""trial"",""time""
""fullscreenenter"",""5"",""25182""
","
","","images/earth.jpg","","","","","","","","","","","","","","fixation","","","","","",""
"d3-animate-choice","112","484154","0.0-61.0-0.17","1461","4965","13","Female","false","true","true","true","""event"",""trial"",""time""
""fullscreenenter"",""5"",""25182""
","
","
","""event"",""trial"",""time""
""fullscreenenter"",""5"",""25182""
","
","291","","49","","","3000","1","","","images/earth.jpg","images/tutrocket2","images/tutrocket1","null","images/tutrocket1","","1","practice","null","1","","",""
"d3-animate-choice","113","486619","0.0-61.0-1.17","1461","4965","13","Female","false","true","true","true","""event"",""trial"",""time""
""fullscreenenter"",""5"",""25182""
","
","
","""event"",""trial"",""time""
""fullscreenenter"",""5"",""25182""
","
","443.9000000022352","","49","","","3000","1","","","images/tutgreenplanet.jpg","images/tutalien2","images/tutalien1","images/tutrocket1","images/tutalien1","images/t.png","2","practice","true","1","common","1","2022-12-06 02:20:09.134"
"two-step-fixation","114","487630","0.0-61.0-2.17","1461","4965","13","Female","false","true","true","true","""event"",""trial"",""time""
""fullscreenenter"",""5"",""25182""
","
","
","""event"",""trial"",""time""
""fullscreenenter"",""5"",""25182""
","
","","images/earth.jpg","","","","","","","","","","","","","","fixation","","","","","",""
"d3-animate-choice","115","491011","0.0-61.0-0.18","1461","4965","13","Female","false","true","true","true","""event"",""trial"",""time""
""fullscreenenter"",""5"",""25182""
","
","
","""event"",""trial"",""time""
""fullscreenenter"",""5"",""25182""
","
","1362.5999999977648","","48","","","3000","1","","","images/earth.jpg","images/tutrocket2","images/tutrocket1","null","images/tutrocket2","","1","practice","null","2","","",""
"d3-animate-choice","116","494570","0.0-61.0-1.18","1461","4965","13","Female","false","true","true","true","""event"",""trial"",""time""
""fullscreenenter"",""5"",""25182""
","
","
","""event"",""trial"",""time""
""fullscreenenter"",""5"",""25182""
","
","1541.300000000745","","49","","","3000","1","","","images/tutyellowplanet.jpg","images/tutalien4","images/tutalien3","images/tutrocket2","images/tutalien3","images/t.png","2","practice","true","1","common","1","2022-12-06 02:20:17.085"
"two-step-fixation","117","495584","0.0-61.0-2.18","1461","4965","13","Female","false","true","true","true","""event"",""trial"",""time""
""fullscreenenter"",""5"",""25182""
","
","
","""event"",""trial"",""time""
""fullscreenenter"",""5"",""25182""
","
","","images/earth.jpg","","","","","","","","","","","","","","fixation","","","","","",""
"d3-animate-choice","118","497704","0.0-61.0-0.19","1461","4965","13","Female","false","true","true","true","""event"",""trial"",""time""
""fullscreenenter"",""5"",""25182""
","
","
","""event"",""trial"",""time""
""fullscreenenter"",""5"",""25182""
","
","103","","48","","","3000","1","","","images/earth.jpg","images/tutrocket2","images/tutrocket1","null","images/tutrocket2","","1","practice","null","2","","",""
"d3-animate-choice","119","500291","0.0-61.0-1.19","1461","4965","13","Female","false","true","true","true","""event"",""trial"",""time""
""fullscreenenter"",""5"",""25182""
","
","
","""event"",""trial"",""time""
""fullscreenenter"",""5"",""25182""
","
","569.1999999992549","","49","","","3000","1","","","images/tutyellowplanet.jpg","images/tutalien4","images/tutalien3","images/tutrocket2","images/tutalien3","images/nothing.png","2","practice","true","1","common","0","2022-12-06 02:20:22.806"
"two-step-fixation","120","501300","0.0-61.0-2.19","1461","4965","13","Female","false","true","true","true","""event"",""trial"",""time""
""fullscreenenter"",""5"",""25182""
","
","
","""event"",""trial"",""time""
""fullscreenenter"",""5"",""25182""
","
","","images/earth.jpg","","","","","","","","","","","","","","fixation","","","","","",""
"d3-instructions","121","509813","0.0-62.0","1461","4965","13","Female","false","true","true","true","""event"",""trial"",""time""
""fullscreenenter"",""5"",""25182""
","
","
","""event"",""trial"",""time""
""fullscreenenter"",""5"",""25182""
","
","","","","","","","","","","","","","","","","","","","","","",""
"audio-keyboard-response","122","512655","0.0-63.0","1461","4965","13","Female","false","true","true","true","""event"",""trial"",""time""
""fullscreenenter"",""5"",""25182""
","
","
","""event"",""trial"",""time""
""fullscreenenter"",""5"",""25182""
","
","2840","audio/instructions/treasure_feedback.wav","32","","","","","","","","","","","","","","","","","","",""
"d3-instructions","123","526440","0.0-64.0","1461","4965","13","Female","false","true","true","true","""event"",""trial"",""time""
""fullscreenenter"",""5"",""25182""
","
","
","""event"",""trial"",""time""
""fullscreenenter"",""5"",""25182""
","
","","","","","","","","","","","","","","","","","","","","","",""
"d3-instructions","124","546383","0.0-65.0","1461","4965","13","Female","false","true","true","true","""event"",""trial"",""time""
""fullscreenenter"",""5"",""25182""
","
","
","""event"",""trial"",""time""
""fullscreenenter"",""5"",""25182""
","
","","","","","","","","","","","","","","","","","","","","","",""
"d3-instructions","125","568208","0.0-66.0","1461","4965","13","Female","false","true","true","true","""event"",""trial"",""time""
""fullscreenenter"",""5"",""25182""
","
","
","""event"",""trial"",""time""
""fullscreenenter"",""5"",""25182""
","
","","","","","","","","","","","","","","","","","","","","","",""
"d3-instructions","126","578163","0.0-67.0","1461","4965","13","Female","false","true","true","true","""event"",""trial"",""time""
""fullscreenenter"",""5"",""25182""
","
","
","""event"",""trial"",""time""
""fullscreenenter"",""5"",""25182""
","
","","","","","","","","","","","","","","","","","","","","","",""
"d3-instructions","127","583480","0.0-68.0","1461","4965","13","Female","false","true","true","true","""event"",""trial"",""time""
""fullscreenenter"",""5"",""25182""
","
","
","""event"",""trial"",""time""
""fullscreenenter"",""5"",""25182""
","
","","","","","","","","","","","","","","","","","","","","","",""
"instructions-quiz","128","586875","0.0-69.0","1461","4965","13","Female","false","true","true","true","""event"",""trial"",""time""
""fullscreenenter"",""5"",""25182""
","
","
","""event"",""trial"",""time""
""fullscreenenter"",""5"",""25182""
","
","3390.2999999970198","audio/quiz/Q1_Prompt.wav","","1","","","","","","","","","","","","","","","","","",""
"audio-keyboard-response","129","596042","0.0-70.0","1461","4965","13","Female","false","true","true","true","""event"",""trial"",""time""
""fullscreenenter"",""5"",""25182""
","
","
","""event"",""trial"",""time""
""fullscreenenter"",""5"",""25182""
","
","null","audio/quiz/Q1_Correct.wav","null","","","","","","","","","","","","","","","","","","",""
"instructions-quiz","130","601844","0.0-71.0","1461","4965","13","Female","false","true","true","true","""event"",""trial"",""time""
""fullscreenenter"",""5"",""25182""
","
","
","""event"",""trial"",""time""
""fullscreenenter"",""5"",""25182""
","
","5801","audio/quiz/Q2_Prompt.wav","","0","","","","","","","","","","","","","","","","","",""
"audio-keyboard-response","131","614713","0.0-72.0","1461","4965","13","Female","false","true","true","true","""event"",""trial"",""time""
""fullscreenenter"",""5"",""25182""
","
","
","""event"",""trial"",""time""
""fullscreenenter"",""5"",""25182""
","
","null","audio/quiz/Q2_Correct.wav","null","","","","","","","","","","","","","","","","","","",""
"instructions-quiz","132","618798","0.0-73.0","1461","4965","13","Female","false","true","true","true","""event"",""trial"",""time""
""fullscreenenter"",""5"",""25182""
","
","
","""event"",""trial"",""time""
""fullscreenenter"",""5"",""25182""
","
","4088.300000000745","audio/quiz/Q3_Prompt.wav","","1","","","","","","","","","","","","","","","","","",""
"audio-keyboard-response","133","624597","0.0-74.0","1461","4965","13","Female","false","true","true","true","""event"",""trial"",""time""
""fullscreenenter"",""5"",""25182""
","
","
","""event"",""trial"",""time""
""fullscreenenter"",""5"",""25182""
","
","null","audio/quiz/Q3_Correct.wav","null","","","","","","","","","","","","","","","","","","",""
"d3-instructions","134","637654","0.0-75.0","1461","4965","13","Female","false","true","true","true","""event"",""trial"",""time""
""fullscreenenter"",""5"",""25182""
","
","
","""event"",""trial"",""time""
""fullscreenenter"",""5"",""25182""
","
","","","","","","","","","","","","","","","","","","","","","",""
"d3-animate-choice","135","641218","0.0-76.0-0.0","1461","4965","13","Female","false","true","true","true","""event"",""trial"",""time""
""fullscreenenter"",""5"",""25182""
","
","
","""event"",""trial"",""time""
""fullscreenenter"",""5"",""25182""
","
","1551.9000000022352","","49","","","3000","1","","","images/earth.jpg","images/rocket1","images/rocket2","null","images/rocket2","","1","real","null","1","","",""
"d3-animate-choice","136","643947","0.0-76.0-1.0","1461","4965","13","Female","false","true","true","true","""event"",""trial"",""time""
""fullscreenenter"",""5"",""25182""
","
","
","""event"",""trial"",""time""
""fullscreenenter"",""5"",""25182""
","
","703.5999999977648","","49","","","3000","1","","","images/redplanet1.jpg","images/alien2","images/alien1","images/rocket2","images/alien1","images/t.png","2","real","false","1","rare","1","2022-12-06 02:22:46.463"
"two-step-fixation","137","644971","0.0-76.0-2.0","1461","4965","13","Female","false","true","true","true","""event"",""trial"",""time""
""fullscreenenter"",""5"",""25182""
","
","
","""event"",""trial"",""time""
""fullscreenenter"",""5"",""25182""
","
","","images/earth.jpg","","","","","","","","","","","","","","fixation","","","","","",""
"d3-animate-choice","138","647437","0.0-76.0-0.1","1461","4965","13","Female","false","true","true","true","""event"",""trial"",""time""
""fullscreenenter"",""5"",""25182""
","
","
","""event"",""trial"",""time""
""fullscreenenter"",""5"",""25182""
","
","451.6000000014901","","49","","","3000","1","","","images/earth.jpg","images/rocket1","images/rocket2","null","images/rocket2","","1","real","null","1","","",""
"d3-animate-choice","139","650872","0.0-76.0-1.1","1461","4965","13","Female","false","true","true","true","""event"",""trial"",""time""
""fullscreenenter"",""5"",""25182""
","
","
","""event"",""trial"",""time""
""fullscreenenter"",""5"",""25182""
","
","1416.199999999255","","48","","","3000","1","","","images/purpleplanet.jpg","images/alien4","images/alien3","images/rocket2","images/alien4","images/t.png","2","real","true","2","common","1","2022-12-06 02:22:53.387"
"two-step-fixation","140","651887","0.0-76.0-2.1","1461","4965","13","Female","false","true","true","true","""event"",""trial"",""time""
""fullscreenenter"",""5"",""25182""
","
","
","""event"",""trial"",""time""
""fullscreenenter"",""5"",""25182""
","
","","images/earth.jpg","","","","","","","","","","","","","","fixation","","","","","",""
"d3-animate-choice","141","654385","0.0-76.0-0.2","1461","4965","13","Female","false","true","true","true","""event"",""trial"",""time""
""fullscreenenter"",""5"",""25182""
","
","
","""event"",""trial"",""time""
""fullscreenenter"",""5"",""25182""
","
","483.5","","49","","","3000","1","","","images/earth.jpg","images/rocket1","images/rocket2","null","images/rocket2","","1","real","null","1","","",""
"d3-animate-choice","142","657475","0.0-76.0-1.2","1461","4965","13","Female","false","true","true","true","""event"",""trial"",""time""
""fullscreenenter"",""5"",""25182""
","
","
","""event"",""trial"",""time""
""fullscreenenter"",""5"",""25182""
","
","1076.0999999977648","","48","","","3000","1","","","images/purpleplanet.jpg","images/alien4","images/alien3","images/rocket2","images/alien4","images/t.png","2","real","true","2","common","1","2022-12-06 02:22:59.990"
"two-step-fixation","143","658491","0.0-76.0-2.2","1461","4965","13","Female","false","true","true","true","""event"",""trial"",""time""
""fullscreenenter"",""5"",""25182""
","
","
","""event"",""trial"",""time""
""fullscreenenter"",""5"",""25182""
","
","","images/earth.jpg","","","","","","","","","","","","","","fixation","","","","","",""
"d3-animate-choice","144","660837","0.0-76.0-0.3","1461","4965","13","Female","false","true","true","true","""event"",""trial"",""time""
""fullscreenenter"",""5"",""25182""
","
","
","""event"",""trial"",""time""
""fullscreenenter"",""5"",""25182""
","
","332.80000000074506","","49","","","3000","1","","","images/earth.jpg","images/rocket1","images/rocket2","null","images/rocket2","","1","real","null","1","","",""
"d3-animate-choice","145","663435","0.0-76.0-1.3","1461","4965","13","Female","false","true","true","true","""event"",""trial"",""time""
""fullscreenenter"",""5"",""25182""
","
","
","""event"",""trial"",""time""
""fullscreenenter"",""5"",""25182""
","
","568.1999999992549","","48","","","3000","1","","","images/purpleplanet.jpg","images/alien4","images/alien3","images/rocket2","images/alien4","images/t.png","2","real","true","2","common","1","2022-12-06 02:23:05.951"
"two-step-fixation","146","664457","0.0-76.0-2.3","1461","4965","13","Female","false","true","true","true","""event"",""trial"",""time""
""fullscreenenter"",""5"",""25182""
","
","
","""event"",""trial"",""time""
""fullscreenenter"",""5"",""25182""
","
","","images/earth.jpg","","","","","","","","","","","","","","fixation","","","","","",""
"d3-animate-choice","147","666771","0.0-76.0-0.4","1461","4965","13","Female","false","true","true","true","""event"",""trial"",""time""
""fullscreenenter"",""5"",""25182""
","
","
","""event"",""trial"",""time""
""fullscreenenter"",""5"",""25182""
","
","299.5999999977648","","49","","","3000","1","","","images/earth.jpg","images/rocket1","images/rocket2","null","images/rocket2","","1","real","null","1","","",""
"d3-animate-choice","148","669397","0.0-76.0-1.4","1461","4965","13","Female","false","true","true","true","""event"",""trial"",""time""
""fullscreenenter"",""5"",""25182""
","
","
","""event"",""trial"",""time""
""fullscreenenter"",""5"",""25182""
","
","604.9000000022352","","48","","","3000","1","","","images/purpleplanet.jpg","images/alien4","images/alien3","images/rocket2","images/alien4","images/nothing.png","2","real","true","2","common","0","2022-12-06 02:23:11.912"
"two-step-fixation","149","670412","0.0-76.0-2.4","1461","4965","13","Female","false","true","true","true","""event"",""trial"",""time""
""fullscreenenter"",""5"",""25182""
","
","
","""event"",""trial"",""time""
""fullscreenenter"",""5"",""25182""
","
","","images/earth.jpg","","","","","","","","","","","","","","fixation","","","","","",""
"d3-animate-choice","150","673318","0.0-76.0-0.5","1461","4965","13","Female","false","true","true","true","""event"",""trial"",""time""
""fullscreenenter"",""5"",""25182""
","
","
","""event"",""trial"",""time""
""fullscreenenter"",""5"",""25182""
","
","894","","49","","","3000","1","","","images/earth.jpg","images/rocket1","images/rocket2","null","images/rocket2","","1","real","null","1","","",""
"d3-animate-choice","151","675875","0.0-76.0-1.5","1461","4965","13","Female","false","true","true","true","""event"",""trial"",""time""
""fullscreenenter"",""5"",""25182""
","
","
","""event"",""trial"",""time""
""fullscreenenter"",""5"",""25182""
","
","542.9000000022352","","48","","","3000","1","","","images/purpleplanet.jpg","images/alien4","images/alien3","images/rocket2","images/alien4","images/nothing.png","2","real","true","2","common","0","2022-12-06 02:23:18.390"
"two-step-fixation","152","676893","0.0-76.0-2.5","1461","4965","13","Female","false","true","true","true","""event"",""trial"",""time""
""fullscreenenter"",""5"",""25182""
","
","
","""event"",""trial"",""time""
""fullscreenenter"",""5"",""25182""
","
","","images/earth.jpg","","","","","","","","","","","","","","fixation","","","","","",""
"d3-animate-choice","153","679710","0.0-76.0-0.6","1461","4965","13","Female","false","true","true","true","""event"",""trial"",""time""
""fullscreenenter"",""5"",""25182""
","
","
","""event"",""trial"",""time""
""fullscreenenter"",""5"",""25182""
","
","799.1999999992549","","49","","","3000","1","","","images/earth.jpg","images/rocket1","images/rocket2","null","images/rocket2","","1","real","null","1","","",""
"d3-animate-choice","154","682199","0.0-76.0-1.6","1461","4965","13","Female","false","true","true","true","""event"",""trial"",""time""
""fullscreenenter"",""5"",""25182""
","
","
","""event"",""trial"",""time""
""fullscreenenter"",""5"",""25182""
","
","469.8999999985099","","48","","","3000","1","","","images/purpleplanet.jpg","images/alien4","images/alien3","images/rocket2","images/alien4","images/nothing.png","2","real","true","2","common","0","2022-12-06 02:23:24.714"
"two-step-fixation","155","683216","0.0-76.0-2.6","1461","4965","13","Female","false","true","true","true","""event"",""trial"",""time""
""fullscreenenter"",""5"",""25182""
","
","
","""event"",""trial"",""time""
""fullscreenenter"",""5"",""25182""
","
","","images/earth.jpg","","","","","","","","","","","","","","fixation","","","","","",""
"d3-animate-choice","156","685743","0.0-76.0-0.7","1461","4965","13","Female","false","true","true","true","""event"",""trial"",""time""
""fullscreenenter"",""5"",""25182""
","
","
","""event"",""trial"",""time""
""fullscreenenter"",""5"",""25182""
","
","508.3999999985099","","49","","","3000","1","","","images/earth.jpg","images/rocket1","images/rocket2","null","images/rocket2","","1","real","null","1","","",""
"d3-animate-choice","157","688427","0.0-76.0-1.7","1461","4965","13","Female","false","true","true","true","""event"",""trial"",""time""
""fullscreenenter"",""5"",""25182""
","
","
","""event"",""trial"",""time""
""fullscreenenter"",""5"",""25182""
","
","668","","48","","","3000","1","","","images/purpleplanet.jpg","images/alien4","images/alien3","images/rocket2","images/alien4","images/t.png","2","real","true","2","common","1","2022-12-06 02:23:30.942"
"two-step-fixation","158","689438","0.0-76.0-2.7","1461","4965","13","Female","false","true","true","true","""event"",""trial"",""time""
""fullscreenenter"",""5"",""25182""
","
","
","""event"",""trial"",""time""
""fullscreenenter"",""5"",""25182""
","
","","images/earth.jpg","","","","","","","","","","","","","","fixation","","","","","",""
"d3-animate-choice","159","692181","0.0-76.0-0.8","1461","4965","13","Female","false","true","true","true","""event"",""trial"",""time""
""fullscreenenter"",""5"",""25182""
","
","
","""event"",""trial"",""time""
""fullscreenenter"",""5"",""25182""
","
","731.5","","49","","","3000","1","","","images/earth.jpg","images/rocket1","images/rocket2","null","images/rocket2","","1","real","null","1","","",""
"d3-animate-choice","160","695279","0.0-76.0-1.8","1461","4965","13","Female","false","true","true","true","""event"",""trial"",""time""
""fullscreenenter"",""5"",""25182""
","
","
","""event"",""trial"",""time""
""fullscreenenter"",""5"",""25182""
","
","1077.300000000745","","48","","","3000","1","","","images/purpleplanet.jpg","images/alien4","images/alien3","images/rocket2","images/alien4","images/t.png","2","real","true","2","common","1","2022-12-06 02:23:37.794"
"two-step-fixation","161","696298","0.0-76.0-2.8","1461","4965","13","Female","false","true","true","true","""event"",""trial"",""time""
""fullscreenenter"",""5"",""25182""
","
","
","""event"",""trial"",""time""
""fullscreenenter"",""5"",""25182""
","
","","images/earth.jpg","","","","","","","","","","","","","","fixation","","","","","",""
"d3-animate-choice","162","700322","0.0-76.0-0.9","1461","4965","13","Female","false","true","true","true","""event"",""trial"",""time""
""fullscreenenter"",""5"",""25182""
","
","
","""event"",""trial"",""time""
""fullscreenenter"",""5"",""25182""
","
","2354.60000000149","","49","","","3000","1","","","images/earth.jpg","images/rocket1","images/rocket2","null","images/rocket2","","1","real","null","1","","",""
"d3-animate-choice","163","702948","0.0-76.0-1.9","1461","4965","13","Female","false","true","true","true","""event"",""trial"",""time""
""fullscreenenter"",""5"",""25182""
","
","
","""event"",""trial"",""time""
""fullscreenenter"",""5"",""25182""
","
","603.8999999985099","","48","","","3000","1","","","images/purpleplanet.jpg","images/alien4","images/alien3","images/rocket2","images/alien4","images/nothing.png","2","real","true","2","common","0","2022-12-06 02:23:45.463"
"two-step-fixation","164","703969","0.0-76.0-2.9","1461","4965","13","Female","false","true","true","true","""event"",""trial"",""time""
""fullscreenenter"",""5"",""25182""
","
","
","""event"",""trial"",""time""
""fullscreenenter"",""5"",""25182""
","
","","images/earth.jpg","","","","","","","","","","","","","","fixation","","","","","",""
"d3-animate-choice","165","707990","0.0-76.0-0.10","1461","4965","13","Female","false","true","true","true","""event"",""trial"",""time""
""fullscreenenter"",""5"",""25182""
","
","
","""event"",""trial"",""time""
""fullscreenenter"",""5"",""25182""
","
","2023.6000000014901","","49","","","3000","1","","","images/earth.jpg","images/rocket1","images/rocket2","null","images/rocket2","","1","real","null","1","","",""
"d3-animate-choice","166","710691","0.0-76.0-1.10","1461","4965","13","Female","false","true","true","true","""event"",""trial"",""time""
""fullscreenenter"",""5"",""25182""
","
","
","""event"",""trial"",""time""
""fullscreenenter"",""5"",""25182""
","
","681.7999999970198","","48","","","3000","1","","","images/purpleplanet.jpg","images/alien4","images/alien3","images/rocket2","images/alien4","images/t.png","2","real","true","2","common","1","2022-12-06 02:23:53.206"
"two-step-fixation","167","711714","0.0-76.0-2.10","1461","4965","13","Female","false","true","true","true","""event"",""trial"",""time""
""fullscreenenter"",""5"",""25182""
","
","
","""event"",""trial"",""time""
""fullscreenenter"",""5"",""25182""
","
","","images/earth.jpg","","","","","","","","","","","","","","fixation","","","","","",""
"d3-animate-choice","168","715205","0.0-76.0-0.11","1461","4965","13","Female","false","true","true","true","""event"",""trial"",""time""
""fullscreenenter"",""5"",""25182""
","
","
","""event"",""trial"",""time""
""fullscreenenter"",""5"",""25182""
","
","1473.3999999985099","","49","","","3000","1","","","images/earth.jpg","images/rocket1","images/rocket2","null","images/rocket2","","1","real","null","1","","",""
"d3-animate-choice","169","718658","0.0-76.0-1.11","1461","4965","13","Female","false","true","true","true","""event"",""trial"",""time""
""fullscreenenter"",""5"",""25182""
","
","
","""event"",""trial"",""time""
""fullscreenenter"",""5"",""25182""
","
","1437.2999999970198","","48","","","3000","1","","","images/redplanet1.jpg","images/alien2","images/alien1","images/rocket2","images/alien2","images/t.png","2","real","false","2","rare","1","2022-12-06 02:24:01.173"
"two-step-fixation","170","719674","0.0-76.0-2.11","1461","4965","13","Female","false","true","true","true","""event"",""trial"",""time""
""fullscreenenter"",""5"",""25182""
","
","
","""event"",""trial"",""time""
""fullscreenenter"",""5"",""25182""
","
","","images/earth.jpg","","","","","","","","","","","","","","fixation","","","","","",""
"d3-animate-choice","171","722040","0.0-76.0-0.12","1461","4965","13","Female","false","true","true","true","""event"",""trial"",""time""
""fullscreenenter"",""5"",""25182""
","
","
","""event"",""trial"",""time""
""fullscreenenter"",""5"",""25182""
","
","348.80000000074506","","49","","","3000","1","","","images/earth.jpg","images/rocket1","images/rocket2","null","images/rocket2","","1","real","null","1","","",""
"d3-animate-choice","172","724674","0.0-76.0-1.12","1461","4965","13","Female","false","true","true","true","""event"",""trial"",""time""
""fullscreenenter"",""5"",""25182""
","
","
","""event"",""trial"",""time""
""fullscreenenter"",""5"",""25182""
","
","617.6000000014901","","48","","","3000","1","","","images/purpleplanet.jpg","images/alien4","images/alien3","images/rocket2","images/alien4","images/nothing.png","2","real","true","2","common","0","2022-12-06 02:24:07.190"
"two-step-fixation","173","725686","0.0-76.0-2.12","1461","4965","13","Female","false","true","true","true","""event"",""trial"",""time""
""fullscreenenter"",""5"",""25182""
","
","
","""event"",""trial"",""time""
""fullscreenenter"",""5"",""25182""
","
","","images/earth.jpg","","","","","","","","","","","","","","fixation","","","","","",""
"d3-animate-choice","174","727979","0.0-76.0-0.13","1461","4965","13","Female","false","true","true","true","""event"",""trial"",""time""
""fullscreenenter"",""5"",""25182""
","
","
","""event"",""trial"",""time""
""fullscreenenter"",""5"",""25182""
","
","277.9000000022352","","48","","","3000","1","","","images/earth.jpg","images/rocket1","images/rocket2","null","images/rocket1","","1","real","null","2","","",""
"d3-animate-choice","175","730553","0.0-76.0-1.13","1461","4965","13","Female","false","true","true","true","""event"",""trial"",""time""
""fullscreenenter"",""5"",""25182""
","
","
","""event"",""trial"",""time""
""fullscreenenter"",""5"",""25182""
","
","553.6000000014901","","48","","","3000","1","","","images/purpleplanet.jpg","images/alien4","images/alien3","images/rocket1","images/alien4","images/t.png","2","real","false","2","rare","1","2022-12-06 02:24:13.068"
"two-step-fixation","176","731569","0.0-76.0-2.13","1461","4965","13","Female","false","true","true","true","""event"",""trial"",""time""
""fullscreenenter"",""5"",""25182""
","
","
","""event"",""trial"",""time""
""fullscreenenter"",""5"",""25182""
","
","","images/earth.jpg","","","","","","","","","","","","","","fixation","","","","","",""
"d3-animate-choice","177","734299","0.0-76.0-0.14","1461","4965","13","Female","false","true","true","true","""event"",""trial"",""time""
""fullscreenenter"",""5"",""25182""
","
","
","""event"",""trial"",""time""
""fullscreenenter"",""5"",""25182""
","
","717.5999999977648","","48","","","3000","1","","","images/earth.jpg","images/rocket1","images/rocket2","null","images/rocket1","","1","real","null","2","","",""
"d3-animate-choice","178","737084","0.0-76.0-1.14","1461","4965","13","Female","false","true","true","true","""event"",""trial"",""time""
""fullscreenenter"",""5"",""25182""
","
","
","""event"",""trial"",""time""
""fullscreenenter"",""5"",""25182""
","
","769.1000000014901","","48","","","3000","1","","","images/redplanet1.jpg","images/alien2","images/alien1","images/rocket1","images/alien2","images/t.png","2","real","true","2","common","1","2022-12-06 02:24:19.599"
"two-step-fixation","179","738111","0.0-76.0-2.14","1461","4965","13","Female","false","true","true","true","""event"",""trial"",""time""
""fullscreenenter"",""5"",""25182""
","
","
","""event"",""trial"",""time""
""fullscreenenter"",""5"",""25182""
","
","","images/earth.jpg","","","","","","","","","","","","","","fixation","","","","","",""
"d3-animate-choice","180","740873","0.0-76.0-0.15","1461","4965","13","Female","false","true","true","true","""event"",""trial"",""time""
""fullscreenenter"",""5"",""25182""
","
","
","""event"",""trial"",""time""
""fullscreenenter"",""5"",""25182""
","
","745.1000000014901","","48","","","3000","1","","","images/earth.jpg","images/rocket1","images/rocket2","null","images/rocket1","","1","real","null","2","","",""
"d3-animate-choice","181","743462","0.0-76.0-1.15","1461","4965","13","Female","false","true","true","true","""event"",""trial"",""time""
""fullscreenenter"",""5"",""25182""
","
","
","""event"",""trial"",""time""
""fullscreenenter"",""5"",""25182""
","
","571.8999999985099","","48","","","3000","1","","","images/redplanet1.jpg","images/alien2","images/alien1","images/rocket1","images/alien2","images/nothing.png","2","real","true","2","common","0","2022-12-06 02:24:25.977"
"two-step-fixation","182","744473","0.0-76.0-2.15","1461","4965","13","Female","false","true","true","true","""event"",""trial"",""time""
""fullscreenenter"",""5"",""25182""
","
","
","""event"",""trial"",""time""
""fullscreenenter"",""5"",""25182""
","
","","images/earth.jpg","","","","","","","","","","","","","","fixation","","","","","",""
"d3-animate-choice","183","746842","0.0-76.0-0.16","1461","4965","13","Female","false","true","true","true","""event"",""trial"",""time""
""fullscreenenter"",""5"",""25182""
","
","
","""event"",""trial"",""time""
""fullscreenenter"",""5"",""25182""
","
","350.70000000298023","","49","","","3000","1","","","images/earth.jpg","images/rocket1","images/rocket2","null","images/rocket2","","1","real","null","1","","",""
"d3-animate-choice","184","750353","0.0-76.0-1.16","1461","4965","13","Female","false","true","true","true","""event"",""trial"",""time""
""fullscreenenter"",""5"",""25182""
","
","
","""event"",""trial"",""time""
""fullscreenenter"",""5"",""25182""
","
","1495.5","","48","","","3000","1","","","images/redplanet1.jpg","images/alien2","images/alien1","images/rocket2","images/alien2","images/t.png","2","real","false","2","rare","1","2022-12-06 02:24:32.868"
"two-step-fixation","185","751369","0.0-76.0-2.16","1461","4965","13","Female","false","true","true","true","""event"",""trial"",""time""
""fullscreenenter"",""5"",""25182""
","
","
","""event"",""trial"",""time""
""fullscreenenter"",""5"",""25182""
","
","","images/earth.jpg","","","","","","","","","","","","","","fixation","","","","","",""
"d3-animate-choice","186","754111","0.0-76.0-0.17","1461","4965","13","Female","false","true","true","true","""event"",""trial"",""time""
""fullscreenenter"",""5"",""25182""
","
","
","""event"",""trial"",""time""
""fullscreenenter"",""5"",""25182""
","
","720.8999999985099","","49","","","3000","1","","","images/earth.jpg","images/rocket1","images/rocket2","null","images/rocket2","","1","real","null","1","","",""
"d3-animate-choice","187","757287","0.0-76.0-1.17","1461","4965","13","Female","false","true","true","true","""event"",""trial"",""time""
""fullscreenenter"",""5"",""25182""
","
","
","""event"",""trial"",""time""
""fullscreenenter"",""5"",""25182""
","
","1160.2999999970198","","48","","","3000","1","","","images/redplanet1.jpg","images/alien2","images/alien1","images/rocket2","images/alien2","images/t.png","2","real","false","2","rare","1","2022-12-06 02:24:39.802"
"two-step-fixation","188","758298","0.0-76.0-2.17","1461","4965","13","Female","false","true","true","true","""event"",""trial"",""time""
""fullscreenenter"",""5"",""25182""
","
","
","""event"",""trial"",""time""
""fullscreenenter"",""5"",""25182""
","
","","images/earth.jpg","","","","","","","","","","","","","","fixation","","","","","",""
"d3-animate-choice","189","761297","0.0-76.0-0.18","1461","4965","13","Female","false","true","true","true","""event"",""trial"",""time""
""fullscreenenter"",""5"",""25182""
","
","
","""event"",""trial"",""time""
""fullscreenenter"",""5"",""25182""
","
","987.3999999985099","","49","","","3000","1","","","images/earth.jpg","images/rocket1","images/rocket2","null","images/rocket2","","1","real","null","1","","",""
"d3-animate-choice","190","764184","0.0-76.0-1.18","1461","4965","13","Female","false","true","true","true","""event"",""trial"",""time""
""fullscreenenter"",""5"",""25182""
","
","
","""event"",""trial"",""time""
""fullscreenenter"",""5"",""25182""
","
","876.1999999992549","","48","","","3000","1","","","images/redplanet1.jpg","images/alien2","images/alien1","images/rocket2","images/alien2","images/nothing.png","2","real","false","2","rare","0","2022-12-06 02:24:46.699"
"two-step-fixation","191","765195","0.0-76.0-2.18","1461","4965","13","Female","false","true","true","true","""event"",""trial"",""time""
""fullscreenenter"",""5"",""25182""
","
","
","""event"",""trial"",""time""
""fullscreenenter"",""5"",""25182""
","
","","images/earth.jpg","","","","","","","","","","","","","","fixation","","","","","",""
"d3-animate-choice","192","767488","0.0-76.0-0.19","1461","4965","13","Female","false","true","true","true","""event"",""trial"",""time""
""fullscreenenter"",""5"",""25182""
","
","
","""event"",""trial"",""time""
""fullscreenenter"",""5"",""25182""
","
","281.6000000014901","","48","","","3000","1","","","images/earth.jpg","images/rocket1","images/rocket2","null","images/rocket1","","1","real","null","2","","",""
"d3-animate-choice","193","770284","0.0-76.0-1.19","1461","4965","13","Female","false","true","true","true","""event"",""trial"",""time""
""fullscreenenter"",""5"",""25182""
","
","
","""event"",""trial"",""time""
""fullscreenenter"",""5"",""25182""
","
","775.0999999977648","","48","","","3000","1","","","images/redplanet1.jpg","images/alien2","images/alien1","images/rocket1","images/alien2","images/t.png","2","real","true","2","common","1","2022-12-06 02:24:52.799"
"two-step-fixation","194","771301","0.0-76.0-2.19","1461","4965","13","Female","false","true","true","true","""event"",""trial"",""time""
""fullscreenenter"",""5"",""25182""
","
","
","""event"",""trial"",""time""
""fullscreenenter"",""5"",""25182""
","
","","images/earth.jpg","","","","","","","","","","","","","","fixation","","","","","",""
"d3-animate-choice","195","773935","0.0-76.0-0.20","1461","4965","13","Female","false","true","true","true","""event"",""trial"",""time""
""fullscreenenter"",""5"",""25182""
","
","
","""event"",""trial"",""time""
""fullscreenenter"",""5"",""25182""
","
","618.3999999985099","","48","","","3000","1","","","images/earth.jpg","images/rocket1","images/rocket2","null","images/rocket1","","1","real","null","2","","",""
"d3-animate-choice","196","776542","0.0-76.0-1.20","1461","4965","13","Female","false","true","true","true","""event"",""trial"",""time""
""fullscreenenter"",""5"",""25182""
","
","
","""event"",""trial"",""time""
""fullscreenenter"",""5"",""25182""
","
","593.8000000007451","","48","","","3000","1","","","images/purpleplanet.jpg","images/alien4","images/alien3","images/rocket1","images/alien4","images/t.png","2","real","false","2","rare","1","2022-12-06 02:24:59.058"
"two-step-fixation","197","777555","0.0-76.0-2.20","1461","4965","13","Female","false","true","true","true","""event"",""trial"",""time""
""fullscreenenter"",""5"",""25182""
","
","
","""event"",""trial"",""time""
""fullscreenenter"",""5"",""25182""
","
","","images/earth.jpg","","","","","","","","","","","","","","fixation","","","","","",""
"d3-animate-choice","198","780234","0.0-76.0-0.21","1461","4965","13","Female","false","true","true","true","""event"",""trial"",""time""
""fullscreenenter"",""5"",""25182""
","
","
","""event"",""trial"",""time""
""fullscreenenter"",""5"",""25182""
","
","669.3000000007451","","48","","","3000","1","","","images/earth.jpg","images/rocket1","images/rocket2","null","images/rocket1","","1","real","null","2","","",""
"d3-animate-choice","199","782853","0.0-76.0-1.21","1461","4965","13","Female","false","true","true","true","""event"",""trial"",""time""
""fullscreenenter"",""5"",""25182""
","
","
","""event"",""trial"",""time""
""fullscreenenter"",""5"",""25182""
","
","600.4000000022352","","48","","","3000","1","","","images/redplanet1.jpg","images/alien2","images/alien1","images/rocket1","images/alien2","images/t.png","2","real","true","2","common","1","2022-12-06 02:25:05.368"
"two-step-fixation","200","783869","0.0-76.0-2.21","1461","4965","13","Female","false","true","true","true","""event"",""trial"",""time""
""fullscreenenter"",""5"",""25182""
","
","
","""event"",""trial"",""time""
""fullscreenenter"",""5"",""25182""
","
","","images/earth.jpg","","","","","","","","","","","","","","fixation","","","","","",""
"d3-animate-choice","201","786314","0.0-76.0-0.22","1461","4965","13","Female","false","true","true","true","""event"",""trial"",""time""
""fullscreenenter"",""5"",""25182""
","
","
","""event"",""trial"",""time""
""fullscreenenter"",""5"",""25182""
","
","424.69999999925494","","48","","","3000","1","","","images/earth.jpg","images/rocket1","images/rocket2","null","images/rocket1","","1","real","null","2","","",""
"d3-animate-choice","202","788898","0.0-76.0-1.22","1461","4965","13","Female","false","true","true","true","""event"",""trial"",""time""
""fullscreenenter"",""5"",""25182""
","
","
","""event"",""trial"",""time""
""fullscreenenter"",""5"",""25182""
","
","562.1999999992549","","48","","","3000","1","","","images/redplanet1.jpg","images/alien2","images/alien1","images/rocket1","images/alien2","images/nothing.png","2","real","true","2","common","0","2022-12-06 02:25:11.413"
"two-step-fixation","203","789908","0.0-76.0-2.22","1461","4965","13","Female","false","true","true","true","""event"",""trial"",""time""
""fullscreenenter"",""5"",""25182""
","
","
","""event"",""trial"",""time""
""fullscreenenter"",""5"",""25182""
","
","","images/earth.jpg","","","","","","","","","","","","","","fixation","","","","","",""
"d3-animate-choice","204","792008","0.0-76.0-0.23","1461","4965","13","Female","false","true","true","true","""event"",""trial"",""time""
""fullscreenenter"",""5"",""25182""
","
","
","""event"",""trial"",""time""
""fullscreenenter"",""5"",""25182""
","
","86.90000000223517","","49","","","3000","1","","","images/earth.jpg","images/rocket1","images/rocket2","null","images/rocket2","","1","real","null","1","","",""
"d3-animate-choice","205","794658","0.0-76.0-1.23","1461","4965","13","Female","false","true","true","true","""event"",""trial"",""time""
""fullscreenenter"",""5"",""25182""
","
","
","""event"",""trial"",""time""
""fullscreenenter"",""5"",""25182""
","
","632.1999999992549","","48","","","3000","1","","","images/purpleplanet.jpg","images/alien4","images/alien3","images/rocket2","images/alien4","images/t.png","2","real","true","2","common","1","2022-12-06 02:25:17.173"
"two-step-fixation","206","795664","0.0-76.0-2.23","1461","4965","13","Female","false","true","true","true","""event"",""trial"",""time""
""fullscreenenter"",""5"",""25182""
","
","
","""event"",""trial"",""time""
""fullscreenenter"",""5"",""25182""
","
","","images/earth.jpg","","","","","","","","","","","","","","fixation","","","","","",""
"d3-animate-choice","207","798239","0.0-76.0-0.24","1461","4965","13","Female","false","true","true","true","""event"",""trial"",""time""
""fullscreenenter"",""5"",""25182""
","
","
","""event"",""trial"",""time""
""fullscreenenter"",""5"",""25182""
","
","560.2999999970198","","49","","","3000","1","","","images/earth.jpg","images/rocket1","images/rocket2","null","images/rocket2","","1","real","null","1","","",""
"d3-animate-choice","208","801288","0.0-76.0-1.24","1461","4965","13","Female","false","true","true","true","""event"",""trial"",""time""
""fullscreenenter"",""5"",""25182""
","
","
","""event"",""trial"",""time""
""fullscreenenter"",""5"",""25182""
","
","1030.1000000014901","","48","","","3000","1","","","images/purpleplanet.jpg","images/alien4","images/alien3","images/rocket2","images/alien4","images/t.png","2","real","true","2","common","1","2022-12-06 02:25:23.803"
"two-step-fixation","209","802307","0.0-76.0-2.24","1461","4965","13","Female","false","true","true","true","""event"",""trial"",""time""
""fullscreenenter"",""5"",""25182""
","
","
","""event"",""trial"",""time""
""fullscreenenter"",""5"",""25182""
","
","","images/earth.jpg","","","","","","","","","","","","","","fixation","","","","","",""
"d3-animate-choice","210","804714","0.0-76.0-0.25","1461","4965","13","Female","false","true","true","true","""event"",""trial"",""time""
""fullscreenenter"",""5"",""25182""
","
","
","""event"",""trial"",""time""
""fullscreenenter"",""5"",""25182""
","
","399.69999999925494","","48","","","3000","1","","","images/earth.jpg","images/rocket1","images/rocket2","null","images/rocket1","","1","real","null","2","","",""
"d3-animate-choice","211","807498","0.0-76.0-1.25","1461","4965","13","Female","false","true","true","true","""event"",""trial"",""time""
""fullscreenenter"",""5"",""25182""
","
","
","""event"",""trial"",""time""
""fullscreenenter"",""5"",""25182""
","
","772.5","","48","","","3000","1","","","images/purpleplanet.jpg","images/alien4","images/alien3","images/rocket1","images/alien4","images/t.png","2","real","false","2","rare","1","2022-12-06 02:25:30.013"
"two-step-fixation","212","808508","0.0-76.0-2.25","1461","4965","13","Female","false","true","true","true","""event"",""trial"",""time""
""fullscreenenter"",""5"",""25182""
","
","
","""event"",""trial"",""time""
""fullscreenenter"",""5"",""25182""
","
","","images/earth.jpg","","","","","","","","","","","","","","fixation","","","","","",""
"d3-animate-choice","213","810970","0.0-76.0-0.26","1461","4965","13","Female","false","true","true","true","""event"",""trial"",""time""
""fullscreenenter"",""5"",""25182""
","
","
","""event"",""trial"",""time""
""fullscreenenter"",""5"",""25182""
","
","446.69999999925494","","48","","","3000","1","","","images/earth.jpg","images/rocket1","images/rocket2","null","images/rocket1","","1","real","null","2","","",""
"d3-animate-choice","214","813642","0.0-76.0-1.26","1461","4965","13","Female","false","true","true","true","""event"",""trial"",""time""
""fullscreenenter"",""5"",""25182""
","
","
","""event"",""trial"",""time""
""fullscreenenter"",""5"",""25182""
","
","658.8000000007451","","48","","","3000","1","","","images/redplanet1.jpg","images/alien2","images/alien1","images/rocket1","images/alien2","images/t.png","2","real","true","2","common","1","2022-12-06 02:25:36.157"
"two-step-fixation","215","814658","0.0-76.0-2.26","1461","4965","13","Female","false","true","true","true","""event"",""trial"",""time""
""fullscreenenter"",""5"",""25182""
","
","
","""event"",""trial"",""time""
""fullscreenenter"",""5"",""25182""
","
","","images/earth.jpg","","","","","","","","","","","","","","fixation","","","","","",""
"d3-animate-choice","216","816982","0.0-76.0-0.27","1461","4965","13","Female","false","true","true","true","""event"",""trial"",""time""
""fullscreenenter"",""5"",""25182""
","
","
","""event"",""trial"",""time""
""fullscreenenter"",""5"",""25182""
","
","302.5","","48","","","3000","1","","","images/earth.jpg","images/rocket1","images/rocket2","null","images/rocket1","","1","real","null","2","","",""
"d3-animate-choice","217","819523","0.0-76.0-1.27","1461","4965","13","Female","false","true","true","true","""event"",""trial"",""time""
""fullscreenenter"",""5"",""25182""
","
","
","""event"",""trial"",""time""
""fullscreenenter"",""5"",""25182""
","
","521.6000000014901","","48","","","3000","1","","","images/purpleplanet.jpg","images/alien4","images/alien3","images/rocket1","images/alien4","images/t.png","2","real","false","2","rare","1","2022-12-06 02:25:42.038"
"two-step-fixation","218","820540","0.0-76.0-2.27","1461","4965","13","Female","false","true","true","true","""event"",""trial"",""time""
""fullscreenenter"",""5"",""25182""
","
","
","""event"",""trial"",""time""
""fullscreenenter"",""5"",""25182""
","
","","images/earth.jpg","","","","","","","","","","","","","","fixation","","","","","",""
"d3-animate-choice","219","822990","0.0-76.0-0.28","1461","4965","13","Female","false","true","true","true","""event"",""trial"",""time""
""fullscreenenter"",""5"",""25182""
","
","
","""event"",""trial"",""time""
""fullscreenenter"",""5"",""25182""
","
","429.4000000022352","","49","","","3000","1","","","images/earth.jpg","images/rocket1","images/rocket2","null","images/rocket2","","1","real","null","1","","",""
"d3-animate-choice","220","825574","0.0-76.0-1.28","1461","4965","13","Female","false","true","true","true","""event"",""trial"",""time""
""fullscreenenter"",""5"",""25182""
","
","
","""event"",""trial"",""time""
""fullscreenenter"",""5"",""25182""
","
","571.1000000014901","","48","","","3000","1","","","images/purpleplanet.jpg","images/alien4","images/alien3","images/rocket2","images/alien4","images/nothing.png","2","real","true","2","common","0","2022-12-06 02:25:48.089"
"two-step-fixation","221","826590","0.0-76.0-2.28","1461","4965","13","Female","false","true","true","true","""event"",""trial"",""time""
""fullscreenenter"",""5"",""25182""
","
","
","""event"",""trial"",""time""
""fullscreenenter"",""5"",""25182""
","
","","images/earth.jpg","","","","","","","","","","","","","","fixation","","","","","",""
"d3-animate-choice","222","828937","0.0-76.0-0.29","1461","4965","13","Female","false","true","true","true","""event"",""trial"",""time""
""fullscreenenter"",""5"",""25182""
","
","
","""event"",""trial"",""time""
""fullscreenenter"",""5"",""25182""
","
","335.19999999925494","","48","","","3000","1","","","images/earth.jpg","images/rocket1","images/rocket2","null","images/rocket1","","1","real","null","2","","",""
"d3-animate-choice","223","831698","0.0-76.0-1.29","1461","4965","13","Female","false","true","true","true","""event"",""trial"",""time""
""fullscreenenter"",""5"",""25182""
","
","
","""event"",""trial"",""time""
""fullscreenenter"",""5"",""25182""
","
","746.1000000014901","","48","","","3000","1","","","images/redplanet1.jpg","images/alien2","images/alien1","images/rocket1","images/alien2","images/t.png","2","real","true","2","common","1","2022-12-06 02:25:54.213"
"two-step-fixation","224","832707","0.0-76.0-2.29","1461","4965","13","Female","false","true","true","true","""event"",""trial"",""time""
""fullscreenenter"",""5"",""25182""
","
","
","""event"",""trial"",""time""
""fullscreenenter"",""5"",""25182""
","
","","images/earth.jpg","","","","","","","","","","","","","","fixation","","","","","",""
"d3-animate-choice","225","835222","0.0-76.0-0.30","1461","4965","13","Female","false","true","true","true","""event"",""trial"",""time""
""fullscreenenter"",""5"",""25182""
","
","
","""event"",""trial"",""time""
""fullscreenenter"",""5"",""25182""
","
","502.6000000014901","","48","","","3000","1","","","images/earth.jpg","images/rocket1","images/rocket2","null","images/rocket1","","1","real","null","2","","",""
"d3-animate-choice","226","837868","0.0-76.0-1.30","1461","4965","13","Female","false","true","true","true","""event"",""trial"",""time""
""fullscreenenter"",""5"",""25182""
","
","
","""event"",""trial"",""time""
""fullscreenenter"",""5"",""25182""
","
","628.3000000007451","","48","","","3000","1","","","images/redplanet1.jpg","images/alien2","images/alien1","images/rocket1","images/alien2","images/t.png","2","real","true","2","common","1","2022-12-06 02:26:00.384"
"two-step-fixation","227","838881","0.0-76.0-2.30","1461","4965","13","Female","false","true","true","true","""event"",""trial"",""time""
""fullscreenenter"",""5"",""25182""
","
","
","""event"",""trial"",""time""
""fullscreenenter"",""5"",""25182""
","
","","images/earth.jpg","","","","","","","","","","","","","","fixation","","","","","",""
"d3-animate-choice","228","841235","0.0-76.0-0.31","1461","4965","13","Female","false","true","true","true","""event"",""trial"",""time""
""fullscreenenter"",""5"",""25182""
","
","
","""event"",""trial"",""time""
""fullscreenenter"",""5"",""25182""
","
","337.6000000014901","","48","","","3000","1","","","images/earth.jpg","images/rocket1","images/rocket2","null","images/rocket1","","1","real","null","2","","",""
"d3-animate-choice","229","843940","0.0-76.0-1.31","1461","4965","13","Female","false","true","true","true","""event"",""trial"",""time""
""fullscreenenter"",""5"",""25182""
","
","
","""event"",""trial"",""time""
""fullscreenenter"",""5"",""25182""
","
","684.7999999970198","","48","","","3000","1","","","images/redplanet1.jpg","images/alien2","images/alien1","images/rocket1","images/alien2","images/t.png","2","real","true","2","common","1","2022-12-06 02:26:06.455"
"two-step-fixation","230","844956","0.0-76.0-2.31","1461","4965","13","Female","false","true","true","true","""event"",""trial"",""time""
""fullscreenenter"",""5"",""25182""
","
","
","""event"",""trial"",""time""
""fullscreenenter"",""5"",""25182""
","
","","images/earth.jpg","","","","","","","","","","","","","","fixation","","","","","",""
"d3-animate-choice","231","847534","0.0-76.0-0.32","1461","4965","13","Female","false","true","true","true","""event"",""trial"",""time""
""fullscreenenter"",""5"",""25182""
","
","
","""event"",""trial"",""time""
""fullscreenenter"",""5"",""25182""
","
","566.8000000007451","","48","","","3000","1","","","images/earth.jpg","images/rocket1","images/rocket2","null","images/rocket1","","1","real","null","2","","",""
"d3-animate-choice","232","850223","0.0-76.0-1.32","1461","4965","13","Female","false","true","true","true","""event"",""trial"",""time""
""fullscreenenter"",""5"",""25182""
","
","
","""event"",""trial"",""time""
""fullscreenenter"",""5"",""25182""
","
","674.5999999977648","","48","","","3000","1","","","images/redplanet1.jpg","images/alien2","images/alien1","images/rocket1","images/alien2","images/nothing.png","2","real","true","2","common","0","2022-12-06 02:26:12.738"
"two-step-fixation","233","851236","0.0-76.0-2.32","1461","4965","13","Female","false","true","true","true","""event"",""trial"",""time""
""fullscreenenter"",""5"",""25182""
","
","
","""event"",""trial"",""time""
""fullscreenenter"",""5"",""25182""
","
","","images/earth.jpg","","","","","","","","","","","","","","fixation","","","","","",""
"d3-animate-choice","234","853556","0.0-76.0-0.33","1461","4965","13","Female","false","true","true","true","""event"",""trial"",""time""
""fullscreenenter"",""5"",""25182""
","
","
","""event"",""trial"",""time""
""fullscreenenter"",""5"",""25182""
","
","301.1000000014901","","49","","","3000","1","","","images/earth.jpg","images/rocket1","images/rocket2","null","images/rocket2","","1","real","null","1","","",""
"d3-animate-choice","235","856160","0.0-76.0-1.33","1461","4965","13","Female","false","true","true","true","""event"",""trial"",""time""
""fullscreenenter"",""5"",""25182""
","
","
","""event"",""trial"",""time""
""fullscreenenter"",""5"",""25182""
","
","589.5","","48","","","3000","1","","","images/redplanet1.jpg","images/alien2","images/alien1","images/rocket2","images/alien2","images/nothing.png","2","real","false","2","rare","0","2022-12-06 02:26:18.675"
"two-step-fixation","236","857174","0.0-76.0-2.33","1461","4965","13","Female","false","true","true","true","""event"",""trial"",""time""
""fullscreenenter"",""5"",""25182""
","
","
","""event"",""trial"",""time""
""fullscreenenter"",""5"",""25182""
","
","","images/earth.jpg","","","","","","","","","","","","","","fixation","","","","","",""
"d3-animate-choice","237","859518","0.0-76.0-0.34","1461","4965","13","Female","false","true","true","true","""event"",""trial"",""time""
""fullscreenenter"",""5"",""25182""
","
","
","""event"",""trial"",""time""
""fullscreenenter"",""5"",""25182""
","
","341.8999999985099","","49","","","3000","1","","","images/earth.jpg","images/rocket1","images/rocket2","null","images/rocket2","","1","real","null","1","","",""
"d3-animate-choice","238","862246","0.0-76.0-1.34","1461","4965","13","Female","false","true","true","true","""event"",""trial"",""time""
""fullscreenenter"",""5"",""25182""
","
","
","""event"",""trial"",""time""
""fullscreenenter"",""5"",""25182""
","
","714.3000000007451","","48","","","3000","1","","","images/redplanet1.jpg","images/alien2","images/alien1","images/rocket2","images/alien2","images/t.png","2","real","false","2","rare","1","2022-12-06 02:26:24.762"
"two-step-fixation","239","863263","0.0-76.0-2.34","1461","4965","13","Female","false","true","true","true","""event"",""trial"",""time""
""fullscreenenter"",""5"",""25182""
","
","
","""event"",""trial"",""time""
""fullscreenenter"",""5"",""25182""
","
","","images/earth.jpg","","","","","","","","","","","","","","fixation","","","","","",""
"d3-animate-choice","240","865584","0.0-76.0-0.35","1461","4965","13","Female","false","true","true","true","""event"",""trial"",""time""
""fullscreenenter"",""5"",""25182""
","
","
","""event"",""trial"",""time""
""fullscreenenter"",""5"",""25182""
","
","309","","49","","","3000","1","","","images/earth.jpg","images/rocket1","images/rocket2","null","images/rocket2","","1","real","null","1","","",""
"d3-animate-choice","241","868217","0.0-76.0-1.35","1461","4965","13","Female","false","true","true","true","""event"",""trial"",""time""
""fullscreenenter"",""5"",""25182""
","
","
","""event"",""trial"",""time""
""fullscreenenter"",""5"",""25182""
","
","621.3999999985099","","48","","","3000","1","","","images/purpleplanet.jpg","images/alien4","images/alien3","images/rocket2","images/alien4","images/t.png","2","real","true","2","common","1","2022-12-06 02:26:30.732"
"two-step-fixation","242","869226","0.0-76.0-2.35","1461","4965","13","Female","false","true","true","true","""event"",""trial"",""time""
""fullscreenenter"",""5"",""25182""
","
","
","""event"",""trial"",""time""
""fullscreenenter"",""5"",""25182""
","
","","images/earth.jpg","","","","","","","","","","","","","","fixation","","","","","",""
"d3-animate-choice","243","871681","0.0-76.0-0.36","1461","4965","13","Female","false","true","true","true","""event"",""trial"",""time""
""fullscreenenter"",""5"",""25182""
","
","
","""event"",""trial"",""time""
""fullscreenenter"",""5"",""25182""
","
","432.1000000014901","","49","","","3000","1","","","images/earth.jpg","images/rocket1","images/rocket2","null","images/rocket2","","1","real","null","1","","",""
"d3-animate-choice","244","874234","0.0-76.0-1.36","1461","4965","13","Female","false","true","true","true","""event"",""trial"",""time""
""fullscreenenter"",""5"",""25182""
","
","
","""event"",""trial"",""time""
""fullscreenenter"",""5"",""25182""
","
","536.3999999985099","","48","","","3000","1","","","images/purpleplanet.jpg","images/alien4","images/alien3","images/rocket2","images/alien4","images/nothing.png","2","real","true","2","common","0","2022-12-06 02:26:36.749"
"two-step-fixation","245","875249","0.0-76.0-2.36","1461","4965","13","Female","false","true","true","true","""event"",""trial"",""time""
""fullscreenenter"",""5"",""25182""
","
","
","""event"",""trial"",""time""
""fullscreenenter"",""5"",""25182""
","
","","images/earth.jpg","","","","","","","","","","","","","","fixation","","","","","",""
