"trial_type","trial_index","time_elapsed","internal_node_id","participant_id","subject_id","age","gender","rocket_sides","red_planet_first_rocket","red_display_order","purple_display_order","interactions","blur_events","focus_events","fullscreenenter_events","fullscreenexit_events","rt","stimulus","key_press","button_pressed","success","duration","valid_pressed","rts","keys","planet_text","right_text","left_text","center_text","chosen_text","reward_text","trial_stage","practice_trial","transition_type","choice","transition","reward","timestamp"
"pavlovia","0","5","0.0-0.0","759","679","10","Female","true","false","true","true","
","
","
","
","
","","","","","","","","","","","","","","","","","","","","","",""
"html-keyboard-response","1","2367","0.0-1.0","759","679","10","Female","true","false","true","true","
","
","
","
","
","2362","Welcome! Press the space bar to begin.","32","","","","","","","","","","","","","","","","","","",""
"audio-keyboard-response","2","9680","0.0-2.0","759","679","10","Female","true","false","true","true","
","
","
","
","
","7311","audio/beep_loop.wav","32","","","","","","","","","","","","","","","","","","",""
"audio-button-response","3","13209","0.0-3.0","759","679","10","Female","true","false","true","true","
","
","
","
","
","NaN","audio/fish.mp3","","1","","","","","","","","","","","","","","","","","",""
"audio-button-response","4","15751","0.0-4.0","759","679","10","Female","true","false","true","true","""event"",""trial"",""time""
""fullscreenenter"",""5"",""19639""
","
","
","""event"",""trial"",""time""
""fullscreenenter"",""5"",""19639""
","
","NaN","audio/tiger.mp3","","4","","","","","","","","","","","","","","","","","",""
"fullscreen","5","20341","0.0-5.0","759","679","10","Female","true","false","true","true","""event"",""trial"",""time""
""fullscreenenter"",""5"",""19639""
","
","
","""event"",""trial"",""time""
""fullscreenenter"",""5"",""19639""
","
","","","","","true","","","","","","","","","","","","","","","","",""
"d3-instructions","6","31983","0.0-6.0","759","679","10","Female","true","false","true","true","""event"",""trial"",""time""
""fullscreenenter"",""5"",""19639""
","
","
","""event"",""trial"",""time""
""fullscreenenter"",""5"",""19639""
","
","","","","","","","","","","","","","","","","","","","","","",""
"d3-instructions","7","33807","0.0-7.0","759","679","10","Female","true","false","true","true","""event"",""trial"",""time""
""fullscreenenter"",""5"",""19639""
","
","
","""event"",""trial"",""time""
""fullscreenenter"",""5"",""19639""
","
","","","","","","","","","","","","","","","","","","","","","",""
"d3-instructions","8","34607","0.0-8.0","759","679","10","Female","true","false","true","true","""event"",""trial"",""time""
""fullscreenenter"",""5"",""19639""
","
","
","""event"",""trial"",""time""
""fullscreenenter"",""5"",""19639""
","
","","","","","","","","","","","","","","","","","","","","","",""
"d3-instructions","9","35385","0.0-9.0","759","679","10","Female","true","false","true","true","""event"",""trial"",""time""
""fullscreenenter"",""5"",""19639""
","
","
","""event"",""trial"",""time""
""fullscreenenter"",""5"",""19639""
","
","","","","","","","","","","","","","","","","","","","","","",""
"d3-instructions","10","36223","0.0-10.0","759","679","10","Female","true","false","true","true","""event"",""trial"",""time""
""fullscreenenter"",""5"",""19639""
","
","
","""event"",""trial"",""time""
""fullscreenenter"",""5"",""19639""
","
","","","","","","","","","","","","","","","","","","","","","",""
"d3-animate-choice","11","42563","0.0-11.0","759","679","10","Female","true","false","true","true","""event"",""trial"",""time""
""fullscreenenter"",""5"",""19639""
","
","
","""event"",""trial"",""time""
""fullscreenenter"",""5"",""19639""
","
","2919","","32","","","3000","1","4337","49","images/tutgreenplanet.jpg","images/tutalien1","images/tutalien2","null","images/tutalien2","","NA","practice","null","","","",""
"d3-animate-choice","12","46705","0.0-12.0","759","679","10","Female","true","false","true","true","""event"",""trial"",""time""
""fullscreenenter"",""5"",""19639""
","
","
","""event"",""trial"",""time""
""fullscreenenter"",""5"",""19639""
","
","2139","","48","","","3000","1","","","images/tutgreenplanet.jpg","images/tutalien1","images/tutalien2","null","images/tutalien1","","NA","practice","null","","","",""
"d3-animate-choice","13","49552","0.0-13.0","759","679","10","Female","true","false","true","true","""event"",""trial"",""time""
""fullscreenenter"",""5"",""19639""
","
","
","""event"",""trial"",""time""
""fullscreenenter"",""5"",""19639""
","
","846","","49","","","3000","1","","","images/tutgreenplanet.jpg","images/tutalien1","images/tutalien2","null","images/tutalien2","","NA","practice","null","","","",""
"d3-animate-choice","14","51946","0.0-14.0","759","679","10","Female","true","false","true","true","""event"",""trial"",""time""
""fullscreenenter"",""5"",""19639""
","
","
","""event"",""trial"",""time""
""fullscreenenter"",""5"",""19639""
","
","389","","49","","","3000","1","","","images/tutgreenplanet.jpg","images/tutalien1","images/tutalien2","null","images/tutalien2","","NA","practice","null","","","",""
"d3-instructions","15","59368","0.0-15.0","759","679","10","Female","true","false","true","true","""event"",""trial"",""time""
""fullscreenenter"",""5"",""19639""
","
","
","""event"",""trial"",""time""
""fullscreenenter"",""5"",""19639""
","
","","","","","","","","","","","","","","","","","","","","","",""
"d3-instructions","16","61783","0.0-16.0","759","679","10","Female","true","false","true","true","""event"",""trial"",""time""
""fullscreenenter"",""5"",""19639""
","
","
","""event"",""trial"",""time""
""fullscreenenter"",""5"",""19639""
","
","","","","","","","","","","","","","","","","","","","","","",""
"d3-instructions","17","70040","0.0-17.0","759","679","10","Female","true","false","true","true","""event"",""trial"",""time""
""fullscreenenter"",""5"",""19639""
","
","
","""event"",""trial"",""time""
""fullscreenenter"",""5"",""19639""
","
","","","","","","","","","","","","","","","","","","","","","",""
"d3-instructions","18","71824","0.0-18.0","759","679","10","Female","true","false","true","true","""event"",""trial"",""time""
""fullscreenenter"",""5"",""19639""
","
","
","""event"",""trial"",""time""
""fullscreenenter"",""5"",""19639""
","
","","","","","","","","","","","","","","","","","","","","","",""
"d3-instructions","19","89472","0.0-19.0","759","679","10","Female","true","false","true","true","""event"",""trial"",""time""
""fullscreenenter"",""5"",""19639""
","
","
","""event"",""trial"",""time""
""fullscreenenter"",""5"",""19639""
","
","","","","","","","","","","","","","","","","","","","","","",""
"d3-animate-choice","20","93490","0.0-20.0","759","679","10","Female","true","false","true","true","""event"",""trial"",""time""
""fullscreenenter"",""5"",""19639""
","
","
","""event"",""trial"",""time""
""fullscreenenter"",""5"",""19639""
","
","2013","","49","","","3000","1","","","images/tutyellowplanet.jpg","null","images/tutalien3","null","images/tutalien3","images/t.png","NA","practice","null","","","",""
"d3-animate-choice","21","95893","0.0-21.0","759","679","10","Female","true","false","true","true","""event"",""trial"",""time""
""fullscreenenter"",""5"",""19639""
","
","
","""event"",""trial"",""time""
""fullscreenenter"",""5"",""19639""
","
","396","","49","","","3000","1","","","images/tutyellowplanet.jpg","null","images/tutalien3","null","images/tutalien3","images/t.png","NA","practice","null","","","",""
"d3-animate-choice","22","98531","0.0-22.0","759","679","10","Female","true","false","true","true","""event"",""trial"",""time""
""fullscreenenter"",""5"",""19639""
","
","
","""event"",""trial"",""time""
""fullscreenenter"",""5"",""19639""
","
","632","","49","","","3000","1","","","images/tutyellowplanet.jpg","null","images/tutalien3","null","images/tutalien3","images/t.png","NA","practice","null","","","",""
"d3-animate-choice","23","100961","0.0-23.0","759","679","10","Female","true","false","true","true","""event"",""trial"",""time""
""fullscreenenter"",""5"",""19639""
","
","
","""event"",""trial"",""time""
""fullscreenenter"",""5"",""19639""
","
","427","","49","","","3000","1","","","images/tutyellowplanet.jpg","null","images/tutalien3","null","images/tutalien3","images/t.png","NA","practice","null","","","",""
"d3-animate-choice","24","103417","0.0-24.0","759","679","10","Female","true","false","true","true","""event"",""trial"",""time""
""fullscreenenter"",""5"",""19639""
","
","
","""event"",""trial"",""time""
""fullscreenenter"",""5"",""19639""
","
","453","","49","","","3000","1","","","images/tutyellowplanet.jpg","null","images/tutalien3","null","images/tutalien3","images/t.png","NA","practice","null","","","",""
"d3-animate-choice","25","105715","0.0-25.0","759","679","10","Female","true","false","true","true","""event"",""trial"",""time""
""fullscreenenter"",""5"",""19639""
","
","
","""event"",""trial"",""time""
""fullscreenenter"",""5"",""19639""
","
","294","","49","","","3000","1","1862","49","images/tutyellowplanet.jpg","null","images/tutalien3","null","images/tutalien3","images/t.png","NA","practice","null","","","",""
"d3-animate-choice","26","107992","0.0-26.0","759","679","10","Female","true","false","true","true","""event"",""trial"",""time""
""fullscreenenter"",""5"",""19639""
","
","
","""event"",""trial"",""time""
""fullscreenenter"",""5"",""19639""
","
","275","","49","","","3000","1","","","images/tutyellowplanet.jpg","null","images/tutalien3","null","images/tutalien3","images/t.png","NA","practice","null","","","",""
"d3-animate-choice","27","110409","0.0-27.0","759","679","10","Female","true","false","true","true","""event"",""trial"",""time""
""fullscreenenter"",""5"",""19639""
","
","
","""event"",""trial"",""time""
""fullscreenenter"",""5"",""19639""
","
","413","","49","","","3000","1","","","images/tutyellowplanet.jpg","null","images/tutalien3","null","images/tutalien3","images/nothing.png","NA","practice","null","","","",""
"d3-animate-choice","28","112786","0.0-28.0","759","679","10","Female","true","false","true","true","""event"",""trial"",""time""
""fullscreenenter"",""5"",""19639""
","
","
","""event"",""trial"",""time""
""fullscreenenter"",""5"",""19639""
","
","374","","49","","","3000","1","","","images/tutyellowplanet.jpg","null","images/tutalien3","null","images/tutalien3","images/t.png","NA","practice","null","","","",""
"d3-animate-choice","29","115090","0.0-29.0","759","679","10","Female","true","false","true","true","""event"",""trial"",""time""
""fullscreenenter"",""5"",""19639""
","
","
","""event"",""trial"",""time""
""fullscreenenter"",""5"",""19639""
","
","301","","49","","","3000","1","2102","49","images/tutyellowplanet.jpg","null","images/tutalien3","null","images/tutalien3","images/t.png","NA","practice","null","","","",""
"d3-instructions","30","121592","0.0-30.0","759","679","10","Female","true","false","true","true","""event"",""trial"",""time""
""fullscreenenter"",""5"",""19639""
","
","
","""event"",""trial"",""time""
""fullscreenenter"",""5"",""19639""
","
","","","","","","","","","","","","","","","","","","","","","",""
"d3-instructions","31","122680","0.0-31.0","759","679","10","Female","true","false","true","true","""event"",""trial"",""time""
""fullscreenenter"",""5"",""19639""
","
","
","""event"",""trial"",""time""
""fullscreenenter"",""5"",""19639""
","
","","","","","","","","","","","","","","","","","","","","","",""
"d3-instructions","32","124600","0.0-32.0","759","679","10","Female","true","false","true","true","""event"",""trial"",""time""
""fullscreenenter"",""5"",""19639""
","
","
","""event"",""trial"",""time""
""fullscreenenter"",""5"",""19639""
","
","","","","","","","","","","","","","","","","","","","","","",""
"d3-instructions","33","126567","0.0-33.0","759","679","10","Female","true","false","true","true","""event"",""trial"",""time""
""fullscreenenter"",""5"",""19639""
","
","
","""event"",""trial"",""time""
""fullscreenenter"",""5"",""19639""
","
","","","","","","","","","","","","","","","","","","","","","",""
"d3-animate-choice","34","130337","0.0-34.0","759","679","10","Female","true","false","true","true","""event"",""trial"",""time""
""fullscreenenter"",""5"",""19639""
","
","
","""event"",""trial"",""time""
""fullscreenenter"",""5"",""19639""
","
","1767","","49","","","3000","1","","","images/tutgreenplanet.jpg","images/tutalien1","images/tutalien2","null","images/tutalien2","images/t.png","NA","practice","null","","","",""
"d3-animate-choice","35","132824","0.0-35.0","759","679","10","Female","true","false","true","true","""event"",""trial"",""time""
""fullscreenenter"",""5"",""19639""
","
","
","""event"",""trial"",""time""
""fullscreenenter"",""5"",""19639""
","
","485","","49","","","3000","1","","","images/tutgreenplanet.jpg","images/tutalien1","images/tutalien2","null","images/tutalien2","images/nothing.png","NA","practice","null","","","",""
"d3-animate-choice","36","135170","0.0-36.0","759","679","10","Female","true","false","true","true","""event"",""trial"",""time""
""fullscreenenter"",""5"",""19639""
","
","
","""event"",""trial"",""time""
""fullscreenenter"",""5"",""19639""
","
","342","","48","","","3000","1","","","images/tutgreenplanet.jpg","images/tutalien1","images/tutalien2","null","images/tutalien1","images/nothing.png","NA","practice","null","","","",""
"d3-animate-choice","37","137425","0.0-37.0","759","679","10","Female","true","false","true","true","""event"",""trial"",""time""
""fullscreenenter"",""5"",""19639""
","
","
","""event"",""trial"",""time""
""fullscreenenter"",""5"",""19639""
","
","252","","49","","","3000","1","","","images/tutgreenplanet.jpg","images/tutalien1","images/tutalien2","null","images/tutalien2","images/t.png","NA","practice","null","","","",""
"d3-animate-choice","38","139797","0.0-38.0","759","679","10","Female","true","false","true","true","""event"",""trial"",""time""
""fullscreenenter"",""5"",""19639""
","
","
","""event"",""trial"",""time""
""fullscreenenter"",""5"",""19639""
","
","364","","49","","","3000","1","","","images/tutgreenplanet.jpg","images/tutalien1","images/tutalien2","null","images/tutalien2","images/t.png","NA","practice","null","","","",""
"d3-animate-choice","39","142107","0.0-39.0","759","679","10","Female","true","false","true","true","""event"",""trial"",""time""
""fullscreenenter"",""5"",""19639""
","
","
","""event"",""trial"",""time""
""fullscreenenter"",""5"",""19639""
","
","306","","49","","","3000","1","","","images/tutgreenplanet.jpg","images/tutalien1","images/tutalien2","null","images/tutalien2","images/t.png","NA","practice","null","","","",""
"d3-animate-choice","40","144440","0.0-40.0","759","679","10","Female","true","false","true","true","""event"",""trial"",""time""
""fullscreenenter"",""5"",""19639""
","
","
","""event"",""trial"",""time""
""fullscreenenter"",""5"",""19639""
","
","331","","49","","","3000","1","","","images/tutgreenplanet.jpg","images/tutalien1","images/tutalien2","null","images/tutalien2","images/t.png","NA","practice","null","","","",""
"d3-animate-choice","41","146873","0.0-41.0","759","679","10","Female","true","false","true","true","""event"",""trial"",""time""
""fullscreenenter"",""5"",""19639""
","
","
","""event"",""trial"",""time""
""fullscreenenter"",""5"",""19639""
","
","430","","49","","","3000","1","","","images/tutgreenplanet.jpg","images/tutalien1","images/tutalien2","null","images/tutalien2","images/t.png","NA","practice","null","","","",""
"d3-animate-choice","42","149145","0.0-42.0","759","679","10","Female","true","false","true","true","""event"",""trial"",""time""
""fullscreenenter"",""5"",""19639""
","
","
","""event"",""trial"",""time""
""fullscreenenter"",""5"",""19639""
","
","269","","49","","","3000","1","","","images/tutgreenplanet.jpg","images/tutalien1","images/tutalien2","null","images/tutalien2","images/t.png","NA","practice","null","","","",""
"d3-animate-choice","43","151404","0.0-43.0","759","679","10","Female","true","false","true","true","""event"",""trial"",""time""
""fullscreenenter"",""5"",""19639""
","
","
","""event"",""trial"",""time""
""fullscreenenter"",""5"",""19639""
","
","253","","49","","","3000","1","","","images/tutgreenplanet.jpg","images/tutalien1","images/tutalien2","null","images/tutalien2","images/t.png","NA","practice","null","","","",""
"d3-instructions","44","162903","0.0-44.0","759","679","10","Female","true","false","true","true","""event"",""trial"",""time""
""fullscreenenter"",""5"",""19639""
","
","
","""event"",""trial"",""time""
""fullscreenenter"",""5"",""19639""
","
","","","","","","","","","","","","","","","","","","","","","",""
"d3-instructions","45","164647","0.0-45.0","759","679","10","Female","true","false","true","true","""event"",""trial"",""time""
""fullscreenenter"",""5"",""19639""
","
","
","""event"",""trial"",""time""
""fullscreenenter"",""5"",""19639""
","
","","","","","","","","","","","","","","","","","","","","","",""
"d3-instructions","46","166000","0.0-46.0","759","679","10","Female","true","false","true","true","""event"",""trial"",""time""
""fullscreenenter"",""5"",""19639""
","
","
","""event"",""trial"",""time""
""fullscreenenter"",""5"",""19639""
","
","","","","","","","","","","","","","","","","","","","","","",""
"d3-instructions","47","168560","0.0-47.0","759","679","10","Female","true","false","true","true","""event"",""trial"",""time""
""fullscreenenter"",""5"",""19639""
","
","
","""event"",""trial"",""time""
""fullscreenenter"",""5"",""19639""
","
","","","","","","","","","","","","","","","","","","","","","",""
"d3-instructions","48","171464","0.0-48.0","759","679","10","Female","true","false","true","true","""event"",""trial"",""time""
""fullscreenenter"",""5"",""19639""
","
","
","""event"",""trial"",""time""
""fullscreenenter"",""5"",""19639""
","
","","","","","","","","","","","","","","","","","","","","","",""
"d3-instructions","49","173136","0.0-49.0","759","679","10","Female","true","false","true","true","""event"",""trial"",""time""
""fullscreenenter"",""5"",""19639""
","
","
","""event"",""trial"",""time""
""fullscreenenter"",""5"",""19639""
","
","","","","","","","","","","","","","","","","","","","","","",""
"d3-instructions","50","181577","0.0-50.0","759","679","10","Female","true","false","true","true","""event"",""trial"",""time""
""fullscreenenter"",""5"",""19639""
","
","
","""event"",""trial"",""time""
""fullscreenenter"",""5"",""19639""
","
","","","","","","","","","","","","","","","","","","","","","",""
"d3-instructions","51","184360","0.0-51.0","759","679","10","Female","true","false","true","true","""event"",""trial"",""time""
""fullscreenenter"",""5"",""19639""
","
","
","""event"",""trial"",""time""
""fullscreenenter"",""5"",""19639""
","
","","","","","","","","","","","","","","","","","","","","","",""
"d3-instructions","52","188040","0.0-52.0","759","679","10","Female","true","false","true","true","""event"",""trial"",""time""
""fullscreenenter"",""5"",""19639""
","
","
","""event"",""trial"",""time""
""fullscreenenter"",""5"",""19639""
","
","","","","","","","","","","","","","","","","","","","","","",""
"d3-instructions","53","202720","0.0-53.0","759","679","10","Female","true","false","true","true","""event"",""trial"",""time""
""fullscreenenter"",""5"",""19639""
","
","
","""event"",""trial"",""time""
""fullscreenenter"",""5"",""19639""
","
","","","","","","","","","","","","","","","","","","","","","",""
"d3-instructions","54","217632","0.0-54.0","759","679","10","Female","true","false","true","true","""event"",""trial"",""time""
""fullscreenenter"",""5"",""19639""
","
","
","""event"",""trial"",""time""
""fullscreenenter"",""5"",""19639""
","
","","","","","","","","","","","","","","","","","","","","","",""
"d3-instructions","55","229872","0.0-55.0","759","679","10","Female","true","false","true","true","""event"",""trial"",""time""
""fullscreenenter"",""5"",""19639""
","
","
","""event"",""trial"",""time""
""fullscreenenter"",""5"",""19639""
","
","","","","","","","","","","","","","","","","","","","","","",""
"d3-instructions","56","239944","0.0-56.0","759","679","10","Female","true","false","true","true","""event"",""trial"",""time""
""fullscreenenter"",""5"",""19639""
","
","
","""event"",""trial"",""time""
""fullscreenenter"",""5"",""19639""
","
","","","","","","","","","","","","","","","","","","","","","",""
"d3-instructions","57","250896","0.0-57.0","759","679","10","Female","true","false","true","true","""event"",""trial"",""time""
""fullscreenenter"",""5"",""19639""
","
","
","""event"",""trial"",""time""
""fullscreenenter"",""5"",""19639""
","
","","","","","","","","","","","","","","","","","","","","","",""
"d3-instructions","58","262376","0.0-58.0","759","679","10","Female","true","false","true","true","""event"",""trial"",""time""
""fullscreenenter"",""5"",""19639""
","
","
","""event"",""trial"",""time""
""fullscreenenter"",""5"",""19639""
","
","","","","","","","","","","","","","","","","","","","","","",""
"d3-instructions","59","268903","0.0-59.0","759","679","10","Female","true","false","true","true","""event"",""trial"",""time""
""fullscreenenter"",""5"",""19639""
","
","
","""event"",""trial"",""time""
""fullscreenenter"",""5"",""19639""
","
","","","","","","","","","","","","","","","","","","","","","",""
"d3-instructions","60","276015","0.0-60.0","759","679","10","Female","true","false","true","true","""event"",""trial"",""time""
""fullscreenenter"",""5"",""19639""
","
","
","""event"",""trial"",""time""
""fullscreenenter"",""5"",""19639""
","
","","","","","","","","","","","","","","","","","","","","","",""
"d3-animate-choice","61","279173","0.0-61.0-0.0","759","679","10","Female","true","false","true","true","""event"",""trial"",""time""
""fullscreenenter"",""5"",""19639""
","
","
","""event"",""trial"",""time""
""fullscreenenter"",""5"",""19639""
","
","1149","","49","","","3000","1","","","images/earth.jpg","images/tutrocket1","images/tutrocket2","null","images/tutrocket2","","1","practice","null","1","","",""
"d3-animate-choice","62","282091","0.0-61.0-1.0","759","679","10","Female","true","false","true","true","""event"",""trial"",""time""
""fullscreenenter"",""5"",""19639""
","
","
","""event"",""trial"",""time""
""fullscreenenter"",""5"",""19639""
","
","913","","49","","","3000","1","","","images/tutgreenplanet.jpg","images/tutalien2","images/tutalien1","images/tutrocket2","images/tutalien1","images/nothing.png","2","practice","true","1","common","0","2022-02-10 22:14:41.994"
"two-step-fixation","63","283097","0.0-61.0-2.0","759","679","10","Female","true","false","true","true","""event"",""trial"",""time""
""fullscreenenter"",""5"",""19639""
","
","
","""event"",""trial"",""time""
""fullscreenenter"",""5"",""19639""
","
","","images/earth.jpg","","","","","","","","","","","","","","fixation","","","","","",""
"d3-animate-choice","64","287066","0.0-61.0-0.1","759","679","10","Female","true","false","true","true","""event"",""trial"",""time""
""fullscreenenter"",""5"",""19639""
","
","
","""event"",""trial"",""time""
""fullscreenenter"",""5"",""19639""
","
","1445","","50","","","3000","1","1964","48","images/earth.jpg","images/tutrocket1","images/tutrocket2","null","images/tutrocket1","","1","practice","null","","","",""
"d3-animate-choice","65","290090","0.0-61.0-1.1","759","679","10","Female","true","false","true","true","""event"",""trial"",""time""
""fullscreenenter"",""5"",""19639""
","
","
","""event"",""trial"",""time""
""fullscreenenter"",""5"",""19639""
","
","1019","","48","","","3000","1","","","images/tutgreenplanet.jpg","images/tutalien2","images/tutalien1","images/tutrocket1","images/tutalien2","images/nothing.png","2","practice","false","2","rare","0","2022-02-10 22:14:49.993"
"two-step-fixation","66","291092","0.0-61.0-2.1","759","679","10","Female","true","false","true","true","""event"",""trial"",""time""
""fullscreenenter"",""5"",""19639""
","
","
","""event"",""trial"",""time""
""fullscreenenter"",""5"",""19639""
","
","","images/earth.jpg","","","","","","","","","","","","","","fixation","","","","","",""
"d3-animate-choice","67","293649","0.0-61.0-0.2","759","679","10","Female","true","false","true","true","""event"",""trial"",""time""
""fullscreenenter"",""5"",""19639""
","
","
","""event"",""trial"",""time""
""fullscreenenter"",""5"",""19639""
","
","555","","48","","","3000","1","","","images/earth.jpg","images/tutrocket1","images/tutrocket2","null","images/tutrocket1","","1","practice","null","2","","",""
"d3-animate-choice","68","296115","0.0-61.0-1.2","759","679","10","Female","true","false","true","true","""event"",""trial"",""time""
""fullscreenenter"",""5"",""19639""
","
","
","""event"",""trial"",""time""
""fullscreenenter"",""5"",""19639""
","
","461","","49","","","3000","1","","","images/tutgreenplanet.jpg","images/tutalien2","images/tutalien1","images/tutrocket1","images/tutalien1","images/t.png","2","practice","false","1","rare","1","2022-02-10 22:14:56.018"
"two-step-fixation","69","297120","0.0-61.0-2.2","759","679","10","Female","true","false","true","true","""event"",""trial"",""time""
""fullscreenenter"",""5"",""19639""
","
","
","""event"",""trial"",""time""
""fullscreenenter"",""5"",""19639""
","
","","images/earth.jpg","","","","","","","","","","","","","","fixation","","","","","",""
"d3-animate-choice","70","299968","0.0-61.0-0.3","759","679","10","Female","true","false","true","true","""event"",""trial"",""time""
""fullscreenenter"",""5"",""19639""
","
","
","""event"",""trial"",""time""
""fullscreenenter"",""5"",""19639""
","
","847","","49","","","3000","1","","","images/earth.jpg","images/tutrocket1","images/tutrocket2","null","images/tutrocket2","","1","practice","null","1","","",""
"d3-animate-choice","71","302720","0.0-61.0-1.3","759","679","10","Female","true","false","true","true","""event"",""trial"",""time""
""fullscreenenter"",""5"",""19639""
","
","
","""event"",""trial"",""time""
""fullscreenenter"",""5"",""19639""
","
","749","","49","","","3000","1","","","images/tutgreenplanet.jpg","images/tutalien2","images/tutalien1","images/tutrocket2","images/tutalien1","images/t.png","2","practice","true","1","common","1","2022-02-10 22:15:02.623"
"two-step-fixation","72","303723","0.0-61.0-2.3","759","679","10","Female","true","false","true","true","""event"",""trial"",""time""
""fullscreenenter"",""5"",""19639""
","
","
","""event"",""trial"",""time""
""fullscreenenter"",""5"",""19639""
","
","","images/earth.jpg","","","","","","","","","","","","","","fixation","","","","","",""
"d3-animate-choice","73","306649","0.0-61.0-0.4","759","679","10","Female","true","false","true","true","""event"",""trial"",""time""
""fullscreenenter"",""5"",""19639""
","
","
","""event"",""trial"",""time""
""fullscreenenter"",""5"",""19639""
","
","922","","48","","","3000","1","","","images/earth.jpg","images/tutrocket1","images/tutrocket2","null","images/tutrocket1","","1","practice","null","2","","",""
"d3-animate-choice","74","309499","0.0-61.0-1.4","759","679","10","Female","true","false","true","true","""event"",""trial"",""time""
""fullscreenenter"",""5"",""19639""
","
","
","""event"",""trial"",""time""
""fullscreenenter"",""5"",""19639""
","
","845","","49","","","3000","1","","","images/tutgreenplanet.jpg","images/tutalien2","images/tutalien1","images/tutrocket1","images/tutalien1","images/nothing.png","2","practice","false","1","rare","0","2022-02-10 22:15:09.402"
"two-step-fixation","75","310500","0.0-61.0-2.4","759","679","10","Female","true","false","true","true","""event"",""trial"",""time""
""fullscreenenter"",""5"",""19639""
","
","
","""event"",""trial"",""time""
""fullscreenenter"",""5"",""19639""
","
","","images/earth.jpg","","","","","","","","","","","","","","fixation","","","","","",""
"d3-animate-choice","76","312938","0.0-61.0-0.5","759","679","10","Female","true","false","true","true","""event"",""trial"",""time""
""fullscreenenter"",""5"",""19639""
","
","
","""event"",""trial"",""time""
""fullscreenenter"",""5"",""19639""
","
","434","","49","","","3000","1","","","images/earth.jpg","images/tutrocket1","images/tutrocket2","null","images/tutrocket2","","1","practice","null","1","","",""
"d3-animate-choice","77","315929","0.0-61.0-1.5","759","679","10","Female","true","false","true","true","""event"",""trial"",""time""
""fullscreenenter"",""5"",""19639""
","
","
","""event"",""trial"",""time""
""fullscreenenter"",""5"",""19639""
","
","987","","49","","","3000","1","","","images/tutgreenplanet.jpg","images/tutalien2","images/tutalien1","images/tutrocket2","images/tutalien1","images/nothing.png","2","practice","true","1","common","0","2022-02-10 22:15:15.832"
"two-step-fixation","78","316932","0.0-61.0-2.5","759","679","10","Female","true","false","true","true","""event"",""trial"",""time""
""fullscreenenter"",""5"",""19639""
","
","
","""event"",""trial"",""time""
""fullscreenenter"",""5"",""19639""
","
","","images/earth.jpg","","","","","","","","","","","","","","fixation","","","","","",""
"d3-animate-choice","79","319554","0.0-61.0-0.6","759","679","10","Female","true","false","true","true","""event"",""trial"",""time""
""fullscreenenter"",""5"",""19639""
","
","
","""event"",""trial"",""time""
""fullscreenenter"",""5"",""19639""
","
","617","","48","","","3000","1","","","images/earth.jpg","images/tutrocket1","images/tutrocket2","null","images/tutrocket1","","1","practice","null","2","","",""
"d3-animate-choice","80","322769","0.0-61.0-1.6","759","679","10","Female","true","false","true","true","""event"",""trial"",""time""
""fullscreenenter"",""5"",""19639""
","
","
","""event"",""trial"",""time""
""fullscreenenter"",""5"",""19639""
","
","1212","","49","","","3000","1","","","images/tutyellowplanet.jpg","images/tutalien4","images/tutalien3","images/tutrocket1","images/tutalien3","images/nothing.png","2","practice","true","1","common","0","2022-02-10 22:15:22.672"
"two-step-fixation","81","323771","0.0-61.0-2.6","759","679","10","Female","true","false","true","true","""event"",""trial"",""time""
""fullscreenenter"",""5"",""19639""
","
","
","""event"",""trial"",""time""
""fullscreenenter"",""5"",""19639""
","
","","images/earth.jpg","","","","","","","","","","","","","","fixation","","","","","",""
"d3-animate-choice","82","326090","0.0-61.0-0.7","759","679","10","Female","true","false","true","true","""event"",""trial"",""time""
""fullscreenenter"",""5"",""19639""
","
","
","""event"",""trial"",""time""
""fullscreenenter"",""5"",""19639""
","
","315","","48","","","3000","1","","","images/earth.jpg","images/tutrocket1","images/tutrocket2","null","images/tutrocket1","","1","practice","null","2","","",""
"d3-animate-choice","83","330017","0.0-61.0-1.7","759","679","10","Female","true","false","true","true","""event"",""trial"",""time""
""fullscreenenter"",""5"",""19639""
","
","
","""event"",""trial"",""time""
""fullscreenenter"",""5"",""19639""
","
","1924","","48","","","3000","1","","","images/tutyellowplanet.jpg","images/tutalien4","images/tutalien3","images/tutrocket1","images/tutalien4","images/nothing.png","2","practice","true","2","common","0","2022-02-10 22:15:29.920"
"two-step-fixation","84","331019","0.0-61.0-2.7","759","679","10","Female","true","false","true","true","""event"",""trial"",""time""
""fullscreenenter"",""5"",""19639""
","
","
","""event"",""trial"",""time""
""fullscreenenter"",""5"",""19639""
","
","","images/earth.jpg","","","","","","","","","","","","","","fixation","","","","","",""
"d3-animate-choice","85","333674","0.0-61.0-0.8","759","679","10","Female","true","false","true","true","""event"",""trial"",""time""
""fullscreenenter"",""5"",""19639""
","
","
","""event"",""trial"",""time""
""fullscreenenter"",""5"",""19639""
","
","652","","48","","","3000","1","","","images/earth.jpg","images/tutrocket1","images/tutrocket2","null","images/tutrocket1","","1","practice","null","2","","",""
"d3-animate-choice","86","336417","0.0-61.0-1.8","759","679","10","Female","true","false","true","true","""event"",""trial"",""time""
""fullscreenenter"",""5"",""19639""
","
","
","""event"",""trial"",""time""
""fullscreenenter"",""5"",""19639""
","
","739","","49","","","3000","1","","","images/tutgreenplanet.jpg","images/tutalien2","images/tutalien1","images/tutrocket1","images/tutalien1","images/t.png","2","practice","false","1","rare","1","2022-02-10 22:15:36.320"
"two-step-fixation","87","337421","0.0-61.0-2.8","759","679","10","Female","true","false","true","true","""event"",""trial"",""time""
""fullscreenenter"",""5"",""19639""
","
","
","""event"",""trial"",""time""
""fullscreenenter"",""5"",""19639""
","
","","images/earth.jpg","","","","","","","","","","","","","","fixation","","","","","",""
"d3-animate-choice","88","339874","0.0-61.0-0.9","759","679","10","Female","true","false","true","true","""event"",""trial"",""time""
""fullscreenenter"",""5"",""19639""
","
","
","""event"",""trial"",""time""
""fullscreenenter"",""5"",""19639""
","
","449","","48","","","3000","1","","","images/earth.jpg","images/tutrocket1","images/tutrocket2","null","images/tutrocket1","","1","practice","null","2","","",""
"d3-animate-choice","89","343244","0.0-61.0-1.9","759","679","10","Female","true","false","true","true","""event"",""trial"",""time""
""fullscreenenter"",""5"",""19639""
","
","
","""event"",""trial"",""time""
""fullscreenenter"",""5"",""19639""
","
","1364","","49","","","3000","1","","","images/tutgreenplanet.jpg","images/tutalien2","images/tutalien1","images/tutrocket1","images/tutalien1","images/t.png","2","practice","false","1","rare","1","2022-02-10 22:15:43.147"
"two-step-fixation","90","344247","0.0-61.0-2.9","759","679","10","Female","true","false","true","true","""event"",""trial"",""time""
""fullscreenenter"",""5"",""19639""
","
","
","""event"",""trial"",""time""
""fullscreenenter"",""5"",""19639""
","
","","images/earth.jpg","","","","","","","","","","","","","","fixation","","","","","",""
"d3-animate-choice","91","346656","0.0-61.0-0.10","759","679","10","Female","true","false","true","true","""event"",""trial"",""time""
""fullscreenenter"",""5"",""19639""
","
","
","""event"",""trial"",""time""
""fullscreenenter"",""5"",""19639""
","
","407","","48","","","3000","1","","","images/earth.jpg","images/tutrocket1","images/tutrocket2","null","images/tutrocket1","","1","practice","null","2","","",""
"d3-animate-choice","92","349330","0.0-61.0-1.10","759","679","10","Female","true","false","true","true","""event"",""trial"",""time""
""fullscreenenter"",""5"",""19639""
","
","
","""event"",""trial"",""time""
""fullscreenenter"",""5"",""19639""
","
","670","","49","","","3000","1","","","images/tutgreenplanet.jpg","images/tutalien2","images/tutalien1","images/tutrocket1","images/tutalien1","images/nothing.png","2","practice","false","1","rare","0","2022-02-10 22:15:49.233"
"two-step-fixation","93","350332","0.0-61.0-2.10","759","679","10","Female","true","false","true","true","""event"",""trial"",""time""
""fullscreenenter"",""5"",""19639""
","
","
","""event"",""trial"",""time""
""fullscreenenter"",""5"",""19639""
","
","","images/earth.jpg","","","","","","","","","","","","","","fixation","","","","","",""
"d3-animate-choice","94","352729","0.0-61.0-0.11","759","679","10","Female","true","false","true","true","""event"",""trial"",""time""
""fullscreenenter"",""5"",""19639""
","
","
","""event"",""trial"",""time""
""fullscreenenter"",""5"",""19639""
","
","396","","48","","","3000","1","","","images/earth.jpg","images/tutrocket1","images/tutrocket2","null","images/tutrocket1","","1","practice","null","2","","",""
"d3-animate-choice","95","355228","0.0-61.0-1.11","759","679","10","Female","true","false","true","true","""event"",""trial"",""time""
""fullscreenenter"",""5"",""19639""
","
","
","""event"",""trial"",""time""
""fullscreenenter"",""5"",""19639""
","
","492","","48","","","3000","1","","","images/tutyellowplanet.jpg","images/tutalien4","images/tutalien3","images/tutrocket1","images/tutalien4","images/t.png","2","practice","true","2","common","1","2022-02-10 22:15:55.131"
"two-step-fixation","96","356233","0.0-61.0-2.11","759","679","10","Female","true","false","true","true","""event"",""trial"",""time""
""fullscreenenter"",""5"",""19639""
","
","
","""event"",""trial"",""time""
""fullscreenenter"",""5"",""19639""
","
","","images/earth.jpg","","","","","","","","","","","","","","fixation","","","","","",""
"d3-animate-choice","97","358618","0.0-61.0-0.12","759","679","10","Female","true","false","true","true","""event"",""trial"",""time""
""fullscreenenter"",""5"",""19639""
","
","
","""event"",""trial"",""time""
""fullscreenenter"",""5"",""19639""
","
","381","","48","","","3000","1","","","images/earth.jpg","images/tutrocket1","images/tutrocket2","null","images/tutrocket1","","1","practice","null","2","","",""
"d3-animate-choice","98","361201","0.0-61.0-1.12","759","679","10","Female","true","false","true","true","""event"",""trial"",""time""
""fullscreenenter"",""5"",""19639""
","
","
","""event"",""trial"",""time""
""fullscreenenter"",""5"",""19639""
","
","580","","48","","","3000","1","","","images/tutyellowplanet.jpg","images/tutalien4","images/tutalien3","images/tutrocket1","images/tutalien4","images/t.png","2","practice","true","2","common","1","2022-02-10 22:16:01.104"
"two-step-fixation","99","362203","0.0-61.0-2.12","759","679","10","Female","true","false","true","true","""event"",""trial"",""time""
""fullscreenenter"",""5"",""19639""
","
","
","""event"",""trial"",""time""
""fullscreenenter"",""5"",""19639""
","
","","images/earth.jpg","","","","","","","","","","","","","","fixation","","","","","",""
"d3-animate-choice","100","364588","0.0-61.0-0.13","759","679","10","Female","true","false","true","true","""event"",""trial"",""time""
""fullscreenenter"",""5"",""19639""
","
","
","""event"",""trial"",""time""
""fullscreenenter"",""5"",""19639""
","
","379","","48","","","3000","1","","","images/earth.jpg","images/tutrocket1","images/tutrocket2","null","images/tutrocket1","","1","practice","null","2","","",""
"d3-animate-choice","101","367123","0.0-61.0-1.13","759","679","10","Female","true","false","true","true","""event"",""trial"",""time""
""fullscreenenter"",""5"",""19639""
","
","
","""event"",""trial"",""time""
""fullscreenenter"",""5"",""19639""
","
","529","","49","","","3000","1","","","images/tutyellowplanet.jpg","images/tutalien4","images/tutalien3","images/tutrocket1","images/tutalien3","images/t.png","2","practice","true","1","common","1","2022-02-10 22:16:07.026"
"two-step-fixation","102","368124","0.0-61.0-2.13","759","679","10","Female","true","false","true","true","""event"",""trial"",""time""
""fullscreenenter"",""5"",""19639""
","
","
","""event"",""trial"",""time""
""fullscreenenter"",""5"",""19639""
","
","","images/earth.jpg","","","","","","","","","","","","","","fixation","","","","","",""
"d3-animate-choice","103","371058","0.0-61.0-0.14","759","679","10","Female","true","false","true","true","""event"",""trial"",""time""
""fullscreenenter"",""5"",""19639""
","
","
","""event"",""trial"",""time""
""fullscreenenter"",""5"",""19639""
","
","930","","48","","","3000","1","","","images/earth.jpg","images/tutrocket1","images/tutrocket2","null","images/tutrocket1","","1","practice","null","2","","",""
"d3-animate-choice","104","374210","0.0-61.0-1.14","759","679","10","Female","true","false","true","true","""event"",""trial"",""time""
""fullscreenenter"",""5"",""19639""
","
","
","""event"",""trial"",""time""
""fullscreenenter"",""5"",""19639""
","
","1147","","48","","","3000","1","","","images/tutyellowplanet.jpg","images/tutalien4","images/tutalien3","images/tutrocket1","images/tutalien4","images/t.png","2","practice","true","2","common","1","2022-02-10 22:16:14.113"
"two-step-fixation","105","375212","0.0-61.0-2.14","759","679","10","Female","true","false","true","true","""event"",""trial"",""time""
""fullscreenenter"",""5"",""19639""
","
","
","""event"",""trial"",""time""
""fullscreenenter"",""5"",""19639""
","
","","images/earth.jpg","","","","","","","","","","","","","","fixation","","","","","",""
"d3-animate-choice","106","377977","0.0-61.0-0.15","759","679","10","Female","true","false","true","true","""event"",""trial"",""time""
""fullscreenenter"",""5"",""19639""
","
","
","""event"",""trial"",""time""
""fullscreenenter"",""5"",""19639""
","
","762","","48","","","3000","1","","","images/earth.jpg","images/tutrocket1","images/tutrocket2","null","images/tutrocket1","","1","practice","null","2","","",""
"d3-animate-choice","107","380474","0.0-61.0-1.15","759","679","10","Female","true","false","true","true","""event"",""trial"",""time""
""fullscreenenter"",""5"",""19639""
","
","
","""event"",""trial"",""time""
""fullscreenenter"",""5"",""19639""
","
","492","","49","","","3000","1","","","images/tutyellowplanet.jpg","images/tutalien4","images/tutalien3","images/tutrocket1","images/tutalien3","images/nothing.png","2","practice","true","1","common","0","2022-02-10 22:16:20.377"
"two-step-fixation","108","381478","0.0-61.0-2.15","759","679","10","Female","true","false","true","true","""event"",""trial"",""time""
""fullscreenenter"",""5"",""19639""
","
","
","""event"",""trial"",""time""
""fullscreenenter"",""5"",""19639""
","
","","images/earth.jpg","","","","","","","","","","","","","","fixation","","","","","",""
"d3-animate-choice","109","383853","0.0-61.0-0.16","759","679","10","Female","true","false","true","true","""event"",""trial"",""time""
""fullscreenenter"",""5"",""19639""
","
","
","""event"",""trial"",""time""
""fullscreenenter"",""5"",""19639""
","
","368","","48","","","3000","1","","","images/earth.jpg","images/tutrocket1","images/tutrocket2","null","images/tutrocket1","","1","practice","null","2","","",""
"d3-animate-choice","110","386186","0.0-61.0-1.16","759","679","10","Female","true","false","true","true","""event"",""trial"",""time""
""fullscreenenter"",""5"",""19639""
","
","
","""event"",""trial"",""time""
""fullscreenenter"",""5"",""19639""
","
","329","","48","","","3000","1","","","images/tutyellowplanet.jpg","images/tutalien4","images/tutalien3","images/tutrocket1","images/tutalien4","images/t.png","2","practice","true","2","common","1","2022-02-10 22:16:26.089"
"two-step-fixation","111","387187","0.0-61.0-2.16","759","679","10","Female","true","false","true","true","""event"",""trial"",""time""
""fullscreenenter"",""5"",""19639""
","
","
","""event"",""trial"",""time""
""fullscreenenter"",""5"",""19639""
","
","","images/earth.jpg","","","","","","","","","","","","","","fixation","","","","","",""
"d3-animate-choice","112","389640","0.0-61.0-0.17","759","679","10","Female","true","false","true","true","""event"",""trial"",""time""
""fullscreenenter"",""5"",""19639""
","
","
","""event"",""trial"",""time""
""fullscreenenter"",""5"",""19639""
","
","450","","48","","","3000","1","","","images/earth.jpg","images/tutrocket1","images/tutrocket2","null","images/tutrocket1","","1","practice","null","2","","",""
"d3-animate-choice","113","392008","0.0-61.0-1.17","759","679","10","Female","true","false","true","true","""event"",""trial"",""time""
""fullscreenenter"",""5"",""19639""
","
","
","""event"",""trial"",""time""
""fullscreenenter"",""5"",""19639""
","
","365","","48","","","3000","1","","","images/tutyellowplanet.jpg","images/tutalien4","images/tutalien3","images/tutrocket1","images/tutalien4","images/nothing.png","2","practice","true","2","common","0","2022-02-10 22:16:31.911"
"two-step-fixation","114","393010","0.0-61.0-2.17","759","679","10","Female","true","false","true","true","""event"",""trial"",""time""
""fullscreenenter"",""5"",""19639""
","
","
","""event"",""trial"",""time""
""fullscreenenter"",""5"",""19639""
","
","","images/earth.jpg","","","","","","","","","","","","","","fixation","","","","","",""
"d3-animate-choice","115","395451","0.0-61.0-0.18","759","679","10","Female","true","false","true","true","""event"",""trial"",""time""
""fullscreenenter"",""5"",""19639""
","
","
","""event"",""trial"",""time""
""fullscreenenter"",""5"",""19639""
","
","436","","49","","","3000","1","","","images/earth.jpg","images/tutrocket1","images/tutrocket2","null","images/tutrocket2","","1","practice","null","1","","",""
"d3-animate-choice","116","398249","0.0-61.0-1.18","759","679","10","Female","true","false","true","true","""event"",""trial"",""time""
""fullscreenenter"",""5"",""19639""
","
","
","""event"",""trial"",""time""
""fullscreenenter"",""5"",""19639""
","
","795","","49","","","3000","1","","","images/tutyellowplanet.jpg","images/tutalien4","images/tutalien3","images/tutrocket2","images/tutalien3","images/nothing.png","2","practice","false","1","rare","0","2022-02-10 22:16:38.153"
"two-step-fixation","117","399251","0.0-61.0-2.18","759","679","10","Female","true","false","true","true","""event"",""trial"",""time""
""fullscreenenter"",""5"",""19639""
","
","
","""event"",""trial"",""time""
""fullscreenenter"",""5"",""19639""
","
","","images/earth.jpg","","","","","","","","","","","","","","fixation","","","","","",""
"d3-animate-choice","118","401932","0.0-61.0-0.19","759","679","10","Female","true","false","true","true","""event"",""trial"",""time""
""fullscreenenter"",""5"",""19639""
","
","
","""event"",""trial"",""time""
""fullscreenenter"",""5"",""19639""
","
","675","","48","","","3000","1","","","images/earth.jpg","images/tutrocket1","images/tutrocket2","null","images/tutrocket1","","1","practice","null","2","","",""
"d3-animate-choice","119","404449","0.0-61.0-1.19","759","679","10","Female","true","false","true","true","""event"",""trial"",""time""
""fullscreenenter"",""5"",""19639""
","
","
","""event"",""trial"",""time""
""fullscreenenter"",""5"",""19639""
","
","513","","48","","","3000","1","","","images/tutyellowplanet.jpg","images/tutalien4","images/tutalien3","images/tutrocket1","images/tutalien4","images/nothing.png","2","practice","true","2","common","0","2022-02-10 22:16:44.352"
"two-step-fixation","120","405453","0.0-61.0-2.19","759","679","10","Female","true","false","true","true","""event"",""trial"",""time""
""fullscreenenter"",""5"",""19639""
","
","
","""event"",""trial"",""time""
""fullscreenenter"",""5"",""19639""
","
","","images/earth.jpg","","","","","","","","","","","","","","fixation","","","","","",""
"d3-instructions","121","412720","0.0-62.0","759","679","10","Female","true","false","true","true","""event"",""trial"",""time""
""fullscreenenter"",""5"",""19639""
","
","
","""event"",""trial"",""time""
""fullscreenenter"",""5"",""19639""
","
","","","","","","","","","","","","","","","","","","","","","",""
"audio-keyboard-response","122","417808","0.0-63.0","759","679","10","Female","true","false","true","true","""event"",""trial"",""time""
""fullscreenenter"",""5"",""19639""
","
","
","""event"",""trial"",""time""
""fullscreenenter"",""5"",""19639""
","
","5088","audio/instructions/treasure_feedback.wav","32","","","","","","","","","","","","","","","","","","",""
"d3-instructions","123","438624","0.0-64.0","759","679","10","Female","true","false","true","true","""event"",""trial"",""time""
""fullscreenenter"",""5"",""19639""
","
","
","""event"",""trial"",""time""
""fullscreenenter"",""5"",""19639""
","
","","","","","","","","","","","","","","","","","","","","","",""
"d3-instructions","124","453136","0.0-65.0","759","679","10","Female","true","false","true","true","""event"",""trial"",""time""
""fullscreenenter"",""5"",""19639""
","
","
","""event"",""trial"",""time""
""fullscreenenter"",""5"",""19639""
","
","","","","","","","","","","","","","","","","","","","","","",""
"d3-instructions","125","477696","0.0-66.0","759","679","10","Female","true","false","true","true","""event"",""trial"",""time""
""fullscreenenter"",""5"",""19639""
","
","
","""event"",""trial"",""time""
""fullscreenenter"",""5"",""19639""
","
","","","","","","","","","","","","","","","","","","","","","",""
"d3-instructions","126","490336","0.0-67.0","759","679","10","Female","true","false","true","true","""event"",""trial"",""time""
""fullscreenenter"",""5"",""19639""
","
","
","""event"",""trial"",""time""
""fullscreenenter"",""5"",""19639""
","
","","","","","","","","","","","","","","","","","","","","","",""
"d3-instructions","127","494968","0.0-68.0","759","679","10","Female","true","false","true","true","""event"",""trial"",""time""
""fullscreenenter"",""5"",""19639""
","
","
","""event"",""trial"",""time""
""fullscreenenter"",""5"",""19639""
","
","","","","","","","","","","","","","","","","","","","","","",""
"instructions-quiz","128","499681","0.0-69.0","759","679","10","Female","true","false","true","true","""event"",""trial"",""time""
""fullscreenenter"",""5"",""19639""
","
","
","""event"",""trial"",""time""
""fullscreenenter"",""5"",""19639""
","
","4713","audio/quiz/Q1_Prompt.wav","","1","","","","","","","","","","","","","","","","","",""
"audio-keyboard-response","129","500863","0.0-70.0","759","679","10","Female","true","false","true","true","""event"",""trial"",""time""
""fullscreenenter"",""5"",""19639""
","
","
","""event"",""trial"",""time""
""fullscreenenter"",""5"",""19639""
","
","1184","audio/quiz/Q1_Correct.wav","32","","","","","","","","","","","","","","","","","","",""
"instructions-quiz","130","503855","0.0-71.0","759","679","10","Female","true","false","true","true","""event"",""trial"",""time""
""fullscreenenter"",""5"",""19639""
","
","
","""event"",""trial"",""time""
""fullscreenenter"",""5"",""19639""
","
","2991","audio/quiz/Q2_Prompt.wav","","0","","","","","","","","","","","","","","","","","",""
"audio-keyboard-response","131","503976","0.0-72.0","759","679","10","Female","true","false","true","true","""event"",""trial"",""time""
""fullscreenenter"",""5"",""19639""
","
","
","""event"",""trial"",""time""
""fullscreenenter"",""5"",""19639""
","
","122","audio/quiz/Q2_Correct.wav","32","","","","","","","","","","","","","","","","","","",""
"instructions-quiz","132","507331","0.0-73.0","759","679","10","Female","true","false","true","true","""event"",""trial"",""time""
""fullscreenenter"",""5"",""19639""
","
","
","""event"",""trial"",""time""
""fullscreenenter"",""5"",""19639""
","
","3356","audio/quiz/Q3_Prompt.wav","","1","","","","","","","","","","","","","","","","","",""
"audio-keyboard-response","133","507416","0.0-74.0","759","679","10","Female","true","false","true","true","""event"",""trial"",""time""
""fullscreenenter"",""5"",""19639""
","
","
","""event"",""trial"",""time""
""fullscreenenter"",""5"",""19639""
","
","84","audio/quiz/Q3_Correct.wav","32","","","","","","","","","","","","","","","","","","",""
"d3-instructions","134","510792","0.0-75.0","759","679","10","Female","true","false","true","true","""event"",""trial"",""time""
""fullscreenenter"",""5"",""19639""
","
","
","""event"",""trial"",""time""
""fullscreenenter"",""5"",""19639""
","
","","","","","","","","","","","","","","","","","","","","","",""
"d3-animate-choice","135","514349","0.0-76.0-0.0","759","679","10","Female","true","false","true","true","""event"",""trial"",""time""
""fullscreenenter"",""5"",""19639""
","
","
","""event"",""trial"",""time""
""fullscreenenter"",""5"",""19639""
","
","1550","","49","","","3000","1","","","images/earth.jpg","images/rocket2","images/rocket1","null","images/rocket1","","1","real","null","1","","",""
"d3-animate-choice","136","517643","0.0-76.0-1.0","759","679","10","Female","true","false","true","true","""event"",""trial"",""time""
""fullscreenenter"",""5"",""19639""
","
","
","""event"",""trial"",""time""
""fullscreenenter"",""5"",""19639""
","
","1290","","48","","","3000","1","","","images/redplanet1.jpg","images/alien2","images/alien1","images/rocket1","images/alien2","images/nothing.png","2","real","false","2","rare","0","2022-02-10 22:18:37.546"
"two-step-fixation","137","518644","0.0-76.0-2.0","759","679","10","Female","true","false","true","true","""event"",""trial"",""time""
""fullscreenenter"",""5"",""19639""
","
","
","""event"",""trial"",""time""
""fullscreenenter"",""5"",""19639""
","
","","images/earth.jpg","","","","","","","","","","","","","","fixation","","","","","",""
"d3-animate-choice","138","521178","0.0-76.0-0.1","759","679","10","Female","true","false","true","true","""event"",""trial"",""time""
""fullscreenenter"",""5"",""19639""
","
","
","""event"",""trial"",""time""
""fullscreenenter"",""5"",""19639""
","
","530","","48","","","3000","1","","","images/earth.jpg","images/rocket2","images/rocket1","null","images/rocket2","","1","real","null","2","","",""
"d3-animate-choice","139","524025","0.0-76.0-1.1","759","679","10","Female","true","false","true","true","""event"",""trial"",""time""
""fullscreenenter"",""5"",""19639""
","
","
","""event"",""trial"",""time""
""fullscreenenter"",""5"",""19639""
","
","843","","49","","","3000","1","","","images/purpleplanet.jpg","images/alien4","images/alien3","images/rocket2","images/alien3","images/t.png","2","real","false","1","rare","1","2022-02-10 22:18:43.928"
"two-step-fixation","140","525030","0.0-76.0-2.1","759","679","10","Female","true","false","true","true","""event"",""trial"",""time""
""fullscreenenter"",""5"",""19639""
","
","
","""event"",""trial"",""time""
""fullscreenenter"",""5"",""19639""
","
","","images/earth.jpg","","","","","","","","","","","","","","fixation","","","","","",""
"d3-animate-choice","141","527424","0.0-76.0-0.2","759","679","10","Female","true","false","true","true","""event"",""trial"",""time""
""fullscreenenter"",""5"",""19639""
","
","
","""event"",""trial"",""time""
""fullscreenenter"",""5"",""19639""
","
","392","","48","","","3000","1","","","images/earth.jpg","images/rocket2","images/rocket1","null","images/rocket2","","1","real","null","2","","",""
"d3-animate-choice","142","530588","0.0-76.0-1.2","759","679","10","Female","true","false","true","true","""event"",""trial"",""time""
""fullscreenenter"",""5"",""19639""
","
","
","""event"",""trial"",""time""
""fullscreenenter"",""5"",""19639""
","
","1158","","49","","","3000","1","","","images/redplanet1.jpg","images/alien2","images/alien1","images/rocket2","images/alien1","images/nothing.png","2","real","true","1","common","0","2022-02-10 22:18:50.491"
"two-step-fixation","143","531592","0.0-76.0-2.2","759","679","10","Female","true","false","true","true","""event"",""trial"",""time""
""fullscreenenter"",""5"",""19639""
","
","
","""event"",""trial"",""time""
""fullscreenenter"",""5"",""19639""
","
","","images/earth.jpg","","","","","","","","","","","","","","fixation","","","","","",""
"d3-animate-choice","144","534228","0.0-76.0-0.3","759","679","10","Female","true","false","true","true","""event"",""trial"",""time""
""fullscreenenter"",""5"",""19639""
","
","
","""event"",""trial"",""time""
""fullscreenenter"",""5"",""19639""
","
","631","","49","","","3000","1","","","images/earth.jpg","images/rocket2","images/rocket1","null","images/rocket1","","1","real","null","1","","",""
"d3-animate-choice","145","538236","0.0-76.0-1.3","759","679","10","Female","true","false","true","true","""event"",""trial"",""time""
""fullscreenenter"",""5"",""19639""
","
","
","""event"",""trial"",""time""
""fullscreenenter"",""5"",""19639""
","
","2298","","49","","","3000","1","","","images/purpleplanet.jpg","images/alien4","images/alien3","images/rocket1","images/alien3","images/nothing.png","2","real","true","1","common","0","2022-02-10 22:18:58.139"
"two-step-fixation","146","539237","0.0-76.0-2.3","759","679","10","Female","true","false","true","true","""event"",""trial"",""time""
""fullscreenenter"",""5"",""19639""
","
","
","""event"",""trial"",""time""
""fullscreenenter"",""5"",""19639""
","
","","images/earth.jpg","","","","","","","","","","","","","","fixation","","","","","",""
"d3-animate-choice","147","541785","0.0-76.0-0.4","759","679","10","Female","true","false","true","true","""event"",""trial"",""time""
""fullscreenenter"",""5"",""19639""
","
","
","""event"",""trial"",""time""
""fullscreenenter"",""5"",""19639""
","
","544","","48","","","3000","1","","","images/earth.jpg","images/rocket2","images/rocket1","null","images/rocket2","","1","real","null","2","","",""
"d3-animate-choice","148","544418","0.0-76.0-1.4","759","679","10","Female","true","false","true","true","""event"",""trial"",""time""
""fullscreenenter"",""5"",""19639""
","
","
","""event"",""trial"",""time""
""fullscreenenter"",""5"",""19639""
","
","628","","49","","","3000","1","","","images/purpleplanet.jpg","images/alien4","images/alien3","images/rocket2","images/alien3","images/t.png","2","real","false","1","rare","1","2022-02-10 22:19:04.321"
"two-step-fixation","149","545420","0.0-76.0-2.4","759","679","10","Female","true","false","true","true","""event"",""trial"",""time""
""fullscreenenter"",""5"",""19639""
","
","
","""event"",""trial"",""time""
""fullscreenenter"",""5"",""19639""
","
","","images/earth.jpg","","","","","","","","","","","","","","fixation","","","","","",""
"d3-animate-choice","150","548099","0.0-76.0-0.5","759","679","10","Female","true","false","true","true","""event"",""trial"",""time""
""fullscreenenter"",""5"",""19639""
","
","
","""event"",""trial"",""time""
""fullscreenenter"",""5"",""19639""
","
","673","","49","","","3000","1","","","images/earth.jpg","images/rocket2","images/rocket1","null","images/rocket1","","1","real","null","1","","",""
"d3-animate-choice","151","551099","0.0-76.0-1.5","759","679","10","Female","true","false","true","true","""event"",""trial"",""time""
""fullscreenenter"",""5"",""19639""
","
","
","""event"",""trial"",""time""
""fullscreenenter"",""5"",""19639""
","
","995","","48","","","3000","1","","","images/purpleplanet.jpg","images/alien4","images/alien3","images/rocket1","images/alien4","images/nothing.png","2","real","true","2","common","0","2022-02-10 22:19:11.002"
"two-step-fixation","152","552101","0.0-76.0-2.5","759","679","10","Female","true","false","true","true","""event"",""trial"",""time""
""fullscreenenter"",""5"",""19639""
","
","
","""event"",""trial"",""time""
""fullscreenenter"",""5"",""19639""
","
","","images/earth.jpg","","","","","","","","","","","","","","fixation","","","","","",""
"d3-animate-choice","153","554913","0.0-76.0-0.6","759","679","10","Female","true","false","true","true","""event"",""trial"",""time""
""fullscreenenter"",""5"",""19639""
","
","
","""event"",""trial"",""time""
""fullscreenenter"",""5"",""19639""
","
","809","","48","","","3000","1","","","images/earth.jpg","images/rocket2","images/rocket1","null","images/rocket2","","1","real","null","2","","",""
"d3-animate-choice","154","557370","0.0-76.0-1.6","759","679","10","Female","true","false","true","true","""event"",""trial"",""time""
""fullscreenenter"",""5"",""19639""
","
","
","""event"",""trial"",""time""
""fullscreenenter"",""5"",""19639""
","
","453","","49","","","3000","1","","","images/purpleplanet.jpg","images/alien4","images/alien3","images/rocket2","images/alien3","images/nothing.png","2","real","false","1","rare","0","2022-02-10 22:19:17.273"
"two-step-fixation","155","558374","0.0-76.0-2.6","759","679","10","Female","true","false","true","true","""event"",""trial"",""time""
""fullscreenenter"",""5"",""19639""
","
","
","""event"",""trial"",""time""
""fullscreenenter"",""5"",""19639""
","
","","images/earth.jpg","","","","","","","","","","","","","","fixation","","","","","",""
"d3-animate-choice","156","561348","0.0-76.0-0.7","759","679","10","Female","true","false","true","true","""event"",""trial"",""time""
""fullscreenenter"",""5"",""19639""
","
","
","""event"",""trial"",""time""
""fullscreenenter"",""5"",""19639""
","
","969","","49","","","3000","1","","","images/earth.jpg","images/rocket2","images/rocket1","null","images/rocket1","","1","real","null","1","","",""
"d3-animate-choice","157","563957","0.0-76.0-1.7","759","679","10","Female","true","false","true","true","""event"",""trial"",""time""
""fullscreenenter"",""5"",""19639""
","
","
","""event"",""trial"",""time""
""fullscreenenter"",""5"",""19639""
","
","602","","49","","","3000","1","","","images/redplanet1.jpg","images/alien2","images/alien1","images/rocket1","images/alien1","images/t.png","2","real","false","1","rare","1","2022-02-10 22:19:23.860"
"two-step-fixation","158","564963","0.0-76.0-2.7","759","679","10","Female","true","false","true","true","""event"",""trial"",""time""
""fullscreenenter"",""5"",""19639""
","
","
","""event"",""trial"",""time""
""fullscreenenter"",""5"",""19639""
","
","","images/earth.jpg","","","","","","","","","","","","","","fixation","","","","","",""
"d3-animate-choice","159","567336","0.0-76.0-0.8","759","679","10","Female","true","false","true","true","""event"",""trial"",""time""
""fullscreenenter"",""5"",""19639""
","
","
","""event"",""trial"",""time""
""fullscreenenter"",""5"",""19639""
","
","372","","49","","","3000","1","","","images/earth.jpg","images/rocket2","images/rocket1","null","images/rocket1","","1","real","null","1","","",""
"d3-animate-choice","160","570257","0.0-76.0-1.8","759","679","10","Female","true","false","true","true","""event"",""trial"",""time""
""fullscreenenter"",""5"",""19639""
","
","
","""event"",""trial"",""time""
""fullscreenenter"",""5"",""19639""
","
","917","","49","","","3000","1","","","images/purpleplanet.jpg","images/alien4","images/alien3","images/rocket1","images/alien3","images/nothing.png","2","real","true","1","common","0","2022-02-10 22:19:30.160"
"two-step-fixation","161","571258","0.0-76.0-2.8","759","679","10","Female","true","false","true","true","""event"",""trial"",""time""
""fullscreenenter"",""5"",""19639""
","
","
","""event"",""trial"",""time""
""fullscreenenter"",""5"",""19639""
","
","","images/earth.jpg","","","","","","","","","","","","","","fixation","","","","","",""
"d3-animate-choice","162","573867","0.0-76.0-0.9","759","679","10","Female","true","false","true","true","""event"",""trial"",""time""
""fullscreenenter"",""5"",""19639""
","
","
","""event"",""trial"",""time""
""fullscreenenter"",""5"",""19639""
","
","604","","49","","","3000","1","","","images/earth.jpg","images/rocket2","images/rocket1","null","images/rocket1","","1","real","null","1","","",""
"d3-animate-choice","163","577704","0.0-76.0-1.9","759","679","10","Female","true","false","true","true","""event"",""trial"",""time""
""fullscreenenter"",""5"",""19639""
","
","
","""event"",""trial"",""time""
""fullscreenenter"",""5"",""19639""
","
","1836","","49","","","3000","1","","","images/purpleplanet.jpg","images/alien4","images/alien3","images/rocket1","images/alien3","images/nothing.png","2","real","true","1","common","0","2022-02-10 22:19:37.607"
"two-step-fixation","164","578706","0.0-76.0-2.9","759","679","10","Female","true","false","true","true","""event"",""trial"",""time""
""fullscreenenter"",""5"",""19639""
","
","
","""event"",""trial"",""time""
""fullscreenenter"",""5"",""19639""
","
","","images/earth.jpg","","","","","","","","","","","","","","fixation","","","","","",""
"d3-animate-choice","165","581411","0.0-76.0-0.10","759","679","10","Female","true","false","true","true","""event"",""trial"",""time""
""fullscreenenter"",""5"",""19639""
","
","
","""event"",""trial"",""time""
""fullscreenenter"",""5"",""19639""
","
","701","","49","","","3000","1","","","images/earth.jpg","images/rocket2","images/rocket1","null","images/rocket1","","1","real","null","1","","",""
"d3-animate-choice","166","583808","0.0-76.0-1.10","759","679","10","Female","true","false","true","true","""event"",""trial"",""time""
""fullscreenenter"",""5"",""19639""
","
","
","""event"",""trial"",""time""
""fullscreenenter"",""5"",""19639""
","
","395","","48","","","3000","1","","","images/purpleplanet.jpg","images/alien4","images/alien3","images/rocket1","images/alien4","images/t.png","2","real","true","2","common","1","2022-02-10 22:19:43.711"
"two-step-fixation","167","584812","0.0-76.0-2.10","759","679","10","Female","true","false","true","true","""event"",""trial"",""time""
""fullscreenenter"",""5"",""19639""
","
","
","""event"",""trial"",""time""
""fullscreenenter"",""5"",""19639""
","
","","images/earth.jpg","","","","","","","","","","","","","","fixation","","","","","",""
"d3-animate-choice","168","587195","0.0-76.0-0.11","759","679","10","Female","true","false","true","true","""event"",""trial"",""time""
""fullscreenenter"",""5"",""19639""
","
","
","""event"",""trial"",""time""
""fullscreenenter"",""5"",""19639""
","
","377","","49","","","3000","1","","","images/earth.jpg","images/rocket2","images/rocket1","null","images/rocket1","","1","real","null","1","","",""
"d3-animate-choice","169","589610","0.0-76.0-1.11","759","679","10","Female","true","false","true","true","""event"",""trial"",""time""
""fullscreenenter"",""5"",""19639""
","
","
","""event"",""trial"",""time""
""fullscreenenter"",""5"",""19639""
","
","411","","48","","","3000","1","","","images/purpleplanet.jpg","images/alien4","images/alien3","images/rocket1","images/alien4","images/nothing.png","2","real","true","2","common","0","2022-02-10 22:19:49.513"
"two-step-fixation","170","590615","0.0-76.0-2.11","759","679","10","Female","true","false","true","true","""event"",""trial"",""time""
""fullscreenenter"",""5"",""19639""
","
","
","""event"",""trial"",""time""
""fullscreenenter"",""5"",""19639""
","
","","images/earth.jpg","","","","","","","","","","","","","","fixation","","","","","",""
"d3-animate-choice","171","593128","0.0-76.0-0.12","759","679","10","Female","true","false","true","true","""event"",""trial"",""time""
""fullscreenenter"",""5"",""19639""
","
","
","""event"",""trial"",""time""
""fullscreenenter"",""5"",""19639""
","
","513","","49","","","3000","1","","","images/earth.jpg","images/rocket2","images/rocket1","null","images/rocket1","","1","real","null","1","","",""
"d3-animate-choice","172","595482","0.0-76.0-1.12","759","679","10","Female","true","false","true","true","""event"",""trial"",""time""
""fullscreenenter"",""5"",""19639""
","
","
","""event"",""trial"",""time""
""fullscreenenter"",""5"",""19639""
","
","351","","48","","","3000","1","","","images/purpleplanet.jpg","images/alien4","images/alien3","images/rocket1","images/alien4","images/t.png","2","real","true","2","common","1","2022-02-10 22:19:55.385"
"two-step-fixation","173","596483","0.0-76.0-2.12","759","679","10","Female","true","false","true","true","""event"",""trial"",""time""
""fullscreenenter"",""5"",""19639""
","
","
","""event"",""trial"",""time""
""fullscreenenter"",""5"",""19639""
","
","","images/earth.jpg","","","","","","","","","","","","","","fixation","","","","","",""
"d3-animate-choice","174","598907","0.0-76.0-0.13","759","679","10","Female","true","false","true","true","""event"",""trial"",""time""
""fullscreenenter"",""5"",""19639""
","
","
","""event"",""trial"",""time""
""fullscreenenter"",""5"",""19639""
","
","418","","49","","","3000","1","","","images/earth.jpg","images/rocket2","images/rocket1","null","images/rocket1","","1","real","null","1","","",""
"d3-animate-choice","175","601251","0.0-76.0-1.13","759","679","10","Female","true","false","true","true","""event"",""trial"",""time""
""fullscreenenter"",""5"",""19639""
","
","
","""event"",""trial"",""time""
""fullscreenenter"",""5"",""19639""
","
","339","","48","","","3000","1","","","images/purpleplanet.jpg","images/alien4","images/alien3","images/rocket1","images/alien4","images/nothing.png","2","real","true","2","common","0","2022-02-10 22:20:01.154"
"two-step-fixation","176","602253","0.0-76.0-2.13","759","679","10","Female","true","false","true","true","""event"",""trial"",""time""
""fullscreenenter"",""5"",""19639""
","
","
","""event"",""trial"",""time""
""fullscreenenter"",""5"",""19639""
","
","","images/earth.jpg","","","","","","","","","","","","","","fixation","","","","","",""
"d3-animate-choice","177","604587","0.0-76.0-0.14","759","679","10","Female","true","false","true","true","""event"",""trial"",""time""
""fullscreenenter"",""5"",""19639""
","
","
","""event"",""trial"",""time""
""fullscreenenter"",""5"",""19639""
","
","328","","49","","","3000","1","","","images/earth.jpg","images/rocket2","images/rocket1","null","images/rocket1","","1","real","null","1","","",""
"d3-animate-choice","178","607219","0.0-76.0-1.14","759","679","10","Female","true","false","true","true","""event"",""trial"",""time""
""fullscreenenter"",""5"",""19639""
","
","
","""event"",""trial"",""time""
""fullscreenenter"",""5"",""19639""
","
","627","","49","","","3000","1","","","images/purpleplanet.jpg","images/alien4","images/alien3","images/rocket1","images/alien3","images/nothing.png","2","real","true","1","common","0","2022-02-10 22:20:07.122"
"two-step-fixation","179","608224","0.0-76.0-2.14","759","679","10","Female","true","false","true","true","""event"",""trial"",""time""
""fullscreenenter"",""5"",""19639""
","
","
","""event"",""trial"",""time""
""fullscreenenter"",""5"",""19639""
","
","","images/earth.jpg","","","","","","","","","","","","","","fixation","","","","","",""
"d3-animate-choice","180","610465","0.0-76.0-0.15","759","679","10","Female","true","false","true","true","""event"",""trial"",""time""
""fullscreenenter"",""5"",""19639""
","
","
","""event"",""trial"",""time""
""fullscreenenter"",""5"",""19639""
","
","238","","48","","","3000","1","","","images/earth.jpg","images/rocket2","images/rocket1","null","images/rocket2","","1","real","null","2","","",""
"d3-animate-choice","181","612987","0.0-76.0-1.15","759","679","10","Female","true","false","true","true","""event"",""trial"",""time""
""fullscreenenter"",""5"",""19639""
","
","
","""event"",""trial"",""time""
""fullscreenenter"",""5"",""19639""
","
","518","","49","","","3000","1","","","images/redplanet1.jpg","images/alien2","images/alien1","images/rocket2","images/alien1","images/t.png","2","real","true","1","common","1","2022-02-10 22:20:12.890"
"two-step-fixation","182","613991","0.0-76.0-2.15","759","679","10","Female","true","false","true","true","""event"",""trial"",""time""
""fullscreenenter"",""5"",""19639""
","
","
","""event"",""trial"",""time""
""fullscreenenter"",""5"",""19639""
","
","","images/earth.jpg","","","","","","","","","","","","","","fixation","","","","","",""
"d3-animate-choice","183","616354","0.0-76.0-0.16","759","679","10","Female","true","false","true","true","""event"",""trial"",""time""
""fullscreenenter"",""5"",""19639""
","
","
","""event"",""trial"",""time""
""fullscreenenter"",""5"",""19639""
","
","360","","48","","","3000","1","","","images/earth.jpg","images/rocket2","images/rocket1","null","images/rocket2","","1","real","null","2","","",""
"d3-animate-choice","184","619338","0.0-76.0-1.16","759","679","10","Female","true","false","true","true","""event"",""trial"",""time""
""fullscreenenter"",""5"",""19639""
","
","
","""event"",""trial"",""time""
""fullscreenenter"",""5"",""19639""
","
","980","","49","","","3000","1","","","images/purpleplanet.jpg","images/alien4","images/alien3","images/rocket2","images/alien3","images/nothing.png","2","real","false","1","rare","0","2022-02-10 22:20:19.241"
"two-step-fixation","185","620339","0.0-76.0-2.16","759","679","10","Female","true","false","true","true","""event"",""trial"",""time""
""fullscreenenter"",""5"",""19639""
","
","
","""event"",""trial"",""time""
""fullscreenenter"",""5"",""19639""
","
","","images/earth.jpg","","","","","","","","","","","","","","fixation","","","","","",""
"d3-animate-choice","186","622713","0.0-76.0-0.17","759","679","10","Female","true","false","true","true","""event"",""trial"",""time""
""fullscreenenter"",""5"",""19639""
","
","
","""event"",""trial"",""time""
""fullscreenenter"",""5"",""19639""
","
","370","","48","","","3000","1","","","images/earth.jpg","images/rocket2","images/rocket1","null","images/rocket2","","1","real","null","2","","",""
"d3-animate-choice","187","625834","0.0-76.0-1.17","759","679","10","Female","true","false","true","true","""event"",""trial"",""time""
""fullscreenenter"",""5"",""19639""
","
","
","""event"",""trial"",""time""
""fullscreenenter"",""5"",""19639""
","
","1118","","49","","","3000","1","","","images/purpleplanet.jpg","images/alien4","images/alien3","images/rocket2","images/alien3","images/nothing.png","2","real","false","1","rare","0","2022-02-10 22:20:25.737"
"two-step-fixation","188","626834","0.0-76.0-2.17","759","679","10","Female","true","false","true","true","""event"",""trial"",""time""
""fullscreenenter"",""5"",""19639""
","
","
","""event"",""trial"",""time""
""fullscreenenter"",""5"",""19639""
","
","","images/earth.jpg","","","","","","","","","","","","","","fixation","","","","","",""
"d3-animate-choice","189","629267","0.0-76.0-0.18","759","679","10","Female","true","false","true","true","""event"",""trial"",""time""
""fullscreenenter"",""5"",""19639""
","
","
","""event"",""trial"",""time""
""fullscreenenter"",""5"",""19639""
","
","428","","48","","","3000","1","","","images/earth.jpg","images/rocket2","images/rocket1","null","images/rocket2","","1","real","null","2","","",""
"d3-animate-choice","190","631754","0.0-76.0-1.18","759","679","10","Female","true","false","true","true","""event"",""trial"",""time""
""fullscreenenter"",""5"",""19639""
","
","
","""event"",""trial"",""time""
""fullscreenenter"",""5"",""19639""
","
","482","","49","","","3000","1","","","images/redplanet1.jpg","images/alien2","images/alien1","images/rocket2","images/alien1","images/nothing.png","2","real","true","1","common","0","2022-02-10 22:20:31.657"
"two-step-fixation","191","632759","0.0-76.0-2.18","759","679","10","Female","true","false","true","true","""event"",""trial"",""time""
""fullscreenenter"",""5"",""19639""
","
","
","""event"",""trial"",""time""
""fullscreenenter"",""5"",""19639""
","
","","images/earth.jpg","","","","","","","","","","","","","","fixation","","","","","",""
"d3-animate-choice","192","635385","0.0-76.0-0.19","759","679","10","Female","true","false","true","true","""event"",""trial"",""time""
""fullscreenenter"",""5"",""19639""
","
","
","""event"",""trial"",""time""
""fullscreenenter"",""5"",""19639""
","
","623","","48","","","3000","1","1111,1559,1799,1959,2143,2231,2407,2543","49,48,49,48,49,48,49,48","images/earth.jpg","images/rocket2","images/rocket1","null","images/rocket2","","1","real","null","2","","",""
"d3-animate-choice","193","637405","0.0-76.0-1.19","759","679","10","Female","true","false","true","true","""event"",""trial"",""time""
""fullscreenenter"",""5"",""19639""
","
","
","""event"",""trial"",""time""
""fullscreenenter"",""5"",""19639""
","
","12","","49","","","3000","1","164,278,405,572,709,868,956,1180,1189,1428,1492,1693,1732,1980,2004","48,49,48,49,48,49,48,48,49,48,49,48,49,48,49","images/purpleplanet.jpg","images/alien4","images/alien3","images/rocket2","images/alien3","images/nothing.png","2","real","false","1","rare","0","2022-02-10 22:20:37.308"
"two-step-fixation","194","638406","0.0-76.0-2.19","759","679","10","Female","true","false","true","true","""event"",""trial"",""time""
""fullscreenenter"",""5"",""19639""
","
","
","""event"",""trial"",""time""
""fullscreenenter"",""5"",""19639""
","
","","images/earth.jpg","","","","","","","","","","","","","","fixation","","","","","",""
"d3-animate-choice","195","640513","0.0-76.0-0.20","759","679","10","Female","true","false","true","true","""event"",""trial"",""time""
""fullscreenenter"",""5"",""19639""
","
","
","""event"",""trial"",""time""
""fullscreenenter"",""5"",""19639""
","
","104","","49","","","3000","1","112,384,448,656,720,960,985,1232,1272,1520,1569,1816,1840,2104","48,48,49,48,49,48,49,48,49,48,49,48,49,48","images/earth.jpg","images/rocket2","images/rocket1","null","images/rocket1","","1","real","null","1","","",""
"d3-animate-choice","196","642531","0.0-76.0-1.20","759","679","10","Female","true","false","true","true","""event"",""trial"",""time""
""fullscreenenter"",""5"",""19639""
","
","
","""event"",""trial"",""time""
""fullscreenenter"",""5"",""19639""
","
","15","","49","","","3000","1","286,309,621,630","48,49,48,49","images/purpleplanet.jpg","images/alien4","images/alien3","images/rocket1","images/alien3","images/nothing.png","2","real","true","1","common","0","2022-02-10 22:20:42.434"
"two-step-fixation","197","643536","0.0-76.0-2.20","759","679","10","Female","true","false","true","true","""event"",""trial"",""time""
""fullscreenenter"",""5"",""19639""
","
","
","""event"",""trial"",""time""
""fullscreenenter"",""5"",""19639""
","
","","images/earth.jpg","","","","","","","","","","","","","","fixation","","","","","",""
"d3-animate-choice","198","646114","0.0-76.0-0.21","759","679","10","Female","true","false","true","true","""event"",""trial"",""time""
""fullscreenenter"",""5"",""19639""
","
","
","""event"",""trial"",""time""
""fullscreenenter"",""5"",""19639""
","
","575","","49","","","3000","1","","","images/earth.jpg","images/rocket2","images/rocket1","null","images/rocket1","","1","real","null","1","","",""
"d3-animate-choice","199","648604","0.0-76.0-1.21","759","679","10","Female","true","false","true","true","""event"",""trial"",""time""
""fullscreenenter"",""5"",""19639""
","
","
","""event"",""trial"",""time""
""fullscreenenter"",""5"",""19639""
","
","483","","49","","","3000","1","","","images/purpleplanet.jpg","images/alien4","images/alien3","images/rocket1","images/alien3","images/nothing.png","2","real","true","1","common","0","2022-02-10 22:20:48.507"
"two-step-fixation","200","649604","0.0-76.0-2.21","759","679","10","Female","true","false","true","true","""event"",""trial"",""time""
""fullscreenenter"",""5"",""19639""
","
","
","""event"",""trial"",""time""
""fullscreenenter"",""5"",""19639""
","
","","images/earth.jpg","","","","","","","","","","","","","","fixation","","","","","",""
"d3-animate-choice","201","651937","0.0-76.0-0.22","759","679","10","Female","true","false","true","true","""event"",""trial"",""time""
""fullscreenenter"",""5"",""19639""
","
","
","""event"",""trial"",""time""
""fullscreenenter"",""5"",""19639""
","
","329","","48","","","3000","1","","","images/earth.jpg","images/rocket2","images/rocket1","null","images/rocket2","","1","real","null","2","","",""
"d3-animate-choice","202","654380","0.0-76.0-1.22","759","679","10","Female","true","false","true","true","""event"",""trial"",""time""
""fullscreenenter"",""5"",""19639""
","
","
","""event"",""trial"",""time""
""fullscreenenter"",""5"",""19639""
","
","437","","49","","","3000","1","","","images/redplanet1.jpg","images/alien2","images/alien1","images/rocket2","images/alien1","images/nothing.png","2","real","true","1","common","0","2022-02-10 22:20:54.283"
"two-step-fixation","203","655380","0.0-76.0-2.22","759","679","10","Female","true","false","true","true","""event"",""trial"",""time""
""fullscreenenter"",""5"",""19639""
","
","
","""event"",""trial"",""time""
""fullscreenenter"",""5"",""19639""
","
","","images/earth.jpg","","","","","","","","","","","","","","fixation","","","","","",""
"d3-animate-choice","204","657897","0.0-76.0-0.23","759","679","10","Female","true","false","true","true","""event"",""trial"",""time""
""fullscreenenter"",""5"",""19639""
","
","
","""event"",""trial"",""time""
""fullscreenenter"",""5"",""19639""
","
","513","","48","","","3000","1","","","images/earth.jpg","images/rocket2","images/rocket1","null","images/rocket2","","1","real","null","2","","",""
"d3-animate-choice","205","660489","0.0-76.0-1.23","759","679","10","Female","true","false","true","true","""event"",""trial"",""time""
""fullscreenenter"",""5"",""19639""
","
","
","""event"",""trial"",""time""
""fullscreenenter"",""5"",""19639""
","
","588","","48","","","3000","1","","","images/redplanet1.jpg","images/alien2","images/alien1","images/rocket2","images/alien2","images/t.png","2","real","true","2","common","1","2022-02-10 22:21:00.392"
"two-step-fixation","206","661493","0.0-76.0-2.23","759","679","10","Female","true","false","true","true","""event"",""trial"",""time""
""fullscreenenter"",""5"",""19639""
","
","
","""event"",""trial"",""time""
""fullscreenenter"",""5"",""19639""
","
","","images/earth.jpg","","","","","","","","","","","","","","fixation","","","","","",""
"d3-animate-choice","207","663888","0.0-76.0-0.24","759","679","10","Female","true","false","true","true","""event"",""trial"",""time""
""fullscreenenter"",""5"",""19639""
","
","
","""event"",""trial"",""time""
""fullscreenenter"",""5"",""19639""
","
","392","","48","","","3000","1","","","images/earth.jpg","images/rocket2","images/rocket1","null","images/rocket2","","1","real","null","2","","",""
"d3-animate-choice","208","666619","0.0-76.0-1.24","759","679","10","Female","true","false","true","true","""event"",""trial"",""time""
""fullscreenenter"",""5"",""19639""
","
","
","""event"",""trial"",""time""
""fullscreenenter"",""5"",""19639""
","
","726","","48","","","3000","1","","","images/redplanet1.jpg","images/alien2","images/alien1","images/rocket2","images/alien2","images/t.png","2","real","true","2","common","1","2022-02-10 22:21:06.522"
"two-step-fixation","209","667620","0.0-76.0-2.24","759","679","10","Female","true","false","true","true","""event"",""trial"",""time""
""fullscreenenter"",""5"",""19639""
","
","
","""event"",""trial"",""time""
""fullscreenenter"",""5"",""19639""
","
","","images/earth.jpg","","","","","","","","","","","","","","fixation","","","","","",""
"d3-animate-choice","210","670154","0.0-76.0-0.25","759","679","10","Female","true","false","true","true","""event"",""trial"",""time""
""fullscreenenter"",""5"",""19639""
","
","
","""event"",""trial"",""time""
""fullscreenenter"",""5"",""19639""
","
","530","","49","","","3000","1","","","images/earth.jpg","images/rocket2","images/rocket1","null","images/rocket1","","1","real","null","1","","",""
"d3-animate-choice","211","674163","0.0-76.0-1.25","759","679","10","Female","true","false","true","true","""event"",""trial"",""time""
""fullscreenenter"",""5"",""19639""
","
","
","""event"",""trial"",""time""
""fullscreenenter"",""5"",""19639""
","
","2987","","48","","","3000","1","","","images/purpleplanet.jpg","images/alien4","images/alien3","images/rocket1","images/alien4","","2","real","true","2","common","0","2022-02-10 22:21:14.066"
"two-step-fixation","212","675167","0.0-76.0-2.25","759","679","10","Female","true","false","true","true","""event"",""trial"",""time""
""fullscreenenter"",""5"",""19639""
","
","
","""event"",""trial"",""time""
""fullscreenenter"",""5"",""19639""
","
","","images/earth.jpg","","","","","","","","","","","","","","fixation","","","","","",""
"d3-animate-choice","213","678395","0.0-76.0-0.26","759","679","10","Female","true","false","true","true","""event"",""trial"",""time""
""fullscreenenter"",""5"",""19639""
","
","
","""event"",""trial"",""time""
""fullscreenenter"",""5"",""19639""
","
","1222","","48","","","3000","1","","","images/earth.jpg","images/rocket2","images/rocket1","null","images/rocket2","","1","real","null","2","","",""
"d3-animate-choice","214","681593","0.0-76.0-1.26","759","679","10","Female","true","false","true","true","""event"",""trial"",""time""
""fullscreenenter"",""5"",""19639""
","
","
","""event"",""trial"",""time""
""fullscreenenter"",""5"",""19639""
","
","1195","","48","","","3000","1","2147,2475,2747,3043","48,48,48,48","images/purpleplanet.jpg","images/alien4","images/alien3","images/rocket2","images/alien4","images/t.png","2","real","false","2","rare","1","2022-02-10 22:21:21.496"
"two-step-fixation","215","682596","0.0-76.0-2.26","759","679","10","Female","true","false","true","true","""event"",""trial"",""time""
""fullscreenenter"",""5"",""19639""
","
","
","""event"",""trial"",""time""
""fullscreenenter"",""5"",""19639""
","
","","images/earth.jpg","","","","","","","","","","","","","","fixation","","","","","",""
"d3-animate-choice","216","684825","0.0-76.0-0.27","759","679","10","Female","true","false","true","true","""event"",""trial"",""time""
""fullscreenenter"",""5"",""19639""
","
","
","""event"",""trial"",""time""
""fullscreenenter"",""5"",""19639""
","
","226","","48","","","3000","1","442,666,898,1122,1355,1594,1858,2130","48,48,48,48,48,48,48,48","images/earth.jpg","images/rocket2","images/rocket1","null","images/rocket2","","1","real","null","2","","",""
"d3-animate-choice","217","687013","0.0-76.0-1.27","759","679","10","Female","true","false","true","true","""event"",""trial"",""time""
""fullscreenenter"",""5"",""19639""
","
","
","""event"",""trial"",""time""
""fullscreenenter"",""5"",""19639""
","
","181","","48","","","3000","1","444,732,989,1220,1493,1732,1997","48,48,48,48,48,48,48","images/purpleplanet.jpg","images/alien4","images/alien3","images/rocket2","images/alien4","images/t.png","2","real","false","2","rare","1","2022-02-10 22:21:26.916"
"two-step-fixation","218","688016","0.0-76.0-2.27","759","679","10","Female","true","false","true","true","""event"",""trial"",""time""
""fullscreenenter"",""5"",""19639""
","
","
","""event"",""trial"",""time""
""fullscreenenter"",""5"",""19639""
","
","","images/earth.jpg","","","","","","","","","","","","","","fixation","","","","","",""
"d3-animate-choice","219","690100","0.0-76.0-0.28","759","679","10","Female","true","false","true","true","""event"",""trial"",""time""
""fullscreenenter"",""5"",""19639""
","
","
","""event"",""trial"",""time""
""fullscreenenter"",""5"",""19639""
","
","77","","48","","","3000","1","293,533,805,1293,1517,1733,1981","48,48,48,48,48,48,48","images/earth.jpg","images/rocket2","images/rocket1","null","images/rocket2","","1","real","null","2","","",""
"d3-animate-choice","220","692257","0.0-76.0-1.28","759","679","10","Female","true","false","true","true","""event"",""trial"",""time""
""fullscreenenter"",""5"",""19639""
","
","
","""event"",""trial"",""time""
""fullscreenenter"",""5"",""19639""
","
","153","","48","","","3000","1","433,777,1026,1337,1649,2097","48,48,48,48,48,48","images/purpleplanet.jpg","images/alien4","images/alien3","images/rocket2","images/alien4","images/t.png","2","real","false","2","rare","1","2022-02-10 22:21:32.160"
"two-step-fixation","221","693259","0.0-76.0-2.28","759","679","10","Female","true","false","true","true","""event"",""trial"",""time""
""fullscreenenter"",""5"",""19639""
","
","
","""event"",""trial"",""time""
""fullscreenenter"",""5"",""19639""
","
","","images/earth.jpg","","","","","","","","","","","","","","fixation","","","","","",""
"d3-animate-choice","222","695441","0.0-76.0-0.29","759","679","10","Female","true","false","true","true","""event"",""trial"",""time""
""fullscreenenter"",""5"",""19639""
","
","
","""event"",""trial"",""time""
""fullscreenenter"",""5"",""19639""
","
","180","","48","","","3000","1","484,788,1076,1388,1724,2021","48,48,48,48,48,48","images/earth.jpg","images/rocket2","images/rocket1","null","images/rocket2","","1","real","null","2","","",""
"d3-animate-choice","223","697592","0.0-76.0-1.29","759","679","10","Female","true","false","true","true","""event"",""trial"",""time""
""fullscreenenter"",""5"",""19639""
","
","
","""event"",""trial"",""time""
""fullscreenenter"",""5"",""19639""
","
","148","","48","","","3000","1","428,788,1045,1356,1620,1916","48,48,48,48,48,48","images/purpleplanet.jpg","images/alien4","images/alien3","images/rocket2","images/alien4","images/t.png","2","real","false","2","rare","1","2022-02-10 22:21:37.495"
"two-step-fixation","224","698593","0.0-76.0-2.29","759","679","10","Female","true","false","true","true","""event"",""trial"",""time""
""fullscreenenter"",""5"",""19639""
","
","
","""event"",""trial"",""time""
""fullscreenenter"",""5"",""19639""
","
","","images/earth.jpg","","","","","","","","","","","","","","fixation","","","","","",""
"d3-animate-choice","225","700775","0.0-76.0-0.30","759","679","10","Female","true","false","true","true","""event"",""trial"",""time""
""fullscreenenter"",""5"",""19639""
","
","
","""event"",""trial"",""time""
""fullscreenenter"",""5"",""19639""
","
","181","","48","","","3000","1","533,909,1181,1429,1677,2093","48,48,48,48,48,48","images/earth.jpg","images/rocket2","images/rocket1","null","images/rocket2","","1","real","null","2","","",""
"d3-animate-choice","226","703002","0.0-76.0-1.30","759","679","10","Female","true","false","true","true","""event"",""trial"",""time""
""fullscreenenter"",""5"",""19639""
","
","
","""event"",""trial"",""time""
""fullscreenenter"",""5"",""19639""
","
","222","","48","","","3000","1","598,966,1982","48,48,48","images/redplanet1.jpg","images/alien2","images/alien1","images/rocket2","images/alien2","images/t.png","2","real","true","2","common","1","2022-02-10 22:21:42.905"
"two-step-fixation","227","704003","0.0-76.0-2.30","759","679","10","Female","true","false","true","true","""event"",""trial"",""time""
""fullscreenenter"",""5"",""19639""
","
","
","""event"",""trial"",""time""
""fullscreenenter"",""5"",""19639""
","
","","images/earth.jpg","","","","","","","","","","","","","","fixation","","","","","",""
"d3-animate-choice","228","706177","0.0-76.0-0.31","759","679","10","Female","true","false","true","true","""event"",""trial"",""time""
""fullscreenenter"",""5"",""19639""
","
","
","""event"",""trial"",""time""
""fullscreenenter"",""5"",""19639""
","
","171","","48","","","3000","1","531,867,1203,1523,1860,2139","48,48,48,48,48,48","images/earth.jpg","images/rocket2","images/rocket1","null","images/rocket2","","1","real","null","2","","",""
"d3-animate-choice","229","708458","0.0-76.0-1.31","759","679","10","Female","true","false","true","true","""event"",""trial"",""time""
""fullscreenenter"",""5"",""19639""
","
","
","""event"",""trial"",""time""
""fullscreenenter"",""5"",""19639""
","
","277","","48","","","3000","1","654,965,1293,1605,1965","48,48,48,48,48","images/redplanet1.jpg","images/alien2","images/alien1","images/rocket2","images/alien2","images/t.png","2","real","true","2","common","1","2022-02-10 22:21:48.361"
"two-step-fixation","230","709460","0.0-76.0-2.31","759","679","10","Female","true","false","true","true","""event"",""trial"",""time""
""fullscreenenter"",""5"",""19639""
","
","
","""event"",""trial"",""time""
""fullscreenenter"",""5"",""19639""
","
","","images/earth.jpg","","","","","","","","","","","","","","fixation","","","","","",""
"d3-animate-choice","231","711738","0.0-76.0-0.32","759","679","10","Female","true","false","true","true","""event"",""trial"",""time""
""fullscreenenter"",""5"",""19639""
","
","
","""event"",""trial"",""time""
""fullscreenenter"",""5"",""19639""
","
","275","","48","","","3000","1","620,954,1434,1723,2034","48,48,48,48,48","images/earth.jpg","images/rocket2","images/rocket1","null","images/rocket2","","1","real","null","2","","",""
"d3-animate-choice","232","713937","0.0-76.0-1.32","759","679","10","Female","true","false","true","true","""event"",""trial"",""time""
""fullscreenenter"",""5"",""19639""
","
","
","""event"",""trial"",""time""
""fullscreenenter"",""5"",""19639""
","
","196","","48","","","3000","1","557,892,1244,1677,1964","48,48,48,48,48","images/purpleplanet.jpg","images/alien4","images/alien3","images/rocket2","images/alien4","images/t.png","2","real","false","2","rare","1","2022-02-10 22:21:53.840"
"two-step-fixation","233","714940","0.0-76.0-2.32","759","679","10","Female","true","false","true","true","""event"",""trial"",""time""
""fullscreenenter"",""5"",""19639""
","
","
","""event"",""trial"",""time""
""fullscreenenter"",""5"",""19639""
","
","","images/earth.jpg","","","","","","","","","","","","","","fixation","","","","","",""
"d3-animate-choice","234","717210","0.0-76.0-0.33","759","679","10","Female","true","false","true","true","""event"",""trial"",""time""
""fullscreenenter"",""5"",""19639""
","
","
","""event"",""trial"",""time""
""fullscreenenter"",""5"",""19639""
","
","266","","48","","","3000","1","618,978,1412,1923","48,48,48,48","images/earth.jpg","images/rocket2","images/rocket1","null","images/rocket2","","1","real","null","2","","",""
"d3-animate-choice","235","719233","0.0-76.0-1.33","759","679","10","Female","true","false","true","true","""event"",""trial"",""time""
""fullscreenenter"",""5"",""19639""
","
","
","""event"",""trial"",""time""
""fullscreenenter"",""5"",""19639""
","
","20","","48","","","3000","1","372,779,1164,1548,1892","48,48,48,48,48","images/redplanet1.jpg","images/alien2","images/alien1","images/rocket2","images/alien2","images/t.png","2","real","true","2","common","1","2022-02-10 22:21:59.136"
"two-step-fixation","236","720237","0.0-76.0-2.33","759","679","10","Female","true","false","true","true","""event"",""trial"",""time""
""fullscreenenter"",""5"",""19639""
","
","
","""event"",""trial"",""time""
""fullscreenenter"",""5"",""19639""
","
","","images/earth.jpg","","","","","","","","","","","","","","fixation","","","","","",""
"d3-animate-choice","237","722449","0.0-76.0-0.34","759","679","10","Female","true","false","true","true","""event"",""trial"",""time""
""fullscreenenter"",""5"",""19639""
","
","
","""event"",""trial"",""time""
""fullscreenenter"",""5"",""19639""
","
","209","","48","","","3000","1","625,978,1402","48,48,48","images/earth.jpg","images/rocket2","images/rocket1","null","images/rocket2","","1","real","null","2","","",""
"d3-animate-choice","238","724507","0.0-76.0-1.34","759","679","10","Female","true","false","true","true","""event"",""trial"",""time""
""fullscreenenter"",""5"",""19639""
","
","
","""event"",""trial"",""time""
""fullscreenenter"",""5"",""19639""
","
","54","","48","","","3000","1","470,830,1446,1685","48,48,48,48","images/redplanet1.jpg","images/alien2","images/alien1","images/rocket2","images/alien2","images/nothing.png","2","real","true","2","common","0","2022-02-10 22:22:04.410"
"two-step-fixation","239","725511","0.0-76.0-2.34","759","679","10","Female","true","false","true","true","""event"",""trial"",""time""
""fullscreenenter"",""5"",""19639""
","
","
","""event"",""trial"",""time""
""fullscreenenter"",""5"",""19639""
","
","","images/earth.jpg","","","","","","","","","","","","","","fixation","","","","","",""
"d3-animate-choice","240","727850","0.0-76.0-0.35","759","679","10","Female","true","false","true","true","""event"",""trial"",""time""
""fullscreenenter"",""5"",""19639""
","
","
","""event"",""trial"",""time""
""fullscreenenter"",""5"",""19639""
","
","335","","48","","","3000","1","847,1152,1560,1784,2016,2239","48,48,48,48,48,48","images/earth.jpg","images/rocket2","images/rocket1","null","images/rocket2","","1","real","null","2","","",""
"d3-animate-choice","241","730201","0.0-76.0-1.35","759","679","10","Female","true","false","true","true","""event"",""trial"",""time""
""fullscreenenter"",""5"",""19639""
","
","
","""event"",""trial"",""time""
""fullscreenenter"",""5"",""19639""
","
","347","","48","","","3000","1","787,1235,1891,2123,2331","48,48,48,48,48","images/purpleplanet.jpg","images/alien4","images/alien3","images/rocket2","images/alien4","images/t.png","2","real","false","2","rare","1","2022-02-10 22:22:10.104"
"two-step-fixation","242","731203","0.0-76.0-2.35","759","679","10","Female","true","false","true","true","""event"",""trial"",""time""
""fullscreenenter"",""5"",""19639""
","
","
","""event"",""trial"",""time""
""fullscreenenter"",""5"",""19639""
","
","","images/earth.jpg","","","","","","","","","","","","","","fixation","","","","","",""
"d3-animate-choice","243","733426","0.0-76.0-0.36","759","679","10","Female","true","false","true","true","""event"",""trial"",""time""
""fullscreenenter"",""5"",""19639""
","
","
","""event"",""trial"",""time""
""fullscreenenter"",""5"",""19639""
","
","219","","48","","","3000","1","1292,1524,1739,1979","48,48,48,48","images/earth.jpg","images/rocket2","images/rocket1","null","images/rocket2","","1","real","null","2","","",""
"d3-animate-choice","244","735513","0.0-76.0-1.36","759","679","10","Female","true","false","true","true","""event"",""trial"",""time""
""fullscreenenter"",""5"",""19639""
","
","
","""event"",""trial"",""time""
""fullscreenenter"",""5"",""19639""
","
","84","","48","","","3000","1","492,924,1533,1764,1972","48,48,48,48,48","images/purpleplanet.jpg","images/alien4","images/alien3","images/rocket2","images/alien4","images/t.png","2","real","false","2","rare","1","2022-02-10 22:22:15.416"
"two-step-fixation","245","736517","0.0-76.0-2.36","759","679","10","Female","true","false","true","true","""event"",""trial"",""time""
""fullscreenenter"",""5"",""19639""
","
","
","""event"",""trial"",""time""
""fullscreenenter"",""5"",""19639""
","
","","images/earth.jpg","","","","","","","","","","","","","","fixation","","","","","",""
"d3-animate-choice","246","738883","0.0-76.0-0.37","759","679","10","Female","true","false","true","true","""event"",""trial"",""time""
""fullscreenenter"",""5"",""19639""
","
","
","""event"",""trial"",""time""
""fullscreenenter"",""5"",""19639""
","
","360","","48","","","3000","1","889,1168,1440,1672,1864,2128","48,48,48,48,48,48","images/earth.jpg","images/rocket2","images/rocket1","null","images/rocket2","","1","real","null","2","","",""
"d3-animate-choice","247","740897","0.0-76.0-1.37","759","679","10","Female","true","false","true","true","""event"",""trial"",""time""
""fullscreenenter"",""5"",""19639""
","
","
","""event"",""trial"",""time""
""fullscreenenter"",""5"",""19639""
","
","12","","48","","","3000","1","244,491,731,1036,1339,1595,1860","48,48,48,48,48,48,48","images/purpleplanet.jpg","images/alien4","images/alien3","images/rocket2","images/alien4","images/nothing.png","2","real","false","2","rare","0","2022-02-10 22:22:20.800"
"two-step-fixation","248","741901","0.0-76.0-2.37","759","679","10","Female","true","false","true","true","""event"",""trial"",""time""
""fullscreenenter"",""5"",""19639""
","
","
","""event"",""trial"",""time""
