"trial_type","trial_index","time_elapsed","internal_node_id","participant_id","subject_id","age","gender","rocket_sides","red_planet_first_rocket","red_display_order","purple_display_order","interactions","blur_events","focus_events","fullscreenenter_events","fullscreenexit_events","rt","stimulus","key_press","button_pressed","success","duration","valid_pressed","rts","keys","planet_text","right_text","left_text","center_text","chosen_text","reward_text","trial_stage","practice_trial","transition_type","choice","transition","reward","timestamp"
"pavlovia","0","4","0.0-0.0","3595","6340","16","Male","true","true","true","true","
","
","
","
","
","","","","","","","","","","","","","","","","","","","","","",""
"html-keyboard-response","1","1442","0.0-1.0","3595","6340","16","Male","true","true","true","true","
","
","
","
","
","1436.800000011921","Welcome! Press the space bar to begin.","32","","","","","","","","","","","","","","","","","","",""
"audio-keyboard-response","2","2344","0.0-2.0","3595","6340","16","Male","true","true","true","true","
","
","
","
","
","829","audio/beep_loop.wav","32","","","","","","","","","","","","","","","","","","",""
"audio-button-response","3","10303","0.0-3.0","3595","6340","16","Male","true","true","true","true","
","
","
","
","
","NaN","audio/fish.mp3","","1","","","","","","","","","","","","","","","","","",""
"audio-button-response","4","15598","0.0-4.0","3595","6340","16","Male","true","true","true","true","""event"",""trial"",""time""
""fullscreenenter"",""5"",""18499""
","
","
","""event"",""trial"",""time""
""fullscreenenter"",""5"",""18499""
","
","NaN","audio/tiger.mp3","","4","","","","","","","","","","","","","","","","","",""
"fullscreen","5","19472","0.0-5.0","3595","6340","16","Male","true","true","true","true","""event"",""trial"",""time""
""fullscreenenter"",""5"",""18499""
","
","
","""event"",""trial"",""time""
""fullscreenenter"",""5"",""18499""
","
","","","","","true","","","","","","","","","","","","","","","","",""
"d3-instructions","6","21760","0.0-6.0","3595","6340","16","Male","true","true","true","true","""event"",""trial"",""time""
""fullscreenenter"",""5"",""18499""
","
","
","""event"",""trial"",""time""
""fullscreenenter"",""5"",""18499""
","
","","","","","","","","","","","","","","","","","","","","","",""
"d3-instructions","7","22464","0.0-7.0","3595","6340","16","Male","true","true","true","true","""event"",""trial"",""time""
""fullscreenenter"",""5"",""18499""
","
","
","""event"",""trial"",""time""
""fullscreenenter"",""5"",""18499""
","
","","","","","","","","","","","","","","","","","","","","","",""
"d3-instructions","8","22953","0.0-8.0","3595","6340","16","Male","true","true","true","true","""event"",""trial"",""time""
""fullscreenenter"",""5"",""18499""
","
","
","""event"",""trial"",""time""
""fullscreenenter"",""5"",""18499""
","
","","","","","","","","","","","","","","","","","","","","","",""
"d3-instructions","9","23264","0.0-9.0","3595","6340","16","Male","true","true","true","true","""event"",""trial"",""time""
""fullscreenenter"",""5"",""18499""
","
","
","""event"",""trial"",""time""
""fullscreenenter"",""5"",""18499""
","
","","","","","","","","","","","","","","","","","","","","","",""
"d3-instructions","10","23536","0.0-10.0","3595","6340","16","Male","true","true","true","true","""event"",""trial"",""time""
""fullscreenenter"",""5"",""18499""
","
","
","""event"",""trial"",""time""
""fullscreenenter"",""5"",""18499""
","
","","","","","","","","","","","","","","","","","","","","","",""
"d3-animate-choice","11","28258","0.0-11.0","3595","6340","16","Male","true","true","true","true","""event"",""trial"",""time""
""fullscreenenter"",""5"",""18499""
","
","
","""event"",""trial"",""time""
""fullscreenenter"",""5"",""18499""
","
","205.69999998807907","","32","","","3000","1","405.69999998807907,1342,2717.599999964237","32,32,49","images/tutgreenplanet.jpg","images/tutalien1","images/tutalien2","null","images/tutalien2","","NA","practice","null","","","",""
"d3-animate-choice","12","31649","0.0-12.0","3595","6340","16","Male","true","true","true","true","""event"",""trial"",""time""
""fullscreenenter"",""5"",""18499""
","
","
","""event"",""trial"",""time""
""fullscreenenter"",""5"",""18499""
","
","1387.699999988079","","48","","","3000","1","","","images/tutgreenplanet.jpg","images/tutalien1","images/tutalien2","null","images/tutalien1","","NA","practice","null","","","",""
"d3-animate-choice","13","34415","0.0-13.0","3595","6340","16","Male","true","true","true","true","""event"",""trial"",""time""
""fullscreenenter"",""5"",""18499""
","
","
","""event"",""trial"",""time""
""fullscreenenter"",""5"",""18499""
","
","749","","49","","","3000","1","","","images/tutgreenplanet.jpg","images/tutalien1","images/tutalien2","null","images/tutalien2","","NA","practice","null","","","",""
"d3-animate-choice","14","36743","0.0-14.0","3595","6340","16","Male","true","true","true","true","""event"",""trial"",""time""
""fullscreenenter"",""5"",""18499""
","
","
","""event"",""trial"",""time""
""fullscreenenter"",""5"",""18499""
","
","318.5","","49","","","3000","1","","","images/tutgreenplanet.jpg","images/tutalien1","images/tutalien2","null","images/tutalien2","","NA","practice","null","","","",""
"d3-instructions","15","38248","0.0-15.0","3595","6340","16","Male","true","true","true","true","""event"",""trial"",""time""
""fullscreenenter"",""5"",""18499""
","
","
","""event"",""trial"",""time""
""fullscreenenter"",""5"",""18499""
","
","","","","","","","","","","","","","","","","","","","","","",""
"d3-instructions","16","38544","0.0-16.0","3595","6340","16","Male","true","true","true","true","""event"",""trial"",""time""
""fullscreenenter"",""5"",""18499""
","
","
","""event"",""trial"",""time""
""fullscreenenter"",""5"",""18499""
","
","","","","","","","","","","","","","","","","","","","","","",""
"d3-instructions","17","38792","0.0-17.0","3595","6340","16","Male","true","true","true","true","""event"",""trial"",""time""
""fullscreenenter"",""5"",""18499""
","
","
","""event"",""trial"",""time""
""fullscreenenter"",""5"",""18499""
","
","","","","","","","","","","","","","","","","","","","","","",""
"d3-instructions","18","39016","0.0-18.0","3595","6340","16","Male","true","true","true","true","""event"",""trial"",""time""
""fullscreenenter"",""5"",""18499""
","
","
","""event"",""trial"",""time""
""fullscreenenter"",""5"",""18499""
","
","","","","","","","","","","","","","","","","","","","","","",""
"d3-instructions","19","39224","0.0-19.0","3595","6340","16","Male","true","true","true","true","""event"",""trial"",""time""
""fullscreenenter"",""5"",""18499""
","
","
","""event"",""trial"",""time""
""fullscreenenter"",""5"",""18499""
","
","","","","","","","","","","","","","","","","","","","","","",""
"d3-animate-choice","20","42983","0.0-20.0","3595","6340","16","Male","true","true","true","true","""event"",""trial"",""time""
""fullscreenenter"",""5"",""18499""
","
","
","""event"",""trial"",""time""
""fullscreenenter"",""5"",""18499""
","
","206.60000002384186","","32","","","3000","1","406.19999998807907,1750.6000000238419","32,49","images/tutyellowplanet.jpg","null","images/tutalien3","null","images/tutalien3","images/t.png","NA","practice","null","","","",""
"d3-animate-choice","21","45420","0.0-21.0","3595","6340","16","Male","true","true","true","true","""event"",""trial"",""time""
""fullscreenenter"",""5"",""18499""
","
","
","""event"",""trial"",""time""
""fullscreenenter"",""5"",""18499""
","
","423.5","","49","","","3000","1","2087,2367","49,49","images/tutyellowplanet.jpg","null","images/tutalien3","null","images/tutalien3","images/t.png","NA","practice","null","","","",""
"d3-animate-choice","22","47633","0.0-22.0","3595","6340","16","Male","true","true","true","true","""event"",""trial"",""time""
""fullscreenenter"",""5"",""18499""
","
","
","""event"",""trial"",""time""
""fullscreenenter"",""5"",""18499""
","
","210","","49","","","3000","1","242.0999999642372,418.0999999642372,641.8999999761581,874,1169.8999999761581,1418.0999999642372,1690.199999988079,1937.7999999523163,2170","32,49,49,49,49,49,49,49,49","images/tutyellowplanet.jpg","null","images/tutalien3","null","images/tutalien3","images/t.png","NA","practice","null","","","",""
"d3-animate-choice","23","49853","0.0-23.0","3595","6340","16","Male","true","true","true","true","""event"",""trial"",""time""
""fullscreenenter"",""5"",""18499""
","
","
","""event"",""trial"",""time""
""fullscreenenter"",""5"",""18499""
","
","205","","49","","","3000","1","429,677.0999999642372,1700.8999999761581,1924.7999999523163,2173.2999999523163","49,49,49,49,49","images/tutyellowplanet.jpg","null","images/tutalien3","null","images/tutalien3","images/t.png","NA","practice","null","","","",""
"d3-animate-choice","24","52080","0.0-24.0","3595","6340","16","Male","true","true","true","true","""event"",""trial"",""time""
""fullscreenenter"",""5"",""18499""
","
","
","""event"",""trial"",""time""
""fullscreenenter"",""5"",""18499""
","
","225.20000004768372","","49","","","3000","1","425.30000001192093,657.2000000476837,905.3000000119209,1145,1337.1000000238419,1553.4000000357628,1785.2000000476837,2032.9000000357628","49,49,49,49,49,49,49,49","images/tutyellowplanet.jpg","null","images/tutalien3","null","images/tutalien3","images/t.png","NA","practice","null","","","",""
"d3-animate-choice","25","54133","0.0-25.0","3595","6340","16","Male","true","true","true","true","""event"",""trial"",""time""
""fullscreenenter"",""5"",""18499""
","
","
","""event"",""trial"",""time""
""fullscreenenter"",""5"",""18499""
","
","38.80000001192093","","49","","","3000","1","254.39999997615814,470.60000002384186,686.3000000119209,910,1110,1326.199999988079,1542.3999999761581,1750.1000000238419,1974.199999988079","49,49,49,49,49,49,49,49,49","images/tutyellowplanet.jpg","null","images/tutalien3","null","images/tutalien3","images/t.png","NA","practice","null","","","",""
"d3-animate-choice","26","56270","0.0-26.0","3595","6340","16","Male","true","true","true","true","""event"",""trial"",""time""
""fullscreenenter"",""5"",""18499""
","
","
","""event"",""trial"",""time""
""fullscreenenter"",""5"",""18499""
","
","128.79999995231628","","49","","","3000","1","344.89999997615814,568.7999999523163,793,1024.699999988079,1264.8999999761581,1489,1720.7999999523163,1944.7999999523163","49,49,49,49,49,49,49,49","images/tutyellowplanet.jpg","null","images/tutalien3","null","images/tutalien3","images/nothing.png","NA","practice","null","","","",""
"d3-animate-choice","27","58315","0.0-27.0","3595","6340","16","Male","true","true","true","true","""event"",""trial"",""time""
""fullscreenenter"",""5"",""18499""
","
","
","""event"",""trial"",""time""
""fullscreenenter"",""5"",""18499""
","
","31.30000001192093","","49","","","3000","1","255.19999998807907,479.19999998807907,695.4000000357628,927.3000000119209,1151.199999988079,1383.300000011921,1615.300000011921,1847.4000000357628","49,49,49,49,49,49,49,49","images/tutyellowplanet.jpg","null","images/tutalien3","null","images/tutalien3","images/t.png","NA","practice","null","","","",""
"d3-animate-choice","28","60362","0.0-28.0","3595","6340","16","Male","true","true","true","true","""event"",""trial"",""time""
""fullscreenenter"",""5"",""18499""
","
","
","""event"",""trial"",""time""
""fullscreenenter"",""5"",""18499""
","
","42.799999952316284","","49","","","3000","1","298.89999997615814,514.8999999761581,962.8999999761581,1195,1403,1602.8999999761581,1834.8999999761581","49,49,49,49,49,49,49","images/tutyellowplanet.jpg","null","images/tutalien3","null","images/tutalien3","images/t.png","NA","practice","null","","","",""
"d3-animate-choice","29","62390","0.0-29.0","3595","6340","16","Male","true","true","true","true","""event"",""trial"",""time""
""fullscreenenter"",""5"",""18499""
","
","
","""event"",""trial"",""time""
""fullscreenenter"",""5"",""18499""
","
","12.100000023841858","","49","","","3000","1","252.10000002384186,491.89999997615814,708,924,1156,1371.8999999761581,1588.1000000238419,1795.800000011921","49,49,49,49,49,49,49,49","images/tutyellowplanet.jpg","null","images/tutalien3","null","images/tutalien3","images/t.png","NA","practice","null","","","",""
"d3-instructions","30","64071","0.0-30.0","3595","6340","16","Male","true","true","true","true","""event"",""trial"",""time""
""fullscreenenter"",""5"",""18499""
","
","
","""event"",""trial"",""time""
""fullscreenenter"",""5"",""18499""
","
","","","","","","","","","","","","","","","","","","","","","",""
"d3-instructions","31","64815","0.0-31.0","3595","6340","16","Male","true","true","true","true","""event"",""trial"",""time""
""fullscreenenter"",""5"",""18499""
","
","
","""event"",""trial"",""time""
""fullscreenenter"",""5"",""18499""
","
","","","","","","","","","","","","","","","","","","","","","",""
"d3-instructions","32","65047","0.0-32.0","3595","6340","16","Male","true","true","true","true","""event"",""trial"",""time""
""fullscreenenter"",""5"",""18499""
","
","
","""event"",""trial"",""time""
""fullscreenenter"",""5"",""18499""
","
","","","","","","","","","","","","","","","","","","","","","",""
"d3-instructions","33","65255","0.0-33.0","3595","6340","16","Male","true","true","true","true","""event"",""trial"",""time""
""fullscreenenter"",""5"",""18499""
","
","
","""event"",""trial"",""time""
""fullscreenenter"",""5"",""18499""
","
","","","","","","","","","","","","","","","","","","","","","",""
"d3-animate-choice","34","67982","0.0-34.0","3595","6340","16","Male","true","true","true","true","""event"",""trial"",""time""
""fullscreenenter"",""5"",""18499""
","
","
","""event"",""trial"",""time""
""fullscreenenter"",""5"",""18499""
","
","190.80000001192093","","32","","","3000","1","486.80000001192093,711,2015,2214.900000035763,2383,2566.699999988079,2710.600000023842","32,49,48,48,48,48,48","images/tutgreenplanet.jpg","images/tutalien1","images/tutalien2","null","images/tutalien2","images/t.png","NA","practice","null","","","",""
"d3-animate-choice","35","70134","0.0-35.0","3595","6340","16","Male","true","true","true","true","""event"",""trial"",""time""
""fullscreenenter"",""5"",""18499""
","
","
","""event"",""trial"",""time""
""fullscreenenter"",""5"",""18499""
","
","143.69999998807907","","48","","","3000","1","311.80000001192093,487.9000000357628,663.8000000119209,839.6000000238419,1023.6999999880791,1215.5,1423.800000011921,1639.6000000238419,1815.699999988079,1999.6000000238419","48,48,48,48,48,48,48,48,48,48","images/tutgreenplanet.jpg","images/tutalien1","images/tutalien2","null","images/tutalien1","images/nothing.png","NA","practice","null","","","",""
"d3-animate-choice","36","72197","0.0-36.0","3595","6340","16","Male","true","true","true","true","""event"",""trial"",""time""
""fullscreenenter"",""5"",""18499""
","
","
","""event"",""trial"",""time""
""fullscreenenter"",""5"",""18499""
","
","55.80000001192093","","48","","","3000","1","247.89999997615814,415.80000001192093,608,799.6999999880791,999.6000000238419,1215.699999988079,1431.699999988079,1695.800000011921,1959.800000011921","48,48,48,48,48,48,48,48,48","images/tutgreenplanet.jpg","images/tutalien1","images/tutalien2","null","images/tutalien1","images/nothing.png","NA","practice","null","","","",""
"d3-animate-choice","37","74320","0.0-37.0","3595","6340","16","Male","true","true","true","true","""event"",""trial"",""time""
""fullscreenenter"",""5"",""18499""
","
","
","""event"",""trial"",""time""
""fullscreenenter"",""5"",""18499""
","
","112.89999997615814","","48","","","3000","1","328.69999998807907,545,737.0999999642372,936.7999999523163,1160.699999988079,1368.5999999642372,1592.5999999642372,1809.0999999642372,2032.5999999642372","48,48,48,48,48,48,48,48,48","images/tutgreenplanet.jpg","images/tutalien1","images/tutalien2","null","images/tutalien1","images/nothing.png","NA","practice","null","","","",""
"d3-animate-choice","38","76473","0.0-38.0","3595","6340","16","Male","true","true","true","true","""event"",""trial"",""time""
""fullscreenenter"",""5"",""18499""
","
","
","""event"",""trial"",""time""
""fullscreenenter"",""5"",""18499""
","
","150.30000001192093","","48","","","3000","1","390.19999998807907,622.4000000357628,894.1000000238419,1142.1000000238419,1390.199999988079,1630.1000000238419,1894.1000000238419,2126.100000023842","48,48,48,48,48,48,48,48","images/tutgreenplanet.jpg","images/tutalien1","images/tutalien2","null","images/tutalien1","images/nothing.png","NA","practice","null","","","",""
"d3-animate-choice","39","78671","0.0-39.0","3595","6340","16","Male","true","true","true","true","""event"",""trial"",""time""
""fullscreenenter"",""5"",""18499""
","
","
","""event"",""trial"",""time""
""fullscreenenter"",""5"",""18499""
","
","188.69999998807907","","48","","","3000","1","388.5999999642372,828.7999999523163,829.0999999642372,1076.5999999642372,1276.3999999761581,1452.8999999761581,1628.699999988079,1812.699999988079,1972.5999999642372,2116.5","48,189,48,48,48,48,48,48,48,48","images/tutgreenplanet.jpg","images/tutalien1","images/tutalien2","null","images/tutalien1","images/nothing.png","NA","practice","null","","","",""
"d3-animate-choice","40","80752","0.0-40.0","3595","6340","16","Male","true","true","true","true","""event"",""trial"",""time""
""fullscreenenter"",""5"",""18499""
","
","
","""event"",""trial"",""time""
""fullscreenenter"",""5"",""18499""
","
","78.09999996423721","","48","","","3000","1","214.0999999642372,382.0999999642372,550,702.2999999523163,854.2999999523163,1022.0999999642372,1182.5,1357.8999999761581,1558.0999999642372,1742.199999988079,1918.199999988079","48,48,48,48,48,48,48,48,48,48,48","images/tutgreenplanet.jpg","images/tutalien1","images/tutalien2","null","images/tutalien1","images/t.png","NA","practice","null","","","",""
"d3-animate-choice","41","82768","0.0-41.0","3595","6340","16","Male","true","true","true","true","""event"",""trial"",""time""
""fullscreenenter"",""5"",""18499""
","
","
","""event"",""trial"",""time""
""fullscreenenter"",""5"",""18499""
","
","14","","48","","","3000","1","182,349.89999997615814,526.0999999642372,733.6999999880791,926","48,48,48,48,48","images/tutgreenplanet.jpg","images/tutalien1","images/tutalien2","null","images/tutalien1","images/nothing.png","NA","practice","null","","","",""
"d3-animate-choice","42","84889","0.0-42.0","3595","6340","16","Male","true","true","true","true","""event"",""trial"",""time""
""fullscreenenter"",""5"",""18499""
","
","
","""event"",""trial"",""time""
""fullscreenenter"",""5"",""18499""
","
","117","","48","","","3000","1","","","images/tutgreenplanet.jpg","images/tutalien1","images/tutalien2","null","images/tutalien1","images/nothing.png","NA","practice","null","","","",""
"d3-animate-choice","43","87201","0.0-43.0","3595","6340","16","Male","true","true","true","true","""event"",""trial"",""time""
""fullscreenenter"",""5"",""18499""
","
","
","""event"",""trial"",""time""
""fullscreenenter"",""5"",""18499""
","
","309.60000002384186","","49","","","3000","1","1765.4000000357628,2237.2000000476837","48,48","images/tutgreenplanet.jpg","images/tutalien1","images/tutalien2","null","images/tutalien2","images/nothing.png","NA","practice","null","","","",""
"d3-instructions","44","89479","0.0-44.0","3595","6340","16","Male","true","true","true","true","""event"",""trial"",""time""
""fullscreenenter"",""5"",""18499""
","
","
","""event"",""trial"",""time""
""fullscreenenter"",""5"",""18499""
","
","","","","","","","","","","","","","","","","","","","","","",""
"d3-instructions","45","90119","0.0-45.0","3595","6340","16","Male","true","true","true","true","""event"",""trial"",""time""
""fullscreenenter"",""5"",""18499""
","
","
","""event"",""trial"",""time""
""fullscreenenter"",""5"",""18499""
","
","","","","","","","","","","","","","","","","","","","","","",""
"d3-instructions","46","90423","0.0-46.0","3595","6340","16","Male","true","true","true","true","""event"",""trial"",""time""
""fullscreenenter"",""5"",""18499""
","
","
","""event"",""trial"",""time""
""fullscreenenter"",""5"",""18499""
","
","","","","","","","","","","","","","","","","","","","","","",""
"d3-instructions","47","90631","0.0-47.0","3595","6340","16","Male","true","true","true","true","""event"",""trial"",""time""
""fullscreenenter"",""5"",""18499""
","
","
","""event"",""trial"",""time""
""fullscreenenter"",""5"",""18499""
","
","","","","","","","","","","","","","","","","","","","","","",""
"d3-instructions","48","90815","0.0-48.0","3595","6340","16","Male","true","true","true","true","""event"",""trial"",""time""
""fullscreenenter"",""5"",""18499""
","
","
","""event"",""trial"",""time""
""fullscreenenter"",""5"",""18499""
","
","","","","","","","","","","","","","","","","","","","","","",""
"d3-instructions","49","91095","0.0-49.0","3595","6340","16","Male","true","true","true","true","""event"",""trial"",""time""
""fullscreenenter"",""5"",""18499""
","
","
","""event"",""trial"",""time""
""fullscreenenter"",""5"",""18499""
","
","","","","","","","","","","","","","","","","","","","","","",""
"d3-instructions","50","91367","0.0-50.0","3595","6340","16","Male","true","true","true","true","""event"",""trial"",""time""
""fullscreenenter"",""5"",""18499""
","
","
","""event"",""trial"",""time""
""fullscreenenter"",""5"",""18499""
","
","","","","","","","","","","","","","","","","","","","","","",""
"d3-instructions","51","91911","0.0-51.0","3595","6340","16","Male","true","true","true","true","""event"",""trial"",""time""
""fullscreenenter"",""5"",""18499""
","
","
","""event"",""trial"",""time""
""fullscreenenter"",""5"",""18499""
","
","","","","","","","","","","","","","","","","","","","","","",""
"d3-instructions","52","92239","0.0-52.0","3595","6340","16","Male","true","true","true","true","""event"",""trial"",""time""
""fullscreenenter"",""5"",""18499""
","
","
","""event"",""trial"",""time""
""fullscreenenter"",""5"",""18499""
","
","","","","","","","","","","","","","","","","","","","","","",""
"d3-instructions","53","92471","0.0-53.0","3595","6340","16","Male","true","true","true","true","""event"",""trial"",""time""
""fullscreenenter"",""5"",""18499""
","
","
","""event"",""trial"",""time""
""fullscreenenter"",""5"",""18499""
","
","","","","","","","","","","","","","","","","","","","","","",""
"d3-instructions","54","92855","0.0-54.0","3595","6340","16","Male","true","true","true","true","""event"",""trial"",""time""
""fullscreenenter"",""5"",""18499""
","
","
","""event"",""trial"",""time""
""fullscreenenter"",""5"",""18499""
","
","","","","","","","","","","","","","","","","","","","","","",""
"d3-instructions","55","93303","0.0-55.0","3595","6340","16","Male","true","true","true","true","""event"",""trial"",""time""
""fullscreenenter"",""5"",""18499""
","
","
","""event"",""trial"",""time""
""fullscreenenter"",""5"",""18499""
","
","","","","","","","","","","","","","","","","","","","","","",""
"d3-instructions","56","93551","0.0-56.0","3595","6340","16","Male","true","true","true","true","""event"",""trial"",""time""
""fullscreenenter"",""5"",""18499""
","
","
","""event"",""trial"",""time""
""fullscreenenter"",""5"",""18499""
","
","","","","","","","","","","","","","","","","","","","","","",""
"d3-instructions","57","93767","0.0-57.0","3595","6340","16","Male","true","true","true","true","""event"",""trial"",""time""
""fullscreenenter"",""5"",""18499""
","
","
","""event"",""trial"",""time""
""fullscreenenter"",""5"",""18499""
","
","","","","","","","","","","","","","","","","","","","","","",""
"d3-instructions","58","94023","0.0-58.0","3595","6340","16","Male","true","true","true","true","""event"",""trial"",""time""
""fullscreenenter"",""5"",""18499""
","
","
","""event"",""trial"",""time""
""fullscreenenter"",""5"",""18499""
","
","","","","","","","","","","","","","","","","","","","","","",""
"d3-instructions","59","94247","0.0-59.0","3595","6340","16","Male","true","true","true","true","""event"",""trial"",""time""
""fullscreenenter"",""5"",""18499""
","
","
","""event"",""trial"",""time""
""fullscreenenter"",""5"",""18499""
","
","","","","","","","","","","","","","","","","","","","","","",""
"d3-instructions","60","94583","0.0-60.0","3595","6340","16","Male","true","true","true","true","""event"",""trial"",""time""
""fullscreenenter"",""5"",""18499""
","
","
","""event"",""trial"",""time""
""fullscreenenter"",""5"",""18499""
","
","","","","","","","","","","","","","","","","","","","","","",""
"d3-animate-choice","61","97718","0.0-61.0-0.0","3595","6340","16","Male","true","true","true","true","""event"",""trial"",""time""
""fullscreenenter"",""5"",""18499""
","
","
","""event"",""trial"",""time""
""fullscreenenter"",""5"",""18499""
","
","229.4000000357628","","32","","","3000","1","493.9000000357628,1126.2000000476837","32,48","images/earth.jpg","images/tutrocket2","images/tutrocket1","null","images/tutrocket2","","1","practice","null","","","",""
"d3-animate-choice","62","99746","0.0-61.0-1.0","3595","6340","16","Male","true","true","true","true","""event"",""trial"",""time""
""fullscreenenter"",""5"",""18499""
","
","
","""event"",""trial"",""time""
""fullscreenenter"",""5"",""18499""
","
","23.100000023841858","","48","","","3000","1","270.7000000476837,470.60000002384186,646.6000000238419,830.6000000238419,1006.6000000238419,1206.5,1366.7000000476837,1534.5,1702.4000000357628,1878.5","48,48,48,48,48,48,48,48,48,48","images/tutyellowplanet.jpg","images/tutalien4","images/tutalien3","images/tutrocket2","images/tutalien4","images/nothing.png","2","practice","true","2","common","0","2023-02-20 21:30:01.986"
"two-step-fixation","63","100750","0.0-61.0-2.0","3595","6340","16","Male","true","true","true","true","""event"",""trial"",""time""
""fullscreenenter"",""5"",""18499""
","
","
","""event"",""trial"",""time""
""fullscreenenter"",""5"",""18499""
","
","","images/earth.jpg","","","","","","","","","","","","","","fixation","","","","","",""
"d3-animate-choice","64","102881","0.0-61.0-0.1","3595","6340","16","Male","true","true","true","true","""event"",""trial"",""time""
""fullscreenenter"",""5"",""18499""
","
","
","""event"",""trial"",""time""
""fullscreenenter"",""5"",""18499""
","
","127.69999998807907","","48","","","3000","1","295.69999998807907,471.69999998807907,647.5999999642372,831.5,1031.5999999642372,1240,1439.699999988079,1615.5999999642372,1799.699999988079,1976.0999999642372,1976.3999999761581","48,48,48,48,48,48,48,57,57,57,48","images/earth.jpg","images/tutrocket2","images/tutrocket1","null","images/tutrocket2","","1","practice","null","2","","",""
"d3-animate-choice","65","104896","0.0-61.0-1.1","3595","6340","16","Male","true","true","true","true","""event"",""trial"",""time""
""fullscreenenter"",""5"",""18499""
","
","
","""event"",""trial"",""time""
""fullscreenenter"",""5"",""18499""
","
","12.399999976158142","","48","","","3000","1","220.30000001192093,412.39999997615814,588.5,764.3999999761581,932.5,1084.5,1324.6000000238419,1484.5,1652.300000011921,1828.6000000238419,1996.5","48,48,48,48,48,48,48,48,48,48,48","images/tutyellowplanet.jpg","images/tutalien4","images/tutalien3","images/tutrocket2","images/tutalien4","images/nothing.png","2","practice","true","2","common","0","2023-02-20 21:30:07.136"
"two-step-fixation","66","105898","0.0-61.0-2.1","3595","6340","16","Male","true","true","true","true","""event"",""trial"",""time""
""fullscreenenter"",""5"",""18499""
","
","
","""event"",""trial"",""time""
""fullscreenenter"",""5"",""18499""
","
","","images/earth.jpg","","","","","","","","","","","","","","fixation","","","","","",""
"d3-animate-choice","67","108081","0.0-61.0-0.2","3595","6340","16","Male","true","true","true","true","""event"",""trial"",""time""
""fullscreenenter"",""5"",""18499""
","
","
","""event"",""trial"",""time""
""fullscreenenter"",""5"",""18499""
","
","178.5999999642372","","48","","","3000","1","354.5999999642372,530.5,714.6999999880791,930.5999999642372,1178.800000011921,1394.5,1586.5999999642372,1770.800000011921,1946.699999988079,2138.800000011921","48,48,48,48,48,48,48,48,48,48","images/earth.jpg","images/tutrocket2","images/tutrocket1","null","images/tutrocket2","","1","practice","null","2","","",""
"d3-animate-choice","68","110239","0.0-61.0-1.2","3595","6340","16","Male","true","true","true","true","""event"",""trial"",""time""
""fullscreenenter"",""5"",""18499""
","
","
","""event"",""trial"",""time""
""fullscreenenter"",""5"",""18499""
","
","156.29999995231628","","48","","","3000","1","364.2999999523163,556.3999999761581,772.1999999880791,1236.3999999761581,1420.199999988079,1636.2999999523163,1868.199999988079,2060.399999976158","48,48,48,48,48,48,48,48","images/tutyellowplanet.jpg","images/tutalien4","images/tutalien3","images/tutrocket2","images/tutalien4","images/nothing.png","2","practice","true","2","common","0","2023-02-20 21:30:12.479"
"two-step-fixation","69","111243","0.0-61.0-2.2","3595","6340","16","Male","true","true","true","true","""event"",""trial"",""time""
""fullscreenenter"",""5"",""18499""
","
","
","""event"",""trial"",""time""
""fullscreenenter"",""5"",""18499""
","
","","images/earth.jpg","","","","","","","","","","","","","","fixation","","","","","",""
"d3-animate-choice","70","113448","0.0-61.0-0.3","3595","6340","16","Male","true","true","true","true","""event"",""trial"",""time""
""fullscreenenter"",""5"",""18499""
","
","
","""event"",""trial"",""time""
""fullscreenenter"",""5"",""18499""
","
","202","","48","","","3000","1","442.19999998807907,906,1146.0999999642372,1330.0999999642372,1538,1738,1946","48,48,48,48,48,48,48","images/earth.jpg","images/tutrocket2","images/tutrocket1","null","images/tutrocket2","","1","practice","null","2","","",""
"d3-animate-choice","71","115477","0.0-61.0-1.3","3595","6340","16","Male","true","true","true","true","""event"",""trial"",""time""
""fullscreenenter"",""5"",""18499""
","
","
","""event"",""trial"",""time""
""fullscreenenter"",""5"",""18499""
","
","12.699999988079071","","48","","","3000","1","268.69999998807907,476.7999999523163,676.5999999642372,948.5999999642372,1172.5999999642372,1380.5999999642372,1661,1860.699999988079","48,48,48,48,48,48,48,48","images/tutyellowplanet.jpg","images/tutalien4","images/tutalien3","images/tutrocket2","images/tutalien4","images/nothing.png","2","practice","true","2","common","0","2023-02-20 21:30:17.717"
"two-step-fixation","72","116479","0.0-61.0-2.3","3595","6340","16","Male","true","true","true","true","""event"",""trial"",""time""
""fullscreenenter"",""5"",""18499""
","
","
","""event"",""trial"",""time""
""fullscreenenter"",""5"",""18499""
","
","","images/earth.jpg","","","","","","","","","","","","","","fixation","","","","","",""
"d3-animate-choice","73","118687","0.0-61.0-0.4","3595","6340","16","Male","true","true","true","true","""event"",""trial"",""time""
""fullscreenenter"",""5"",""18499""
","
","
","""event"",""trial"",""time""
""fullscreenenter"",""5"",""18499""
","
","206.10000002384186","","48","","","3000","1","422.10000002384186,622,846.1000000238419,1053.9000000357628,1453.9000000357628,1734.199999988079,1934.1000000238419,2150.199999988079","48,48,48,48,48,48,48,48","images/earth.jpg","images/tutrocket2","images/tutrocket1","null","images/tutrocket2","","1","practice","null","2","","",""
"d3-animate-choice","74","120815","0.0-61.0-1.4","3595","6340","16","Male","true","true","true","true","""event"",""trial"",""time""
""fullscreenenter"",""5"",""18499""
","
","
","""event"",""trial"",""time""
""fullscreenenter"",""5"",""18499""
","
","125.19999998807907","","48","","","3000","1","349.5,573,1109,1357.0999999642372,1573.199999988079,1765.199999988079,1957.2999999523163","48,48,48,48,48,48,48","images/tutyellowplanet.jpg","images/tutalien4","images/tutalien3","images/tutrocket2","images/tutalien4","images/nothing.png","2","practice","true","2","common","0","2023-02-20 21:30:23.055"
"two-step-fixation","75","121818","0.0-61.0-2.4","3595","6340","16","Male","true","true","true","true","""event"",""trial"",""time""
""fullscreenenter"",""5"",""18499""
","
","
","""event"",""trial"",""time""
""fullscreenenter"",""5"",""18499""
","
","","images/earth.jpg","","","","","","","","","","","","","","fixation","","","","","",""
"d3-animate-choice","76","124022","0.0-61.0-0.5","3595","6340","16","Male","true","true","true","true","""event"",""trial"",""time""
""fullscreenenter"",""5"",""18499""
","
","
","""event"",""trial"",""time""
""fullscreenenter"",""5"",""18499""
","
","187","","48","","","3000","1","466.60000002384186,714.9000000357628,1010.7000000476837","48,48,48","images/earth.jpg","images/tutrocket2","images/tutrocket1","null","images/tutrocket2","","1","practice","null","2","","",""
"d3-animate-choice","77","128024","0.0-61.0-1.5","3595","6340","16","Male","true","true","true","true","""event"",""trial"",""time""
""fullscreenenter"",""5"",""18499""
","
","
","""event"",""trial"",""time""
""fullscreenenter"",""5"",""18499""
","
","2462.599999964237","","48","","","3000","1","2654.399999976158","48","images/tutyellowplanet.jpg","images/tutalien4","images/tutalien3","images/tutrocket2","images/tutalien4","images/nothing.png","2","practice","true","2","common","0","2023-02-20 21:30:30.265"
"two-step-fixation","78","129026","0.0-61.0-2.5","3595","6340","16","Male","true","true","true","true","""event"",""trial"",""time""
""fullscreenenter"",""5"",""18499""
","
","
","""event"",""trial"",""time""
""fullscreenenter"",""5"",""18499""
","
","","images/earth.jpg","","","","","","","","","","","","","","fixation","","","","","",""
"d3-animate-choice","79","131223","0.0-61.0-0.6","3595","6340","16","Male","true","true","true","true","""event"",""trial"",""time""
""fullscreenenter"",""5"",""18499""
","
","
","""event"",""trial"",""time""
""fullscreenenter"",""5"",""18499""
","
","194.4000000357628","","48","","","3000","1","410.4000000357628,650.3000000119209,890.2000000476837,1130.2000000476837,1354.1000000238419,1586.5,1794.2000000476837,2010.300000011921,2161.800000011921","48,48,48,48,48,48,48,48,48","images/earth.jpg","images/tutrocket2","images/tutrocket1","null","images/tutrocket2","","1","practice","null","2","","",""
"d3-animate-choice","80","133367","0.0-61.0-1.6","3595","6340","16","Male","true","true","true","true","""event"",""trial"",""time""
""fullscreenenter"",""5"",""18499""
","
","
","""event"",""trial"",""time""
""fullscreenenter"",""5"",""18499""
","
","141.20000004768372","","48","","","3000","1","325.10000002384186,493.30000001192093,677.1000000238419,869,1037.1000000238419,1213.300000011921,1405.1000000238419,1613.5,1805.300000011921,1981.300000011921","48,48,48,48,48,48,48,48,48,48","images/tutgreenplanet.jpg","images/tutalien2","images/tutalien1","images/tutrocket2","images/tutalien2","images/nothing.png","2","practice","false","2","rare","0","2023-02-20 21:30:35.607"
"two-step-fixation","81","134370","0.0-61.0-2.6","3595","6340","16","Male","true","true","true","true","""event"",""trial"",""time""
""fullscreenenter"",""5"",""18499""
","
","
","""event"",""trial"",""time""
""fullscreenenter"",""5"",""18499""
","
","","images/earth.jpg","","","","","","","","","","","","","","fixation","","","","","",""
"d3-animate-choice","82","136448","0.0-61.0-0.7","3595","6340","16","Male","true","true","true","true","""event"",""trial"",""time""
""fullscreenenter"",""5"",""18499""
","
","
","""event"",""trial"",""time""
""fullscreenenter"",""5"",""18499""
","
","74","","48","","","3000","1","242.10000002384186,425.89999997615814,602.3999999761581,777.8999999761581,970.1000000238419,1186,1378,1578.5,2025.800000011921","48,48,48,48,48,48,48,48,48","images/earth.jpg","images/tutrocket2","images/tutrocket1","null","images/tutrocket2","","1","practice","null","2","","",""
"d3-animate-choice","83","138647","0.0-61.0-1.7","3595","6340","16","Male","true","true","true","true","""event"",""trial"",""time""
""fullscreenenter"",""5"",""18499""
","
","
","""event"",""trial"",""time""
""fullscreenenter"",""5"",""18499""
","
","197.19999998807907","","48","","","3000","1","444.5999999642372,628.8000000119209,812.5,1012.5999999642372,1260.8999999761581,1492.8999999761581,1724.800000011921,1957,2164.599999964237","48,48,48,48,48,48,48,48,48","images/tutyellowplanet.jpg","images/tutalien4","images/tutalien3","images/tutrocket2","images/tutalien4","images/nothing.png","2","practice","true","2","common","0","2023-02-20 21:30:40.887"
"two-step-fixation","84","139650","0.0-61.0-2.7","3595","6340","16","Male","true","true","true","true","""event"",""trial"",""time""
""fullscreenenter"",""5"",""18499""
","
","
","""event"",""trial"",""time""
""fullscreenenter"",""5"",""18499""
","
","","images/earth.jpg","","","","","","","","","","","","","","fixation","","","","","",""
"d3-animate-choice","85","141767","0.0-61.0-0.8","3595","6340","16","Male","true","true","true","true","""event"",""trial"",""time""
""fullscreenenter"",""5"",""18499""
","
","
","""event"",""trial"",""time""
""fullscreenenter"",""5"",""18499""
","
","114.60000002384186","","48","","","3000","1","307.30000001192093,730.6999999880791,931.5,1418.9000000357628,1642.6000000238419,1859,2098.600000023842","48,48,48,48,48,48,48","images/earth.jpg","images/tutrocket2","images/tutrocket1","null","images/tutrocket2","","1","practice","null","2","","",""
"d3-animate-choice","86","144015","0.0-61.0-1.8","3595","6340","16","Male","true","true","true","true","""event"",""trial"",""time""
""fullscreenenter"",""5"",""18499""
","
","
","""event"",""trial"",""time""
""fullscreenenter"",""5"",""18499""
","
","245.30000001192093","","48","","","3000","1","789.1000000238419,1101.4000000357628,1341.4000000357628,1549.199999988079,1797.1000000238419,2005.4000000357628","48,48,48,48,48,48","images/tutyellowplanet.jpg","images/tutalien4","images/tutalien3","images/tutrocket2","images/tutalien4","images/t.png","2","practice","true","2","common","1","2023-02-20 21:30:46.256"
"two-step-fixation","87","145018","0.0-61.0-2.8","3595","6340","16","Male","true","true","true","true","""event"",""trial"",""time""
""fullscreenenter"",""5"",""18499""
","
","
","""event"",""trial"",""time""
""fullscreenenter"",""5"",""18499""
","
","","images/earth.jpg","","","","","","","","","","","","","","fixation","","","","","",""
"d3-animate-choice","88","147063","0.0-61.0-0.9","3595","6340","16","Male","true","true","true","true","""event"",""trial"",""time""
""fullscreenenter"",""5"",""18499""
","
","
","""event"",""trial"",""time""
""fullscreenenter"",""5"",""18499""
","
","43.19999998807907","","48","","","3000","1","219.19999998807907,403,603,803,1003.1999999880791,1219.199999988079,1419.300000011921,1611,1827.5,2027.300000011921","48,48,48,48,48,48,48,48,48,48","images/earth.jpg","images/tutrocket2","images/tutrocket1","null","images/tutrocket2","","1","practice","null","2","","",""
"d3-animate-choice","89","149263","0.0-61.0-1.9","3595","6340","16","Male","true","true","true","true","""event"",""trial"",""time""
""fullscreenenter"",""5"",""18499""
","
","
","""event"",""trial"",""time""
""fullscreenenter"",""5"",""18499""
","
","197","","48","","","3000","1","437.10000002384186,653.3000000119209,893,1101.199999988079,1317.1000000238419,1541.199999988079,1765,2005.300000011921","48,48,48,48,48,48,48,48","images/tutgreenplanet.jpg","images/tutalien2","images/tutalien1","images/tutrocket2","images/tutalien2","images/t.png","2","practice","false","2","rare","1","2023-02-20 21:30:51.503"
"two-step-fixation","90","150265","0.0-61.0-2.9","3595","6340","16","Male","true","true","true","true","""event"",""trial"",""time""
""fullscreenenter"",""5"",""18499""
","
","
","""event"",""trial"",""time""
""fullscreenenter"",""5"",""18499""
","
","","images/earth.jpg","","","","","","","","","","","","","","fixation","","","","","",""
"d3-animate-choice","91","152312","0.0-61.0-0.10","3595","6340","16","Male","true","true","true","true","""event"",""trial"",""time""
""fullscreenenter"",""5"",""18499""
","
","
","""event"",""trial"",""time""
""fullscreenenter"",""5"",""18499""
","
","43.69999998807907","","48","","","3000","1","259.30000001192093","48","images/earth.jpg","images/tutrocket2","images/tutrocket1","null","images/tutrocket2","","1","practice","null","2","","",""
"d3-animate-choice","92","154959","0.0-61.0-1.10","3595","6340","16","Male","true","true","true","true","""event"",""trial"",""time""
""fullscreenenter"",""5"",""18499""
","
","
","""event"",""trial"",""time""
""fullscreenenter"",""5"",""18499""
","
","644.4000000357628","","48","","","3000","1","","","images/tutgreenplanet.jpg","images/tutalien2","images/tutalien1","images/tutrocket2","images/tutalien2","images/nothing.png","2","practice","false","2","rare","0","2023-02-20 21:30:57.199"
"two-step-fixation","93","155961","0.0-61.0-2.10","3595","6340","16","Male","true","true","true","true","""event"",""trial"",""time""
""fullscreenenter"",""5"",""18499""
","
","
","""event"",""trial"",""time""
""fullscreenenter"",""5"",""18499""
","
","","images/earth.jpg","","","","","","","","","","","","","","fixation","","","","","",""
"d3-animate-choice","94","158545","0.0-61.0-0.11","3595","6340","16","Male","true","true","true","true","""event"",""trial"",""time""
""fullscreenenter"",""5"",""18499""
","
","
","""event"",""trial"",""time""
""fullscreenenter"",""5"",""18499""
","
","579.5","","48","","","3000","1","","","images/earth.jpg","images/tutrocket2","images/tutrocket1","null","images/tutrocket2","","1","practice","null","2","","",""
"d3-animate-choice","95","160552","0.0-61.0-1.11","3595","6340","16","Male","true","true","true","true","""event"",""trial"",""time""
""fullscreenenter"",""5"",""18499""
","
","
","""event"",""trial"",""time""
""fullscreenenter"",""5"",""18499""
","
","4","","48","","","3000","1","379.5,739.6999999880791,1091.699999988079","48,48,48","images/tutgreenplanet.jpg","images/tutalien2","images/tutalien1","images/tutrocket2","images/tutalien2","images/nothing.png","2","practice","false","2","rare","0","2023-02-20 21:31:02.792"
"two-step-fixation","96","161554","0.0-61.0-2.11","3595","6340","16","Male","true","true","true","true","""event"",""trial"",""time""
""fullscreenenter"",""5"",""18499""
","
","
","""event"",""trial"",""time""
""fullscreenenter"",""5"",""18499""
","
","","images/earth.jpg","","","","","","","","","","","","","","fixation","","","","","",""
"d3-animate-choice","97","163623","0.0-61.0-0.12","3595","6340","16","Male","true","true","true","true","""event"",""trial"",""time""
""fullscreenenter"",""5"",""18499""
","
","
","""event"",""trial"",""time""
""fullscreenenter"",""5"",""18499""
","
","66.39999997615814","","48","","","3000","1","290.39999997615814,490.5,714.5999999642372,994.3999999761581,1282.5999999642372,1554.699999988079,1826.3999999761581","48,48,48,48,48,48,48","images/earth.jpg","images/tutrocket2","images/tutrocket1","null","images/tutrocket2","","1","practice","null","2","","",""
"d3-animate-choice","98","165664","0.0-61.0-1.12","3595","6340","16","Male","true","true","true","true","""event"",""trial"",""time""
""fullscreenenter"",""5"",""18499""
","
","
","""event"",""trial"",""time""
""fullscreenenter"",""5"",""18499""
","
","37.30000001192093","","48","","","3000","1","333,637.4000000357628,933.2000000476837,1221.2000000476837,1509.1000000238419,1789.4000000357628","48,48,48,48,48,48","images/tutgreenplanet.jpg","images/tutalien2","images/tutalien1","images/tutrocket2","images/tutalien2","images/nothing.png","2","practice","false","2","rare","0","2023-02-20 21:31:07.904"
"two-step-fixation","99","166667","0.0-61.0-2.12","3595","6340","16","Male","true","true","true","true","""event"",""trial"",""time""
""fullscreenenter"",""5"",""18499""
","
","
","""event"",""trial"",""time""
""fullscreenenter"",""5"",""18499""
","
","","images/earth.jpg","","","","","","","","","","","","","","fixation","","","","","",""
"d3-animate-choice","100","168808","0.0-61.0-0.13","3595","6340","16","Male","true","true","true","true","""event"",""trial"",""time""
""fullscreenenter"",""5"",""18499""
","
","
","""event"",""trial"",""time""
""fullscreenenter"",""5"",""18499""
","
","137","","48","","","3000","1","465.10000002384186,817,1129.1000000238419,1401.3999999761581,1697,2065.399999976158","48,48,48,48,48,48","images/earth.jpg","images/tutrocket2","images/tutrocket1","null","images/tutrocket2","","1","practice","null","2","","",""
"d3-animate-choice","101","171000","0.0-61.0-1.13","3595","6340","16","Male","true","true","true","true","""event"",""trial"",""time""
""fullscreenenter"",""5"",""18499""
","
","
","""event"",""trial"",""time""
""fullscreenenter"",""5"",""18499""
","
","187.69999998807907","","48","","","3000","1","555.6000000238419,795.8000000119209,1003.6000000238419,1307.8999999761581,1587.5,1891.6000000238419","48,48,48,48,48,48","images/tutgreenplanet.jpg","images/tutalien2","images/tutalien1","images/tutrocket2","images/tutalien2","images/nothing.png","2","practice","false","2","rare","0","2023-02-20 21:31:13.240"
"two-step-fixation","102","172001","0.0-61.0-2.13","3595","6340","16","Male","true","true","true","true","""event"",""trial"",""time""
""fullscreenenter"",""5"",""18499""
","
","
","""event"",""trial"",""time""
""fullscreenenter"",""5"",""18499""
","
","","images/earth.jpg","","","","","","","","","","","","","","fixation","","","","","",""
"d3-animate-choice","103","174055","0.0-61.0-0.14","3595","6340","16","Male","true","true","true","true","""event"",""trial"",""time""
""fullscreenenter"",""5"",""18499""
","
","
","""event"",""trial"",""time""
""fullscreenenter"",""5"",""18499""
","
","50.89999997615814","","48","","","3000","1","211,458.89999997615814,682.7999999523163,995,1290.7999999523163,1546.8999999761581,1818.7999999523163","48,48,48,48,48,48,48","images/earth.jpg","images/tutrocket2","images/tutrocket1","null","images/tutrocket2","","1","practice","null","2","","",""
"d3-animate-choice","104","176087","0.0-61.0-1.14","3595","6340","16","Male","true","true","true","true","""event"",""trial"",""time""
""fullscreenenter"",""5"",""18499""
","
","
","""event"",""trial"",""time""
""fullscreenenter"",""5"",""18499""
","
","29.200000047683716","","48","","","3000","1","261.2000000476837,477.2000000476837,733.1000000238419,1037,1285.2000000476837,1485.300000011921,1700.9000000357628,1885.6000000238419","48,48,48,48,48,48,48,48","images/tutyellowplanet.jpg","images/tutalien4","images/tutalien3","images/tutrocket2","images/tutalien4","images/nothing.png","2","practice","true","2","common","0","2023-02-20 21:31:18.327"
"two-step-fixation","105","177089","0.0-61.0-2.14","3595","6340","16","Male","true","true","true","true","""event"",""trial"",""time""
""fullscreenenter"",""5"",""18499""
","
","
","""event"",""trial"",""time""
""fullscreenenter"",""5"",""18499""
","
","","images/earth.jpg","","","","","","","","","","","","","","fixation","","","","","",""
"d3-animate-choice","106","179151","0.0-61.0-0.15","3595","6340","16","Male","true","true","true","true","""event"",""trial"",""time""
""fullscreenenter"",""5"",""18499""
","
","
","""event"",""trial"",""time""
""fullscreenenter"",""5"",""18499""
","
","59.39999997615814","","48","","","3000","1","251.5,451.69999998807907,667.3999999761581,1251.5999999642372,1451.5,1684","48,48,48,48,48,48","images/earth.jpg","images/tutrocket2","images/tutrocket1","null","images/tutrocket2","","1","practice","null","2","","",""
"d3-animate-choice","107","181159","0.0-61.0-1.15","3595","6340","16","Male","true","true","true","true","""event"",""trial"",""time""
""fullscreenenter"",""5"",""18499""
","
","
","""event"",""trial"",""time""
""fullscreenenter"",""5"",""18499""
","
","5.200000047683716","","48","","","3000","1","221.20000004768372,437.2000000476837,661.2000000476837,932.9000000357628,1141.1000000238419,1349,1597.1000000238419,1860.9000000357628","48,48,48,48,48,48,48,48","images/tutyellowplanet.jpg","images/tutalien4","images/tutalien3","images/tutrocket2","images/tutalien4","images/nothing.png","2","practice","true","2","common","0","2023-02-20 21:31:23.399"
"two-step-fixation","108","182161","0.0-61.0-2.15","3595","6340","16","Male","true","true","true","true","""event"",""trial"",""time""
""fullscreenenter"",""5"",""18499""
","
","
","""event"",""trial"",""time""
""fullscreenenter"",""5"",""18499""
","
","","images/earth.jpg","","","","","","","","","","","","","","fixation","","","","","",""
"d3-animate-choice","109","184207","0.0-61.0-0.16","3595","6340","16","Male","true","true","true","true","""event"",""trial"",""time""
""fullscreenenter"",""5"",""18499""
","
","
","""event"",""trial"",""time""
""fullscreenenter"",""5"",""18499""
","
","43.19999998807907","","48","","","3000","1","547.3000000119209,747.1999999880791,995.0999999642372,1259,1467,1715.300000011921,1939.0999999642372","48,48,48,48,48,48,48","images/earth.jpg","images/tutrocket2","images/tutrocket1","null","images/tutrocket2","","1","practice","null","2","","",""
"d3-animate-choice","110","186295","0.0-61.0-1.16","3595","6340","16","Male","true","true","true","true","""event"",""trial"",""time""
""fullscreenenter"",""5"",""18499""
","
","
","""event"",""trial"",""time""
""fullscreenenter"",""5"",""18499""
","
","84.89999997615814","","48","","","3000","1","324.60000002384186,573,924.8999999761581,1173,1388.800000011921,1597.1000000238419,1813,2012.699999988079","48,48,48,48,48,48,48,48","images/tutyellowplanet.jpg","images/tutalien4","images/tutalien3","images/tutrocket2","images/tutalien4","images/nothing.png","2","practice","true","2","common","0","2023-02-20 21:31:28.535"
"two-step-fixation","111","187298","0.0-61.0-2.16","3595","6340","16","Male","true","true","true","true","""event"",""trial"",""time""
""fullscreenenter"",""5"",""18499""
","
","
","""event"",""trial"",""time""
""fullscreenenter"",""5"",""18499""
","
","","images/earth.jpg","","","","","","","","","","","","","","fixation","","","","","",""
"d3-animate-choice","112","189431","0.0-61.0-0.17","3595","6340","16","Male","true","true","true","true","""event"",""trial"",""time""
""fullscreenenter"",""5"",""18499""
","
","
","""event"",""trial"",""time""
""fullscreenenter"",""5"",""18499""
","
","130.19999998807907","","48","","","3000","1","354.39999997615814,546.3999999761581,722.2999999523163,938.3999999761581,1122.2999999523163,1346.3999999761581,1570.8999999761581,1786.199999988079,2066.099999964237","48,48,48,48,48,48,48,48,48","images/earth.jpg","images/tutrocket2","images/tutrocket1","null","images/tutrocket2","","1","practice","null","2","","",""
"d3-animate-choice","113","191608","0.0-61.0-1.17","3595","6340","16","Male","true","true","true","true","""event"",""trial"",""time""
""fullscreenenter"",""5"",""18499""
","
","
","""event"",""trial"",""time""
""fullscreenenter"",""5"",""18499""
","
","173.30000001192093","","48","","","3000","1","429,677.1000000238419,1020.8000000119209,1316.9000000357628,1524.800000011921,1844.9000000357628","48,48,48,48,48,48","images/tutyellowplanet.jpg","images/tutalien4","images/tutalien3","images/tutrocket2","images/tutalien4","images/nothing.png","2","practice","true","2","common","0","2023-02-20 21:31:33.848"
"two-step-fixation","114","192612","0.0-61.0-2.17","3595","6340","16","Male","true","true","true","true","""event"",""trial"",""time""
""fullscreenenter"",""5"",""18499""
","
","
","""event"",""trial"",""time""
""fullscreenenter"",""5"",""18499""
","
","","images/earth.jpg","","","","","","","","","","","","","","fixation","","","","","",""
"d3-animate-choice","115","194807","0.0-61.0-0.18","3595","6340","16","Male","true","true","true","true","""event"",""trial"",""time""
""fullscreenenter"",""5"",""18499""
","
","
","""event"",""trial"",""time""
""fullscreenenter"",""5"",""18499""
","
","192.80000001192093","","48","","","3000","1","408.30000001192093,616.3999999761581,840.3999999761581,1056.8999999761581,1296.5999999642372,1504.5999999642372,1720.3999999761581,1944.300000011921,2152.399999976158","48,48,48,48,48,48,48,48,48","images/earth.jpg","images/tutrocket2","images/tutrocket1","null","images/tutrocket2","","1","practice","null","2","","",""
"d3-animate-choice","116","197023","0.0-61.0-1.18","3595","6340","16","Male","true","true","true","true","""event"",""trial"",""time""
""fullscreenenter"",""5"",""18499""
","
","
","""event"",""trial"",""time""
""fullscreenenter"",""5"",""18499""
","
","212.5999999642372","","48","","","3000","1","404.69999998807907,620.7999999523163","48,48","images/tutyellowplanet.jpg","images/tutalien4","images/tutalien3","images/tutrocket2","images/tutalien4","images/nothing.png","2","practice","true","2","common","0","2023-02-20 21:31:39.263"
"two-step-fixation","117","198025","0.0-61.0-2.18","3595","6340","16","Male","true","true","true","true","""event"",""trial"",""time""
""fullscreenenter"",""5"",""18499""
","
","
","""event"",""trial"",""time""
""fullscreenenter"",""5"",""18499""
","
","","images/earth.jpg","","","","","","","","","","","","","","fixation","","","","","",""
"d3-animate-choice","118","200160","0.0-61.0-0.19","3595","6340","16","Male","true","true","true","true","""event"",""trial"",""time""
""fullscreenenter"",""5"",""18499""
","
","
","""event"",""trial"",""time""
""fullscreenenter"",""5"",""18499""
","
","131.19999998807907","","48","","","3000","1","","","images/earth.jpg","images/tutrocket2","images/tutrocket1","null","images/tutrocket2","","1","practice","null","2","","",""
"d3-animate-choice","119","202664","0.0-61.0-1.19","3595","6340","16","Male","true","true","true","true","""event"",""trial"",""time""
""fullscreenenter"",""5"",""18499""
","
","
","""event"",""trial"",""time""
""fullscreenenter"",""5"",""18499""
","
","500.5","","48","","","3000","1","","","images/tutyellowplanet.jpg","images/tutalien4","images/tutalien3","images/tutrocket2","images/tutalien4","images/nothing.png","2","practice","true","2","common","0","2023-02-20 21:31:44.904"
"two-step-fixation","120","203666","0.0-61.0-2.19","3595","6340","16","Male","true","true","true","true","""event"",""trial"",""time""
""fullscreenenter"",""5"",""18499""
","
","
","""event"",""trial"",""time""
""fullscreenenter"",""5"",""18499""
","
","","images/earth.jpg","","","","","","","","","","","","","","fixation","","","","","",""
"d3-instructions","121","207182","0.0-62.0","3595","6340","16","Male","true","true","true","true","""event"",""trial"",""time""
""fullscreenenter"",""5"",""18499""
","
","
","""event"",""trial"",""time""
""fullscreenenter"",""5"",""18499""
","
","","","","","","","","","","","","","","","","","","","","","",""
"audio-keyboard-response","122","208686","0.0-63.0","3595","6340","16","Male","true","true","true","true","""event"",""trial"",""time""
""fullscreenenter"",""5"",""18499""
","
","
","""event"",""trial"",""time""
""fullscreenenter"",""5"",""18499""
","
","1501","audio/instructions/treasure_feedback.wav","32","","","","","","","","","","","","","","","","","","",""
"d3-instructions","123","210222","0.0-64.0","3595","6340","16","Male","true","true","true","true","""event"",""trial"",""time""
""fullscreenenter"",""5"",""18499""
","
","
","""event"",""trial"",""time""
""fullscreenenter"",""5"",""18499""
","
","","","","","","","","","","","","","","","","","","","","","",""
"d3-instructions","124","210918","0.0-65.0","3595","6340","16","Male","true","true","true","true","""event"",""trial"",""time""
""fullscreenenter"",""5"",""18499""
","
","
","""event"",""trial"",""time""
""fullscreenenter"",""5"",""18499""
","
","","","","","","","","","","","","","","","","","","","","","",""
"d3-instructions","125","211214","0.0-66.0","3595","6340","16","Male","true","true","true","true","""event"",""trial"",""time""
""fullscreenenter"",""5"",""18499""
","
","
","""event"",""trial"",""time""
""fullscreenenter"",""5"",""18499""
","
","","","","","","","","","","","","","","","","","","","","","",""
"d3-instructions","126","211726","0.0-67.0","3595","6340","16","Male","true","true","true","true","""event"",""trial"",""time""
""fullscreenenter"",""5"",""18499""
","
","
","""event"",""trial"",""time""
""fullscreenenter"",""5"",""18499""
","
","","","","","","","","","","","","","","","","","","","","","",""
"d3-instructions","127","212046","0.0-68.0","3595","6340","16","Male","true","true","true","true","""event"",""trial"",""time""
""fullscreenenter"",""5"",""18499""
","
","
","""event"",""trial"",""time""
""fullscreenenter"",""5"",""18499""
","
","","","","","","","","","","","","","","","","","","","","","",""
"instructions-quiz","128","214894","0.0-69.0","3595","6340","16","Male","true","true","true","true","""event"",""trial"",""time""
""fullscreenenter"",""5"",""18499""
","
","
","""event"",""trial"",""time""
""fullscreenenter"",""5"",""18499""
","
","2847.5","audio/quiz/Q1_Prompt.wav","","1","","","","","","","","","","","","","","","","","",""
"audio-keyboard-response","129","215773","0.0-70.0","3595","6340","16","Male","true","true","true","true","""event"",""trial"",""time""
""fullscreenenter"",""5"",""18499""
","
","
","""event"",""trial"",""time""
""fullscreenenter"",""5"",""18499""
","
","880","audio/quiz/Q1_Correct.wav","32","","","","","","","","","","","","","","","","","","",""
"instructions-quiz","130","218778","0.0-71.0","3595","6340","16","Male","true","true","true","true","""event"",""trial"",""time""
""fullscreenenter"",""5"",""18499""
","
","
","""event"",""trial"",""time""
""fullscreenenter"",""5"",""18499""
","
","3003.5","audio/quiz/Q2_Prompt.wav","","0","","","","","","","","","","","","","","","","","",""
"audio-keyboard-response","131","219014","0.0-72.0","3595","6340","16","Male","true","true","true","true","""event"",""trial"",""time""
""fullscreenenter"",""5"",""18499""
","
","
","""event"",""trial"",""time""
""fullscreenenter"",""5"",""18499""
","
","240","audio/quiz/Q2_Correct.wav","32","","","","","","","","","","","","","","","","","","",""
"instructions-quiz","132","221757","0.0-73.0","3595","6340","16","Male","true","true","true","true","""event"",""trial"",""time""
""fullscreenenter"",""5"",""18499""
","
","
","""event"",""trial"",""time""
""fullscreenenter"",""5"",""18499""
","
","2742.399999976158","audio/quiz/Q3_Prompt.wav","","1","","","","","","","","","","","","","","","","","",""
"audio-keyboard-response","133","222973","0.0-74.0","3595","6340","16","Male","true","true","true","true","""event"",""trial"",""time""
""fullscreenenter"",""5"",""18499""
","
","
","""event"",""trial"",""time""
""fullscreenenter"",""5"",""18499""
","
","1221","audio/quiz/Q3_Correct.wav","32","","","","","","","","","","","","","","","","","","",""
"d3-instructions","134","224886","0.0-75.0","3595","6340","16","Male","true","true","true","true","""event"",""trial"",""time""
""fullscreenenter"",""5"",""18499""
","
","
","""event"",""trial"",""time""
""fullscreenenter"",""5"",""18499""
","
","","","","","","","","","","","","","","","","","","","","","",""
"pavlovia","135","224887","0.0-76.0","3595","6340","16","Male","true","true","true","true","""event"",""trial"",""time""
""fullscreenenter"",""5"",""18499""
""fullscreenexit"",""136"",""225852""
","
","
","""event"",""trial"",""time""
""fullscreenenter"",""5"",""18499""
","""event"",""trial"",""time""
""fullscreenexit"",""136"",""225852""
","","","","","","","","","","","","","","","","","","","","","",""
"d3-animate-choice","136","228894","0.0-77.0-0.0","3595","6340","16","Male","true","true","true","true","""event"",""trial"",""time""
""fullscreenenter"",""5"",""18499""
""fullscreenexit"",""136"",""225852""
","
","
","""event"",""trial"",""time""
""fullscreenenter"",""5"",""18499""
","""event"",""trial"",""time""
""fullscreenexit"",""136"",""225852""
","3187.800000011921","","27","","","3000","0","4003.800000011921","27","images/earth.jpg","images/rocket2","images/rocket1","null","","","1","real","null","","","",""
"d3-animate-choice","137","229901","0.0-77.0-1.0","3595","6340","16","Male","true","true","true","true","""event"",""trial"",""time""
""fullscreenenter"",""5"",""18499""
""fullscreenexit"",""136"",""225852""
","
","
","""event"",""trial"",""time""
""fullscreenenter"",""5"",""18499""
","""event"",""trial"",""time""
""fullscreenexit"",""136"",""225852""
","190.10000002384186","","27","","","0","0","","","images/earth.jpg","images/rocket2","images/rocket1","null","","","2","real","null","","","0","2023-02-20 21:32:12.141"
"two-step-fixation","138","230903","0.0-77.0-2.0","3595","6340","16","Male","true","true","true","true","""event"",""trial"",""time""
""fullscreenenter"",""5"",""18499""
""fullscreenexit"",""136"",""225852""
","
","
","""event"",""trial"",""time""
""fullscreenenter"",""5"",""18499""
","""event"",""trial"",""time""
""fullscreenexit"",""136"",""225852""
","","images/earth.jpg","","","","","","","","","","","","","","fixation","","","","","",""
"d3-animate-choice","139","233550","0.0-77.0-0.1","3595","6340","16","Male","true","true","true","true","""event"",""trial"",""time""
""fullscreenenter"",""5"",""18499""
""fullscreenexit"",""136"",""225852""
","
","
","""event"",""trial"",""time""
""fullscreenenter"",""5"",""18499""
","""event"",""trial"",""time""
""fullscreenexit"",""136"",""225852""
","644.4000000357628","","49","","","3000","1","","","images/earth.jpg","images/rocket2","images/rocket1","null","images/rocket1","","1","real","null","1","","",""
"d3-animate-choice","140","236611","0.0-77.0-1.1","3595","6340","16","Male","true","true","true","true","""event"",""trial"",""time""
""fullscreenenter"",""5"",""18499""
""fullscreenexit"",""136"",""225852""
","
","
","""event"",""trial"",""time""
""fullscreenenter"",""5"",""18499""
","""event"",""trial"",""time""
""fullscreenexit"",""136"",""225852""
","1057.199999988079","","49","","","3000","1","","","images/redplanet1.jpg","images/alien2","images/alien1","images/rocket1","images/alien1","images/t.png","2","real","true","1","common","1","2023-02-20 21:32:18.851"
"two-step-fixation","141","237613","0.0-77.0-2.1","3595","6340","16","Male","true","true","true","true","""event"",""trial"",""time""
""fullscreenenter"",""5"",""18499""
""fullscreenexit"",""136"",""225852""
","
","
","""event"",""trial"",""time""
""fullscreenenter"",""5"",""18499""
","""event"",""trial"",""time""
""fullscreenexit"",""136"",""225852""
","","images/earth.jpg","","","","","","","","","","","","","","fixation","","","","","",""
"d3-animate-choice","142","240247","0.0-77.0-0.2","3595","6340","16","Male","true","true","true","true","""event"",""trial"",""time""
""fullscreenenter"",""5"",""18499""
""fullscreenexit"",""136"",""225852""
""blur"",""143"",""242612""
","""event"",""trial"",""time""
""blur"",""143"",""242612""
","
","""event"",""trial"",""time""
""fullscreenenter"",""5"",""18499""
","""event"",""trial"",""time""
""fullscreenexit"",""136"",""225852""
","630.3999999761581","","48","","","3000","1","","","images/earth.jpg","images/rocket2","images/rocket1","null","images/rocket2","","1","real","null","2","","",""
"d3-animate-choice","143","243352","0.0-77.0-1.2","3595","6340","16","Male","true","true","true","true","""event"",""trial"",""time""
""fullscreenenter"",""5"",""18499""
""fullscreenexit"",""136"",""225852""
""blur"",""143"",""242612""
","""event"",""trial"",""time""
""blur"",""143"",""242612""
","
","""event"",""trial"",""time""
""fullscreenenter"",""5"",""18499""
","""event"",""trial"",""time""
""fullscreenexit"",""136"",""225852""
","1101.0999999642372","","48","","","3000","1","","","images/purpleplanet.jpg","images/alien4","images/alien3","images/rocket2","images/alien4","images/t.png","2","real","true","2","common","1","2023-02-20 21:32:25.592"
"two-step-fixation","144","244355","0.0-77.0-2.2","3595","6340","16","Male","true","true","true","true","""event"",""trial"",""time""
""fullscreenenter"",""5"",""18499""
""fullscreenexit"",""136"",""225852""
""blur"",""143"",""242612""
""focus"",""145"",""244486""
","""event"",""trial"",""time""
""blur"",""143"",""242612""
","""event"",""trial"",""time""
""focus"",""145"",""244486""
","""event"",""trial"",""time""
""fullscreenenter"",""5"",""18499""
","""event"",""trial"",""time""
""fullscreenexit"",""136"",""225852""
","","images/earth.jpg","","","","","","","","","","","","","","fixation","","","","","",""
"d3-animate-choice","145","247688","0.0-77.0-0.3","3595","6340","16","Male","true","true","true","true","""event"",""trial"",""time""
""fullscreenenter"",""5"",""18499""
""fullscreenexit"",""136"",""225852""
""blur"",""143"",""242612""
""focus"",""145"",""244486""
","""event"",""trial"",""time""
""blur"",""143"",""242612""
","""event"",""trial"",""time""
""focus"",""145"",""244486""
","""event"",""trial"",""time""
""fullscreenenter"",""5"",""18499""
","""event"",""trial"",""time""
""fullscreenexit"",""136"",""225852""
","1329","","48","","","3000","1","","","images/earth.jpg","images/rocket2","images/rocket1","null","images/rocket2","","1","real","null","2","","",""
"d3-animate-choice","146","250148","0.0-77.0-1.3","3595","6340","16","Male","true","true","true","true","""event"",""trial"",""time""
""fullscreenenter"",""5"",""18499""
""fullscreenexit"",""136"",""225852""
""blur"",""143"",""242612""
""focus"",""145"",""244486""
""blur"",""147"",""250751""
","""event"",""trial"",""time""
""blur"",""143"",""242612""
""blur"",""147"",""250751""
","""event"",""trial"",""time""
""focus"",""145"",""244486""
","""event"",""trial"",""time""
""fullscreenenter"",""5"",""18499""
","""event"",""trial"",""time""
""fullscreenexit"",""136"",""225852""
","450.69999998807907","","48","","","3000","1","","","images/redplanet1.jpg","images/alien2","images/alien1","images/rocket2","images/alien2","images/nothing.png","2","real","false","2","rare","0","2023-02-20 21:32:32.388"
"two-step-fixation","147","251153","0.0-77.0-2.3","3595","6340","16","Male","true","true","true","true","""event"",""trial"",""time""
""fullscreenenter"",""5"",""18499""
""fullscreenexit"",""136"",""225852""
""blur"",""143"",""242612""
""focus"",""145"",""244486""
""blur"",""147"",""250751""
""focus"",""148"",""253631""
","""event"",""trial"",""time""
""blur"",""143"",""242612""
""blur"",""147"",""250751""
","""event"",""trial"",""time""
""focus"",""145"",""244486""
""focus"",""148"",""253631""
","""event"",""trial"",""time""
""fullscreenenter"",""5"",""18499""
","""event"",""trial"",""time""
""fullscreenexit"",""136"",""225852""
","","images/earth.jpg","","","","","","","","","","","","","","fixation","","","","","",""
"d3-animate-choice","148","255161","0.0-77.0-0.4","3595","6340","16","Male","true","true","true","true","""event"",""trial"",""time""
""fullscreenenter"",""5"",""18499""
""fullscreenexit"",""136"",""225852""
""blur"",""143"",""242612""
""focus"",""145"",""244486""
""blur"",""147"",""250751""
""focus"",""148"",""253631""
","""event"",""trial"",""time""
""blur"",""143"",""242612""
""blur"",""147"",""250751""
","""event"",""trial"",""time""
""focus"",""145"",""244486""
""focus"",""148"",""253631""
","""event"",""trial"",""time""
""fullscreenenter"",""5"",""18499""
","""event"",""trial"",""time""
""fullscreenexit"",""136"",""225852""
","2830.5","","48","","","3000","1","","","images/earth.jpg","images/rocket2","images/rocket1","null","images/rocket2","","1","real","null","2","","",""
"d3-animate-choice","149","257767","0.0-77.0-1.4","3595","6340","16","Male","true","true","true","true","""event"",""trial"",""time""
""fullscreenenter"",""5"",""18499""
""fullscreenexit"",""136"",""225852""
""blur"",""143"",""242612""
""focus"",""145"",""244486""
""blur"",""147"",""250751""
""focus"",""148"",""253631""
","""event"",""trial"",""time""
""blur"",""143"",""242612""
""blur"",""147"",""250751""
","""event"",""trial"",""time""
""focus"",""145"",""244486""
""focus"",""148"",""253631""
","""event"",""trial"",""time""
""fullscreenenter"",""5"",""18499""
","""event"",""trial"",""time""
""fullscreenexit"",""136"",""225852""
","602.8000000119209","","48","","","3000","1","","","images/purpleplanet.jpg","images/alien4","images/alien3","images/rocket2","images/alien4","images/t.png","2","real","true","2","common","1","2023-02-20 21:32:40.007"
"two-step-fixation","150","258769","0.0-77.0-2.4","3595","6340","16","Male","true","true","true","true","""event"",""trial"",""time""
""fullscreenenter"",""5"",""18499""
""fullscreenexit"",""136"",""225852""
""blur"",""143"",""242612""
""focus"",""145"",""244486""
""blur"",""147"",""250751""
""focus"",""148"",""253631""
","""event"",""trial"",""time""
""blur"",""143"",""242612""
""blur"",""147"",""250751""
","""event"",""trial"",""time""
""focus"",""145"",""244486""
""focus"",""148"",""253631""
","""event"",""trial"",""time""
""fullscreenenter"",""5"",""18499""
","""event"",""trial"",""time""
""fullscreenexit"",""136"",""225852""
","","images/earth.jpg","","","","","","","","","","","","","","fixation","","","","","",""
"d3-animate-choice","151","261166","0.0-77.0-0.5","3595","6340","16","Male","true","true","true","true","""event"",""trial"",""time""
""fullscreenenter"",""5"",""18499""
""fullscreenexit"",""136"",""225852""
""blur"",""143"",""242612""
""focus"",""145"",""244486""
""blur"",""147"",""250751""
""focus"",""148"",""253631""
","""event"",""trial"",""time""
""blur"",""143"",""242612""
""blur"",""147"",""250751""
","""event"",""trial"",""time""
""focus"",""145"",""244486""
""focus"",""148"",""253631""
","""event"",""trial"",""time""
""fullscreenenter"",""5"",""18499""
","""event"",""trial"",""time""
""fullscreenexit"",""136"",""225852""
","394.30000001192093","","48","","","3000","1","","","images/earth.jpg","images/rocket2","images/rocket1","null","images/rocket2","","1","real","null","2","","",""
"d3-animate-choice","152","263717","0.0-77.0-1.5","3595","6340","16","Male","true","true","true","true","""event"",""trial"",""time""
""fullscreenenter"",""5"",""18499""
""fullscreenexit"",""136"",""225852""
""blur"",""143"",""242612""
""focus"",""145"",""244486""
""blur"",""147"",""250751""
""focus"",""148"",""253631""
","""event"",""trial"",""time""
""blur"",""143"",""242612""
""blur"",""147"",""250751""
","""event"",""trial"",""time""
""focus"",""145"",""244486""
""focus"",""148"",""253631""
","""event"",""trial"",""time""
""fullscreenenter"",""5"",""18499""
","""event"",""trial"",""time""
""fullscreenexit"",""136"",""225852""
","548.3999999761581","","48","","","3000","1","","","images/purpleplanet.jpg","images/alien4","images/alien3","images/rocket2","images/alien4","images/t.png","2","real","true","2","common","1","2023-02-20 21:32:45.957"
"two-step-fixation","153","264721","0.0-77.0-2.5","3595","6340","16","Male","true","true","true","true","""event"",""trial"",""time""
""fullscreenenter"",""5"",""18499""
""fullscreenexit"",""136"",""225852""
""blur"",""143"",""242612""
""focus"",""145"",""244486""
""blur"",""147"",""250751""
""focus"",""148"",""253631""
","""event"",""trial"",""time""
""blur"",""143"",""242612""
""blur"",""147"",""250751""
","""event"",""trial"",""time""
""focus"",""145"",""244486""
""focus"",""148"",""253631""
","""event"",""trial"",""time""
""fullscreenenter"",""5"",""18499""
","""event"",""trial"",""time""
""fullscreenexit"",""136"",""225852""
","","images/earth.jpg","","","","","","","","","","","","","","fixation","","","","","",""
"d3-animate-choice","154","266894","0.0-77.0-0.6","3595","6340","16","Male","true","true","true","true","""event"",""trial"",""time""
""fullscreenenter"",""5"",""18499""
""fullscreenexit"",""136"",""225852""
""blur"",""143"",""242612""
""focus"",""145"",""244486""
""blur"",""147"",""250751""
""focus"",""148"",""253631""
","""event"",""trial"",""time""
""blur"",""143"",""242612""
""blur"",""147"",""250751""
","""event"",""trial"",""time""
""focus"",""145"",""244486""
""focus"",""148"",""253631""
","""event"",""trial"",""time""
""fullscreenenter"",""5"",""18499""
","""event"",""trial"",""time""
""fullscreenexit"",""136"",""225852""
","169.30000001192093","","48","","","3000","1","","","images/earth.jpg","images/rocket2","images/rocket1","null","images/rocket2","","1","real","null","2","","",""
"d3-animate-choice","155","269311","0.0-77.0-1.6","3595","6340","16","Male","true","true","true","true","""event"",""trial"",""time""
""fullscreenenter"",""5"",""18499""
""fullscreenexit"",""136"",""225852""
""blur"",""143"",""242612""
""focus"",""145"",""244486""
""blur"",""147"",""250751""
""focus"",""148"",""253631""
","""event"",""trial"",""time""
""blur"",""143"",""242612""
""blur"",""147"",""250751""
","""event"",""trial"",""time""
""focus"",""145"",""244486""
""focus"",""148"",""253631""
","""event"",""trial"",""time""
""fullscreenenter"",""5"",""18499""
","""event"",""trial"",""time""
""fullscreenexit"",""136"",""225852""
","413.5999999642372","","48","","","3000","1","","","images/purpleplanet.jpg","images/alien4","images/alien3","images/rocket2","images/alien4","images/t.png","2","real","true","2","common","1","2023-02-20 21:32:51.551"
"two-step-fixation","156","270314","0.0-77.0-2.6","3595","6340","16","Male","true","true","true","true","""event"",""trial"",""time""
""fullscreenenter"",""5"",""18499""
""fullscreenexit"",""136"",""225852""
""blur"",""143"",""242612""
""focus"",""145"",""244486""
""blur"",""147"",""250751""
""focus"",""148"",""253631""
","""event"",""trial"",""time""
""blur"",""143"",""242612""
""blur"",""147"",""250751""
","""event"",""trial"",""time""
""focus"",""145"",""244486""
""focus"",""148"",""253631""
","""event"",""trial"",""time""
""fullscreenenter"",""5"",""18499""
","""event"",""trial"",""time""
""fullscreenexit"",""136"",""225852""
","","images/earth.jpg","","","","","","","","","","","","","","fixation","","","","","",""
"d3-animate-choice","157","272918","0.0-77.0-0.7","3595","6340","16","Male","true","true","true","true","""event"",""trial"",""time""
""fullscreenenter"",""5"",""18499""
""fullscreenexit"",""136"",""225852""
""blur"",""143"",""242612""
""focus"",""145"",""244486""
""blur"",""147"",""250751""
""focus"",""148"",""253631""
""blur"",""158"",""275327""
","""event"",""trial"",""time""
""blur"",""143"",""242612""
""blur"",""147"",""250751""
""blur"",""158"",""275327""
","""event"",""trial"",""time""
""focus"",""145"",""244486""
""focus"",""148"",""253631""
","""event"",""trial"",""time""
""fullscreenenter"",""5"",""18499""
","""event"",""trial"",""time""
""fullscreenexit"",""136"",""225852""
","601.1000000238419","","48","","","3000","1","","","images/earth.jpg","images/rocket2","images/rocket1","null","images/rocket2","","1","real","null","2","","",""
"d3-animate-choice","158","275622","0.0-77.0-1.7","3595","6340","16","Male","true","true","true","true","""event"",""trial"",""time""
""fullscreenenter"",""5"",""18499""
""fullscreenexit"",""136"",""225852""
""blur"",""143"",""242612""
""focus"",""145"",""244486""
""blur"",""147"",""250751""
""focus"",""148"",""253631""
""blur"",""158"",""275327""
","""event"",""trial"",""time""
""blur"",""143"",""242612""
""blur"",""147"",""250751""
""blur"",""158"",""275327""
","""event"",""trial"",""time""
""focus"",""145"",""244486""
""focus"",""148"",""253631""
","""event"",""trial"",""time""
""fullscreenenter"",""5"",""18499""
","""event"",""trial"",""time""
""fullscreenexit"",""136"",""225852""
","699.8999999761581","","49","","","3000","1","","","images/redplanet1.jpg","images/alien2","images/alien1","images/rocket2","images/alien1","images/nothing.png","2","real","false","1","rare","0","2023-02-20 21:32:57.862"
"two-step-fixation","159","276625","0.0-77.0-2.7","3595","6340","16","Male","true","true","true","true","""event"",""trial"",""time""
""fullscreenenter"",""5"",""18499""
""fullscreenexit"",""136"",""225852""
""blur"",""143"",""242612""
""focus"",""145"",""244486""
""blur"",""147"",""250751""
""focus"",""148"",""253631""
""blur"",""158"",""275327""
""focus"",""160"",""278294""
","""event"",""trial"",""time""
""blur"",""143"",""242612""
""blur"",""147"",""250751""
""blur"",""158"",""275327""
","""event"",""trial"",""time""
""focus"",""145"",""244486""
""focus"",""148"",""253631""
""focus"",""160"",""278294""
","""event"",""trial"",""time""
""fullscreenenter"",""5"",""18499""
","""event"",""trial"",""time""
""fullscreenexit"",""136"",""225852""
","","images/earth.jpg","","","","","","","","","","","","","","fixation","","","","","",""
"d3-animate-choice","160","280612","0.0-77.0-0.8","3595","6340","16","Male","true","true","true","true","""event"",""trial"",""time""
""fullscreenenter"",""5"",""18499""
""fullscreenexit"",""136"",""225852""
""blur"",""143"",""242612""
""focus"",""145"",""244486""
""blur"",""147"",""250751""
""focus"",""148"",""253631""
""blur"",""158"",""275327""
""focus"",""160"",""278294""
""blur"",""161"",""281972""
","""event"",""trial"",""time""
""blur"",""143"",""242612""
""blur"",""147"",""250751""
""blur"",""158"",""275327""
""blur"",""161"",""281972""
","""event"",""trial"",""time""
""focus"",""145"",""244486""
""focus"",""148"",""253631""
""focus"",""160"",""278294""
","""event"",""trial"",""time""
""fullscreenenter"",""5"",""18499""
","""event"",""trial"",""time""
""fullscreenexit"",""136"",""225852""
","1969.5","","48","","","3000","1","","","images/earth.jpg","images/rocket2","images/rocket1","null","images/rocket2","","1","real","null","2","","",""
"d3-animate-choice","161","283351","0.0-77.0-1.8","3595","6340","16","Male","true","true","true","true","""event"",""trial"",""time""
""fullscreenenter"",""5"",""18499""
""fullscreenexit"",""136"",""225852""
""blur"",""143"",""242612""
""focus"",""145"",""244486""
""blur"",""147"",""250751""
""focus"",""148"",""253631""
""blur"",""158"",""275327""
""focus"",""160"",""278294""
""blur"",""161"",""281972""
""focus"",""162"",""283531""
","""event"",""trial"",""time""
""blur"",""143"",""242612""
""blur"",""147"",""250751""
""blur"",""158"",""275327""
""blur"",""161"",""281972""
","""event"",""trial"",""time""
""focus"",""145"",""244486""
""focus"",""148"",""253631""
""focus"",""160"",""278294""
""focus"",""162"",""283531""
","""event"",""trial"",""time""
""fullscreenenter"",""5"",""18499""
","""event"",""trial"",""time""
""fullscreenexit"",""136"",""225852""
","734.5999999642372","","48","","","3000","1","","","images/purpleplanet.jpg","images/alien4","images/alien3","images/rocket2","images/alien4","images/t.png","2","real","true","2","common","1","2023-02-20 21:33:05.591"
"two-step-fixation","162","284356","0.0-77.0-2.8","3595","6340","16","Male","true","true","true","true","""event"",""trial"",""time""
""fullscreenenter"",""5"",""18499""
""fullscreenexit"",""136"",""225852""
""blur"",""143"",""242612""
""focus"",""145"",""244486""
""blur"",""147"",""250751""
""focus"",""148"",""253631""
""blur"",""158"",""275327""
""focus"",""160"",""278294""
""blur"",""161"",""281972""
""focus"",""162"",""283531""
","""event"",""trial"",""time""
""blur"",""143"",""242612""
""blur"",""147"",""250751""
""blur"",""158"",""275327""
""blur"",""161"",""281972""
","""event"",""trial"",""time""
""focus"",""145"",""244486""
""focus"",""148"",""253631""
""focus"",""160"",""278294""
""focus"",""162"",""283531""
","""event"",""trial"",""time""
""fullscreenenter"",""5"",""18499""
","""event"",""trial"",""time""
""fullscreenexit"",""136"",""225852""
","","images/earth.jpg","","","","","","","","","","","","","","fixation","","","","","",""
"d3-animate-choice","163","286903","0.0-77.0-0.9","3595","6340","16","Male","true","true","true","true","""event"",""trial"",""time""
""fullscreenenter"",""5"",""18499""
""fullscreenexit"",""136"",""225852""
""blur"",""143"",""242612""
""focus"",""145"",""244486""
""blur"",""147"",""250751""
""focus"",""148"",""253631""
""blur"",""158"",""275327""
""focus"",""160"",""278294""
""blur"",""161"",""281972""
""focus"",""162"",""283531""
""blur"",""164"",""288014""
","""event"",""trial"",""time""
""blur"",""143"",""242612""
""blur"",""147"",""250751""
""blur"",""158"",""275327""
""blur"",""161"",""281972""
""blur"",""164"",""288014""
","""event"",""trial"",""time""
""focus"",""145"",""244486""
""focus"",""148"",""253631""
""focus"",""160"",""278294""
""focus"",""162"",""283531""
","""event"",""trial"",""time""
""fullscreenenter"",""5"",""18499""
","""event"",""trial"",""time""
""fullscreenexit"",""136"",""225852""
","542.1999999880791","","48","","","3000","1","","","images/earth.jpg","images/rocket2","images/rocket1","null","images/rocket2","","1","real","null","2","","",""
"d3-animate-choice","164","289519","0.0-77.0-1.9","3595","6340","16","Male","true","true","true","true","""event"",""trial"",""time""
""fullscreenenter"",""5"",""18499""
""fullscreenexit"",""136"",""225852""
""blur"",""143"",""242612""
""focus"",""145"",""244486""
""blur"",""147"",""250751""
""focus"",""148"",""253631""
""blur"",""158"",""275327""
""focus"",""160"",""278294""
""blur"",""161"",""281972""
""focus"",""162"",""283531""
""blur"",""164"",""288014""
""focus"",""165"",""290032""
","""event"",""trial"",""time""
""blur"",""143"",""242612""
""blur"",""147"",""250751""
""blur"",""158"",""275327""
""blur"",""161"",""281972""
""blur"",""164"",""288014""
","""event"",""trial"",""time""
""focus"",""145"",""244486""
""focus"",""148"",""253631""
""focus"",""160"",""278294""
""focus"",""162"",""283531""
""focus"",""165"",""290032""
","""event"",""trial"",""time""
""fullscreenenter"",""5"",""18499""
","""event"",""trial"",""time""
""fullscreenexit"",""136"",""225852""
","613.5999999642372","","48","","","3000","1","","","images/purpleplanet.jpg","images/alien4","images/alien3","images/rocket2","images/alien4","images/t.png","2","real","true","2","common","1","2023-02-20 21:33:11.760"
"two-step-fixation","165","290523","0.0-77.0-2.9","3595","6340","16","Male","true","true","true","true","""event"",""trial"",""time""
""fullscreenenter"",""5"",""18499""
""fullscreenexit"",""136"",""225852""
""blur"",""143"",""242612""
""focus"",""145"",""244486""
""blur"",""147"",""250751""
""focus"",""148"",""253631""
""blur"",""158"",""275327""
""focus"",""160"",""278294""
""blur"",""161"",""281972""
""focus"",""162"",""283531""
""blur"",""164"",""288014""
""focus"",""165"",""290032""
""blur"",""166"",""291769""
","""event"",""trial"",""time""
""blur"",""143"",""242612""
""blur"",""147"",""250751""
""blur"",""158"",""275327""
""blur"",""161"",""281972""
""blur"",""164"",""288014""
""blur"",""166"",""291769""
","""event"",""trial"",""time""
""focus"",""145"",""244486""
""focus"",""148"",""253631""
""focus"",""160"",""278294""
""focus"",""162"",""283531""
""focus"",""165"",""290032""
","""event"",""trial"",""time""
""fullscreenenter"",""5"",""18499""
","""event"",""trial"",""time""
""fullscreenexit"",""136"",""225852""
","","images/earth.jpg","","","","","","","","","","","","","","fixation","","","","","",""
"d3-animate-choice","166","292911","0.0-77.0-0.10","3595","6340","16","Male","true","true","true","true","""event"",""trial"",""time""
""fullscreenenter"",""5"",""18499""
""fullscreenexit"",""136"",""225852""
""blur"",""143"",""242612""
""focus"",""145"",""244486""
""blur"",""147"",""250751""
""focus"",""148"",""253631""
""blur"",""158"",""275327""
""focus"",""160"",""278294""
""blur"",""161"",""281972""
""focus"",""162"",""283531""
""blur"",""164"",""288014""
""focus"",""165"",""290032""
""blur"",""166"",""291769""
""focus"",""167"",""294338""
""blur"",""167"",""296208""
","""event"",""trial"",""time""
""blur"",""143"",""242612""
""blur"",""147"",""250751""
""blur"",""158"",""275327""
""blur"",""161"",""281972""
""blur"",""164"",""288014""
""blur"",""166"",""291769""
""blur"",""167"",""296208""
","""event"",""trial"",""time""
""focus"",""145"",""244486""
""focus"",""148"",""253631""
""focus"",""160"",""278294""
""focus"",""162"",""283531""
""focus"",""165"",""290032""
""focus"",""167"",""294338""
","""event"",""trial"",""time""
""fullscreenenter"",""5"",""18499""
","""event"",""trial"",""time""
""fullscreenexit"",""136"",""225852""
","383.69999998807907","","48","","","3000","1","","","images/earth.jpg","images/rocket2","images/rocket1","null","images/rocket2","","1","real","null","2","","",""
"d3-animate-choice","167","296646","0.0-77.0-1.10","3595","6340","16","Male","true","true","true","true","""event"",""trial"",""time""
""fullscreenenter"",""5"",""18499""
""fullscreenexit"",""136"",""225852""
""blur"",""143"",""242612""
""focus"",""145"",""244486""
""blur"",""147"",""250751""
""focus"",""148"",""253631""
""blur"",""158"",""275327""
""focus"",""160"",""278294""
""blur"",""161"",""281972""
""focus"",""162"",""283531""
""blur"",""164"",""288014""
""focus"",""165"",""290032""
""blur"",""166"",""291769""
""focus"",""167"",""294338""
""blur"",""167"",""296208""
","""event"",""trial"",""time""
""blur"",""143"",""242612""
""blur"",""147"",""250751""
""blur"",""158"",""275327""
""blur"",""161"",""281972""
""blur"",""164"",""288014""
""blur"",""166"",""291769""
""blur"",""167"",""296208""
","""event"",""trial"",""time""
""focus"",""145"",""244486""
""focus"",""148"",""253631""
""focus"",""160"",""278294""
""focus"",""162"",""283531""
""focus"",""165"",""290032""
""focus"",""167"",""294338""
","""event"",""trial"",""time""
""fullscreenenter"",""5"",""18499""
","""event"",""trial"",""time""
""fullscreenexit"",""136"",""225852""
","1731.5","","48","","","3000","1","","","images/purpleplanet.jpg","images/alien4","images/alien3","images/rocket2","images/alien4","images/t.png","2","real","true","2","common","1","2023-02-20 21:33:18.886"
"two-step-fixation","168","297650","0.0-77.0-2.10","3595","6340","16","Male","true","true","true","true","""event"",""trial"",""time""
""fullscreenenter"",""5"",""18499""
""fullscreenexit"",""136"",""225852""
""blur"",""143"",""242612""
""focus"",""145"",""244486""
""blur"",""147"",""250751""
""focus"",""148"",""253631""
""blur"",""158"",""275327""
""focus"",""160"",""278294""
""blur"",""161"",""281972""
""focus"",""162"",""283531""
""blur"",""164"",""288014""
""focus"",""165"",""290032""
""blur"",""166"",""291769""
""focus"",""167"",""294338""
""blur"",""167"",""296208""
""focus"",""169"",""298519""
""blur"",""169"",""299582""
""focus"",""169"",""300352""
","""event"",""trial"",""time""
""blur"",""143"",""242612""
""blur"",""147"",""250751""
""blur"",""158"",""275327""
""blur"",""161"",""281972""
""blur"",""164"",""288014""
""blur"",""166"",""291769""
""blur"",""167"",""296208""
""blur"",""169"",""299582""
","""event"",""trial"",""time""
""focus"",""145"",""244486""
""focus"",""148"",""253631""
""focus"",""160"",""278294""
""focus"",""162"",""283531""
""focus"",""165"",""290032""
""focus"",""167"",""294338""
""focus"",""169"",""298519""
""focus"",""169"",""300352""
","""event"",""trial"",""time""
""fullscreenenter"",""5"",""18499""
","""event"",""trial"",""time""
""fullscreenexit"",""136"",""225852""
","","images/earth.jpg","","","","","","","","","","","","","","fixation","","","","","",""
"d3-animate-choice","169","301657","0.0-77.0-0.11","3595","6340","16","Male","true","true","true","true","""event"",""trial"",""time""
""fullscreenenter"",""5"",""18499""
""fullscreenexit"",""136"",""225852""
""blur"",""143"",""242612""
""focus"",""145"",""244486""
""blur"",""147"",""250751""
""focus"",""148"",""253631""
""blur"",""158"",""275327""
""focus"",""160"",""278294""
""blur"",""161"",""281972""
""focus"",""162"",""283531""
""blur"",""164"",""288014""
""focus"",""165"",""290032""
""blur"",""166"",""291769""
""focus"",""167"",""294338""
""blur"",""167"",""296208""
""focus"",""169"",""298519""
""blur"",""169"",""299582""
""focus"",""169"",""300352""
","""event"",""trial"",""time""
""blur"",""143"",""242612""
""blur"",""147"",""250751""
""blur"",""158"",""275327""
""blur"",""161"",""281972""
""blur"",""164"",""288014""
""blur"",""166"",""291769""
""blur"",""167"",""296208""
""blur"",""169"",""299582""
","""event"",""trial"",""time""
""focus"",""145"",""244486""
""focus"",""148"",""253631""
""focus"",""160"",""278294""
""focus"",""162"",""283531""
""focus"",""165"",""290032""
""focus"",""167"",""294338""
""focus"",""169"",""298519""
""focus"",""169"",""300352""
","""event"",""trial"",""time""
""fullscreenenter"",""5"",""18499""
","""event"",""trial"",""time""
""fullscreenexit"",""136"",""225852""
","3070.599999964237","","48","","","3000","0","","","images/earth.jpg","images/rocket2","images/rocket1","null","","","1","real","null","2","","",""
"d3-animate-choice","170","302666","0.0-77.0-1.11","3595","6340","16","Male","true","true","true","true","""event"",""trial"",""time""
""fullscreenenter"",""5"",""18499""
""fullscreenexit"",""136"",""225852""
""blur"",""143"",""242612""
""focus"",""145"",""244486""
""blur"",""147"",""250751""
""focus"",""148"",""253631""
""blur"",""158"",""275327""
""focus"",""160"",""278294""
""blur"",""161"",""281972""
""focus"",""162"",""283531""
""blur"",""164"",""288014""
""focus"",""165"",""290032""
""blur"",""166"",""291769""
""focus"",""167"",""294338""
""blur"",""167"",""296208""
""focus"",""169"",""298519""
""blur"",""169"",""299582""
""focus"",""169"",""300352""
","""event"",""trial"",""time""
""blur"",""143"",""242612""
""blur"",""147"",""250751""
""blur"",""158"",""275327""
""blur"",""161"",""281972""
""blur"",""164"",""288014""
""blur"",""166"",""291769""
""blur"",""167"",""296208""
""blur"",""169"",""299582""
","""event"",""trial"",""time""
""focus"",""145"",""244486""
""focus"",""148"",""253631""
""focus"",""160"",""278294""
""focus"",""162"",""283531""
""focus"",""165"",""290032""
""focus"",""167"",""294338""
""focus"",""169"",""298519""
""focus"",""169"",""300352""
","""event"",""trial"",""time""
""fullscreenenter"",""5"",""18499""
","""event"",""trial"",""time""
""fullscreenexit"",""136"",""225852""
","928.8999999761581","","48","","","0","0","","","images/earth.jpg","images/rocket2","images/rocket1","null","","","2","real","null","2","","0","2023-02-20 21:33:24.906"
"two-step-fixation","171","303670","0.0-77.0-2.11","3595","6340","16","Male","true","true","true","true","""event"",""trial"",""time""
""fullscreenenter"",""5"",""18499""
""fullscreenexit"",""136"",""225852""
""blur"",""143"",""242612""
""focus"",""145"",""244486""
""blur"",""147"",""250751""
""focus"",""148"",""253631""
""blur"",""158"",""275327""
""focus"",""160"",""278294""
""blur"",""161"",""281972""
""focus"",""162"",""283531""
""blur"",""164"",""288014""
""focus"",""165"",""290032""
""blur"",""166"",""291769""
""focus"",""167"",""294338""
""blur"",""167"",""296208""
""focus"",""169"",""298519""
""blur"",""169"",""299582""
""focus"",""169"",""300352""
","""event"",""trial"",""time""
""blur"",""143"",""242612""
""blur"",""147"",""250751""
""blur"",""158"",""275327""
""blur"",""161"",""281972""
""blur"",""164"",""288014""
""blur"",""166"",""291769""
""blur"",""167"",""296208""
""blur"",""169"",""299582""
","""event"",""trial"",""time""
""focus"",""145"",""244486""
""focus"",""148"",""253631""
""focus"",""160"",""278294""
""focus"",""162"",""283531""
""focus"",""165"",""290032""
""focus"",""167"",""294338""
""focus"",""169"",""298519""
""focus"",""169"",""300352""
","""event"",""trial"",""time""
""fullscreenenter"",""5"",""18499""
","""event"",""trial"",""time""
""fullscreenexit"",""136"",""225852""
","","images/earth.jpg","","","","","","","","","","","","","","fixation","","","","","",""
"d3-animate-choice","172","305742","0.0-77.0-0.12","3595","6340","16","Male","true","true","true","true","""event"",""trial"",""time""
""fullscreenenter"",""5"",""18499""
""fullscreenexit"",""136"",""225852""
""blur"",""143"",""242612""
""focus"",""145"",""244486""
""blur"",""147"",""250751""
""focus"",""148"",""253631""
""blur"",""158"",""275327""
""focus"",""160"",""278294""
""blur"",""161"",""281972""
""focus"",""162"",""283531""
""blur"",""164"",""288014""
""focus"",""165"",""290032""
""blur"",""166"",""291769""
""focus"",""167"",""294338""
""blur"",""167"",""296208""
""focus"",""169"",""298519""
""blur"",""169"",""299582""
""focus"",""169"",""300352""
","""event"",""trial"",""time""
""blur"",""143"",""242612""
""blur"",""147"",""250751""
""blur"",""158"",""275327""
""blur"",""161"",""281972""
""blur"",""164"",""288014""
""blur"",""166"",""291769""
""blur"",""167"",""296208""
""blur"",""169"",""299582""
","""event"",""trial"",""time""
""focus"",""145"",""244486""
""focus"",""148"",""253631""
""focus"",""160"",""278294""
""focus"",""162"",""283531""
""focus"",""165"",""290032""
""focus"",""167"",""294338""
""focus"",""169"",""298519""
""focus"",""169"",""300352""
","""event"",""trial"",""time""
""fullscreenenter"",""5"",""18499""
","""event"",""trial"",""time""
""fullscreenexit"",""136"",""225852""
","68","","48","","","3000","1","308.0999999642372,548.3999999761581,820.5,1092","48,48,48,48","images/earth.jpg","images/rocket2","images/rocket1","null","images/rocket2","","1","real","null","2","","",""
"d3-animate-choice","173","308102","0.0-77.0-1.12","3595","6340","16","Male","true","true","true","true","""event"",""trial"",""time""
""fullscreenenter"",""5"",""18499""
""fullscreenexit"",""136"",""225852""
""blur"",""143"",""242612""
""focus"",""145"",""244486""
""blur"",""147"",""250751""
""focus"",""148"",""253631""
""blur"",""158"",""275327""
""focus"",""160"",""278294""
""blur"",""161"",""281972""
""focus"",""162"",""283531""
""blur"",""164"",""288014""
""focus"",""165"",""290032""
""blur"",""166"",""291769""
""focus"",""167"",""294338""
""blur"",""167"",""296208""
""focus"",""169"",""298519""
""blur"",""169"",""299582""
""focus"",""169"",""300352""
","""event"",""trial"",""time""
""blur"",""143"",""242612""
""blur"",""147"",""250751""
""blur"",""158"",""275327""
""blur"",""161"",""281972""
""blur"",""164"",""288014""
""blur"",""166"",""291769""
""blur"",""167"",""296208""
""blur"",""169"",""299582""
","""event"",""trial"",""time""
""focus"",""145"",""244486""
""focus"",""148"",""253631""
""focus"",""160"",""278294""
""focus"",""162"",""283531""
""focus"",""165"",""290032""
""focus"",""167"",""294338""
""focus"",""169"",""298519""
""focus"",""169"",""300352""
","""event"",""trial"",""time""
""fullscreenenter"",""5"",""18499""
","""event"",""trial"",""time""
""fullscreenexit"",""136"",""225852""
","356.19999998807907","","49","","","3000","1","","","images/redplanet1.jpg","images/alien2","images/alien1","images/rocket2","images/alien1","images/nothing.png","2","real","false","1","rare","0","2023-02-20 21:33:30.342"
"two-step-fixation","174","309104","0.0-77.0-2.12","3595","6340","16","Male","true","true","true","true","""event"",""trial"",""time""
""fullscreenenter"",""5"",""18499""
""fullscreenexit"",""136"",""225852""
""blur"",""143"",""242612""
""focus"",""145"",""244486""
""blur"",""147"",""250751""
""focus"",""148"",""253631""
""blur"",""158"",""275327""
""focus"",""160"",""278294""
""blur"",""161"",""281972""
""focus"",""162"",""283531""
""blur"",""164"",""288014""
""focus"",""165"",""290032""
""blur"",""166"",""291769""
""focus"",""167"",""294338""
""blur"",""167"",""296208""
""focus"",""169"",""298519""
""blur"",""169"",""299582""
""focus"",""169"",""300352""
","""event"",""trial"",""time""
""blur"",""143"",""242612""
""blur"",""147"",""250751""
""blur"",""158"",""275327""
""blur"",""161"",""281972""
""blur"",""164"",""288014""
""blur"",""166"",""291769""
""blur"",""167"",""296208""
""blur"",""169"",""299582""
","""event"",""trial"",""time""
""focus"",""145"",""244486""
""focus"",""148"",""253631""
""focus"",""160"",""278294""
""focus"",""162"",""283531""
""focus"",""165"",""290032""
""focus"",""167"",""294338""
""focus"",""169"",""298519""
""focus"",""169"",""300352""
","""event"",""trial"",""time""
""fullscreenenter"",""5"",""18499""
","""event"",""trial"",""time""
""fullscreenexit"",""136"",""225852""
","","images/earth.jpg","","","","","","","","","","","","","","fixation","","","","","",""
"d3-animate-choice","175","311814","0.0-77.0-0.13","3595","6340","16","Male","true","true","true","true","""event"",""trial"",""time""
""fullscreenenter"",""5"",""18499""
""fullscreenexit"",""136"",""225852""
""blur"",""143"",""242612""
""focus"",""145"",""244486""
""blur"",""147"",""250751""
""focus"",""148"",""253631""
""blur"",""158"",""275327""
""focus"",""160"",""278294""
""blur"",""161"",""281972""
""focus"",""162"",""283531""
""blur"",""164"",""288014""
""focus"",""165"",""290032""
""blur"",""166"",""291769""
""focus"",""167"",""294338""
""blur"",""167"",""296208""
""focus"",""169"",""298519""
""blur"",""169"",""299582""
""focus"",""169"",""300352""
","""event"",""trial"",""time""
""blur"",""143"",""242612""
""blur"",""147"",""250751""
""blur"",""158"",""275327""
""blur"",""161"",""281972""
""blur"",""164"",""288014""
""blur"",""166"",""291769""
""blur"",""167"",""296208""
""blur"",""169"",""299582""
","""event"",""trial"",""time""
""focus"",""145"",""244486""
""focus"",""148"",""253631""
""focus"",""160"",""278294""
""focus"",""162"",""283531""
""focus"",""165"",""290032""
""focus"",""167"",""294338""
""focus"",""169"",""298519""
""focus"",""169"",""300352""
","""event"",""trial"",""time""
""fullscreenenter"",""5"",""18499""
","""event"",""trial"",""time""
""fullscreenexit"",""136"",""225852""
","706.1999999880791","","48","","","3000","1","","","images/earth.jpg","images/rocket2","images/rocket1","null","images/rocket2","","1","real","null","2","","",""
"d3-animate-choice","176","314302","0.0-77.0-1.13","3595","6340","16","Male","true","true","true","true","""event"",""trial"",""time""
""fullscreenenter"",""5"",""18499""
""fullscreenexit"",""136"",""225852""
""blur"",""143"",""242612""
""focus"",""145"",""244486""
""blur"",""147"",""250751""
""focus"",""148"",""253631""
""blur"",""158"",""275327""
""focus"",""160"",""278294""
""blur"",""161"",""281972""
""focus"",""162"",""283531""
""blur"",""164"",""288014""
""focus"",""165"",""290032""
""blur"",""166"",""291769""
""focus"",""167"",""294338""
""blur"",""167"",""296208""
""focus"",""169"",""298519""
""blur"",""169"",""299582""
""focus"",""169"",""300352""
","""event"",""trial"",""time""
""blur"",""143"",""242612""
""blur"",""147"",""250751""
""blur"",""158"",""275327""
