"trial_type","trial_index","time_elapsed","internal_node_id","participant_id","subject_id","age","gender","rocket_sides","red_planet_first_rocket","red_display_order","purple_display_order","interactions","blur_events","focus_events","fullscreenenter_events","fullscreenexit_events","rt","stimulus","key_press","button_pressed","success","duration","valid_pressed","rts","keys","planet_text","right_text","left_text","center_text","chosen_text","reward_text","trial_stage","practice_trial","transition_type","choice","transition","reward","timestamp"
"pavlovia","0","5","0.0-0.0","2564","4976","17","Female","false","true","false","false","""event"",""trial"",""time""
""blur"",""0"",""0""
""focus"",""0"",""0""
","""event"",""trial"",""time""
""blur"",""0"",""0""
","""event"",""trial"",""time""
""focus"",""0"",""0""
","
","
","","","","","","","","","","","","","","","","","","","","","",""
"html-keyboard-response","1","11035","0.0-1.0","2564","4976","17","Female","false","true","false","false","""event"",""trial"",""time""
""blur"",""0"",""0""
""focus"",""0"",""0""
","""event"",""trial"",""time""
""blur"",""0"",""0""
","""event"",""trial"",""time""
""focus"",""0"",""0""
","
","
","11027.300000000047","Welcome! Press the space bar to begin.","32","","","","","","","","","","","","","","","","","","",""
"audio-keyboard-response","2","14067","0.0-2.0","2564","4976","17","Female","false","true","false","false","""event"",""trial"",""time""
""blur"",""0"",""0""
""focus"",""0"",""0""
""blur"",""3"",""23096""
""focus"",""3"",""23097""
""blur"",""3"",""27486""
""focus"",""3"",""27488""
","""event"",""trial"",""time""
""blur"",""0"",""0""
""blur"",""3"",""23096""
""blur"",""3"",""27486""
","""event"",""trial"",""time""
""focus"",""0"",""0""
""focus"",""3"",""23097""
""focus"",""3"",""27488""
","
","
","2944","audio/beep_loop.wav","32","","","","","","","","","","","","","","","","","","",""
"audio-button-response","3","29093","0.0-3.0","2564","4976","17","Female","false","true","false","false","""event"",""trial"",""time""
""blur"",""0"",""0""
""focus"",""0"",""0""
""blur"",""3"",""23096""
""focus"",""3"",""23097""
""blur"",""3"",""27486""
""focus"",""3"",""27488""
","""event"",""trial"",""time""
""blur"",""0"",""0""
""blur"",""3"",""23096""
""blur"",""3"",""27486""
","""event"",""trial"",""time""
""focus"",""0"",""0""
""focus"",""3"",""23097""
""focus"",""3"",""27488""
","
","
","NaN","audio/fish.mp3","","1","","","","","","","","","","","","","","","","","",""
"audio-button-response","4","32114","0.0-4.0","2564","4976","17","Female","false","true","false","false","""event"",""trial"",""time""
""blur"",""0"",""0""
""focus"",""0"",""0""
""blur"",""3"",""23096""
""focus"",""3"",""23097""
""blur"",""3"",""27486""
""focus"",""3"",""27488""
""fullscreenenter"",""5"",""35630""
","""event"",""trial"",""time""
""blur"",""0"",""0""
""blur"",""3"",""23096""
""blur"",""3"",""27486""
","""event"",""trial"",""time""
""focus"",""0"",""0""
""focus"",""3"",""23097""
""focus"",""3"",""27488""
","""event"",""trial"",""time""
""fullscreenenter"",""5"",""35630""
","
","NaN","audio/tiger.mp3","","4","","","","","","","","","","","","","","","","","",""
"fullscreen","5","36613","0.0-5.0","2564","4976","17","Female","false","true","false","false","""event"",""trial"",""time""
""blur"",""0"",""0""
""focus"",""0"",""0""
""blur"",""3"",""23096""
""focus"",""3"",""23097""
""blur"",""3"",""27486""
""focus"",""3"",""27488""
""fullscreenenter"",""5"",""35630""
","""event"",""trial"",""time""
""blur"",""0"",""0""
""blur"",""3"",""23096""
""blur"",""3"",""27486""
","""event"",""trial"",""time""
""focus"",""0"",""0""
""focus"",""3"",""23097""
""focus"",""3"",""27488""
","""event"",""trial"",""time""
""fullscreenenter"",""5"",""35630""
","
","","","","","true","","","","","","","","","","","","","","","","",""
"d3-instructions","6","49846","0.0-6.0","2564","4976","17","Female","false","true","false","false","""event"",""trial"",""time""
""blur"",""0"",""0""
""focus"",""0"",""0""
""blur"",""3"",""23096""
""focus"",""3"",""23097""
""blur"",""3"",""27486""
""focus"",""3"",""27488""
""fullscreenenter"",""5"",""35630""
","""event"",""trial"",""time""
""blur"",""0"",""0""
""blur"",""3"",""23096""
""blur"",""3"",""27486""
","""event"",""trial"",""time""
""focus"",""0"",""0""
""focus"",""3"",""23097""
""focus"",""3"",""27488""
","""event"",""trial"",""time""
""fullscreenenter"",""5"",""35630""
","
","","","","","","","","","","","","","","","","","","","","","",""
"d3-instructions","7","58823","0.0-7.0","2564","4976","17","Female","false","true","false","false","""event"",""trial"",""time""
""blur"",""0"",""0""
""focus"",""0"",""0""
""blur"",""3"",""23096""
""focus"",""3"",""23097""
""blur"",""3"",""27486""
""focus"",""3"",""27488""
""fullscreenenter"",""5"",""35630""
","""event"",""trial"",""time""
""blur"",""0"",""0""
""blur"",""3"",""23096""
""blur"",""3"",""27486""
","""event"",""trial"",""time""
""focus"",""0"",""0""
""focus"",""3"",""23097""
""focus"",""3"",""27488""
","""event"",""trial"",""time""
""fullscreenenter"",""5"",""35630""
","
","","","","","","","","","","","","","","","","","","","","","",""
"d3-instructions","8","65168","0.0-8.0","2564","4976","17","Female","false","true","false","false","""event"",""trial"",""time""
""blur"",""0"",""0""
""focus"",""0"",""0""
""blur"",""3"",""23096""
""focus"",""3"",""23097""
""blur"",""3"",""27486""
""focus"",""3"",""27488""
""fullscreenenter"",""5"",""35630""
","""event"",""trial"",""time""
""blur"",""0"",""0""
""blur"",""3"",""23096""
""blur"",""3"",""27486""
","""event"",""trial"",""time""
""focus"",""0"",""0""
""focus"",""3"",""23097""
""focus"",""3"",""27488""
","""event"",""trial"",""time""
""fullscreenenter"",""5"",""35630""
","
","","","","","","","","","","","","","","","","","","","","","",""
"d3-instructions","9","73981","0.0-9.0","2564","4976","17","Female","false","true","false","false","""event"",""trial"",""time""
""blur"",""0"",""0""
""focus"",""0"",""0""
""blur"",""3"",""23096""
""focus"",""3"",""23097""
""blur"",""3"",""27486""
""focus"",""3"",""27488""
""fullscreenenter"",""5"",""35630""
","""event"",""trial"",""time""
""blur"",""0"",""0""
""blur"",""3"",""23096""
""blur"",""3"",""27486""
","""event"",""trial"",""time""
""focus"",""0"",""0""
""focus"",""3"",""23097""
""focus"",""3"",""27488""
","""event"",""trial"",""time""
""fullscreenenter"",""5"",""35630""
","
","","","","","","","","","","","","","","","","","","","","","",""
"d3-instructions","10","81397","0.0-10.0","2564","4976","17","Female","false","true","false","false","""event"",""trial"",""time""
""blur"",""0"",""0""
""focus"",""0"",""0""
""blur"",""3"",""23096""
""focus"",""3"",""23097""
""blur"",""3"",""27486""
""focus"",""3"",""27488""
""fullscreenenter"",""5"",""35630""
","""event"",""trial"",""time""
""blur"",""0"",""0""
""blur"",""3"",""23096""
""blur"",""3"",""27486""
","""event"",""trial"",""time""
""focus"",""0"",""0""
""focus"",""3"",""23097""
""focus"",""3"",""27488""
","""event"",""trial"",""time""
""fullscreenenter"",""5"",""35630""
","
","","","","","","","","","","","","","","","","","","","","","",""
"d3-animate-choice","11","90260","0.0-11.0","2564","4976","17","Female","false","true","false","false","""event"",""trial"",""time""
""blur"",""0"",""0""
""focus"",""0"",""0""
""blur"",""3"",""23096""
""focus"",""3"",""23097""
""blur"",""3"",""27486""
""focus"",""3"",""27488""
""fullscreenenter"",""5"",""35630""
","""event"",""trial"",""time""
""blur"",""0"",""0""
""blur"",""3"",""23096""
""blur"",""3"",""27486""
","""event"",""trial"",""time""
""focus"",""0"",""0""
""focus"",""3"",""23097""
""focus"",""3"",""27488""
","""event"",""trial"",""time""
""fullscreenenter"",""5"",""35630""
","
","5960.600000000093","","32","","","3000","1","6856","49","images/tutgreenplanet.jpg","images/tutalien1","images/tutalien2","null","images/tutalien2","","NA","practice","null","","","",""
"d3-animate-choice","12","94146","0.0-12.0","2564","4976","17","Female","false","true","false","false","""event"",""trial"",""time""
""blur"",""0"",""0""
""focus"",""0"",""0""
""blur"",""3"",""23096""
""focus"",""3"",""23097""
""blur"",""3"",""27486""
""focus"",""3"",""27488""
""fullscreenenter"",""5"",""35630""
","""event"",""trial"",""time""
""blur"",""0"",""0""
""blur"",""3"",""23096""
""blur"",""3"",""27486""
","""event"",""trial"",""time""
""focus"",""0"",""0""
""focus"",""3"",""23097""
""focus"",""3"",""27488""
","""event"",""trial"",""time""
""fullscreenenter"",""5"",""35630""
","
","1882","","48","","","3000","1","","","images/tutgreenplanet.jpg","images/tutalien1","images/tutalien2","null","images/tutalien1","","NA","practice","null","","","",""
"d3-animate-choice","13","96726","0.0-13.0","2564","4976","17","Female","false","true","false","false","""event"",""trial"",""time""
""blur"",""0"",""0""
""focus"",""0"",""0""
""blur"",""3"",""23096""
""focus"",""3"",""23097""
""blur"",""3"",""27486""
""focus"",""3"",""27488""
""fullscreenenter"",""5"",""35630""
","""event"",""trial"",""time""
""blur"",""0"",""0""
""blur"",""3"",""23096""
""blur"",""3"",""27486""
","""event"",""trial"",""time""
""focus"",""0"",""0""
""focus"",""3"",""23097""
""focus"",""3"",""27488""
","""event"",""trial"",""time""
""fullscreenenter"",""5"",""35630""
","
","576.7999999998137","","49","","","3000","1","2165.399999999907","48","images/tutgreenplanet.jpg","images/tutalien1","images/tutalien2","null","images/tutalien2","","NA","practice","null","","","",""
"d3-animate-choice","14","99103","0.0-14.0","2564","4976","17","Female","false","true","false","false","""event"",""trial"",""time""
""blur"",""0"",""0""
""focus"",""0"",""0""
""blur"",""3"",""23096""
""focus"",""3"",""23097""
""blur"",""3"",""27486""
""focus"",""3"",""27488""
""fullscreenenter"",""5"",""35630""
","""event"",""trial"",""time""
""blur"",""0"",""0""
""blur"",""3"",""23096""
""blur"",""3"",""27486""
","""event"",""trial"",""time""
""focus"",""0"",""0""
""focus"",""3"",""23097""
""focus"",""3"",""27488""
","""event"",""trial"",""time""
""fullscreenenter"",""5"",""35630""
","
","372.4000000001397","","49","","","3000","1","","","images/tutgreenplanet.jpg","images/tutalien1","images/tutalien2","null","images/tutalien2","","NA","practice","null","","","",""
"d3-instructions","15","104184","0.0-15.0","2564","4976","17","Female","false","true","false","false","""event"",""trial"",""time""
""blur"",""0"",""0""
""focus"",""0"",""0""
""blur"",""3"",""23096""
""focus"",""3"",""23097""
""blur"",""3"",""27486""
""focus"",""3"",""27488""
""fullscreenenter"",""5"",""35630""
","""event"",""trial"",""time""
""blur"",""0"",""0""
""blur"",""3"",""23096""
""blur"",""3"",""27486""
","""event"",""trial"",""time""
""focus"",""0"",""0""
""focus"",""3"",""23097""
""focus"",""3"",""27488""
","""event"",""trial"",""time""
""fullscreenenter"",""5"",""35630""
","
","","","","","","","","","","","","","","","","","","","","","",""
"d3-instructions","16","107486","0.0-16.0","2564","4976","17","Female","false","true","false","false","""event"",""trial"",""time""
""blur"",""0"",""0""
""focus"",""0"",""0""
""blur"",""3"",""23096""
""focus"",""3"",""23097""
""blur"",""3"",""27486""
""focus"",""3"",""27488""
""fullscreenenter"",""5"",""35630""
","""event"",""trial"",""time""
""blur"",""0"",""0""
""blur"",""3"",""23096""
""blur"",""3"",""27486""
","""event"",""trial"",""time""
""focus"",""0"",""0""
""focus"",""3"",""23097""
""focus"",""3"",""27488""
","""event"",""trial"",""time""
""fullscreenenter"",""5"",""35630""
","
","","","","","","","","","","","","","","","","","","","","","",""
"d3-instructions","17","116121","0.0-17.0","2564","4976","17","Female","false","true","false","false","""event"",""trial"",""time""
""blur"",""0"",""0""
""focus"",""0"",""0""
""blur"",""3"",""23096""
""focus"",""3"",""23097""
""blur"",""3"",""27486""
""focus"",""3"",""27488""
""fullscreenenter"",""5"",""35630""
","""event"",""trial"",""time""
""blur"",""0"",""0""
""blur"",""3"",""23096""
""blur"",""3"",""27486""
","""event"",""trial"",""time""
""focus"",""0"",""0""
""focus"",""3"",""23097""
""focus"",""3"",""27488""
","""event"",""trial"",""time""
""fullscreenenter"",""5"",""35630""
","
","","","","","","","","","","","","","","","","","","","","","",""
"d3-instructions","18","129976","0.0-18.0","2564","4976","17","Female","false","true","false","false","""event"",""trial"",""time""
""blur"",""0"",""0""
""focus"",""0"",""0""
""blur"",""3"",""23096""
""focus"",""3"",""23097""
""blur"",""3"",""27486""
""focus"",""3"",""27488""
""fullscreenenter"",""5"",""35630""
","""event"",""trial"",""time""
""blur"",""0"",""0""
""blur"",""3"",""23096""
""blur"",""3"",""27486""
","""event"",""trial"",""time""
""focus"",""0"",""0""
""focus"",""3"",""23097""
""focus"",""3"",""27488""
","""event"",""trial"",""time""
""fullscreenenter"",""5"",""35630""
","
","","","","","","","","","","","","","","","","","","","","","",""
"d3-instructions","19","141562","0.0-19.0","2564","4976","17","Female","false","true","false","false","""event"",""trial"",""time""
""blur"",""0"",""0""
""focus"",""0"",""0""
""blur"",""3"",""23096""
""focus"",""3"",""23097""
""blur"",""3"",""27486""
""focus"",""3"",""27488""
""fullscreenenter"",""5"",""35630""
","""event"",""trial"",""time""
""blur"",""0"",""0""
""blur"",""3"",""23096""
""blur"",""3"",""27486""
","""event"",""trial"",""time""
""focus"",""0"",""0""
""focus"",""3"",""23097""
""focus"",""3"",""27488""
","""event"",""trial"",""time""
""fullscreenenter"",""5"",""35630""
","
","","","","","","","","","","","","","","","","","","","","","",""
"d3-animate-choice","20","144520","0.0-20.0","2564","4976","17","Female","false","true","false","false","""event"",""trial"",""time""
""blur"",""0"",""0""
""focus"",""0"",""0""
""blur"",""3"",""23096""
""focus"",""3"",""23097""
""blur"",""3"",""27486""
""focus"",""3"",""27488""
""fullscreenenter"",""5"",""35630""
","""event"",""trial"",""time""
""blur"",""0"",""0""
""blur"",""3"",""23096""
""blur"",""3"",""27486""
","""event"",""trial"",""time""
""focus"",""0"",""0""
""focus"",""3"",""23097""
""focus"",""3"",""27488""
","""event"",""trial"",""time""
""fullscreenenter"",""5"",""35630""
","
","954.6000000000931","","49","","","3000","1","1431.3999999999069,2899.3000000000466","49,49","images/tutyellowplanet.jpg","null","images/tutalien3","null","images/tutalien3","images/nothing.png","NA","practice","null","","","",""
"d3-animate-choice","21","146904","0.0-21.0","2564","4976","17","Female","false","true","false","false","""event"",""trial"",""time""
""blur"",""0"",""0""
""focus"",""0"",""0""
""blur"",""3"",""23096""
""focus"",""3"",""23097""
""blur"",""3"",""27486""
""focus"",""3"",""27488""
""fullscreenenter"",""5"",""35630""
","""event"",""trial"",""time""
""blur"",""0"",""0""
""blur"",""3"",""23096""
""blur"",""3"",""27486""
","""event"",""trial"",""time""
""focus"",""0"",""0""
""focus"",""3"",""23097""
""focus"",""3"",""27488""
","""event"",""trial"",""time""
""fullscreenenter"",""5"",""35630""
","
","379.19999999995343","","49","","","3000","1","1875.3999999999069","49","images/tutyellowplanet.jpg","null","images/tutalien3","null","images/tutalien3","images/t.png","NA","practice","null","","","",""
"d3-animate-choice","22","149158","0.0-22.0","2564","4976","17","Female","false","true","false","false","""event"",""trial"",""time""
""blur"",""0"",""0""
""focus"",""0"",""0""
""blur"",""3"",""23096""
""focus"",""3"",""23097""
""blur"",""3"",""27486""
""focus"",""3"",""27488""
""fullscreenenter"",""5"",""35630""
","""event"",""trial"",""time""
""blur"",""0"",""0""
""blur"",""3"",""23096""
""blur"",""3"",""27486""
","""event"",""trial"",""time""
""focus"",""0"",""0""
""focus"",""3"",""23097""
""focus"",""3"",""27488""
","""event"",""trial"",""time""
""fullscreenenter"",""5"",""35630""
","
","250.70000000018626","","49","","","3000","1","1628","49","images/tutyellowplanet.jpg","null","images/tutalien3","null","images/tutalien3","images/t.png","NA","practice","null","","","",""
"d3-animate-choice","23","151405","0.0-23.0","2564","4976","17","Female","false","true","false","false","""event"",""trial"",""time""
""blur"",""0"",""0""
""focus"",""0"",""0""
""blur"",""3"",""23096""
""focus"",""3"",""23097""
""blur"",""3"",""27486""
""focus"",""3"",""27488""
""fullscreenenter"",""5"",""35630""
","""event"",""trial"",""time""
""blur"",""0"",""0""
""blur"",""3"",""23096""
""blur"",""3"",""27486""
","""event"",""trial"",""time""
""focus"",""0"",""0""
""focus"",""3"",""23097""
""focus"",""3"",""27488""
","""event"",""trial"",""time""
""fullscreenenter"",""5"",""35630""
","
","243.4000000001397","","49","","","3000","1","1580.9000000001397","49","images/tutyellowplanet.jpg","null","images/tutalien3","null","images/tutalien3","images/t.png","NA","practice","null","","","",""
"d3-animate-choice","24","153647","0.0-24.0","2564","4976","17","Female","false","true","false","false","""event"",""trial"",""time""
""blur"",""0"",""0""
""focus"",""0"",""0""
""blur"",""3"",""23096""
""focus"",""3"",""23097""
""blur"",""3"",""27486""
""focus"",""3"",""27488""
""fullscreenenter"",""5"",""35630""
","""event"",""trial"",""time""
""blur"",""0"",""0""
""blur"",""3"",""23096""
""blur"",""3"",""27486""
","""event"",""trial"",""time""
""focus"",""0"",""0""
""focus"",""3"",""23097""
""focus"",""3"",""27488""
","""event"",""trial"",""time""
""fullscreenenter"",""5"",""35630""
","
","239.30000000004657","","49","","","3000","1","","","images/tutyellowplanet.jpg","null","images/tutalien3","null","images/tutalien3","images/t.png","NA","practice","null","","","",""
"d3-animate-choice","25","155949","0.0-25.0","2564","4976","17","Female","false","true","false","false","""event"",""trial"",""time""
""blur"",""0"",""0""
""focus"",""0"",""0""
""blur"",""3"",""23096""
""focus"",""3"",""23097""
""blur"",""3"",""27486""
""focus"",""3"",""27488""
""fullscreenenter"",""5"",""35630""
","""event"",""trial"",""time""
""blur"",""0"",""0""
""blur"",""3"",""23096""
""blur"",""3"",""27486""
","""event"",""trial"",""time""
""focus"",""0"",""0""
""focus"",""3"",""23097""
""focus"",""3"",""27488""
","""event"",""trial"",""time""
""fullscreenenter"",""5"",""35630""
","
","297.79999999981374","","49","","","3000","1","1704.8999999999069","49","images/tutyellowplanet.jpg","null","images/tutalien3","null","images/tutalien3","images/t.png","NA","practice","null","","","",""
"d3-animate-choice","26","158235","0.0-26.0","2564","4976","17","Female","false","true","false","false","""event"",""trial"",""time""
""blur"",""0"",""0""
""focus"",""0"",""0""
""blur"",""3"",""23096""
""focus"",""3"",""23097""
""blur"",""3"",""27486""
""focus"",""3"",""27488""
""fullscreenenter"",""5"",""35630""
","""event"",""trial"",""time""
""blur"",""0"",""0""
""blur"",""3"",""23096""
""blur"",""3"",""27486""
","""event"",""trial"",""time""
""focus"",""0"",""0""
""focus"",""3"",""23097""
""focus"",""3"",""27488""
","""event"",""trial"",""time""
""fullscreenenter"",""5"",""35630""
","
","282.4000000001397","","49","","","3000","1","1710.1999999999534","49","images/tutyellowplanet.jpg","null","images/tutalien3","null","images/tutalien3","images/t.png","NA","practice","null","","","",""
"d3-animate-choice","27","160998","0.0-27.0","2564","4976","17","Female","false","true","false","false","""event"",""trial"",""time""
""blur"",""0"",""0""
""focus"",""0"",""0""
""blur"",""3"",""23096""
""focus"",""3"",""23097""
""blur"",""3"",""27486""
""focus"",""3"",""27488""
""fullscreenenter"",""5"",""35630""
","""event"",""trial"",""time""
""blur"",""0"",""0""
""blur"",""3"",""23096""
""blur"",""3"",""27486""
","""event"",""trial"",""time""
""focus"",""0"",""0""
""focus"",""3"",""23097""
""focus"",""3"",""27488""
","""event"",""trial"",""time""
""fullscreenenter"",""5"",""35630""
","
","759.6000000000931","","49","","","3000","1","2207.1999999999534","49","images/tutyellowplanet.jpg","null","images/tutalien3","null","images/tutalien3","images/t.png","NA","practice","null","","","",""
"d3-animate-choice","28","163006","0.0-28.0","2564","4976","17","Female","false","true","false","false","""event"",""trial"",""time""
""blur"",""0"",""0""
""focus"",""0"",""0""
""blur"",""3"",""23096""
""focus"",""3"",""23097""
""blur"",""3"",""27486""
""focus"",""3"",""27488""
""fullscreenenter"",""5"",""35630""
","""event"",""trial"",""time""
""blur"",""0"",""0""
""blur"",""3"",""23096""
""blur"",""3"",""27486""
","""event"",""trial"",""time""
""focus"",""0"",""0""
""focus"",""3"",""23097""
""focus"",""3"",""27488""
","""event"",""trial"",""time""
""fullscreenenter"",""5"",""35630""
","
","4.400000000139698","","49","","","3000","1","439.30000000004657","49","images/tutyellowplanet.jpg","null","images/tutalien3","null","images/tutalien3","images/nothing.png","NA","practice","null","","","",""
"d3-animate-choice","29","165108","0.0-29.0","2564","4976","17","Female","false","true","false","false","""event"",""trial"",""time""
""blur"",""0"",""0""
""focus"",""0"",""0""
""blur"",""3"",""23096""
""focus"",""3"",""23097""
""blur"",""3"",""27486""
""focus"",""3"",""27488""
""fullscreenenter"",""5"",""35630""
","""event"",""trial"",""time""
""blur"",""0"",""0""
""blur"",""3"",""23096""
""blur"",""3"",""27486""
","""event"",""trial"",""time""
""focus"",""0"",""0""
""focus"",""3"",""23097""
""focus"",""3"",""27488""
","""event"",""trial"",""time""
""fullscreenenter"",""5"",""35630""
","
","98.79999999981374","","49","","","3000","1","1069.3999999999069","49","images/tutyellowplanet.jpg","null","images/tutalien3","null","images/tutalien3","images/t.png","NA","practice","null","","","",""
"d3-instructions","30","170742","0.0-30.0","2564","4976","17","Female","false","true","false","false","""event"",""trial"",""time""
""blur"",""0"",""0""
""focus"",""0"",""0""
""blur"",""3"",""23096""
""focus"",""3"",""23097""
""blur"",""3"",""27486""
""focus"",""3"",""27488""
""fullscreenenter"",""5"",""35630""
","""event"",""trial"",""time""
""blur"",""0"",""0""
""blur"",""3"",""23096""
""blur"",""3"",""27486""
","""event"",""trial"",""time""
""focus"",""0"",""0""
""focus"",""3"",""23097""
""focus"",""3"",""27488""
","""event"",""trial"",""time""
""fullscreenenter"",""5"",""35630""
","
","","","","","","","","","","","","","","","","","","","","","",""
"d3-instructions","31","186601","0.0-31.0","2564","4976","17","Female","false","true","false","false","""event"",""trial"",""time""
""blur"",""0"",""0""
""focus"",""0"",""0""
""blur"",""3"",""23096""
""focus"",""3"",""23097""
""blur"",""3"",""27486""
""focus"",""3"",""27488""
""fullscreenenter"",""5"",""35630""
","""event"",""trial"",""time""
""blur"",""0"",""0""
""blur"",""3"",""23096""
""blur"",""3"",""27486""
","""event"",""trial"",""time""
""focus"",""0"",""0""
""focus"",""3"",""23097""
""focus"",""3"",""27488""
","""event"",""trial"",""time""
""fullscreenenter"",""5"",""35630""
","
","","","","","","","","","","","","","","","","","","","","","",""
"d3-instructions","32","191535","0.0-32.0","2564","4976","17","Female","false","true","false","false","""event"",""trial"",""time""
""blur"",""0"",""0""
""focus"",""0"",""0""
""blur"",""3"",""23096""
""focus"",""3"",""23097""
""blur"",""3"",""27486""
""focus"",""3"",""27488""
""fullscreenenter"",""5"",""35630""
","""event"",""trial"",""time""
""blur"",""0"",""0""
""blur"",""3"",""23096""
""blur"",""3"",""27486""
","""event"",""trial"",""time""
""focus"",""0"",""0""
""focus"",""3"",""23097""
""focus"",""3"",""27488""
","""event"",""trial"",""time""
""fullscreenenter"",""5"",""35630""
","
","","","","","","","","","","","","","","","","","","","","","",""
"d3-instructions","33","193532","0.0-33.0","2564","4976","17","Female","false","true","false","false","""event"",""trial"",""time""
""blur"",""0"",""0""
""focus"",""0"",""0""
""blur"",""3"",""23096""
""focus"",""3"",""23097""
""blur"",""3"",""27486""
""focus"",""3"",""27488""
""fullscreenenter"",""5"",""35630""
","""event"",""trial"",""time""
""blur"",""0"",""0""
""blur"",""3"",""23096""
""blur"",""3"",""27486""
","""event"",""trial"",""time""
""focus"",""0"",""0""
""focus"",""3"",""23097""
""focus"",""3"",""27488""
","""event"",""trial"",""time""
""fullscreenenter"",""5"",""35630""
","
","","","","","","","","","","","","","","","","","","","","","",""
"d3-animate-choice","34","196641","0.0-34.0","2564","4976","17","Female","false","true","false","false","""event"",""trial"",""time""
""blur"",""0"",""0""
""focus"",""0"",""0""
""blur"",""3"",""23096""
""focus"",""3"",""23097""
""blur"",""3"",""27486""
""focus"",""3"",""27488""
""fullscreenenter"",""5"",""35630""
","""event"",""trial"",""time""
""blur"",""0"",""0""
""blur"",""3"",""23096""
""blur"",""3"",""27486""
","""event"",""trial"",""time""
""focus"",""0"",""0""
""focus"",""3"",""23097""
""focus"",""3"",""27488""
","""event"",""trial"",""time""
""fullscreenenter"",""5"",""35630""
","
","1105.3000000000466","","49","","","3000","1","","","images/tutgreenplanet.jpg","images/tutalien1","images/tutalien2","null","images/tutalien2","images/t.png","NA","practice","null","","","",""
"d3-animate-choice","35","198943","0.0-35.0","2564","4976","17","Female","false","true","false","false","""event"",""trial"",""time""
""blur"",""0"",""0""
""focus"",""0"",""0""
""blur"",""3"",""23096""
""focus"",""3"",""23097""
""blur"",""3"",""27486""
""focus"",""3"",""27488""
""fullscreenenter"",""5"",""35630""
","""event"",""trial"",""time""
""blur"",""0"",""0""
""blur"",""3"",""23096""
""blur"",""3"",""27486""
","""event"",""trial"",""time""
""focus"",""0"",""0""
""focus"",""3"",""23097""
""focus"",""3"",""27488""
","""event"",""trial"",""time""
""fullscreenenter"",""5"",""35630""
","
","297.5","","49","","","3000","1","","","images/tutgreenplanet.jpg","images/tutalien1","images/tutalien2","null","images/tutalien2","images/t.png","NA","practice","null","","","",""
"d3-animate-choice","36","201241","0.0-36.0","2564","4976","17","Female","false","true","false","false","""event"",""trial"",""time""
""blur"",""0"",""0""
""focus"",""0"",""0""
""blur"",""3"",""23096""
""focus"",""3"",""23097""
""blur"",""3"",""27486""
""focus"",""3"",""27488""
""fullscreenenter"",""5"",""35630""
","""event"",""trial"",""time""
""blur"",""0"",""0""
""blur"",""3"",""23096""
""blur"",""3"",""27486""
","""event"",""trial"",""time""
""focus"",""0"",""0""
""focus"",""3"",""23097""
""focus"",""3"",""27488""
","""event"",""trial"",""time""
""fullscreenenter"",""5"",""35630""
","
","291.69999999995343","","49","","","3000","1","1713.6999999999534","49","images/tutgreenplanet.jpg","images/tutalien1","images/tutalien2","null","images/tutalien2","images/t.png","NA","practice","null","","","",""
"d3-animate-choice","37","203466","0.0-37.0","2564","4976","17","Female","false","true","false","false","""event"",""trial"",""time""
""blur"",""0"",""0""
""focus"",""0"",""0""
""blur"",""3"",""23096""
""focus"",""3"",""23097""
""blur"",""3"",""27486""
""focus"",""3"",""27488""
""fullscreenenter"",""5"",""35630""
","""event"",""trial"",""time""
""blur"",""0"",""0""
""blur"",""3"",""23096""
""blur"",""3"",""27486""
","""event"",""trial"",""time""
""focus"",""0"",""0""
""focus"",""3"",""23097""
""focus"",""3"",""27488""
","""event"",""trial"",""time""
""fullscreenenter"",""5"",""35630""
","
","222.5","","49","","","3000","1","","","images/tutgreenplanet.jpg","images/tutalien1","images/tutalien2","null","images/tutalien2","images/t.png","NA","practice","null","","","",""
"d3-animate-choice","38","205656","0.0-38.0","2564","4976","17","Female","false","true","false","false","""event"",""trial"",""time""
""blur"",""0"",""0""
""focus"",""0"",""0""
""blur"",""3"",""23096""
""focus"",""3"",""23097""
""blur"",""3"",""27486""
""focus"",""3"",""27488""
""fullscreenenter"",""5"",""35630""
","""event"",""trial"",""time""
""blur"",""0"",""0""
""blur"",""3"",""23096""
""blur"",""3"",""27486""
","""event"",""trial"",""time""
""focus"",""0"",""0""
""focus"",""3"",""23097""
""focus"",""3"",""27488""
","""event"",""trial"",""time""
""fullscreenenter"",""5"",""35630""
","
","186.9000000001397","","49","","","3000","1","","","images/tutgreenplanet.jpg","images/tutalien1","images/tutalien2","null","images/tutalien2","images/nothing.png","NA","practice","null","","","",""
"d3-animate-choice","39","207871","0.0-39.0","2564","4976","17","Female","false","true","false","false","""event"",""trial"",""time""
""blur"",""0"",""0""
""focus"",""0"",""0""
""blur"",""3"",""23096""
""focus"",""3"",""23097""
""blur"",""3"",""27486""
""focus"",""3"",""27488""
""fullscreenenter"",""5"",""35630""
","""event"",""trial"",""time""
""blur"",""0"",""0""
""blur"",""3"",""23096""
""blur"",""3"",""27486""
","""event"",""trial"",""time""
""focus"",""0"",""0""
""focus"",""3"",""23097""
""focus"",""3"",""27488""
","""event"",""trial"",""time""
""fullscreenenter"",""5"",""35630""
","
","211.4000000001397","","48","","","3000","1","","","images/tutgreenplanet.jpg","images/tutalien1","images/tutalien2","null","images/tutalien1","images/nothing.png","NA","practice","null","","","",""
"d3-animate-choice","40","210058","0.0-40.0","2564","4976","17","Female","false","true","false","false","""event"",""trial"",""time""
""blur"",""0"",""0""
""focus"",""0"",""0""
""blur"",""3"",""23096""
""focus"",""3"",""23097""
""blur"",""3"",""27486""
""focus"",""3"",""27488""
""fullscreenenter"",""5"",""35630""
","""event"",""trial"",""time""
""blur"",""0"",""0""
""blur"",""3"",""23096""
""blur"",""3"",""27486""
","""event"",""trial"",""time""
""focus"",""0"",""0""
""focus"",""3"",""23097""
""focus"",""3"",""27488""
","""event"",""trial"",""time""
""fullscreenenter"",""5"",""35630""
","
","182.69999999995343","","49","","","3000","1","","","images/tutgreenplanet.jpg","images/tutalien1","images/tutalien2","null","images/tutalien2","images/t.png","NA","practice","null","","","",""
"d3-animate-choice","41","212276","0.0-41.0","2564","4976","17","Female","false","true","false","false","""event"",""trial"",""time""
""blur"",""0"",""0""
""focus"",""0"",""0""
""blur"",""3"",""23096""
""focus"",""3"",""23097""
""blur"",""3"",""27486""
""focus"",""3"",""27488""
""fullscreenenter"",""5"",""35630""
","""event"",""trial"",""time""
""blur"",""0"",""0""
""blur"",""3"",""23096""
""blur"",""3"",""27486""
","""event"",""trial"",""time""
""focus"",""0"",""0""
""focus"",""3"",""23097""
""focus"",""3"",""27488""
","""event"",""trial"",""time""
""fullscreenenter"",""5"",""35630""
","
","215.30000000004657","","49","","","3000","1","","","images/tutgreenplanet.jpg","images/tutalien1","images/tutalien2","null","images/tutalien2","images/t.png","NA","practice","null","","","",""
"d3-animate-choice","42","214445","0.0-42.0","2564","4976","17","Female","false","true","false","false","""event"",""trial"",""time""
""blur"",""0"",""0""
""focus"",""0"",""0""
""blur"",""3"",""23096""
""focus"",""3"",""23097""
""blur"",""3"",""27486""
""focus"",""3"",""27488""
""fullscreenenter"",""5"",""35630""
","""event"",""trial"",""time""
""blur"",""0"",""0""
""blur"",""3"",""23096""
""blur"",""3"",""27486""
","""event"",""trial"",""time""
""focus"",""0"",""0""
""focus"",""3"",""23097""
""focus"",""3"",""27488""
","""event"",""trial"",""time""
""fullscreenenter"",""5"",""35630""
","
","165.80000000004657","","49","","","3000","1","","","images/tutgreenplanet.jpg","images/tutalien1","images/tutalien2","null","images/tutalien2","images/t.png","NA","practice","null","","","",""
"d3-animate-choice","43","216670","0.0-43.0","2564","4976","17","Female","false","true","false","false","""event"",""trial"",""time""
""blur"",""0"",""0""
""focus"",""0"",""0""
""blur"",""3"",""23096""
""focus"",""3"",""23097""
""blur"",""3"",""27486""
""focus"",""3"",""27488""
""fullscreenenter"",""5"",""35630""
","""event"",""trial"",""time""
""blur"",""0"",""0""
""blur"",""3"",""23096""
""blur"",""3"",""27486""
","""event"",""trial"",""time""
""focus"",""0"",""0""
""focus"",""3"",""23097""
""focus"",""3"",""27488""
","""event"",""trial"",""time""
""fullscreenenter"",""5"",""35630""
","
","222","","48","","","3000","1","","","images/tutgreenplanet.jpg","images/tutalien1","images/tutalien2","null","images/tutalien1","images/nothing.png","NA","practice","null","","","",""
"d3-instructions","44","225520","0.0-44.0","2564","4976","17","Female","false","true","false","false","""event"",""trial"",""time""
""blur"",""0"",""0""
""focus"",""0"",""0""
""blur"",""3"",""23096""
""focus"",""3"",""23097""
""blur"",""3"",""27486""
""focus"",""3"",""27488""
""fullscreenenter"",""5"",""35630""
","""event"",""trial"",""time""
""blur"",""0"",""0""
""blur"",""3"",""23096""
""blur"",""3"",""27486""
","""event"",""trial"",""time""
""focus"",""0"",""0""
""focus"",""3"",""23097""
""focus"",""3"",""27488""
","""event"",""trial"",""time""
""fullscreenenter"",""5"",""35630""
","
","","","","","","","","","","","","","","","","","","","","","",""
"d3-instructions","45","230841","0.0-45.0","2564","4976","17","Female","false","true","false","false","""event"",""trial"",""time""
""blur"",""0"",""0""
""focus"",""0"",""0""
""blur"",""3"",""23096""
""focus"",""3"",""23097""
""blur"",""3"",""27486""
""focus"",""3"",""27488""
""fullscreenenter"",""5"",""35630""
","""event"",""trial"",""time""
""blur"",""0"",""0""
""blur"",""3"",""23096""
""blur"",""3"",""27486""
","""event"",""trial"",""time""
""focus"",""0"",""0""
""focus"",""3"",""23097""
""focus"",""3"",""27488""
","""event"",""trial"",""time""
""fullscreenenter"",""5"",""35630""
","
","","","","","","","","","","","","","","","","","","","","","",""
"d3-instructions","46","236049","0.0-46.0","2564","4976","17","Female","false","true","false","false","""event"",""trial"",""time""
""blur"",""0"",""0""
""focus"",""0"",""0""
""blur"",""3"",""23096""
""focus"",""3"",""23097""
""blur"",""3"",""27486""
""focus"",""3"",""27488""
""fullscreenenter"",""5"",""35630""
","""event"",""trial"",""time""
""blur"",""0"",""0""
""blur"",""3"",""23096""
""blur"",""3"",""27486""
","""event"",""trial"",""time""
""focus"",""0"",""0""
""focus"",""3"",""23097""
""focus"",""3"",""27488""
","""event"",""trial"",""time""
""fullscreenenter"",""5"",""35630""
","
","","","","","","","","","","","","","","","","","","","","","",""
"d3-instructions","47","239290","0.0-47.0","2564","4976","17","Female","false","true","false","false","""event"",""trial"",""time""
""blur"",""0"",""0""
""focus"",""0"",""0""
""blur"",""3"",""23096""
""focus"",""3"",""23097""
""blur"",""3"",""27486""
""focus"",""3"",""27488""
""fullscreenenter"",""5"",""35630""
","""event"",""trial"",""time""
""blur"",""0"",""0""
""blur"",""3"",""23096""
""blur"",""3"",""27486""
","""event"",""trial"",""time""
""focus"",""0"",""0""
""focus"",""3"",""23097""
""focus"",""3"",""27488""
","""event"",""trial"",""time""
""fullscreenenter"",""5"",""35630""
","
","","","","","","","","","","","","","","","","","","","","","",""
"d3-instructions","48","241077","0.0-48.0","2564","4976","17","Female","false","true","false","false","""event"",""trial"",""time""
""blur"",""0"",""0""
""focus"",""0"",""0""
""blur"",""3"",""23096""
""focus"",""3"",""23097""
""blur"",""3"",""27486""
""focus"",""3"",""27488""
""fullscreenenter"",""5"",""35630""
","""event"",""trial"",""time""
""blur"",""0"",""0""
""blur"",""3"",""23096""
""blur"",""3"",""27486""
","""event"",""trial"",""time""
""focus"",""0"",""0""
""focus"",""3"",""23097""
""focus"",""3"",""27488""
","""event"",""trial"",""time""
""fullscreenenter"",""5"",""35630""
","
","","","","","","","","","","","","","","","","","","","","","",""
"d3-instructions","49","242483","0.0-49.0","2564","4976","17","Female","false","true","false","false","""event"",""trial"",""time""
""blur"",""0"",""0""
""focus"",""0"",""0""
""blur"",""3"",""23096""
""focus"",""3"",""23097""
""blur"",""3"",""27486""
""focus"",""3"",""27488""
""fullscreenenter"",""5"",""35630""
","""event"",""trial"",""time""
""blur"",""0"",""0""
""blur"",""3"",""23096""
""blur"",""3"",""27486""
","""event"",""trial"",""time""
""focus"",""0"",""0""
""focus"",""3"",""23097""
""focus"",""3"",""27488""
","""event"",""trial"",""time""
""fullscreenenter"",""5"",""35630""
","
","","","","","","","","","","","","","","","","","","","","","",""
"d3-instructions","50","244429","0.0-50.0","2564","4976","17","Female","false","true","false","false","""event"",""trial"",""time""
""blur"",""0"",""0""
""focus"",""0"",""0""
""blur"",""3"",""23096""
""focus"",""3"",""23097""
""blur"",""3"",""27486""
""focus"",""3"",""27488""
""fullscreenenter"",""5"",""35630""
","""event"",""trial"",""time""
""blur"",""0"",""0""
""blur"",""3"",""23096""
""blur"",""3"",""27486""
","""event"",""trial"",""time""
""focus"",""0"",""0""
""focus"",""3"",""23097""
""focus"",""3"",""27488""
","""event"",""trial"",""time""
""fullscreenenter"",""5"",""35630""
","
","","","","","","","","","","","","","","","","","","","","","",""
"d3-instructions","51","246144","0.0-51.0","2564","4976","17","Female","false","true","false","false","""event"",""trial"",""time""
""blur"",""0"",""0""
""focus"",""0"",""0""
""blur"",""3"",""23096""
""focus"",""3"",""23097""
""blur"",""3"",""27486""
""focus"",""3"",""27488""
""fullscreenenter"",""5"",""35630""
","""event"",""trial"",""time""
""blur"",""0"",""0""
""blur"",""3"",""23096""
""blur"",""3"",""27486""
","""event"",""trial"",""time""
""focus"",""0"",""0""
""focus"",""3"",""23097""
""focus"",""3"",""27488""
","""event"",""trial"",""time""
""fullscreenenter"",""5"",""35630""
","
","","","","","","","","","","","","","","","","","","","","","",""
"d3-instructions","52","247510","0.0-52.0","2564","4976","17","Female","false","true","false","false","""event"",""trial"",""time""
""blur"",""0"",""0""
""focus"",""0"",""0""
""blur"",""3"",""23096""
""focus"",""3"",""23097""
""blur"",""3"",""27486""
""focus"",""3"",""27488""
""fullscreenenter"",""5"",""35630""
","""event"",""trial"",""time""
""blur"",""0"",""0""
""blur"",""3"",""23096""
""blur"",""3"",""27486""
","""event"",""trial"",""time""
""focus"",""0"",""0""
""focus"",""3"",""23097""
""focus"",""3"",""27488""
","""event"",""trial"",""time""
""fullscreenenter"",""5"",""35630""
","
","","","","","","","","","","","","","","","","","","","","","",""
"d3-instructions","53","255173","0.0-53.0","2564","4976","17","Female","false","true","false","false","""event"",""trial"",""time""
""blur"",""0"",""0""
""focus"",""0"",""0""
""blur"",""3"",""23096""
""focus"",""3"",""23097""
""blur"",""3"",""27486""
""focus"",""3"",""27488""
""fullscreenenter"",""5"",""35630""
","""event"",""trial"",""time""
""blur"",""0"",""0""
""blur"",""3"",""23096""
""blur"",""3"",""27486""
","""event"",""trial"",""time""
""focus"",""0"",""0""
""focus"",""3"",""23097""
""focus"",""3"",""27488""
","""event"",""trial"",""time""
""fullscreenenter"",""5"",""35630""
","
","","","","","","","","","","","","","","","","","","","","","",""
"d3-instructions","54","256477","0.0-54.0","2564","4976","17","Female","false","true","false","false","""event"",""trial"",""time""
""blur"",""0"",""0""
""focus"",""0"",""0""
""blur"",""3"",""23096""
""focus"",""3"",""23097""
""blur"",""3"",""27486""
""focus"",""3"",""27488""
""fullscreenenter"",""5"",""35630""
","""event"",""trial"",""time""
""blur"",""0"",""0""
""blur"",""3"",""23096""
""blur"",""3"",""27486""
","""event"",""trial"",""time""
""focus"",""0"",""0""
""focus"",""3"",""23097""
""focus"",""3"",""27488""
","""event"",""trial"",""time""
""fullscreenenter"",""5"",""35630""
","
","","","","","","","","","","","","","","","","","","","","","",""
"d3-instructions","55","258491","0.0-55.0","2564","4976","17","Female","false","true","false","false","""event"",""trial"",""time""
""blur"",""0"",""0""
""focus"",""0"",""0""
""blur"",""3"",""23096""
""focus"",""3"",""23097""
""blur"",""3"",""27486""
""focus"",""3"",""27488""
""fullscreenenter"",""5"",""35630""
","""event"",""trial"",""time""
""blur"",""0"",""0""
""blur"",""3"",""23096""
""blur"",""3"",""27486""
","""event"",""trial"",""time""
""focus"",""0"",""0""
""focus"",""3"",""23097""
""focus"",""3"",""27488""
","""event"",""trial"",""time""
""fullscreenenter"",""5"",""35630""
","
","","","","","","","","","","","","","","","","","","","","","",""
"d3-instructions","56","261923","0.0-56.0","2564","4976","17","Female","false","true","false","false","""event"",""trial"",""time""
""blur"",""0"",""0""
""focus"",""0"",""0""
""blur"",""3"",""23096""
""focus"",""3"",""23097""
""blur"",""3"",""27486""
""focus"",""3"",""27488""
""fullscreenenter"",""5"",""35630""
","""event"",""trial"",""time""
""blur"",""0"",""0""
""blur"",""3"",""23096""
""blur"",""3"",""27486""
","""event"",""trial"",""time""
""focus"",""0"",""0""
""focus"",""3"",""23097""
""focus"",""3"",""27488""
","""event"",""trial"",""time""
""fullscreenenter"",""5"",""35630""
","
","","","","","","","","","","","","","","","","","","","","","",""
"d3-instructions","57","264152","0.0-57.0","2564","4976","17","Female","false","true","false","false","""event"",""trial"",""time""
""blur"",""0"",""0""
""focus"",""0"",""0""
""blur"",""3"",""23096""
""focus"",""3"",""23097""
""blur"",""3"",""27486""
""focus"",""3"",""27488""
""fullscreenenter"",""5"",""35630""
","""event"",""trial"",""time""
""blur"",""0"",""0""
""blur"",""3"",""23096""
""blur"",""3"",""27486""
","""event"",""trial"",""time""
""focus"",""0"",""0""
""focus"",""3"",""23097""
""focus"",""3"",""27488""
","""event"",""trial"",""time""
""fullscreenenter"",""5"",""35630""
","
","","","","","","","","","","","","","","","","","","","","","",""
"d3-instructions","58","267706","0.0-58.0","2564","4976","17","Female","false","true","false","false","""event"",""trial"",""time""
""blur"",""0"",""0""
""focus"",""0"",""0""
""blur"",""3"",""23096""
""focus"",""3"",""23097""
""blur"",""3"",""27486""
""focus"",""3"",""27488""
""fullscreenenter"",""5"",""35630""
","""event"",""trial"",""time""
""blur"",""0"",""0""
""blur"",""3"",""23096""
""blur"",""3"",""27486""
","""event"",""trial"",""time""
""focus"",""0"",""0""
""focus"",""3"",""23097""
""focus"",""3"",""27488""
","""event"",""trial"",""time""
""fullscreenenter"",""5"",""35630""
","
","","","","","","","","","","","","","","","","","","","","","",""
"d3-instructions","59","269343","0.0-59.0","2564","4976","17","Female","false","true","false","false","""event"",""trial"",""time""
""blur"",""0"",""0""
""focus"",""0"",""0""
""blur"",""3"",""23096""
""focus"",""3"",""23097""
""blur"",""3"",""27486""
""focus"",""3"",""27488""
""fullscreenenter"",""5"",""35630""
","""event"",""trial"",""time""
""blur"",""0"",""0""
""blur"",""3"",""23096""
""blur"",""3"",""27486""
","""event"",""trial"",""time""
""focus"",""0"",""0""
""focus"",""3"",""23097""
""focus"",""3"",""27488""
","""event"",""trial"",""time""
""fullscreenenter"",""5"",""35630""
","
","","","","","","","","","","","","","","","","","","","","","",""
"d3-instructions","60","271147","0.0-60.0","2564","4976","17","Female","false","true","false","false","""event"",""trial"",""time""
""blur"",""0"",""0""
""focus"",""0"",""0""
""blur"",""3"",""23096""
""focus"",""3"",""23097""
""blur"",""3"",""27486""
""focus"",""3"",""27488""
""fullscreenenter"",""5"",""35630""
","""event"",""trial"",""time""
""blur"",""0"",""0""
""blur"",""3"",""23096""
""blur"",""3"",""27486""
","""event"",""trial"",""time""
""focus"",""0"",""0""
""focus"",""3"",""23097""
""focus"",""3"",""27488""
","""event"",""trial"",""time""
""fullscreenenter"",""5"",""35630""
","
","","","","","","","","","","","","","","","","","","","","","",""
"d3-animate-choice","61","273996","0.0-61.0-0.0","2564","4976","17","Female","false","true","false","false","""event"",""trial"",""time""
""blur"",""0"",""0""
""focus"",""0"",""0""
""blur"",""3"",""23096""
""focus"",""3"",""23097""
""blur"",""3"",""27486""
""focus"",""3"",""27488""
""fullscreenenter"",""5"",""35630""
","""event"",""trial"",""time""
""blur"",""0"",""0""
""blur"",""3"",""23096""
""blur"",""3"",""27486""
","""event"",""trial"",""time""
""focus"",""0"",""0""
""focus"",""3"",""23097""
""focus"",""3"",""27488""
","""event"",""trial"",""time""
""fullscreenenter"",""5"",""35630""
","
","843","","48","","","3000","1","","","images/earth.jpg","images/tutrocket2","images/tutrocket1","null","images/tutrocket2","","1","practice","null","2","","",""
"d3-animate-choice","62","276960","0.0-61.0-1.0","2564","4976","17","Female","false","true","false","false","""event"",""trial"",""time""
""blur"",""0"",""0""
""focus"",""0"",""0""
""blur"",""3"",""23096""
""focus"",""3"",""23097""
""blur"",""3"",""27486""
""focus"",""3"",""27488""
""fullscreenenter"",""5"",""35630""
","""event"",""trial"",""time""
""blur"",""0"",""0""
""blur"",""3"",""23096""
""blur"",""3"",""27486""
","""event"",""trial"",""time""
""focus"",""0"",""0""
""focus"",""3"",""23097""
""focus"",""3"",""27488""
","""event"",""trial"",""time""
""fullscreenenter"",""5"",""35630""
","
","957.8999999999069","","49","","","3000","1","","","images/tutyellowplanet.jpg","images/tutalien4","images/tutalien3","images/tutrocket2","images/tutalien3","images/nothing.png","2","practice","true","1","common","0","2022-12-18 20:31:42.534"
"two-step-fixation","63","277964","0.0-61.0-2.0","2564","4976","17","Female","false","true","false","false","""event"",""trial"",""time""
""blur"",""0"",""0""
""focus"",""0"",""0""
""blur"",""3"",""23096""
""focus"",""3"",""23097""
""blur"",""3"",""27486""
""focus"",""3"",""27488""
""fullscreenenter"",""5"",""35630""
","""event"",""trial"",""time""
""blur"",""0"",""0""
""blur"",""3"",""23096""
""blur"",""3"",""27486""
","""event"",""trial"",""time""
""focus"",""0"",""0""
""focus"",""3"",""23097""
""focus"",""3"",""27488""
","""event"",""trial"",""time""
""fullscreenenter"",""5"",""35630""
","
","","images/earth.jpg","","","","","","","","","","","","","","fixation","","","","","",""
"d3-animate-choice","64","280216","0.0-61.0-0.1","2564","4976","17","Female","false","true","false","false","""event"",""trial"",""time""
""blur"",""0"",""0""
""focus"",""0"",""0""
""blur"",""3"",""23096""
""focus"",""3"",""23097""
""blur"",""3"",""27486""
""focus"",""3"",""27488""
""fullscreenenter"",""5"",""35630""
","""event"",""trial"",""time""
""blur"",""0"",""0""
""blur"",""3"",""23096""
""blur"",""3"",""27486""
","""event"",""trial"",""time""
""focus"",""0"",""0""
""focus"",""3"",""23097""
""focus"",""3"",""27488""
","""event"",""trial"",""time""
""fullscreenenter"",""5"",""35630""
","
","247.39999999990687","","49","","","3000","1","","","images/earth.jpg","images/tutrocket2","images/tutrocket1","null","images/tutrocket1","","1","practice","null","1","","",""
"d3-animate-choice","65","282550","0.0-61.0-1.1","2564","4976","17","Female","false","true","false","false","""event"",""trial"",""time""
""blur"",""0"",""0""
""focus"",""0"",""0""
""blur"",""3"",""23096""
""focus"",""3"",""23097""
""blur"",""3"",""27486""
""focus"",""3"",""27488""
""fullscreenenter"",""5"",""35630""
","""event"",""trial"",""time""
""blur"",""0"",""0""
""blur"",""3"",""23096""
""blur"",""3"",""27486""
","""event"",""trial"",""time""
""focus"",""0"",""0""
""focus"",""3"",""23097""
""focus"",""3"",""27488""
","""event"",""trial"",""time""
""fullscreenenter"",""5"",""35630""
","
","328.89999999990687","","49","","","3000","1","","","images/tutgreenplanet.jpg","images/tutalien2","images/tutalien1","images/tutrocket1","images/tutalien1","images/nothing.png","2","practice","true","1","common","0","2022-12-18 20:31:48.123"
"two-step-fixation","66","283553","0.0-61.0-2.1","2564","4976","17","Female","false","true","false","false","""event"",""trial"",""time""
""blur"",""0"",""0""
""focus"",""0"",""0""
""blur"",""3"",""23096""
""focus"",""3"",""23097""
""blur"",""3"",""27486""
""focus"",""3"",""27488""
""fullscreenenter"",""5"",""35630""
","""event"",""trial"",""time""
""blur"",""0"",""0""
""blur"",""3"",""23096""
""blur"",""3"",""27486""
","""event"",""trial"",""time""
""focus"",""0"",""0""
""focus"",""3"",""23097""
""focus"",""3"",""27488""
","""event"",""trial"",""time""
""fullscreenenter"",""5"",""35630""
","
","","images/earth.jpg","","","","","","","","","","","","","","fixation","","","","","",""
"d3-animate-choice","67","285845","0.0-61.0-0.2","2564","4976","17","Female","false","true","false","false","""event"",""trial"",""time""
""blur"",""0"",""0""
""focus"",""0"",""0""
""blur"",""3"",""23096""
""focus"",""3"",""23097""
""blur"",""3"",""27486""
""focus"",""3"",""27488""
""fullscreenenter"",""5"",""35630""
","""event"",""trial"",""time""
""blur"",""0"",""0""
""blur"",""3"",""23096""
""blur"",""3"",""27486""
","""event"",""trial"",""time""
""focus"",""0"",""0""
""focus"",""3"",""23097""
""focus"",""3"",""27488""
","""event"",""trial"",""time""
""fullscreenenter"",""5"",""35630""
","
","287.29999999981374","","48","","","3000","1","","","images/earth.jpg","images/tutrocket2","images/tutrocket1","null","images/tutrocket2","","1","practice","null","2","","",""
"d3-animate-choice","68","288096","0.0-61.0-1.2","2564","4976","17","Female","false","true","false","false","""event"",""trial"",""time""
""blur"",""0"",""0""
""focus"",""0"",""0""
""blur"",""3"",""23096""
""focus"",""3"",""23097""
""blur"",""3"",""27486""
""focus"",""3"",""27488""
""fullscreenenter"",""5"",""35630""
","""event"",""trial"",""time""
""blur"",""0"",""0""
""blur"",""3"",""23096""
""blur"",""3"",""27486""
","""event"",""trial"",""time""
""focus"",""0"",""0""
""focus"",""3"",""23097""
""focus"",""3"",""27488""
","""event"",""trial"",""time""
""fullscreenenter"",""5"",""35630""
","
","246.80000000004657","","48","","","3000","1","","","images/tutyellowplanet.jpg","images/tutalien4","images/tutalien3","images/tutrocket2","images/tutalien4","images/t.png","2","practice","true","2","common","1","2022-12-18 20:31:53.669"
"two-step-fixation","69","289104","0.0-61.0-2.2","2564","4976","17","Female","false","true","false","false","""event"",""trial"",""time""
""blur"",""0"",""0""
""focus"",""0"",""0""
""blur"",""3"",""23096""
""focus"",""3"",""23097""
""blur"",""3"",""27486""
""focus"",""3"",""27488""
""fullscreenenter"",""5"",""35630""
","""event"",""trial"",""time""
""blur"",""0"",""0""
""blur"",""3"",""23096""
""blur"",""3"",""27486""
","""event"",""trial"",""time""
""focus"",""0"",""0""
""focus"",""3"",""23097""
""focus"",""3"",""27488""
","""event"",""trial"",""time""
""fullscreenenter"",""5"",""35630""
","
","","images/earth.jpg","","","","","","","","","","","","","","fixation","","","","","",""
"d3-animate-choice","70","291404","0.0-61.0-0.3","2564","4976","17","Female","false","true","false","false","""event"",""trial"",""time""
""blur"",""0"",""0""
""focus"",""0"",""0""
""blur"",""3"",""23096""
""focus"",""3"",""23097""
""blur"",""3"",""27486""
""focus"",""3"",""27488""
""fullscreenenter"",""5"",""35630""
","""event"",""trial"",""time""
""blur"",""0"",""0""
""blur"",""3"",""23096""
""blur"",""3"",""27486""
","""event"",""trial"",""time""
""focus"",""0"",""0""
""focus"",""3"",""23097""
""focus"",""3"",""27488""
","""event"",""trial"",""time""
""fullscreenenter"",""5"",""35630""
","
","295.5999999998603","","48","","","3000","1","","","images/earth.jpg","images/tutrocket2","images/tutrocket1","null","images/tutrocket2","","1","practice","null","2","","",""
"d3-animate-choice","71","293792","0.0-61.0-1.3","2564","4976","17","Female","false","true","false","false","""event"",""trial"",""time""
""blur"",""0"",""0""
""focus"",""0"",""0""
""blur"",""3"",""23096""
""focus"",""3"",""23097""
""blur"",""3"",""27486""
""focus"",""3"",""27488""
""fullscreenenter"",""5"",""35630""
","""event"",""trial"",""time""
""blur"",""0"",""0""
""blur"",""3"",""23096""
""blur"",""3"",""27486""
","""event"",""trial"",""time""
""focus"",""0"",""0""
""focus"",""3"",""23097""
""focus"",""3"",""27488""
","""event"",""trial"",""time""
""fullscreenenter"",""5"",""35630""
","
","383.5999999998603","","48","","","3000","1","","","images/tutgreenplanet.jpg","images/tutalien2","images/tutalien1","images/tutrocket2","images/tutalien2","images/t.png","2","practice","false","2","rare","1","2022-12-18 20:31:59.365"
"two-step-fixation","72","294796","0.0-61.0-2.3","2564","4976","17","Female","false","true","false","false","""event"",""trial"",""time""
""blur"",""0"",""0""
""focus"",""0"",""0""
""blur"",""3"",""23096""
""focus"",""3"",""23097""
""blur"",""3"",""27486""
""focus"",""3"",""27488""
""fullscreenenter"",""5"",""35630""
","""event"",""trial"",""time""
""blur"",""0"",""0""
""blur"",""3"",""23096""
""blur"",""3"",""27486""
","""event"",""trial"",""time""
""focus"",""0"",""0""
""focus"",""3"",""23097""
""focus"",""3"",""27488""
","""event"",""trial"",""time""
""fullscreenenter"",""5"",""35630""
","
","","images/earth.jpg","","","","","","","","","","","","","","fixation","","","","","",""
"d3-animate-choice","73","297113","0.0-61.0-0.4","2564","4976","17","Female","false","true","false","false","""event"",""trial"",""time""
""blur"",""0"",""0""
""focus"",""0"",""0""
""blur"",""3"",""23096""
""focus"",""3"",""23097""
""blur"",""3"",""27486""
""focus"",""3"",""27488""
""fullscreenenter"",""5"",""35630""
","""event"",""trial"",""time""
""blur"",""0"",""0""
""blur"",""3"",""23096""
""blur"",""3"",""27486""
","""event"",""trial"",""time""
""focus"",""0"",""0""
""focus"",""3"",""23097""
""focus"",""3"",""27488""
","""event"",""trial"",""time""
""fullscreenenter"",""5"",""35630""
","
","313.29999999981374","","48","","","3000","1","","","images/earth.jpg","images/tutrocket2","images/tutrocket1","null","images/tutrocket2","","1","practice","null","2","","",""
"d3-animate-choice","74","299474","0.0-61.0-1.4","2564","4976","17","Female","false","true","false","false","""event"",""trial"",""time""
""blur"",""0"",""0""
""focus"",""0"",""0""
""blur"",""3"",""23096""
""focus"",""3"",""23097""
""blur"",""3"",""27486""
""focus"",""3"",""27488""
""fullscreenenter"",""5"",""35630""
","""event"",""trial"",""time""
""blur"",""0"",""0""
""blur"",""3"",""23096""
""blur"",""3"",""27486""
","""event"",""trial"",""time""
""focus"",""0"",""0""
""focus"",""3"",""23097""
""focus"",""3"",""27488""
","""event"",""trial"",""time""
""fullscreenenter"",""5"",""35630""
","
","357.39999999990687","","48","","","3000","1","","","images/tutgreenplanet.jpg","images/tutalien2","images/tutalien1","images/tutrocket2","images/tutalien2","images/nothing.png","2","practice","false","2","rare","0","2022-12-18 20:32:05.047"
"two-step-fixation","75","300477","0.0-61.0-2.4","2564","4976","17","Female","false","true","false","false","""event"",""trial"",""time""
""blur"",""0"",""0""
""focus"",""0"",""0""
""blur"",""3"",""23096""
""focus"",""3"",""23097""
""blur"",""3"",""27486""
""focus"",""3"",""27488""
""fullscreenenter"",""5"",""35630""
","""event"",""trial"",""time""
""blur"",""0"",""0""
""blur"",""3"",""23096""
""blur"",""3"",""27486""
","""event"",""trial"",""time""
""focus"",""0"",""0""
""focus"",""3"",""23097""
""focus"",""3"",""27488""
","""event"",""trial"",""time""
""fullscreenenter"",""5"",""35630""
","
","","images/earth.jpg","","","","","","","","","","","","","","fixation","","","","","",""
"d3-animate-choice","76","302756","0.0-61.0-0.5","2564","4976","17","Female","false","true","false","false","""event"",""trial"",""time""
""blur"",""0"",""0""
""focus"",""0"",""0""
""blur"",""3"",""23096""
""focus"",""3"",""23097""
""blur"",""3"",""27486""
""focus"",""3"",""27488""
""fullscreenenter"",""5"",""35630""
","""event"",""trial"",""time""
""blur"",""0"",""0""
""blur"",""3"",""23096""
""blur"",""3"",""27486""
","""event"",""trial"",""time""
""focus"",""0"",""0""
""focus"",""3"",""23097""
""focus"",""3"",""27488""
","""event"",""trial"",""time""
""fullscreenenter"",""5"",""35630""
","
","274.5999999998603","","49","","","3000","1","","","images/earth.jpg","images/tutrocket2","images/tutrocket1","null","images/tutrocket1","","1","practice","null","1","","",""
"d3-animate-choice","77","305169","0.0-61.0-1.5","2564","4976","17","Female","false","true","false","false","""event"",""trial"",""time""
""blur"",""0"",""0""
""focus"",""0"",""0""
""blur"",""3"",""23096""
""focus"",""3"",""23097""
""blur"",""3"",""27486""
""focus"",""3"",""27488""
""fullscreenenter"",""5"",""35630""
","""event"",""trial"",""time""
""blur"",""0"",""0""
""blur"",""3"",""23096""
""blur"",""3"",""27486""
","""event"",""trial"",""time""
""focus"",""0"",""0""
""focus"",""3"",""23097""
""focus"",""3"",""27488""
","""event"",""trial"",""time""
""fullscreenenter"",""5"",""35630""
","
","408.69999999995343","","49","","","3000","1","","","images/tutgreenplanet.jpg","images/tutalien2","images/tutalien1","images/tutrocket1","images/tutalien1","images/nothing.png","2","practice","true","1","common","0","2022-12-18 20:32:10.742"
"two-step-fixation","78","306172","0.0-61.0-2.5","2564","4976","17","Female","false","true","false","false","""event"",""trial"",""time""
""blur"",""0"",""0""
""focus"",""0"",""0""
""blur"",""3"",""23096""
""focus"",""3"",""23097""
""blur"",""3"",""27486""
""focus"",""3"",""27488""
""fullscreenenter"",""5"",""35630""
","""event"",""trial"",""time""
""blur"",""0"",""0""
""blur"",""3"",""23096""
""blur"",""3"",""27486""
","""event"",""trial"",""time""
""focus"",""0"",""0""
""focus"",""3"",""23097""
""focus"",""3"",""27488""
","""event"",""trial"",""time""
""fullscreenenter"",""5"",""35630""
","
","","images/earth.jpg","","","","","","","","","","","","","","fixation","","","","","",""
"d3-animate-choice","79","308494","0.0-61.0-0.6","2564","4976","17","Female","false","true","false","false","""event"",""trial"",""time""
""blur"",""0"",""0""
""focus"",""0"",""0""
""blur"",""3"",""23096""
""focus"",""3"",""23097""
""blur"",""3"",""27486""
""focus"",""3"",""27488""
""fullscreenenter"",""5"",""35630""
","""event"",""trial"",""time""
""blur"",""0"",""0""
""blur"",""3"",""23096""
""blur"",""3"",""27486""
","""event"",""trial"",""time""
""focus"",""0"",""0""
""focus"",""3"",""23097""
""focus"",""3"",""27488""
","""event"",""trial"",""time""
""fullscreenenter"",""5"",""35630""
","
","317.80000000004657","","49","","","3000","1","","","images/earth.jpg","images/tutrocket2","images/tutrocket1","null","images/tutrocket1","","1","practice","null","1","","",""
"d3-animate-choice","80","310831","0.0-61.0-1.6","2564","4976","17","Female","false","true","false","false","""event"",""trial"",""time""
""blur"",""0"",""0""
""focus"",""0"",""0""
""blur"",""3"",""23096""
""focus"",""3"",""23097""
""blur"",""3"",""27486""
""focus"",""3"",""27488""
""fullscreenenter"",""5"",""35630""
","""event"",""trial"",""time""
""blur"",""0"",""0""
""blur"",""3"",""23096""
""blur"",""3"",""27486""
","""event"",""trial"",""time""
""focus"",""0"",""0""
""focus"",""3"",""23097""
""focus"",""3"",""27488""
","""event"",""trial"",""time""
""fullscreenenter"",""5"",""35630""
","
","332.60000000009313","","48","","","3000","1","","","images/tutgreenplanet.jpg","images/tutalien2","images/tutalien1","images/tutrocket1","images/tutalien2","images/t.png","2","practice","true","2","common","1","2022-12-18 20:32:16.404"
"two-step-fixation","81","311834","0.0-61.0-2.6","2564","4976","17","Female","false","true","false","false","""event"",""trial"",""time""
""blur"",""0"",""0""
""focus"",""0"",""0""
""blur"",""3"",""23096""
""focus"",""3"",""23097""
""blur"",""3"",""27486""
""focus"",""3"",""27488""
""fullscreenenter"",""5"",""35630""
","""event"",""trial"",""time""
""blur"",""0"",""0""
""blur"",""3"",""23096""
""blur"",""3"",""27486""
","""event"",""trial"",""time""
""focus"",""0"",""0""
""focus"",""3"",""23097""
""focus"",""3"",""27488""
","""event"",""trial"",""time""
""fullscreenenter"",""5"",""35630""
","
","","images/earth.jpg","","","","","","","","","","","","","","fixation","","","","","",""
"d3-animate-choice","82","314071","0.0-61.0-0.7","2564","4976","17","Female","false","true","false","false","""event"",""trial"",""time""
""blur"",""0"",""0""
""focus"",""0"",""0""
""blur"",""3"",""23096""
""focus"",""3"",""23097""
""blur"",""3"",""27486""
""focus"",""3"",""27488""
""fullscreenenter"",""5"",""35630""
","""event"",""trial"",""time""
""blur"",""0"",""0""
""blur"",""3"",""23096""
""blur"",""3"",""27486""
","""event"",""trial"",""time""
""focus"",""0"",""0""
""focus"",""3"",""23097""
""focus"",""3"",""27488""
","""event"",""trial"",""time""
""fullscreenenter"",""5"",""35630""
","
","231.89999999990687","","49","","","3000","1","","","images/earth.jpg","images/tutrocket2","images/tutrocket1","null","images/tutrocket1","","1","practice","null","1","","",""
"d3-animate-choice","83","316598","0.0-61.0-1.7","2564","4976","17","Female","false","true","false","false","""event"",""trial"",""time""
""blur"",""0"",""0""
""focus"",""0"",""0""
""blur"",""3"",""23096""
""focus"",""3"",""23097""
""blur"",""3"",""27486""
""focus"",""3"",""27488""
""fullscreenenter"",""5"",""35630""
","""event"",""trial"",""time""
""blur"",""0"",""0""
""blur"",""3"",""23096""
""blur"",""3"",""27486""
","""event"",""trial"",""time""
""focus"",""0"",""0""
""focus"",""3"",""23097""
""focus"",""3"",""27488""
","""event"",""trial"",""time""
""fullscreenenter"",""5"",""35630""
","
","521.3000000000466","","48","","","3000","1","","","images/tutyellowplanet.jpg","images/tutalien4","images/tutalien3","images/tutrocket1","images/tutalien4","images/t.png","2","practice","false","2","rare","1","2022-12-18 20:32:22.172"
"two-step-fixation","84","317602","0.0-61.0-2.7","2564","4976","17","Female","false","true","false","false","""event"",""trial"",""time""
""blur"",""0"",""0""
""focus"",""0"",""0""
""blur"",""3"",""23096""
""focus"",""3"",""23097""
""blur"",""3"",""27486""
""focus"",""3"",""27488""
""fullscreenenter"",""5"",""35630""
","""event"",""trial"",""time""
""blur"",""0"",""0""
""blur"",""3"",""23096""
""blur"",""3"",""27486""
","""event"",""trial"",""time""
""focus"",""0"",""0""
""focus"",""3"",""23097""
""focus"",""3"",""27488""
","""event"",""trial"",""time""
""fullscreenenter"",""5"",""35630""
","
","","images/earth.jpg","","","","","","","","","","","","","","fixation","","","","","",""
"d3-animate-choice","85","319920","0.0-61.0-0.8","2564","4976","17","Female","false","true","false","false","""event"",""trial"",""time""
""blur"",""0"",""0""
""focus"",""0"",""0""
""blur"",""3"",""23096""
""focus"",""3"",""23097""
""blur"",""3"",""27486""
""focus"",""3"",""27488""
""fullscreenenter"",""5"",""35630""
","""event"",""trial"",""time""
""blur"",""0"",""0""
""blur"",""3"",""23096""
""blur"",""3"",""27486""
","""event"",""trial"",""time""
""focus"",""0"",""0""
""focus"",""3"",""23097""
""focus"",""3"",""27488""
","""event"",""trial"",""time""
""fullscreenenter"",""5"",""35630""
","
","313.10000000009313","","49","","","3000","1","","","images/earth.jpg","images/tutrocket2","images/tutrocket1","null","images/tutrocket1","","1","practice","null","1","","",""
"d3-animate-choice","86","322456","0.0-61.0-1.8","2564","4976","17","Female","false","true","false","false","""event"",""trial"",""time""
""blur"",""0"",""0""
""focus"",""0"",""0""
""blur"",""3"",""23096""
""focus"",""3"",""23097""
""blur"",""3"",""27486""
""focus"",""3"",""27488""
""fullscreenenter"",""5"",""35630""
","""event"",""trial"",""time""
""blur"",""0"",""0""
""blur"",""3"",""23096""
""blur"",""3"",""27486""
","""event"",""trial"",""time""
""focus"",""0"",""0""
""focus"",""3"",""23097""
""focus"",""3"",""27488""
","""event"",""trial"",""time""
""fullscreenenter"",""5"",""35630""
","
","531.6000000000931","","48","","","3000","1","","","images/tutyellowplanet.jpg","images/tutalien4","images/tutalien3","images/tutrocket1","images/tutalien4","images/t.png","2","practice","false","2","rare","1","2022-12-18 20:32:28.029"
"two-step-fixation","87","323460","0.0-61.0-2.8","2564","4976","17","Female","false","true","false","false","""event"",""trial"",""time""
""blur"",""0"",""0""
""focus"",""0"",""0""
""blur"",""3"",""23096""
""focus"",""3"",""23097""
""blur"",""3"",""27486""
""focus"",""3"",""27488""
""fullscreenenter"",""5"",""35630""
","""event"",""trial"",""time""
""blur"",""0"",""0""
""blur"",""3"",""23096""
""blur"",""3"",""27486""
","""event"",""trial"",""time""
""focus"",""0"",""0""
""focus"",""3"",""23097""
""focus"",""3"",""27488""
","""event"",""trial"",""time""
""fullscreenenter"",""5"",""35630""
","
","","images/earth.jpg","","","","","","","","","","","","","","fixation","","","","","",""
"d3-animate-choice","88","325692","0.0-61.0-0.9","2564","4976","17","Female","false","true","false","false","""event"",""trial"",""time""
""blur"",""0"",""0""
""focus"",""0"",""0""
""blur"",""3"",""23096""
""focus"",""3"",""23097""
""blur"",""3"",""27486""
""focus"",""3"",""27488""
""fullscreenenter"",""5"",""35630""
","""event"",""trial"",""time""
""blur"",""0"",""0""
""blur"",""3"",""23096""
""blur"",""3"",""27486""
","""event"",""trial"",""time""
""focus"",""0"",""0""
""focus"",""3"",""23097""
""focus"",""3"",""27488""
","""event"",""trial"",""time""
""fullscreenenter"",""5"",""35630""
","
","228.69999999995343","","49","","","3000","1","","","images/earth.jpg","images/tutrocket2","images/tutrocket1","null","images/tutrocket1","","1","practice","null","1","","",""
"d3-animate-choice","89","328675","0.0-61.0-1.9","2564","4976","17","Female","false","true","false","false","""event"",""trial"",""time""
""blur"",""0"",""0""
""focus"",""0"",""0""
""blur"",""3"",""23096""
""focus"",""3"",""23097""
""blur"",""3"",""27486""
""focus"",""3"",""27488""
""fullscreenenter"",""5"",""35630""
","""event"",""trial"",""time""
""blur"",""0"",""0""
""blur"",""3"",""23096""
""blur"",""3"",""27486""
","""event"",""trial"",""time""
""focus"",""0"",""0""
""focus"",""3"",""23097""
""focus"",""3"",""27488""
","""event"",""trial"",""time""
""fullscreenenter"",""5"",""35630""
","
","978.8999999999069","","49","","","3000","1","","","images/tutgreenplanet.jpg","images/tutalien2","images/tutalien1","images/tutrocket1","images/tutalien1","images/nothing.png","2","practice","true","1","common","0","2022-12-18 20:32:34.248"
"two-step-fixation","90","329679","0.0-61.0-2.9","2564","4976","17","Female","false","true","false","false","""event"",""trial"",""time""
""blur"",""0"",""0""
""focus"",""0"",""0""
""blur"",""3"",""23096""
""focus"",""3"",""23097""
""blur"",""3"",""27486""
""focus"",""3"",""27488""
""fullscreenenter"",""5"",""35630""
","""event"",""trial"",""time""
""blur"",""0"",""0""
""blur"",""3"",""23096""
""blur"",""3"",""27486""
","""event"",""trial"",""time""
""focus"",""0"",""0""
""focus"",""3"",""23097""
""focus"",""3"",""27488""
","""event"",""trial"",""time""
""fullscreenenter"",""5"",""35630""
","
","","images/earth.jpg","","","","","","","","","","","","","","fixation","","","","","",""
"d3-animate-choice","91","331696","0.0-61.0-0.10","2564","4976","17","Female","false","true","false","false","""event"",""trial"",""time""
""blur"",""0"",""0""
""focus"",""0"",""0""
""blur"",""3"",""23096""
""focus"",""3"",""23097""
""blur"",""3"",""27486""
""focus"",""3"",""27488""
""fullscreenenter"",""5"",""35630""
","""event"",""trial"",""time""
""blur"",""0"",""0""
""blur"",""3"",""23096""
""blur"",""3"",""27486""
","""event"",""trial"",""time""
""focus"",""0"",""0""
""focus"",""3"",""23097""
""focus"",""3"",""27488""
","""event"",""trial"",""time""
""fullscreenenter"",""5"",""35630""
","
","13","","48","","","3000","1","","","images/earth.jpg","images/tutrocket2","images/tutrocket1","null","images/tutrocket2","","1","practice","null","2","","",""
"d3-animate-choice","92","334617","0.0-61.0-1.10","2564","4976","17","Female","false","true","false","false","""event"",""trial"",""time""
""blur"",""0"",""0""
""focus"",""0"",""0""
""blur"",""3"",""23096""
""focus"",""3"",""23097""
""blur"",""3"",""27486""
""focus"",""3"",""27488""
""fullscreenenter"",""5"",""35630""
","""event"",""trial"",""time""
""blur"",""0"",""0""
""blur"",""3"",""23096""
""blur"",""3"",""27486""
","""event"",""trial"",""time""
""focus"",""0"",""0""
""focus"",""3"",""23097""
""focus"",""3"",""27488""
","""event"",""trial"",""time""
""fullscreenenter"",""5"",""35630""
","
","916.6999999999534","","49","","","3000","1","","","images/tutyellowplanet.jpg","images/tutalien4","images/tutalien3","images/tutrocket2","images/tutalien3","images/nothing.png","2","practice","true","1","common","0","2022-12-18 20:32:40.190"
"two-step-fixation","93","335621","0.0-61.0-2.10","2564","4976","17","Female","false","true","false","false","""event"",""trial"",""time""
""blur"",""0"",""0""
""focus"",""0"",""0""
""blur"",""3"",""23096""
""focus"",""3"",""23097""
""blur"",""3"",""27486""
""focus"",""3"",""27488""
""fullscreenenter"",""5"",""35630""
","""event"",""trial"",""time""
""blur"",""0"",""0""
""blur"",""3"",""23096""
""blur"",""3"",""27486""
","""event"",""trial"",""time""
""focus"",""0"",""0""
""focus"",""3"",""23097""
""focus"",""3"",""27488""
","""event"",""trial"",""time""
""fullscreenenter"",""5"",""35630""
","
","","images/earth.jpg","","","","","","","","","","","","","","fixation","","","","","",""
"d3-animate-choice","94","337667","0.0-61.0-0.11","2564","4976","17","Female","false","true","false","false","""event"",""trial"",""time""
""blur"",""0"",""0""
""focus"",""0"",""0""
""blur"",""3"",""23096""
""focus"",""3"",""23097""
""blur"",""3"",""27486""
""focus"",""3"",""27488""
""fullscreenenter"",""5"",""35630""
","""event"",""trial"",""time""
""blur"",""0"",""0""
""blur"",""3"",""23096""
""blur"",""3"",""27486""
","""event"",""trial"",""time""
""focus"",""0"",""0""
""focus"",""3"",""23097""
""focus"",""3"",""27488""
","""event"",""trial"",""time""
""fullscreenenter"",""5"",""35630""
","
","41.60000000009313","","48","","","3000","1","","","images/earth.jpg","images/tutrocket2","images/tutrocket1","null","images/tutrocket2","","1","practice","null","2","","",""
"d3-animate-choice","95","340810","0.0-61.0-1.11","2564","4976","17","Female","false","true","false","false","""event"",""trial"",""time""
""blur"",""0"",""0""
""focus"",""0"",""0""
""blur"",""3"",""23096""
""focus"",""3"",""23097""
""blur"",""3"",""27486""
""focus"",""3"",""27488""
""fullscreenenter"",""5"",""35630""
","""event"",""trial"",""time""
""blur"",""0"",""0""
""blur"",""3"",""23096""
""blur"",""3"",""27486""
","""event"",""trial"",""time""
""focus"",""0"",""0""
""focus"",""3"",""23097""
""focus"",""3"",""27488""
","""event"",""trial"",""time""
""fullscreenenter"",""5"",""35630""
","
","1139.5","","49","","","3000","1","","","images/tutgreenplanet.jpg","images/tutalien2","images/tutalien1","images/tutrocket2","images/tutalien1","images/nothing.png","2","practice","false","1","rare","0","2022-12-18 20:32:46.384"
"two-step-fixation","96","341814","0.0-61.0-2.11","2564","4976","17","Female","false","true","false","false","""event"",""trial"",""time""
""blur"",""0"",""0""
""focus"",""0"",""0""
""blur"",""3"",""23096""
""focus"",""3"",""23097""
""blur"",""3"",""27486""
""focus"",""3"",""27488""
""fullscreenenter"",""5"",""35630""
","""event"",""trial"",""time""
""blur"",""0"",""0""
""blur"",""3"",""23096""
""blur"",""3"",""27486""
","""event"",""trial"",""time""
""focus"",""0"",""0""
""focus"",""3"",""23097""
""focus"",""3"",""27488""
","""event"",""trial"",""time""
""fullscreenenter"",""5"",""35630""
","
","","images/earth.jpg","","","","","","","","","","","","","","fixation","","","","","",""
"d3-animate-choice","97","343936","0.0-61.0-0.12","2564","4976","17","Female","false","true","false","false","""event"",""trial"",""time""
""blur"",""0"",""0""
""focus"",""0"",""0""
""blur"",""3"",""23096""
""focus"",""3"",""23097""
""blur"",""3"",""27486""
""focus"",""3"",""27488""
""fullscreenenter"",""5"",""35630""
","""event"",""trial"",""time""
""blur"",""0"",""0""
""blur"",""3"",""23096""
""blur"",""3"",""27486""
","""event"",""trial"",""time""
""focus"",""0"",""0""
""focus"",""3"",""23097""
""focus"",""3"",""27488""
","""event"",""trial"",""time""
""fullscreenenter"",""5"",""35630""
","
","118.30000000004657","","48","","","3000","1","","","images/earth.jpg","images/tutrocket2","images/tutrocket1","null","images/tutrocket2","","1","practice","null","2","","",""
"d3-animate-choice","98","346408","0.0-61.0-1.12","2564","4976","17","Female","false","true","false","false","""event"",""trial"",""time""
""blur"",""0"",""0""
""focus"",""0"",""0""
""blur"",""3"",""23096""
""focus"",""3"",""23097""
""blur"",""3"",""27486""
""focus"",""3"",""27488""
""fullscreenenter"",""5"",""35630""
","""event"",""trial"",""time""
""blur"",""0"",""0""
""blur"",""3"",""23096""
""blur"",""3"",""27486""
","""event"",""trial"",""time""
""focus"",""0"",""0""
""focus"",""3"",""23097""
""focus"",""3"",""27488""
","""event"",""trial"",""time""
""fullscreenenter"",""5"",""35630""
","
","468.10000000009313","","49","","","3000","1","","","images/tutyellowplanet.jpg","images/tutalien4","images/tutalien3","images/tutrocket2","images/tutalien3","images/nothing.png","2","practice","true","1","common","0","2022-12-18 20:32:51.982"
"two-step-fixation","99","347412","0.0-61.0-2.12","2564","4976","17","Female","false","true","false","false","""event"",""trial"",""time""
""blur"",""0"",""0""
""focus"",""0"",""0""
""blur"",""3"",""23096""
""focus"",""3"",""23097""
""blur"",""3"",""27486""
""focus"",""3"",""27488""
""fullscreenenter"",""5"",""35630""
","""event"",""trial"",""time""
""blur"",""0"",""0""
""blur"",""3"",""23096""
""blur"",""3"",""27486""
","""event"",""trial"",""time""
""focus"",""0"",""0""
""focus"",""3"",""23097""
""focus"",""3"",""27488""
","""event"",""trial"",""time""
""fullscreenenter"",""5"",""35630""
","
","","images/earth.jpg","","","","","","","","","","","","","","fixation","","","","","",""
"d3-animate-choice","100","349630","0.0-61.0-0.13","2564","4976","17","Female","false","true","false","false","""event"",""trial"",""time""
""blur"",""0"",""0""
""focus"",""0"",""0""
""blur"",""3"",""23096""
""focus"",""3"",""23097""
""blur"",""3"",""27486""
""focus"",""3"",""27488""
""fullscreenenter"",""5"",""35630""
","""event"",""trial"",""time""
""blur"",""0"",""0""
""blur"",""3"",""23096""
""blur"",""3"",""27486""
","""event"",""trial"",""time""
""focus"",""0"",""0""
""focus"",""3"",""23097""
""focus"",""3"",""27488""
","""event"",""trial"",""time""
""fullscreenenter"",""5"",""35630""
","
","212.60000000009313","","49","","","3000","1","","","images/earth.jpg","images/tutrocket2","images/tutrocket1","null","images/tutrocket1","","1","practice","null","1","","",""
"d3-animate-choice","101","352194","0.0-61.0-1.13","2564","4976","17","Female","false","true","false","false","""event"",""trial"",""time""
""blur"",""0"",""0""
""focus"",""0"",""0""
""blur"",""3"",""23096""
""focus"",""3"",""23097""
""blur"",""3"",""27486""
""focus"",""3"",""27488""
""fullscreenenter"",""5"",""35630""
","""event"",""trial"",""time""
""blur"",""0"",""0""
""blur"",""3"",""23096""
""blur"",""3"",""27486""
","""event"",""trial"",""time""
""focus"",""0"",""0""
""focus"",""3"",""23097""
""focus"",""3"",""27488""
","""event"",""trial"",""time""
""fullscreenenter"",""5"",""35630""
","
","560.8999999999069","","49","","","3000","1","","","images/tutyellowplanet.jpg","images/tutalien4","images/tutalien3","images/tutrocket1","images/tutalien3","images/nothing.png","2","practice","false","1","rare","0","2022-12-18 20:32:57.767"
"two-step-fixation","102","353197","0.0-61.0-2.13","2564","4976","17","Female","false","true","false","false","""event"",""trial"",""time""
""blur"",""0"",""0""
""focus"",""0"",""0""
""blur"",""3"",""23096""
""focus"",""3"",""23097""
""blur"",""3"",""27486""
""focus"",""3"",""27488""
""fullscreenenter"",""5"",""35630""
","""event"",""trial"",""time""
""blur"",""0"",""0""
""blur"",""3"",""23096""
""blur"",""3"",""27486""
","""event"",""trial"",""time""
""focus"",""0"",""0""
""focus"",""3"",""23097""
""focus"",""3"",""27488""
","""event"",""trial"",""time""
""fullscreenenter"",""5"",""35630""
","
","","images/earth.jpg","","","","","","","","","","","","","","fixation","","","","","",""
"d3-animate-choice","103","355331","0.0-61.0-0.14","2564","4976","17","Female","false","true","false","false","""event"",""trial"",""time""
""blur"",""0"",""0""
""focus"",""0"",""0""
""blur"",""3"",""23096""
""focus"",""3"",""23097""
""blur"",""3"",""27486""
""focus"",""3"",""27488""
""fullscreenenter"",""5"",""35630""
","""event"",""trial"",""time""
""blur"",""0"",""0""
""blur"",""3"",""23096""
""blur"",""3"",""27486""
","""event"",""trial"",""time""
""focus"",""0"",""0""
""focus"",""3"",""23097""
""focus"",""3"",""27488""
","""event"",""trial"",""time""
""fullscreenenter"",""5"",""35630""
","
","129.29999999981374","","48","","","3000","1","","","images/earth.jpg","images/tutrocket2","images/tutrocket1","null","images/tutrocket2","","1","practice","null","2","","",""
"d3-animate-choice","104","357764","0.0-61.0-1.14","2564","4976","17","Female","false","true","false","false","""event"",""trial"",""time""
""blur"",""0"",""0""
""focus"",""0"",""0""
""blur"",""3"",""23096""
""focus"",""3"",""23097""
""blur"",""3"",""27486""
""focus"",""3"",""27488""
""fullscreenenter"",""5"",""35630""
","""event"",""trial"",""time""
""blur"",""0"",""0""
""blur"",""3"",""23096""
""blur"",""3"",""27486""
","""event"",""trial"",""time""
""focus"",""0"",""0""
""focus"",""3"",""23097""
""focus"",""3"",""27488""
","""event"",""trial"",""time""
""fullscreenenter"",""5"",""35630""
","
","429","","48","","","3000","1","","","images/tutgreenplanet.jpg","images/tutalien2","images/tutalien1","images/tutrocket2","images/tutalien2","images/nothing.png","2","practice","false","2","rare","0","2022-12-18 20:33:03.337"
"two-step-fixation","105","358768","0.0-61.0-2.14","2564","4976","17","Female","false","true","false","false","""event"",""trial"",""time""
""blur"",""0"",""0""
""focus"",""0"",""0""
""blur"",""3"",""23096""
""focus"",""3"",""23097""
""blur"",""3"",""27486""
""focus"",""3"",""27488""
""fullscreenenter"",""5"",""35630""
","""event"",""trial"",""time""
""blur"",""0"",""0""
""blur"",""3"",""23096""
""blur"",""3"",""27486""
","""event"",""trial"",""time""
""focus"",""0"",""0""
""focus"",""3"",""23097""
""focus"",""3"",""27488""
","""event"",""trial"",""time""
""fullscreenenter"",""5"",""35630""
","
","","images/earth.jpg","","","","","","","","","","","","","","fixation","","","","","",""
"d3-animate-choice","106","361027","0.0-61.0-0.15","2564","4976","17","Female","false","true","false","false","""event"",""trial"",""time""
""blur"",""0"",""0""
""focus"",""0"",""0""
""blur"",""3"",""23096""
""focus"",""3"",""23097""
""blur"",""3"",""27486""
""focus"",""3"",""27488""
""fullscreenenter"",""5"",""35630""
","""event"",""trial"",""time""
""blur"",""0"",""0""
""blur"",""3"",""23096""
""blur"",""3"",""27486""
","""event"",""trial"",""time""
""focus"",""0"",""0""
""focus"",""3"",""23097""
""focus"",""3"",""27488""
","""event"",""trial"",""time""
""fullscreenenter"",""5"",""35630""
","
","255.39999999990687","","48","","","3000","1","","","images/earth.jpg","images/tutrocket2","images/tutrocket1","null","images/tutrocket2","","1","practice","null","2","","",""
"d3-animate-choice","107","363404","0.0-61.0-1.15","2564","4976","17","Female","false","true","false","false","""event"",""trial"",""time""
""blur"",""0"",""0""
""focus"",""0"",""0""
""blur"",""3"",""23096""
""focus"",""3"",""23097""
""blur"",""3"",""27486""
""focus"",""3"",""27488""
""fullscreenenter"",""5"",""35630""
","""event"",""trial"",""time""
""blur"",""0"",""0""
""blur"",""3"",""23096""
""blur"",""3"",""27486""
","""event"",""trial"",""time""
""focus"",""0"",""0""
""focus"",""3"",""23097""
""focus"",""3"",""27488""
","""event"",""trial"",""time""
""fullscreenenter"",""5"",""35630""
","
","372.80000000004657","","49","","","3000","1","","","images/tutyellowplanet.jpg","images/tutalien4","images/tutalien3","images/tutrocket2","images/tutalien3","images/t.png","2","practice","true","1","common","1","2022-12-18 20:33:08.977"
"two-step-fixation","108","364407","0.0-61.0-2.15","2564","4976","17","Female","false","true","false","false","""event"",""trial"",""time""
""blur"",""0"",""0""
""focus"",""0"",""0""
""blur"",""3"",""23096""
""focus"",""3"",""23097""
""blur"",""3"",""27486""
""focus"",""3"",""27488""
""fullscreenenter"",""5"",""35630""
","""event"",""trial"",""time""
""blur"",""0"",""0""
""blur"",""3"",""23096""
""blur"",""3"",""27486""
","""event"",""trial"",""time""
""focus"",""0"",""0""
""focus"",""3"",""23097""
""focus"",""3"",""27488""
","""event"",""trial"",""time""
""fullscreenenter"",""5"",""35630""
","
","","images/earth.jpg","","","","","","","","","","","","","","fixation","","","","","",""
"d3-animate-choice","109","366700","0.0-61.0-0.16","2564","4976","17","Female","false","true","false","false","""event"",""trial"",""time""
""blur"",""0"",""0""
""focus"",""0"",""0""
""blur"",""3"",""23096""
""focus"",""3"",""23097""
""blur"",""3"",""27486""
""focus"",""3"",""27488""
""fullscreenenter"",""5"",""35630""
","""event"",""trial"",""time""
""blur"",""0"",""0""
""blur"",""3"",""23096""
""blur"",""3"",""27486""
","""event"",""trial"",""time""
""focus"",""0"",""0""
""focus"",""3"",""23097""
""focus"",""3"",""27488""
","""event"",""trial"",""time""
""fullscreenenter"",""5"",""35630""
","
","289.30000000004657","","49","","","3000","1","","","images/earth.jpg","images/tutrocket2","images/tutrocket1","null","images/tutrocket1","","1","practice","null","1","","",""
"d3-animate-choice","110","369099","0.0-61.0-1.16","2564","4976","17","Female","false","true","false","false","""event"",""trial"",""time""
""blur"",""0"",""0""
""focus"",""0"",""0""
""blur"",""3"",""23096""
""focus"",""3"",""23097""
""blur"",""3"",""27486""
""focus"",""3"",""27488""
""fullscreenenter"",""5"",""35630""
","""event"",""trial"",""time""
""blur"",""0"",""0""
""blur"",""3"",""23096""
""blur"",""3"",""27486""
","""event"",""trial"",""time""
""focus"",""0"",""0""
""focus"",""3"",""23097""
""focus"",""3"",""27488""
","""event"",""trial"",""time""
""fullscreenenter"",""5"",""35630""
","
","394.39999999990687","","49","","","3000","1","","","images/tutgreenplanet.jpg","images/tutalien2","images/tutalien1","images/tutrocket1","images/tutalien1","images/nothing.png","2","practice","true","1","common","0","2022-12-18 20:33:14.672"
"two-step-fixation","111","370102","0.0-61.0-2.16","2564","4976","17","Female","false","true","false","false","""event"",""trial"",""time""
""blur"",""0"",""0""
""focus"",""0"",""0""
""blur"",""3"",""23096""
""focus"",""3"",""23097""
""blur"",""3"",""27486""
""focus"",""3"",""27488""
""fullscreenenter"",""5"",""35630""
","""event"",""trial"",""time""
""blur"",""0"",""0""
""blur"",""3"",""23096""
""blur"",""3"",""27486""
","""event"",""trial"",""time""
""focus"",""0"",""0""
""focus"",""3"",""23097""
""focus"",""3"",""27488""
","""event"",""trial"",""time""
""fullscreenenter"",""5"",""35630""
","
","","images/earth.jpg","","","","","","","","","","","","","","fixation","","","","","",""
"d3-animate-choice","112","372328","0.0-61.0-0.17","2564","4976","17","Female","false","true","false","false","""event"",""trial"",""time""
""blur"",""0"",""0""
""focus"",""0"",""0""
""blur"",""3"",""23096""
""focus"",""3"",""23097""
""blur"",""3"",""27486""
""focus"",""3"",""27488""
""fullscreenenter"",""5"",""35630""
","""event"",""trial"",""time""
""blur"",""0"",""0""
""blur"",""3"",""23096""
""blur"",""3"",""27486""
","""event"",""trial"",""time""
""focus"",""0"",""0""
""focus"",""3"",""23097""
""focus"",""3"",""27488""
","""event"",""trial"",""time""
""fullscreenenter"",""5"",""35630""
","
","221.30000000004657","","48","","","3000","1","","","images/earth.jpg","images/tutrocket2","images/tutrocket1","null","images/tutrocket2","","1","practice","null","2","","",""
"d3-animate-choice","113","375365","0.0-61.0-1.17","2564","4976","17","Female","false","true","false","false","""event"",""trial"",""time""
""blur"",""0"",""0""
""focus"",""0"",""0""
""blur"",""3"",""23096""
""focus"",""3"",""23097""
""blur"",""3"",""27486""
""focus"",""3"",""27488""
""fullscreenenter"",""5"",""35630""
","""event"",""trial"",""time""
""blur"",""0"",""0""
""blur"",""3"",""23096""
""blur"",""3"",""27486""
","""event"",""trial"",""time""
""focus"",""0"",""0""
""focus"",""3"",""23097""
""focus"",""3"",""27488""
","""event"",""trial"",""time""
""fullscreenenter"",""5"",""35630""
","
","1032.6999999999534","","48","","","3000","1","","","images/tutyellowplanet.jpg","images/tutalien4","images/tutalien3","images/tutrocket2","images/tutalien4","images/t.png","2","practice","true","2","common","1","2022-12-18 20:33:20.938"
"two-step-fixation","114","376368","0.0-61.0-2.17","2564","4976","17","Female","false","true","false","false","""event"",""trial"",""time""
""blur"",""0"",""0""
""focus"",""0"",""0""
""blur"",""3"",""23096""
""focus"",""3"",""23097""
""blur"",""3"",""27486""
""focus"",""3"",""27488""
""fullscreenenter"",""5"",""35630""
","""event"",""trial"",""time""
""blur"",""0"",""0""
""blur"",""3"",""23096""
""blur"",""3"",""27486""
","""event"",""trial"",""time""
""focus"",""0"",""0""
""focus"",""3"",""23097""
""focus"",""3"",""27488""
","""event"",""trial"",""time""
""fullscreenenter"",""5"",""35630""
","
","","images/earth.jpg","","","","","","","","","","","","","","fixation","","","","","",""
"d3-animate-choice","115","378659","0.0-61.0-0.18","2564","4976","17","Female","false","true","false","false","""event"",""trial"",""time""
""blur"",""0"",""0""
""focus"",""0"",""0""
""blur"",""3"",""23096""
""focus"",""3"",""23097""
""blur"",""3"",""27486""
""focus"",""3"",""27488""
""fullscreenenter"",""5"",""35630""
","""event"",""trial"",""time""
""blur"",""0"",""0""
""blur"",""3"",""23096""
""blur"",""3"",""27486""
","""event"",""trial"",""time""
""focus"",""0"",""0""
""focus"",""3"",""23097""
""focus"",""3"",""27488""
","""event"",""trial"",""time""
""fullscreenenter"",""5"",""35630""
","
","286.5999999998603","","48","","","3000","1","","","images/earth.jpg","images/tutrocket2","images/tutrocket1","null","images/tutrocket2","","1","practice","null","2","","",""
"d3-animate-choice","116","381578","0.0-61.0-1.18","2564","4976","17","Female","false","true","false","false","""event"",""trial"",""time""
""blur"",""0"",""0""
""focus"",""0"",""0""
""blur"",""3"",""23096""
""focus"",""3"",""23097""
""blur"",""3"",""27486""
""focus"",""3"",""27488""
""fullscreenenter"",""5"",""35630""
","""event"",""trial"",""time""
""blur"",""0"",""0""
""blur"",""3"",""23096""
""blur"",""3"",""27486""
","""event"",""trial"",""time""
""focus"",""0"",""0""
""focus"",""3"",""23097""
""focus"",""3"",""27488""
","""event"",""trial"",""time""
""fullscreenenter"",""5"",""35630""
","
","914.9000000001397","","49","","","3000","1","","","images/tutgreenplanet.jpg","images/tutalien2","images/tutalien1","images/tutrocket2","images/tutalien1","images/nothing.png","2","practice","false","1","rare","0","2022-12-18 20:33:27.151"
"two-step-fixation","117","382581","0.0-61.0-2.18","2564","4976","17","Female","false","true","false","false","""event"",""trial"",""time""
""blur"",""0"",""0""
""focus"",""0"",""0""
""blur"",""3"",""23096""
""focus"",""3"",""23097""
""blur"",""3"",""27486""
""focus"",""3"",""27488""
""fullscreenenter"",""5"",""35630""
","""event"",""trial"",""time""
""blur"",""0"",""0""
""blur"",""3"",""23096""
""blur"",""3"",""27486""
","""event"",""trial"",""time""
""focus"",""0"",""0""
""focus"",""3"",""23097""
""focus"",""3"",""27488""
","""event"",""trial"",""time""
""fullscreenenter"",""5"",""35630""
","
","","images/earth.jpg","","","","","","","","","","","","","","fixation","","","","","",""
"d3-animate-choice","118","385038","0.0-61.0-0.19","2564","4976","17","Female","false","true","false","false","""event"",""trial"",""time""
""blur"",""0"",""0""
""focus"",""0"",""0""
""blur"",""3"",""23096""
""focus"",""3"",""23097""
""blur"",""3"",""27486""
""focus"",""3"",""27488""
""fullscreenenter"",""5"",""35630""
","""event"",""trial"",""time""
""blur"",""0"",""0""
""blur"",""3"",""23096""
""blur"",""3"",""27486""
","""event"",""trial"",""time""
""focus"",""0"",""0""
""focus"",""3"",""23097""
""focus"",""3"",""27488""
","""event"",""trial"",""time""
""fullscreenenter"",""5"",""35630""
","
","453.0999999998603","","48","","","3000","1","","","images/earth.jpg","images/tutrocket2","images/tutrocket1","null","images/tutrocket2","","1","practice","null","2","","",""
"d3-animate-choice","119","387700","0.0-61.0-1.19","2564","4976","17","Female","false","true","false","false","""event"",""trial"",""time""
""blur"",""0"",""0""
""focus"",""0"",""0""
""blur"",""3"",""23096""
""focus"",""3"",""23097""
""blur"",""3"",""27486""
""focus"",""3"",""27488""
""fullscreenenter"",""5"",""35630""
","""event"",""trial"",""time""
""blur"",""0"",""0""
""blur"",""3"",""23096""
""blur"",""3"",""27486""
","""event"",""trial"",""time""
""focus"",""0"",""0""
""focus"",""3"",""23097""
""focus"",""3"",""27488""
","""event"",""trial"",""time""
""fullscreenenter"",""5"",""35630""
","
","657.6000000000931","","48","","","3000","1","","","images/tutyellowplanet.jpg","images/tutalien4","images/tutalien3","images/tutrocket2","images/tutalien4","images/nothing.png","2","practice","true","2","common","0","2022-12-18 20:33:33.273"
"two-step-fixation","120","388703","0.0-61.0-2.19","2564","4976","17","Female","false","true","false","false","""event"",""trial"",""time""
""blur"",""0"",""0""
""focus"",""0"",""0""
""blur"",""3"",""23096""
""focus"",""3"",""23097""
""blur"",""3"",""27486""
""focus"",""3"",""27488""
""fullscreenenter"",""5"",""35630""
","""event"",""trial"",""time""
""blur"",""0"",""0""
""blur"",""3"",""23096""
""blur"",""3"",""27486""
","""event"",""trial"",""time""
""focus"",""0"",""0""
""focus"",""3"",""23097""
""focus"",""3"",""27488""
","""event"",""trial"",""time""
""fullscreenenter"",""5"",""35630""
","
","","images/earth.jpg","","","","","","","","","","","","","","fixation","","","","","",""
"d3-instructions","121","393497","0.0-62.0","2564","4976","17","Female","false","true","false","false","""event"",""trial"",""time""
""blur"",""0"",""0""
""focus"",""0"",""0""
""blur"",""3"",""23096""
""focus"",""3"",""23097""
""blur"",""3"",""27486""
""focus"",""3"",""27488""
""fullscreenenter"",""5"",""35630""
","""event"",""trial"",""time""
""blur"",""0"",""0""
""blur"",""3"",""23096""
""blur"",""3"",""27486""
","""event"",""trial"",""time""
""focus"",""0"",""0""
""focus"",""3"",""23097""
""focus"",""3"",""27488""
","""event"",""trial"",""time""
""fullscreenenter"",""5"",""35630""
","
","","","","","","","","","","","","","","","","","","","","","",""
"audio-keyboard-response","122","395249","0.0-63.0","2564","4976","17","Female","false","true","false","false","""event"",""trial"",""time""
""blur"",""0"",""0""
""focus"",""0"",""0""
""blur"",""3"",""23096""
""focus"",""3"",""23097""
""blur"",""3"",""27486""
""focus"",""3"",""27488""
""fullscreenenter"",""5"",""35630""
","""event"",""trial"",""time""
""blur"",""0"",""0""
""blur"",""3"",""23096""
""blur"",""3"",""27486""
","""event"",""trial"",""time""
""focus"",""0"",""0""
""focus"",""3"",""23097""
""focus"",""3"",""27488""
","""event"",""trial"",""time""
""fullscreenenter"",""5"",""35630""
","
","1749","audio/instructions/treasure_feedback.wav","32","","","","","","","","","","","","","","","","","","",""
"d3-instructions","123","420200","0.0-64.0","2564","4976","17","Female","false","true","false","false","""event"",""trial"",""time""
""blur"",""0"",""0""
""focus"",""0"",""0""
""blur"",""3"",""23096""
""focus"",""3"",""23097""
""blur"",""3"",""27486""
""focus"",""3"",""27488""
""fullscreenenter"",""5"",""35630""
","""event"",""trial"",""time""
""blur"",""0"",""0""
""blur"",""3"",""23096""
""blur"",""3"",""27486""
","""event"",""trial"",""time""
""focus"",""0"",""0""
""focus"",""3"",""23097""
""focus"",""3"",""27488""
","""event"",""trial"",""time""
""fullscreenenter"",""5"",""35630""
","
","","","","","","","","","","","","","","","","","","","","","",""
"d3-instructions","124","423834","0.0-65.0","2564","4976","17","Female","false","true","false","false","""event"",""trial"",""time""
""blur"",""0"",""0""
""focus"",""0"",""0""
""blur"",""3"",""23096""
""focus"",""3"",""23097""
""blur"",""3"",""27486""
""focus"",""3"",""27488""
""fullscreenenter"",""5"",""35630""
","""event"",""trial"",""time""
""blur"",""0"",""0""
""blur"",""3"",""23096""
""blur"",""3"",""27486""
","""event"",""trial"",""time""
""focus"",""0"",""0""
""focus"",""3"",""23097""
""focus"",""3"",""27488""
","""event"",""trial"",""time""
""fullscreenenter"",""5"",""35630""
","
","","","","","","","","","","","","","","","","","","","","","",""
"d3-instructions","125","425248","0.0-66.0","2564","4976","17","Female","false","true","false","false","""event"",""trial"",""time""
""blur"",""0"",""0""
""focus"",""0"",""0""
""blur"",""3"",""23096""
""focus"",""3"",""23097""
""blur"",""3"",""27486""
""focus"",""3"",""27488""
""fullscreenenter"",""5"",""35630""
","""event"",""trial"",""time""
""blur"",""0"",""0""
""blur"",""3"",""23096""
""blur"",""3"",""27486""
","""event"",""trial"",""time""
""focus"",""0"",""0""
""focus"",""3"",""23097""
""focus"",""3"",""27488""
","""event"",""trial"",""time""
""fullscreenenter"",""5"",""35630""
","
","","","","","","","","","","","","","","","","","","","","","",""
"d3-instructions","126","426610","0.0-67.0","2564","4976","17","Female","false","true","false","false","""event"",""trial"",""time""
""blur"",""0"",""0""
""focus"",""0"",""0""
""blur"",""3"",""23096""
""focus"",""3"",""23097""
""blur"",""3"",""27486""
""focus"",""3"",""27488""
""fullscreenenter"",""5"",""35630""
","""event"",""trial"",""time""
""blur"",""0"",""0""
""blur"",""3"",""23096""
""blur"",""3"",""27486""
","""event"",""trial"",""time""
""focus"",""0"",""0""
""focus"",""3"",""23097""
""focus"",""3"",""27488""
","""event"",""trial"",""time""
""fullscreenenter"",""5"",""35630""
","
","","","","","","","","","","","","","","","","","","","","","",""
"d3-instructions","127","429171","0.0-68.0","2564","4976","17","Female","false","true","false","false","""event"",""trial"",""time""
""blur"",""0"",""0""
""focus"",""0"",""0""
""blur"",""3"",""23096""
""focus"",""3"",""23097""
""blur"",""3"",""27486""
""focus"",""3"",""27488""
""fullscreenenter"",""5"",""35630""
","""event"",""trial"",""time""
""blur"",""0"",""0""
""blur"",""3"",""23096""
""blur"",""3"",""27486""
","""event"",""trial"",""time""
""focus"",""0"",""0""
""focus"",""3"",""23097""
""focus"",""3"",""27488""
","""event"",""trial"",""time""
""fullscreenenter"",""5"",""35630""
","
","","","","","","","","","","","","","","","","","","","","","",""
"instructions-quiz","128","434211","0.0-69.0","2564","4976","17","Female","false","true","false","false","""event"",""trial"",""time""
""blur"",""0"",""0""
""focus"",""0"",""0""
""blur"",""3"",""23096""
""focus"",""3"",""23097""
""blur"",""3"",""27486""
""focus"",""3"",""27488""
""fullscreenenter"",""5"",""35630""
","""event"",""trial"",""time""
""blur"",""0"",""0""
""blur"",""3"",""23096""
""blur"",""3"",""27486""
","""event"",""trial"",""time""
""focus"",""0"",""0""
""focus"",""3"",""23097""
""focus"",""3"",""27488""
","""event"",""trial"",""time""
""fullscreenenter"",""5"",""35630""
","
","5037.800000000047","audio/quiz/Q1_Prompt.wav","","1","","","","","","","","","","","","","","","","","",""
"audio-keyboard-response","129","443382","0.0-70.0","2564","4976","17","Female","false","true","false","false","""event"",""trial"",""time""
""blur"",""0"",""0""
""focus"",""0"",""0""
""blur"",""3"",""23096""
""focus"",""3"",""23097""
""blur"",""3"",""27486""
""focus"",""3"",""27488""
""fullscreenenter"",""5"",""35630""
","""event"",""trial"",""time""
""blur"",""0"",""0""
""blur"",""3"",""23096""
""blur"",""3"",""27486""
","""event"",""trial"",""time""
""focus"",""0"",""0""
""focus"",""3"",""23097""
""focus"",""3"",""27488""
","""event"",""trial"",""time""
""fullscreenenter"",""5"",""35630""
","
","null","audio/quiz/Q1_Correct.wav","null","","","","","","","","","","","","","","","","","","",""
"instructions-quiz","130","453666","0.0-71.0","2564","4976","17","Female","false","true","false","false","""event"",""trial"",""time""
""blur"",""0"",""0""
""focus"",""0"",""0""
""blur"",""3"",""23096""
""focus"",""3"",""23097""
""blur"",""3"",""27486""
""focus"",""3"",""27488""
""fullscreenenter"",""5"",""35630""
","""event"",""trial"",""time""
""blur"",""0"",""0""
""blur"",""3"",""23096""
""blur"",""3"",""27486""
","""event"",""trial"",""time""
""focus"",""0"",""0""
""focus"",""3"",""23097""
""focus"",""3"",""27488""
","""event"",""trial"",""time""
""fullscreenenter"",""5"",""35630""
","
","10282","audio/quiz/Q2_Prompt.wav","","0","","","","","","","","","","","","","","","","","",""
"audio-keyboard-response","131","466538","0.0-72.0","2564","4976","17","Female","false","true","false","false","""event"",""trial"",""time""
""blur"",""0"",""0""
""focus"",""0"",""0""
""blur"",""3"",""23096""
""focus"",""3"",""23097""
""blur"",""3"",""27486""
""focus"",""3"",""27488""
""fullscreenenter"",""5"",""35630""
","""event"",""trial"",""time""
""blur"",""0"",""0""
""blur"",""3"",""23096""
""blur"",""3"",""27486""
","""event"",""trial"",""time""
""focus"",""0"",""0""
""focus"",""3"",""23097""
""focus"",""3"",""27488""
","""event"",""trial"",""time""
""fullscreenenter"",""5"",""35630""
","
","null","audio/quiz/Q2_Correct.wav","null","","","","","","","","","","","","","","","","","","",""
"instructions-quiz","132","469364","0.0-73.0","2564","4976","17","Female","false","true","false","false","""event"",""trial"",""time""
""blur"",""0"",""0""
""focus"",""0"",""0""
""blur"",""3"",""23096""
""focus"",""3"",""23097""
