"trial_type","trial_index","time_elapsed","internal_node_id","participant_id","subject_id","age","gender","rocket_sides","red_planet_first_rocket","red_display_order","purple_display_order","interactions","blur_events","focus_events","fullscreenenter_events","fullscreenexit_events","rt","stimulus","key_press","button_pressed","success","duration","valid_pressed","rts","keys","planet_text","right_text","left_text","center_text","chosen_text","reward_text","trial_stage","practice_trial","transition_type","choice","transition","reward","timestamp"
"pavlovia","0","3","0.0-0.0","1983","4956","8","Male","true","false","false","true","
","
","
","
","
","","","","","","","","","","","","","","","","","","","","","",""
"html-keyboard-response","1","2534","0.0-1.0","1983","4956","8","Male","true","false","false","true","
","
","
","
","
","2530.7999999999884","Welcome! Press the space bar to begin.","32","","","","","","","","","","","","","","","","","","",""
"audio-keyboard-response","2","6405","0.0-2.0","1983","4956","8","Male","true","false","false","true","
","
","
","
","
","3582","audio/beep_loop.wav","32","","","","","","","","","","","","","","","","","","",""
"audio-button-response","3","10131","0.0-3.0","1983","4956","8","Male","true","false","false","true","
","
","
","
","
","NaN","audio/fish.mp3","","1","","","","","","","","","","","","","","","","","",""
"audio-button-response","4","13675","0.0-4.0","1983","4956","8","Male","true","false","false","true","""event"",""trial"",""time""
""fullscreenenter"",""5"",""19233""
","
","
","""event"",""trial"",""time""
""fullscreenenter"",""5"",""19233""
","
","NaN","audio/tiger.mp3","","4","","","","","","","","","","","","","","","","","",""
"fullscreen","5","20224","0.0-5.0","1983","4956","8","Male","true","false","false","true","""event"",""trial"",""time""
""fullscreenenter"",""5"",""19233""
","
","
","""event"",""trial"",""time""
""fullscreenenter"",""5"",""19233""
","
","","","","","true","","","","","","","","","","","","","","","","",""
"d3-instructions","6","32395","0.0-6.0","1983","4956","8","Male","true","false","false","true","""event"",""trial"",""time""
""fullscreenenter"",""5"",""19233""
","
","
","""event"",""trial"",""time""
""fullscreenenter"",""5"",""19233""
","
","","","","","","","","","","","","","","","","","","","","","",""
"d3-instructions","7","39970","0.0-7.0","1983","4956","8","Male","true","false","false","true","""event"",""trial"",""time""
""fullscreenenter"",""5"",""19233""
","
","
","""event"",""trial"",""time""
""fullscreenenter"",""5"",""19233""
","
","","","","","","","","","","","","","","","","","","","","","",""
"d3-instructions","8","45397","0.0-8.0","1983","4956","8","Male","true","false","false","true","""event"",""trial"",""time""
""fullscreenenter"",""5"",""19233""
","
","
","""event"",""trial"",""time""
""fullscreenenter"",""5"",""19233""
","
","","","","","","","","","","","","","","","","","","","","","",""
"d3-instructions","9","55578","0.0-9.0","1983","4956","8","Male","true","false","false","true","""event"",""trial"",""time""
""fullscreenenter"",""5"",""19233""
","
","
","""event"",""trial"",""time""
""fullscreenenter"",""5"",""19233""
","
","","","","","","","","","","","","","","","","","","","","","",""
"d3-instructions","10","70296","0.0-10.0","1983","4956","8","Male","true","false","false","true","""event"",""trial"",""time""
""fullscreenenter"",""5"",""19233""
","
","
","""event"",""trial"",""time""
""fullscreenenter"",""5"",""19233""
","
","","","","","","","","","","","","","","","","","","","","","",""
"d3-animate-choice","11","73456","0.0-11.0","1983","4956","8","Male","true","false","false","true","""event"",""trial"",""time""
""fullscreenenter"",""5"",""19233""
","
","
","""event"",""trial"",""time""
""fullscreenenter"",""5"",""19233""
","
","1151","","49","","","3000","1","2078.9000000000233","48","images/tutgreenplanet.jpg","images/tutalien1","images/tutalien2","null","images/tutalien2","","NA","practice","null","","","",""
"d3-animate-choice","12","76840","0.0-12.0","1983","4956","8","Male","true","false","false","true","""event"",""trial"",""time""
""fullscreenenter"",""5"",""19233""
","
","
","""event"",""trial"",""time""
""fullscreenenter"",""5"",""19233""
","
","1377.9000000000233","","48","","","3000","1","","","images/tutgreenplanet.jpg","images/tutalien1","images/tutalien2","null","images/tutalien1","","NA","practice","null","","","",""
"d3-animate-choice","13","81125","0.0-13.0","1983","4956","8","Male","true","false","false","true","""event"",""trial"",""time""
""fullscreenenter"",""5"",""19233""
","
","
","""event"",""trial"",""time""
""fullscreenenter"",""5"",""19233""
","
","2279.8000000000466","","48","","","3000","1","","","images/tutgreenplanet.jpg","images/tutalien1","images/tutalien2","null","images/tutalien1","","NA","practice","null","","","",""
"d3-animate-choice","14","83597","0.0-14.0","1983","4956","8","Male","true","false","false","true","""event"",""trial"",""time""
""fullscreenenter"",""5"",""19233""
","
","
","""event"",""trial"",""time""
""fullscreenenter"",""5"",""19233""
","
","467.3999999999651","","49","","","3000","1","","","images/tutgreenplanet.jpg","images/tutalien1","images/tutalien2","null","images/tutalien2","","NA","practice","null","","","",""
"d3-instructions","15","92075","0.0-15.0","1983","4956","8","Male","true","false","false","true","""event"",""trial"",""time""
""fullscreenenter"",""5"",""19233""
","
","
","""event"",""trial"",""time""
""fullscreenenter"",""5"",""19233""
","
","","","","","","","","","","","","","","","","","","","","","",""
"d3-instructions","16","99034","0.0-16.0","1983","4956","8","Male","true","false","false","true","""event"",""trial"",""time""
""fullscreenenter"",""5"",""19233""
","
","
","""event"",""trial"",""time""
""fullscreenenter"",""5"",""19233""
","
","","","","","","","","","","","","","","","","","","","","","",""
"d3-instructions","17","106706","0.0-17.0","1983","4956","8","Male","true","false","false","true","""event"",""trial"",""time""
""fullscreenenter"",""5"",""19233""
","
","
","""event"",""trial"",""time""
""fullscreenenter"",""5"",""19233""
","
","","","","","","","","","","","","","","","","","","","","","",""
"d3-instructions","18","113832","0.0-18.0","1983","4956","8","Male","true","false","false","true","""event"",""trial"",""time""
""fullscreenenter"",""5"",""19233""
","
","
","""event"",""trial"",""time""
""fullscreenenter"",""5"",""19233""
","
","","","","","","","","","","","","","","","","","","","","","",""
"d3-instructions","19","126695","0.0-19.0","1983","4956","8","Male","true","false","false","true","""event"",""trial"",""time""
""fullscreenenter"",""5"",""19233""
","
","
","""event"",""trial"",""time""
""fullscreenenter"",""5"",""19233""
","
","","","","","","","","","","","","","","","","","","","","","",""
"d3-animate-choice","20","129857","0.0-20.0","1983","4956","8","Male","true","false","false","true","""event"",""trial"",""time""
""fullscreenenter"",""5"",""19233""
","
","
","""event"",""trial"",""time""
""fullscreenenter"",""5"",""19233""
","
","1157.7999999999884","","49","","","3000","1","","","images/tutyellowplanet.jpg","null","images/tutalien3","null","images/tutalien3","images/t.png","NA","practice","null","","","",""
"d3-animate-choice","21","132249","0.0-21.0","1983","4956","8","Male","true","false","false","true","""event"",""trial"",""time""
""fullscreenenter"",""5"",""19233""
","
","
","""event"",""trial"",""time""
""fullscreenenter"",""5"",""19233""
","
","388.4000000000233","","49","","","3000","1","","","images/tutyellowplanet.jpg","null","images/tutalien3","null","images/tutalien3","images/t.png","NA","practice","null","","","",""
"d3-animate-choice","22","134699","0.0-22.0","1983","4956","8","Male","true","false","false","true","""event"",""trial"",""time""
""fullscreenenter"",""5"",""19233""
","
","
","""event"",""trial"",""time""
""fullscreenenter"",""5"",""19233""
","
","447.5","","49","","","3000","1","","","images/tutyellowplanet.jpg","null","images/tutalien3","null","images/tutalien3","images/nothing.png","NA","practice","null","","","",""
"d3-animate-choice","23","137015","0.0-23.0","1983","4956","8","Male","true","false","false","true","""event"",""trial"",""time""
""fullscreenenter"",""5"",""19233""
","
","
","""event"",""trial"",""time""
""fullscreenenter"",""5"",""19233""
","
","313.30000000004657","","49","","","3000","1","","","images/tutyellowplanet.jpg","null","images/tutalien3","null","images/tutalien3","images/nothing.png","NA","practice","null","","","",""
"d3-animate-choice","24","139528","0.0-24.0","1983","4956","8","Male","true","false","false","true","""event"",""trial"",""time""
""fullscreenenter"",""5"",""19233""
","
","
","""event"",""trial"",""time""
""fullscreenenter"",""5"",""19233""
","
","510.9000000000233","","49","","","3000","1","","","images/tutyellowplanet.jpg","null","images/tutalien3","null","images/tutalien3","images/t.png","NA","practice","null","","","",""
"d3-animate-choice","25","142071","0.0-25.0","1983","4956","8","Male","true","false","false","true","""event"",""trial"",""time""
""fullscreenenter"",""5"",""19233""
","
","
","""event"",""trial"",""time""
""fullscreenenter"",""5"",""19233""
","
","539.3000000000466","","49","","","3000","1","","","images/tutyellowplanet.jpg","null","images/tutalien3","null","images/tutalien3","images/t.png","NA","practice","null","","","",""
"d3-animate-choice","26","144492","0.0-26.0","1983","4956","8","Male","true","false","false","true","""event"",""trial"",""time""
""fullscreenenter"",""5"",""19233""
","
","
","""event"",""trial"",""time""
""fullscreenenter"",""5"",""19233""
","
","418.69999999995343","","49","","","3000","1","","","images/tutyellowplanet.jpg","null","images/tutalien3","null","images/tutalien3","images/nothing.png","NA","practice","null","","","",""
"d3-animate-choice","27","146877","0.0-27.0","1983","4956","8","Male","true","false","false","true","""event"",""trial"",""time""
""fullscreenenter"",""5"",""19233""
","
","
","""event"",""trial"",""time""
""fullscreenenter"",""5"",""19233""
","
","381.79999999993015","","49","","","3000","1","","","images/tutyellowplanet.jpg","null","images/tutalien3","null","images/tutalien3","images/t.png","NA","practice","null","","","",""
"d3-animate-choice","28","149368","0.0-28.0","1983","4956","8","Male","true","false","false","true","""event"",""trial"",""time""
""fullscreenenter"",""5"",""19233""
","
","
","""event"",""trial"",""time""
""fullscreenenter"",""5"",""19233""
","
","488.19999999995343","","49","","","3000","1","2367","49","images/tutyellowplanet.jpg","null","images/tutalien3","null","images/tutalien3","images/t.png","NA","practice","null","","","",""
"d3-animate-choice","29","151475","0.0-29.0","1983","4956","8","Male","true","false","false","true","""event"",""trial"",""time""
""fullscreenenter"",""5"",""19233""
","
","
","""event"",""trial"",""time""
""fullscreenenter"",""5"",""19233""
","
","104.5","","49","","","3000","1","536.7999999999302,869.9000000000233,1198,1437.9000000000233,1627.9000000000233,1841.7999999999302,2037.0999999999767","49,49,49,49,49,49,49","images/tutyellowplanet.jpg","null","images/tutalien3","null","images/tutalien3","images/t.png","NA","practice","null","","","",""
"d3-instructions","30","159911","0.0-30.0","1983","4956","8","Male","true","false","false","true","""event"",""trial"",""time""
""fullscreenenter"",""5"",""19233""
","
","
","""event"",""trial"",""time""
""fullscreenenter"",""5"",""19233""
","
","","","","","","","","","","","","","","","","","","","","","",""
"d3-instructions","31","168603","0.0-31.0","1983","4956","8","Male","true","false","false","true","""event"",""trial"",""time""
""fullscreenenter"",""5"",""19233""
","
","
","""event"",""trial"",""time""
""fullscreenenter"",""5"",""19233""
","
","","","","","","","","","","","","","","","","","","","","","",""
"d3-instructions","32","177219","0.0-32.0","1983","4956","8","Male","true","false","false","true","""event"",""trial"",""time""
""fullscreenenter"",""5"",""19233""
","
","
","""event"",""trial"",""time""
""fullscreenenter"",""5"",""19233""
","
","","","","","","","","","","","","","","","","","","","","","",""
"d3-instructions","33","183299","0.0-33.0","1983","4956","8","Male","true","false","false","true","""event"",""trial"",""time""
""fullscreenenter"",""5"",""19233""
""fullscreenexit"",""34"",""185238""
","
","
","""event"",""trial"",""time""
""fullscreenenter"",""5"",""19233""
","""event"",""trial"",""time""
""fullscreenexit"",""34"",""185238""
","","","","","","","","","","","","","","","","","","","","","",""
"d3-animate-choice","34","186404","0.0-34.0","1983","4956","8","Male","true","false","false","true","""event"",""trial"",""time""
""fullscreenenter"",""5"",""19233""
""fullscreenexit"",""34"",""185238""
","
","
","""event"",""trial"",""time""
""fullscreenenter"",""5"",""19233""
","""event"",""trial"",""time""
""fullscreenexit"",""34"",""185238""
","1101.3000000000466","","49","","","3000","1","","","images/tutgreenplanet.jpg","images/tutalien1","images/tutalien2","null","images/tutalien2","images/t.png","NA","practice","null","","","",""
"d3-animate-choice","35","190374","0.0-35.0","1983","4956","8","Male","true","false","false","true","""event"",""trial"",""time""
""fullscreenenter"",""5"",""19233""
""fullscreenexit"",""34"",""185238""
","
","
","""event"",""trial"",""time""
""fullscreenenter"",""5"",""19233""
","""event"",""trial"",""time""
""fullscreenexit"",""34"",""185238""
","1967.8999999999069","","49","","","3000","1","","","images/tutgreenplanet.jpg","images/tutalien1","images/tutalien2","null","images/tutalien2","images/t.png","NA","practice","null","","","",""
"d3-animate-choice","36","193236","0.0-36.0","1983","4956","8","Male","true","false","false","true","""event"",""trial"",""time""
""fullscreenenter"",""5"",""19233""
""fullscreenexit"",""34"",""185238""
","
","
","""event"",""trial"",""time""
""fullscreenenter"",""5"",""19233""
","""event"",""trial"",""time""
""fullscreenexit"",""34"",""185238""
","854.8000000000466","","49","","","3000","1","","","images/tutgreenplanet.jpg","images/tutalien1","images/tutalien2","null","images/tutalien2","images/t.png","NA","practice","null","","","",""
"d3-animate-choice","37","195596","0.0-37.0","1983","4956","8","Male","true","false","false","true","""event"",""trial"",""time""
""fullscreenenter"",""5"",""19233""
""fullscreenexit"",""34"",""185238""
","
","
","""event"",""trial"",""time""
""fullscreenenter"",""5"",""19233""
","""event"",""trial"",""time""
""fullscreenexit"",""34"",""185238""
","356","","49","","","3000","1","","","images/tutgreenplanet.jpg","images/tutalien1","images/tutalien2","null","images/tutalien2","images/t.png","NA","practice","null","","","",""
"d3-animate-choice","38","198327","0.0-38.0","1983","4956","8","Male","true","false","false","true","""event"",""trial"",""time""
""fullscreenenter"",""5"",""19233""
""fullscreenexit"",""34"",""185238""
","
","
","""event"",""trial"",""time""
""fullscreenenter"",""5"",""19233""
","""event"",""trial"",""time""
""fullscreenexit"",""34"",""185238""
","725.5999999999767","","49","","","3000","1","","","images/tutgreenplanet.jpg","images/tutalien1","images/tutalien2","null","images/tutalien2","images/t.png","NA","practice","null","","","",""
"d3-animate-choice","39","201224","0.0-39.0","1983","4956","8","Male","true","false","false","true","""event"",""trial"",""time""
""fullscreenenter"",""5"",""19233""
""fullscreenexit"",""34"",""185238""
","
","
","""event"",""trial"",""time""
""fullscreenenter"",""5"",""19233""
","""event"",""trial"",""time""
""fullscreenexit"",""34"",""185238""
","893.9000000000233","","49","","","3000","1","1934.5999999999767","49","images/tutgreenplanet.jpg","images/tutalien1","images/tutalien2","null","images/tutalien2","images/t.png","NA","practice","null","","","",""
"d3-animate-choice","40","204300","0.0-40.0","1983","4956","8","Male","true","false","false","true","""event"",""trial"",""time""
""fullscreenenter"",""5"",""19233""
""fullscreenexit"",""34"",""185238""
","
","
","""event"",""trial"",""time""
""fullscreenenter"",""5"",""19233""
","""event"",""trial"",""time""
""fullscreenexit"",""34"",""185238""
","1073.0999999999767","","49","","","3000","1","","","images/tutgreenplanet.jpg","images/tutalien1","images/tutalien2","null","images/tutalien2","images/t.png","NA","practice","null","","","",""
"d3-animate-choice","41","206883","0.0-41.0","1983","4956","8","Male","true","false","false","true","""event"",""trial"",""time""
""fullscreenenter"",""5"",""19233""
""fullscreenexit"",""34"",""185238""
","
","
","""event"",""trial"",""time""
""fullscreenenter"",""5"",""19233""
","""event"",""trial"",""time""
""fullscreenexit"",""34"",""185238""
","578.0999999999767","","49","","","3000","1","","","images/tutgreenplanet.jpg","images/tutalien1","images/tutalien2","null","images/tutalien2","images/t.png","NA","practice","null","","","",""
"d3-animate-choice","42","209194","0.0-42.0","1983","4956","8","Male","true","false","false","true","""event"",""trial"",""time""
""fullscreenenter"",""5"",""19233""
""fullscreenexit"",""34"",""185238""
","
","
","""event"",""trial"",""time""
""fullscreenenter"",""5"",""19233""
","""event"",""trial"",""time""
""fullscreenexit"",""34"",""185238""
","308.5999999999767","","49","","","3000","1","","","images/tutgreenplanet.jpg","images/tutalien1","images/tutalien2","null","images/tutalien2","images/t.png","NA","practice","null","","","",""
"d3-animate-choice","43","213161","0.0-43.0","1983","4956","8","Male","true","false","false","true","""event"",""trial"",""time""
""fullscreenenter"",""5"",""19233""
""fullscreenexit"",""34"",""185238""
","
","
","""event"",""trial"",""time""
""fullscreenenter"",""5"",""19233""
","""event"",""trial"",""time""
""fullscreenexit"",""34"",""185238""
","1965","","49","","","3000","1","","","images/tutgreenplanet.jpg","images/tutalien1","images/tutalien2","null","images/tutalien2","images/t.png","NA","practice","null","","","",""
"d3-instructions","44","228339","0.0-44.0","1983","4956","8","Male","true","false","false","true","""event"",""trial"",""time""
""fullscreenenter"",""5"",""19233""
""fullscreenexit"",""34"",""185238""
","
","
","""event"",""trial"",""time""
""fullscreenenter"",""5"",""19233""
","""event"",""trial"",""time""
""fullscreenexit"",""34"",""185238""
","","","","","","","","","","","","","","","","","","","","","",""
"d3-instructions","45","234888","0.0-45.0","1983","4956","8","Male","true","false","false","true","""event"",""trial"",""time""
""fullscreenenter"",""5"",""19233""
""fullscreenexit"",""34"",""185238""
","
","
","""event"",""trial"",""time""
""fullscreenenter"",""5"",""19233""
","""event"",""trial"",""time""
""fullscreenexit"",""34"",""185238""
","","","","","","","","","","","","","","","","","","","","","",""
"d3-instructions","46","240527","0.0-46.0","1983","4956","8","Male","true","false","false","true","""event"",""trial"",""time""
""fullscreenenter"",""5"",""19233""
""fullscreenexit"",""34"",""185238""
","
","
","""event"",""trial"",""time""
""fullscreenenter"",""5"",""19233""
","""event"",""trial"",""time""
""fullscreenexit"",""34"",""185238""
","","","","","","","","","","","","","","","","","","","","","",""
"d3-instructions","47","256394","0.0-47.0","1983","4956","8","Male","true","false","false","true","""event"",""trial"",""time""
""fullscreenenter"",""5"",""19233""
""fullscreenexit"",""34"",""185238""
","
","
","""event"",""trial"",""time""
""fullscreenenter"",""5"",""19233""
","""event"",""trial"",""time""
""fullscreenexit"",""34"",""185238""
","","","","","","","","","","","","","","","","","","","","","",""
"d3-instructions","48","262465","0.0-48.0","1983","4956","8","Male","true","false","false","true","""event"",""trial"",""time""
""fullscreenenter"",""5"",""19233""
""fullscreenexit"",""34"",""185238""
","
","
","""event"",""trial"",""time""
""fullscreenenter"",""5"",""19233""
","""event"",""trial"",""time""
""fullscreenexit"",""34"",""185238""
","","","","","","","","","","","","","","","","","","","","","",""
"d3-instructions","49","267691","0.0-49.0","1983","4956","8","Male","true","false","false","true","""event"",""trial"",""time""
""fullscreenenter"",""5"",""19233""
""fullscreenexit"",""34"",""185238""
","
","
","""event"",""trial"",""time""
""fullscreenenter"",""5"",""19233""
","""event"",""trial"",""time""
""fullscreenexit"",""34"",""185238""
","","","","","","","","","","","","","","","","","","","","","",""
"d3-instructions","50","276272","0.0-50.0","1983","4956","8","Male","true","false","false","true","""event"",""trial"",""time""
""fullscreenenter"",""5"",""19233""
""fullscreenexit"",""34"",""185238""
","
","
","""event"",""trial"",""time""
""fullscreenenter"",""5"",""19233""
","""event"",""trial"",""time""
""fullscreenexit"",""34"",""185238""
","","","","","","","","","","","","","","","","","","","","","",""
"d3-instructions","51","280364","0.0-51.0","1983","4956","8","Male","true","false","false","true","""event"",""trial"",""time""
""fullscreenenter"",""5"",""19233""
""fullscreenexit"",""34"",""185238""
","
","
","""event"",""trial"",""time""
""fullscreenenter"",""5"",""19233""
","""event"",""trial"",""time""
""fullscreenexit"",""34"",""185238""
","","","","","","","","","","","","","","","","","","","","","",""
"d3-instructions","52","283185","0.0-52.0","1983","4956","8","Male","true","false","false","true","""event"",""trial"",""time""
""fullscreenenter"",""5"",""19233""
""fullscreenexit"",""34"",""185238""
","
","
","""event"",""trial"",""time""
""fullscreenenter"",""5"",""19233""
","""event"",""trial"",""time""
""fullscreenexit"",""34"",""185238""
","","","","","","","","","","","","","","","","","","","","","",""
"d3-instructions","53","302376","0.0-53.0","1983","4956","8","Male","true","false","false","true","""event"",""trial"",""time""
""fullscreenenter"",""5"",""19233""
""fullscreenexit"",""34"",""185238""
","
","
","""event"",""trial"",""time""
""fullscreenenter"",""5"",""19233""
","""event"",""trial"",""time""
""fullscreenexit"",""34"",""185238""
","","","","","","","","","","","","","","","","","","","","","",""
"d3-instructions","54","314956","0.0-54.0","1983","4956","8","Male","true","false","false","true","""event"",""trial"",""time""
""fullscreenenter"",""5"",""19233""
""fullscreenexit"",""34"",""185238""
","
","
","""event"",""trial"",""time""
""fullscreenenter"",""5"",""19233""
","""event"",""trial"",""time""
""fullscreenexit"",""34"",""185238""
","","","","","","","","","","","","","","","","","","","","","",""
"d3-instructions","55","338569","0.0-55.0","1983","4956","8","Male","true","false","false","true","""event"",""trial"",""time""
""fullscreenenter"",""5"",""19233""
""fullscreenexit"",""34"",""185238""
","
","
","""event"",""trial"",""time""
""fullscreenenter"",""5"",""19233""
","""event"",""trial"",""time""
""fullscreenexit"",""34"",""185238""
","","","","","","","","","","","","","","","","","","","","","",""
"d3-instructions","56","348234","0.0-56.0","1983","4956","8","Male","true","false","false","true","""event"",""trial"",""time""
""fullscreenenter"",""5"",""19233""
""fullscreenexit"",""34"",""185238""
","
","
","""event"",""trial"",""time""
""fullscreenenter"",""5"",""19233""
","""event"",""trial"",""time""
""fullscreenexit"",""34"",""185238""
","","","","","","","","","","","","","","","","","","","","","",""
"d3-instructions","57","358211","0.0-57.0","1983","4956","8","Male","true","false","false","true","""event"",""trial"",""time""
""fullscreenenter"",""5"",""19233""
""fullscreenexit"",""34"",""185238""
","
","
","""event"",""trial"",""time""
""fullscreenenter"",""5"",""19233""
","""event"",""trial"",""time""
""fullscreenexit"",""34"",""185238""
","","","","","","","","","","","","","","","","","","","","","",""
"d3-instructions","58","371934","0.0-58.0","1983","4956","8","Male","true","false","false","true","""event"",""trial"",""time""
""fullscreenenter"",""5"",""19233""
""fullscreenexit"",""34"",""185238""
","
","
","""event"",""trial"",""time""
""fullscreenenter"",""5"",""19233""
","""event"",""trial"",""time""
""fullscreenexit"",""34"",""185238""
","","","","","","","","","","","","","","","","","","","","","",""
"d3-instructions","59","378608","0.0-59.0","1983","4956","8","Male","true","false","false","true","""event"",""trial"",""time""
""fullscreenenter"",""5"",""19233""
""fullscreenexit"",""34"",""185238""
","
","
","""event"",""trial"",""time""
""fullscreenenter"",""5"",""19233""
","""event"",""trial"",""time""
""fullscreenexit"",""34"",""185238""
","","","","","","","","","","","","","","","","","","","","","",""
"d3-instructions","60","386453","0.0-60.0","1983","4956","8","Male","true","false","false","true","""event"",""trial"",""time""
""fullscreenenter"",""5"",""19233""
""fullscreenexit"",""34"",""185238""
","
","
","""event"",""trial"",""time""
""fullscreenenter"",""5"",""19233""
","""event"",""trial"",""time""
""fullscreenexit"",""34"",""185238""
","","","","","","","","","","","","","","","","","","","","","",""
"d3-animate-choice","61","389225","0.0-61.0-0.0","1983","4956","8","Male","true","false","false","true","""event"",""trial"",""time""
""fullscreenenter"",""5"",""19233""
""fullscreenexit"",""34"",""185238""
","
","
","""event"",""trial"",""time""
""fullscreenenter"",""5"",""19233""
","""event"",""trial"",""time""
""fullscreenexit"",""34"",""185238""
","764.5999999999767","","49","","","3000","1","","","images/earth.jpg","images/tutrocket1","images/tutrocket2","null","images/tutrocket2","","1","practice","null","1","","",""
"d3-animate-choice","62","392150","0.0-61.0-1.0","1983","4956","8","Male","true","false","false","true","""event"",""trial"",""time""
""fullscreenenter"",""5"",""19233""
""fullscreenexit"",""34"",""185238""
","
","
","""event"",""trial"",""time""
""fullscreenenter"",""5"",""19233""
","""event"",""trial"",""time""
""fullscreenexit"",""34"",""185238""
","916.0999999999767","","49","","","3000","1","","","images/tutgreenplanet.jpg","images/tutalien2","images/tutalien1","images/tutrocket2","images/tutalien1","images/t.png","2","practice","true","1","common","1","2022-12-11 01:59:55.186"
"two-step-fixation","63","393158","0.0-61.0-2.0","1983","4956","8","Male","true","false","false","true","""event"",""trial"",""time""
""fullscreenenter"",""5"",""19233""
""fullscreenexit"",""34"",""185238""
","
","
","""event"",""trial"",""time""
""fullscreenenter"",""5"",""19233""
","""event"",""trial"",""time""
""fullscreenexit"",""34"",""185238""
","","images/earth.jpg","","","","","","","","","","","","","","fixation","","","","","",""
"d3-animate-choice","64","396306","0.0-61.0-0.1","1983","4956","8","Male","true","false","false","true","""event"",""trial"",""time""
""fullscreenenter"",""5"",""19233""
""fullscreenexit"",""34"",""185238""
","
","
","""event"",""trial"",""time""
""fullscreenenter"",""5"",""19233""
","""event"",""trial"",""time""
""fullscreenexit"",""34"",""185238""
","1145.5","","49","","","3000","1","","","images/earth.jpg","images/tutrocket1","images/tutrocket2","null","images/tutrocket2","","1","practice","null","1","","",""
"d3-animate-choice","65","398681","0.0-61.0-1.1","1983","4956","8","Male","true","false","false","true","""event"",""trial"",""time""
""fullscreenenter"",""5"",""19233""
""fullscreenexit"",""34"",""185238""
","
","
","""event"",""trial"",""time""
""fullscreenenter"",""5"",""19233""
","""event"",""trial"",""time""
""fullscreenexit"",""34"",""185238""
","366.9000000000233","","49","","","3000","1","","","images/tutgreenplanet.jpg","images/tutalien2","images/tutalien1","images/tutrocket2","images/tutalien1","images/nothing.png","2","practice","true","1","common","0","2022-12-11 02:00:01.716"
"two-step-fixation","66","399685","0.0-61.0-2.1","1983","4956","8","Male","true","false","false","true","""event"",""trial"",""time""
""fullscreenenter"",""5"",""19233""
""fullscreenexit"",""34"",""185238""
","
","
","""event"",""trial"",""time""
""fullscreenenter"",""5"",""19233""
","""event"",""trial"",""time""
""fullscreenexit"",""34"",""185238""
","","images/earth.jpg","","","","","","","","","","","","","","fixation","","","","","",""
"d3-animate-choice","67","401810","0.0-61.0-0.2","1983","4956","8","Male","true","false","false","true","""event"",""trial"",""time""
""fullscreenenter"",""5"",""19233""
""fullscreenexit"",""34"",""185238""
","
","
","""event"",""trial"",""time""
""fullscreenenter"",""5"",""19233""
","""event"",""trial"",""time""
""fullscreenexit"",""34"",""185238""
","120.90000000002328","","49","","","3000","1","","","images/earth.jpg","images/tutrocket1","images/tutrocket2","null","images/tutrocket2","","1","practice","null","1","","",""
"d3-animate-choice","68","404178","0.0-61.0-1.2","1983","4956","8","Male","true","false","false","true","""event"",""trial"",""time""
""fullscreenenter"",""5"",""19233""
""fullscreenexit"",""34"",""185238""
","
","
","""event"",""trial"",""time""
""fullscreenenter"",""5"",""19233""
","""event"",""trial"",""time""
""fullscreenexit"",""34"",""185238""
","362.80000000004657","","49","","","3000","1","","","images/tutgreenplanet.jpg","images/tutalien2","images/tutalien1","images/tutrocket2","images/tutalien1","images/nothing.png","2","practice","true","1","common","0","2022-12-11 02:00:07.213"
"two-step-fixation","69","405185","0.0-61.0-2.2","1983","4956","8","Male","true","false","false","true","""event"",""trial"",""time""
""fullscreenenter"",""5"",""19233""
""fullscreenexit"",""34"",""185238""
","
","
","""event"",""trial"",""time""
""fullscreenenter"",""5"",""19233""
","""event"",""trial"",""time""
""fullscreenexit"",""34"",""185238""
","","images/earth.jpg","","","","","","","","","","","","","","fixation","","","","","",""
"d3-animate-choice","70","407922","0.0-61.0-0.3","1983","4956","8","Male","true","false","false","true","""event"",""trial"",""time""
""fullscreenenter"",""5"",""19233""
""fullscreenexit"",""34"",""185238""
","
","
","""event"",""trial"",""time""
""fullscreenenter"",""5"",""19233""
","""event"",""trial"",""time""
""fullscreenexit"",""34"",""185238""
","729.3000000000466","","49","","","3000","1","","","images/earth.jpg","images/tutrocket1","images/tutrocket2","null","images/tutrocket2","","1","practice","null","1","","",""
"d3-animate-choice","71","410432","0.0-61.0-1.3","1983","4956","8","Male","true","false","false","true","""event"",""trial"",""time""
""fullscreenenter"",""5"",""19233""
""fullscreenexit"",""34"",""185238""
","
","
","""event"",""trial"",""time""
""fullscreenenter"",""5"",""19233""
","""event"",""trial"",""time""
""fullscreenexit"",""34"",""185238""
","506.79999999993015","","48","","","3000","1","","","images/tutyellowplanet.jpg","images/tutalien4","images/tutalien3","images/tutrocket2","images/tutalien4","images/t.png","2","practice","false","2","rare","1","2022-12-11 02:00:13.467"
"two-step-fixation","72","411434","0.0-61.0-2.3","1983","4956","8","Male","true","false","false","true","""event"",""trial"",""time""
""fullscreenenter"",""5"",""19233""
""fullscreenexit"",""34"",""185238""
","
","
","""event"",""trial"",""time""
""fullscreenenter"",""5"",""19233""
","""event"",""trial"",""time""
""fullscreenexit"",""34"",""185238""
","","images/earth.jpg","","","","","","","","","","","","","","fixation","","","","","",""
"d3-animate-choice","73","413849","0.0-61.0-0.4","1983","4956","8","Male","true","false","false","true","""event"",""trial"",""time""
""fullscreenenter"",""5"",""19233""
""fullscreenexit"",""34"",""185238""
","
","
","""event"",""trial"",""time""
""fullscreenenter"",""5"",""19233""
","""event"",""trial"",""time""
""fullscreenexit"",""34"",""185238""
","409.30000000004657","","48","","","3000","1","","","images/earth.jpg","images/tutrocket1","images/tutrocket2","null","images/tutrocket1","","1","practice","null","2","","",""
"d3-animate-choice","74","416034","0.0-61.0-1.4","1983","4956","8","Male","true","false","false","true","""event"",""trial"",""time""
""fullscreenenter"",""5"",""19233""
""fullscreenexit"",""34"",""185238""
","
","
","""event"",""trial"",""time""
""fullscreenenter"",""5"",""19233""
","""event"",""trial"",""time""
""fullscreenexit"",""34"",""185238""
","182.29999999993015","","48","","","3000","1","","","images/tutyellowplanet.jpg","images/tutalien4","images/tutalien3","images/tutrocket1","images/tutalien4","images/nothing.png","2","practice","true","2","common","0","2022-12-11 02:00:19.069"
"two-step-fixation","75","417037","0.0-61.0-2.4","1983","4956","8","Male","true","false","false","true","""event"",""trial"",""time""
""fullscreenenter"",""5"",""19233""
""fullscreenexit"",""34"",""185238""
","
","
","""event"",""trial"",""time""
""fullscreenenter"",""5"",""19233""
","""event"",""trial"",""time""
""fullscreenexit"",""34"",""185238""
","","images/earth.jpg","","","","","","","","","","","","","","fixation","","","","","",""
"d3-animate-choice","76","419069","0.0-61.0-0.5","1983","4956","8","Male","true","false","false","true","""event"",""trial"",""time""
""fullscreenenter"",""5"",""19233""
""fullscreenexit"",""34"",""185238""
","
","
","""event"",""trial"",""time""
""fullscreenenter"",""5"",""19233""
","""event"",""trial"",""time""
""fullscreenexit"",""34"",""185238""
","25.100000000093132","","49","","","3000","1","","","images/earth.jpg","images/tutrocket1","images/tutrocket2","null","images/tutrocket2","","1","practice","null","1","","",""
"d3-animate-choice","77","421364","0.0-61.0-1.5","1983","4956","8","Male","true","false","false","true","""event"",""trial"",""time""
""fullscreenenter"",""5"",""19233""
""fullscreenexit"",""34"",""185238""
","
","
","""event"",""trial"",""time""
""fullscreenenter"",""5"",""19233""
","""event"",""trial"",""time""
""fullscreenexit"",""34"",""185238""
","292.20000000006985","","48","","","3000","1","","","images/tutyellowplanet.jpg","images/tutalien4","images/tutalien3","images/tutrocket2","images/tutalien4","images/nothing.png","2","practice","false","2","rare","0","2022-12-11 02:00:24.399"
"two-step-fixation","78","422368","0.0-61.0-2.5","1983","4956","8","Male","true","false","false","true","""event"",""trial"",""time""
""fullscreenenter"",""5"",""19233""
""fullscreenexit"",""34"",""185238""
","
","
","""event"",""trial"",""time""
""fullscreenenter"",""5"",""19233""
","""event"",""trial"",""time""
""fullscreenexit"",""34"",""185238""
","","images/earth.jpg","","","","","","","","","","","","","","fixation","","","","","",""
"d3-animate-choice","79","425343","0.0-61.0-0.6","1983","4956","8","Male","true","false","false","true","""event"",""trial"",""time""
""fullscreenenter"",""5"",""19233""
""fullscreenexit"",""34"",""185238""
","
","
","""event"",""trial"",""time""
""fullscreenenter"",""5"",""19233""
","""event"",""trial"",""time""
""fullscreenexit"",""34"",""185238""
","971","","49","","","3000","1","","","images/earth.jpg","images/tutrocket1","images/tutrocket2","null","images/tutrocket2","","1","practice","null","1","","",""
"d3-animate-choice","80","428505","0.0-61.0-1.6","1983","4956","8","Male","true","false","false","true","""event"",""trial"",""time""
""fullscreenenter"",""5"",""19233""
""fullscreenexit"",""34"",""185238""
","
","
","""event"",""trial"",""time""
""fullscreenenter"",""5"",""19233""
","""event"",""trial"",""time""
""fullscreenexit"",""34"",""185238""
","1157.3999999999069","","48","","","3000","1","","","images/tutyellowplanet.jpg","images/tutalien4","images/tutalien3","images/tutrocket2","images/tutalien4","images/nothing.png","2","practice","false","2","rare","0","2022-12-11 02:00:31.540"
"two-step-fixation","81","429510","0.0-61.0-2.6","1983","4956","8","Male","true","false","false","true","""event"",""trial"",""time""
""fullscreenenter"",""5"",""19233""
""fullscreenexit"",""34"",""185238""
","
","
","""event"",""trial"",""time""
""fullscreenenter"",""5"",""19233""
","""event"",""trial"",""time""
""fullscreenexit"",""34"",""185238""
","","images/earth.jpg","","","","","","","","","","","","","","fixation","","","","","",""
"d3-animate-choice","82","432453","0.0-61.0-0.7","1983","4956","8","Male","true","false","false","true","""event"",""trial"",""time""
""fullscreenenter"",""5"",""19233""
""fullscreenexit"",""34"",""185238""
","
","
","""event"",""trial"",""time""
""fullscreenenter"",""5"",""19233""
","""event"",""trial"",""time""
""fullscreenexit"",""34"",""185238""
","938.3000000000466","","48","","","3000","1","","","images/earth.jpg","images/tutrocket1","images/tutrocket2","null","images/tutrocket1","","1","practice","null","2","","",""
"d3-animate-choice","83","435299","0.0-61.0-1.7","1983","4956","8","Male","true","false","false","true","""event"",""trial"",""time""
""fullscreenenter"",""5"",""19233""
""fullscreenexit"",""34"",""185238""
","
","
","""event"",""trial"",""time""
""fullscreenenter"",""5"",""19233""
","""event"",""trial"",""time""
""fullscreenexit"",""34"",""185238""
","843.5","","49","","","3000","1","","","images/tutgreenplanet.jpg","images/tutalien2","images/tutalien1","images/tutrocket1","images/tutalien1","images/nothing.png","2","practice","false","1","rare","0","2022-12-11 02:00:38.334"
"two-step-fixation","84","436301","0.0-61.0-2.7","1983","4956","8","Male","true","false","false","true","""event"",""trial"",""time""
""fullscreenenter"",""5"",""19233""
""fullscreenexit"",""34"",""185238""
","
","
","""event"",""trial"",""time""
""fullscreenenter"",""5"",""19233""
","""event"",""trial"",""time""
""fullscreenexit"",""34"",""185238""
","","images/earth.jpg","","","","","","","","","","","","","","fixation","","","","","",""
"d3-animate-choice","85","438545","0.0-61.0-0.8","1983","4956","8","Male","true","false","false","true","""event"",""trial"",""time""
""fullscreenenter"",""5"",""19233""
""fullscreenexit"",""34"",""185238""
","
","
","""event"",""trial"",""time""
""fullscreenenter"",""5"",""19233""
","""event"",""trial"",""time""
""fullscreenexit"",""34"",""185238""
","241.90000000002328","","48","","","3000","1","","","images/earth.jpg","images/tutrocket1","images/tutrocket2","null","images/tutrocket1","","1","practice","null","2","","",""
"d3-animate-choice","86","440988","0.0-61.0-1.8","1983","4956","8","Male","true","false","false","true","""event"",""trial"",""time""
""fullscreenenter"",""5"",""19233""
""fullscreenexit"",""34"",""185238""
","
","
","""event"",""trial"",""time""
""fullscreenenter"",""5"",""19233""
","""event"",""trial"",""time""
""fullscreenexit"",""34"",""185238""
","122.89999999990687","","27","","","3000","1","440.5999999999767","48","images/tutyellowplanet.jpg","images/tutalien4","images/tutalien3","images/tutrocket1","images/tutalien4","images/t.png","2","practice","true","","common","1","2022-12-11 02:00:44.023"
"two-step-fixation","87","441990","0.0-61.0-2.8","1983","4956","8","Male","true","false","false","true","""event"",""trial"",""time""
""fullscreenenter"",""5"",""19233""
""fullscreenexit"",""34"",""185238""
","
","
","""event"",""trial"",""time""
""fullscreenenter"",""5"",""19233""
","""event"",""trial"",""time""
""fullscreenexit"",""34"",""185238""
","","images/earth.jpg","","","","","","","","","","","","","","fixation","","","","","",""
"d3-animate-choice","88","444717","0.0-61.0-0.9","1983","4956","8","Male","true","false","false","true","""event"",""trial"",""time""
""fullscreenenter"",""5"",""19233""
""fullscreenexit"",""34"",""185238""
","
","
","""event"",""trial"",""time""
""fullscreenenter"",""5"",""19233""
","""event"",""trial"",""time""
""fullscreenexit"",""34"",""185238""
","723.5999999999767","","49","","","3000","1","","","images/earth.jpg","images/tutrocket1","images/tutrocket2","null","images/tutrocket2","","1","practice","null","1","","",""
"d3-animate-choice","89","447652","0.0-61.0-1.9","1983","4956","8","Male","true","false","false","true","""event"",""trial"",""time""
""fullscreenenter"",""5"",""19233""
""fullscreenexit"",""34"",""185238""
","
","
","""event"",""trial"",""time""
""fullscreenenter"",""5"",""19233""
","""event"",""trial"",""time""
""fullscreenexit"",""34"",""185238""
","931.7999999999302","","48","","","3000","1","","","images/tutgreenplanet.jpg","images/tutalien2","images/tutalien1","images/tutrocket2","images/tutalien2","images/nothing.png","2","practice","true","2","common","0","2022-12-11 02:00:50.687"
"two-step-fixation","90","448656","0.0-61.0-2.9","1983","4956","8","Male","true","false","false","true","""event"",""trial"",""time""
""fullscreenenter"",""5"",""19233""
""fullscreenexit"",""34"",""185238""
","
","
","""event"",""trial"",""time""
""fullscreenenter"",""5"",""19233""
","""event"",""trial"",""time""
""fullscreenexit"",""34"",""185238""
","","images/earth.jpg","","","","","","","","","","","","","","fixation","","","","","",""
"d3-animate-choice","91","451124","0.0-61.0-0.10","1983","4956","8","Male","true","false","false","true","""event"",""trial"",""time""
""fullscreenenter"",""5"",""19233""
""fullscreenexit"",""34"",""185238""
","
","
","""event"",""trial"",""time""
""fullscreenenter"",""5"",""19233""
","""event"",""trial"",""time""
""fullscreenexit"",""34"",""185238""
","465.69999999995343","","49","","","3000","1","","","images/earth.jpg","images/tutrocket1","images/tutrocket2","null","images/tutrocket2","","1","practice","null","1","","",""
"d3-animate-choice","92","453649","0.0-61.0-1.10","1983","4956","8","Male","true","false","false","true","""event"",""trial"",""time""
""fullscreenenter"",""5"",""19233""
""fullscreenexit"",""34"",""185238""
","
","
","""event"",""trial"",""time""
""fullscreenenter"",""5"",""19233""
","""event"",""trial"",""time""
""fullscreenexit"",""34"",""185238""
","522.2999999999302","","48","","","3000","1","","","images/tutyellowplanet.jpg","images/tutalien4","images/tutalien3","images/tutrocket2","images/tutalien4","images/t.png","2","practice","false","2","rare","1","2022-12-11 02:00:56.684"
"two-step-fixation","93","454653","0.0-61.0-2.10","1983","4956","8","Male","true","false","false","true","""event"",""trial"",""time""
""fullscreenenter"",""5"",""19233""
""fullscreenexit"",""34"",""185238""
","
","
","""event"",""trial"",""time""
""fullscreenenter"",""5"",""19233""
","""event"",""trial"",""time""
""fullscreenexit"",""34"",""185238""
","","images/earth.jpg","","","","","","","","","","","","","","fixation","","","","","",""
"d3-animate-choice","94","456952","0.0-61.0-0.11","1983","4956","8","Male","true","false","false","true","""event"",""trial"",""time""
""fullscreenenter"",""5"",""19233""
""fullscreenexit"",""34"",""185238""
","
","
","""event"",""trial"",""time""
""fullscreenenter"",""5"",""19233""
","""event"",""trial"",""time""
""fullscreenexit"",""34"",""185238""
","294.69999999995343","","49","","","3000","1","","","images/earth.jpg","images/tutrocket1","images/tutrocket2","null","images/tutrocket2","","1","practice","null","1","","",""
"d3-animate-choice","95","459522","0.0-61.0-1.11","1983","4956","8","Male","true","false","false","true","""event"",""trial"",""time""
""fullscreenenter"",""5"",""19233""
""fullscreenexit"",""34"",""185238""
","
","
","""event"",""trial"",""time""
""fullscreenenter"",""5"",""19233""
","""event"",""trial"",""time""
""fullscreenexit"",""34"",""185238""
","564.5999999999767","","48","","","3000","1","","","images/tutyellowplanet.jpg","images/tutalien4","images/tutalien3","images/tutrocket2","images/tutalien4","images/t.png","2","practice","false","2","rare","1","2022-12-11 02:01:02.557"
"two-step-fixation","96","460525","0.0-61.0-2.11","1983","4956","8","Male","true","false","false","true","""event"",""trial"",""time""
""fullscreenenter"",""5"",""19233""
""fullscreenexit"",""34"",""185238""
","
","
","""event"",""trial"",""time""
""fullscreenenter"",""5"",""19233""
","""event"",""trial"",""time""
""fullscreenexit"",""34"",""185238""
","","images/earth.jpg","","","","","","","","","","","","","","fixation","","","","","",""
"d3-animate-choice","97","463146","0.0-61.0-0.12","1983","4956","8","Male","true","false","false","true","""event"",""trial"",""time""
""fullscreenenter"",""5"",""19233""
""fullscreenexit"",""34"",""185238""
","
","
","""event"",""trial"",""time""
""fullscreenenter"",""5"",""19233""
","""event"",""trial"",""time""
""fullscreenexit"",""34"",""185238""
","615.3000000000466","","49","","","3000","1","","","images/earth.jpg","images/tutrocket1","images/tutrocket2","null","images/tutrocket2","","1","practice","null","1","","",""
"d3-animate-choice","98","465649","0.0-61.0-1.12","1983","4956","8","Male","true","false","false","true","""event"",""trial"",""time""
""fullscreenenter"",""5"",""19233""
""fullscreenexit"",""34"",""185238""
","
","
","""event"",""trial"",""time""
""fullscreenenter"",""5"",""19233""
","""event"",""trial"",""time""
""fullscreenexit"",""34"",""185238""
","500.9000000000233","","48","","","3000","1","","","images/tutgreenplanet.jpg","images/tutalien2","images/tutalien1","images/tutrocket2","images/tutalien2","images/nothing.png","2","practice","true","2","common","0","2022-12-11 02:01:08.684"
"two-step-fixation","99","466652","0.0-61.0-2.12","1983","4956","8","Male","true","false","false","true","""event"",""trial"",""time""
""fullscreenenter"",""5"",""19233""
""fullscreenexit"",""34"",""185238""
","
","
","""event"",""trial"",""time""
""fullscreenenter"",""5"",""19233""
","""event"",""trial"",""time""
""fullscreenexit"",""34"",""185238""
","","images/earth.jpg","","","","","","","","","","","","","","fixation","","","","","",""
"d3-animate-choice","100","468655","0.0-61.0-0.13","1983","4956","8","Male","true","false","false","true","""event"",""trial"",""time""
""fullscreenenter"",""5"",""19233""
""fullscreenexit"",""34"",""185238""
","
","
","""event"",""trial"",""time""
""fullscreenenter"",""5"",""19233""
","""event"",""trial"",""time""
""fullscreenexit"",""34"",""185238""
","0.5","","49","","","3000","1","","","images/earth.jpg","images/tutrocket1","images/tutrocket2","null","images/tutrocket2","","1","practice","null","1","","",""
"d3-animate-choice","101","471127","0.0-61.0-1.13","1983","4956","8","Male","true","false","false","true","""event"",""trial"",""time""
""fullscreenenter"",""5"",""19233""
""fullscreenexit"",""34"",""185238""
","
","
","""event"",""trial"",""time""
""fullscreenenter"",""5"",""19233""
","""event"",""trial"",""time""
""fullscreenexit"",""34"",""185238""
","466.5999999999767","","48","","","3000","1","","","images/tutgreenplanet.jpg","images/tutalien2","images/tutalien1","images/tutrocket2","images/tutalien2","images/nothing.png","2","practice","true","2","common","0","2022-12-11 02:01:14.162"
"two-step-fixation","102","472132","0.0-61.0-2.13","1983","4956","8","Male","true","false","false","true","""event"",""trial"",""time""
""fullscreenenter"",""5"",""19233""
""fullscreenexit"",""34"",""185238""
","
","
","""event"",""trial"",""time""
""fullscreenenter"",""5"",""19233""
","""event"",""trial"",""time""
""fullscreenexit"",""34"",""185238""
","","images/earth.jpg","","","","","","","","","","","","","","fixation","","","","","",""
"d3-animate-choice","103","474556","0.0-61.0-0.14","1983","4956","8","Male","true","false","false","true","""event"",""trial"",""time""
""fullscreenenter"",""5"",""19233""
""fullscreenexit"",""34"",""185238""
","
","
","""event"",""trial"",""time""
""fullscreenenter"",""5"",""19233""
","""event"",""trial"",""time""
""fullscreenexit"",""34"",""185238""
","421","","49","","","3000","1","","","images/earth.jpg","images/tutrocket1","images/tutrocket2","null","images/tutrocket2","","1","practice","null","1","","",""
"d3-animate-choice","104","477055","0.0-61.0-1.14","1983","4956","8","Male","true","false","false","true","""event"",""trial"",""time""
""fullscreenenter"",""5"",""19233""
""fullscreenexit"",""34"",""185238""
","
","
","""event"",""trial"",""time""
""fullscreenenter"",""5"",""19233""
","""event"",""trial"",""time""
""fullscreenexit"",""34"",""185238""
","494.79999999993015","","48","","","3000","1","","","images/tutyellowplanet.jpg","images/tutalien4","images/tutalien3","images/tutrocket2","images/tutalien4","images/nothing.png","2","practice","false","2","rare","0","2022-12-11 02:01:20.090"
"two-step-fixation","105","478059","0.0-61.0-2.14","1983","4956","8","Male","true","false","false","true","""event"",""trial"",""time""
""fullscreenenter"",""5"",""19233""
""fullscreenexit"",""34"",""185238""
","
","
","""event"",""trial"",""time""
""fullscreenenter"",""5"",""19233""
","""event"",""trial"",""time""
""fullscreenexit"",""34"",""185238""
","","images/earth.jpg","","","","","","","","","","","","","","fixation","","","","","",""
"d3-animate-choice","106","480787","0.0-61.0-0.15","1983","4956","8","Male","true","false","false","true","""event"",""trial"",""time""
""fullscreenenter"",""5"",""19233""
""fullscreenexit"",""34"",""185238""
","
","
","""event"",""trial"",""time""
""fullscreenenter"",""5"",""19233""
","""event"",""trial"",""time""
""fullscreenexit"",""34"",""185238""
","722","","48","","","3000","1","1753.8000000000466,2148.3000000000466","49,27","images/earth.jpg","images/tutrocket1","images/tutrocket2","null","images/tutrocket1","","1","practice","null","2","","",""
"d3-animate-choice","107","483684","0.0-61.0-1.15","1983","4956","8","Male","true","false","false","true","""event"",""trial"",""time""
""fullscreenenter"",""5"",""19233""
""fullscreenexit"",""34"",""185238""
","
","
","""event"",""trial"",""time""
""fullscreenenter"",""5"",""19233""
","""event"",""trial"",""time""
""fullscreenexit"",""34"",""185238""
","892.5999999999767","","49","","","3000","1","","","images/tutgreenplanet.jpg","images/tutalien2","images/tutalien1","images/tutrocket1","images/tutalien1","images/nothing.png","2","practice","false","1","rare","0","2022-12-11 02:01:26.719"
"two-step-fixation","108","484687","0.0-61.0-2.15","1983","4956","8","Male","true","false","false","true","""event"",""trial"",""time""
""fullscreenenter"",""5"",""19233""
""fullscreenexit"",""34"",""185238""
","
","
","""event"",""trial"",""time""
""fullscreenenter"",""5"",""19233""
","""event"",""trial"",""time""
""fullscreenexit"",""34"",""185238""
","","images/earth.jpg","","","","","","","","","","","","","","fixation","","","","","",""
"d3-animate-choice","109","487074","0.0-61.0-0.16","1983","4956","8","Male","true","false","false","true","""event"",""trial"",""time""
""fullscreenenter"",""5"",""19233""
""fullscreenexit"",""34"",""185238""
","
","
","""event"",""trial"",""time""
""fullscreenenter"",""5"",""19233""
","""event"",""trial"",""time""
""fullscreenexit"",""34"",""185238""
","382.5","","49","","","3000","1","","","images/earth.jpg","images/tutrocket1","images/tutrocket2","null","images/tutrocket2","","1","practice","null","1","","",""
"d3-animate-choice","110","489599","0.0-61.0-1.16","1983","4956","8","Male","true","false","false","true","""event"",""trial"",""time""
""fullscreenenter"",""5"",""19233""
""fullscreenexit"",""34"",""185238""
","
","
","""event"",""trial"",""time""
""fullscreenenter"",""5"",""19233""
","""event"",""trial"",""time""
""fullscreenexit"",""34"",""185238""
","522","","48","","","3000","1","2401.5999999999767","48","images/tutgreenplanet.jpg","images/tutalien2","images/tutalien1","images/tutrocket2","images/tutalien2","images/t.png","2","practice","true","2","common","1","2022-12-11 02:01:32.634"
"two-step-fixation","111","490603","0.0-61.0-2.16","1983","4956","8","Male","true","false","false","true","""event"",""trial"",""time""
""fullscreenenter"",""5"",""19233""
""fullscreenexit"",""34"",""185238""
","
","
","""event"",""trial"",""time""
""fullscreenenter"",""5"",""19233""
","""event"",""trial"",""time""
""fullscreenexit"",""34"",""185238""
","","images/earth.jpg","","","","","","","","","","","","","","fixation","","","","","",""
"d3-animate-choice","112","493268","0.0-61.0-0.17","1983","4956","8","Male","true","false","false","true","""event"",""trial"",""time""
""fullscreenenter"",""5"",""19233""
""fullscreenexit"",""34"",""185238""
","
","
","""event"",""trial"",""time""
""fullscreenenter"",""5"",""19233""
","""event"",""trial"",""time""
""fullscreenexit"",""34"",""185238""
","661.3000000000466","","49","","","3000","1","","","images/earth.jpg","images/tutrocket1","images/tutrocket2","null","images/tutrocket2","","1","practice","null","1","","",""
"d3-animate-choice","113","495703","0.0-61.0-1.17","1983","4956","8","Male","true","false","false","true","""event"",""trial"",""time""
""fullscreenenter"",""5"",""19233""
""fullscreenexit"",""34"",""185238""
","
","
","""event"",""trial"",""time""
""fullscreenenter"",""5"",""19233""
","""event"",""trial"",""time""
""fullscreenexit"",""34"",""185238""
","433.4000000000233","","48","","","3000","1","","","images/tutgreenplanet.jpg","images/tutalien2","images/tutalien1","images/tutrocket2","images/tutalien2","images/t.png","2","practice","true","2","common","1","2022-12-11 02:01:38.738"
"two-step-fixation","114","496705","0.0-61.0-2.17","1983","4956","8","Male","true","false","false","true","""event"",""trial"",""time""
""fullscreenenter"",""5"",""19233""
""fullscreenexit"",""34"",""185238""
","
","
","""event"",""trial"",""time""
""fullscreenenter"",""5"",""19233""
","""event"",""trial"",""time""
""fullscreenexit"",""34"",""185238""
","","images/earth.jpg","","","","","","","","","","","","","","fixation","","","","","",""
"d3-animate-choice","115","499303","0.0-61.0-0.18","1983","4956","8","Male","true","false","false","true","""event"",""trial"",""time""
""fullscreenenter"",""5"",""19233""
""fullscreenexit"",""34"",""185238""
","
","
","""event"",""trial"",""time""
""fullscreenenter"",""5"",""19233""
","""event"",""trial"",""time""
""fullscreenexit"",""34"",""185238""
","595.5","","49","","","3000","1","707.4000000000233","48","images/earth.jpg","images/tutrocket1","images/tutrocket2","null","images/tutrocket2","","1","practice","null","1","","",""
"d3-animate-choice","116","501888","0.0-61.0-1.18","1983","4956","8","Male","true","false","false","true","""event"",""trial"",""time""
""fullscreenenter"",""5"",""19233""
""fullscreenexit"",""34"",""185238""
","
","
","""event"",""trial"",""time""
""fullscreenenter"",""5"",""19233""
","""event"",""trial"",""time""
""fullscreenexit"",""34"",""185238""
","584","","48","","","3000","1","","","images/tutyellowplanet.jpg","images/tutalien4","images/tutalien3","images/tutrocket2","images/tutalien4","images/t.png","2","practice","false","2","rare","1","2022-12-11 02:01:44.923"
"two-step-fixation","117","502892","0.0-61.0-2.18","1983","4956","8","Male","true","false","false","true","""event"",""trial"",""time""
""fullscreenenter"",""5"",""19233""
""fullscreenexit"",""34"",""185238""
","
","
","""event"",""trial"",""time""
""fullscreenenter"",""5"",""19233""
","""event"",""trial"",""time""
""fullscreenexit"",""34"",""185238""
","","images/earth.jpg","","","","","","","","","","","","","","fixation","","","","","",""
"d3-animate-choice","118","505325","0.0-61.0-0.19","1983","4956","8","Male","true","false","false","true","""event"",""trial"",""time""
""fullscreenenter"",""5"",""19233""
""fullscreenexit"",""34"",""185238""
","
","
","""event"",""trial"",""time""
""fullscreenenter"",""5"",""19233""
","""event"",""trial"",""time""
""fullscreenexit"",""34"",""185238""
","427.19999999995343","","49","","","3000","1","1130.1999999999534,1343.3999999999069,1515.5,1705.3999999999069,1872.1999999999534","48,48,48,48,48","images/earth.jpg","images/tutrocket1","images/tutrocket2","null","images/tutrocket2","","1","practice","null","1","","",""
"d3-animate-choice","119","507397","0.0-61.0-1.19","1983","4956","8","Male","true","false","false","true","""event"",""trial"",""time""
""fullscreenenter"",""5"",""19233""
""fullscreenexit"",""34"",""185238""
","
","
","""event"",""trial"",""time""
""fullscreenenter"",""5"",""19233""
","""event"",""trial"",""time""
""fullscreenexit"",""34"",""185238""
","66.59999999997672","","48","","","3000","1","395.5999999999767","48","images/tutgreenplanet.jpg","images/tutalien2","images/tutalien1","images/tutrocket2","images/tutalien2","images/nothing.png","2","practice","true","2","common","0","2022-12-11 02:01:50.432"
"two-step-fixation","120","508399","0.0-61.0-2.19","1983","4956","8","Male","true","false","false","true","""event"",""trial"",""time""
""fullscreenenter"",""5"",""19233""
""fullscreenexit"",""34"",""185238""
","
","
","""event"",""trial"",""time""
""fullscreenenter"",""5"",""19233""
","""event"",""trial"",""time""
""fullscreenexit"",""34"",""185238""
","","images/earth.jpg","","","","","","","","","","","","","","fixation","","","","","",""
"d3-instructions","121","512331","0.0-62.0","1983","4956","8","Male","true","false","false","true","""event"",""trial"",""time""
""fullscreenenter"",""5"",""19233""
""fullscreenexit"",""34"",""185238""
","
","
","""event"",""trial"",""time""
""fullscreenenter"",""5"",""19233""
","""event"",""trial"",""time""
""fullscreenexit"",""34"",""185238""
","","","","","","","","","","","","","","","","","","","","","",""
"audio-keyboard-response","122","516386","0.0-63.0","1983","4956","8","Male","true","false","false","true","""event"",""trial"",""time""
""fullscreenenter"",""5"",""19233""
""fullscreenexit"",""34"",""185238""
","
","
","""event"",""trial"",""time""
""fullscreenenter"",""5"",""19233""
","""event"",""trial"",""time""
""fullscreenexit"",""34"",""185238""
","4052","audio/instructions/treasure_feedback.wav","32","","","","","","","","","","","","","","","","","","",""
"d3-instructions","123","535099","0.0-64.0","1983","4956","8","Male","true","false","false","true","""event"",""trial"",""time""
""fullscreenenter"",""5"",""19233""
""fullscreenexit"",""34"",""185238""
","
","
","""event"",""trial"",""time""
""fullscreenenter"",""5"",""19233""
","""event"",""trial"",""time""
""fullscreenexit"",""34"",""185238""
","","","","","","","","","","","","","","","","","","","","","",""
"d3-instructions","124","554276","0.0-65.0","1983","4956","8","Male","true","false","false","true","""event"",""trial"",""time""
""fullscreenenter"",""5"",""19233""
""fullscreenexit"",""34"",""185238""
","
","
","""event"",""trial"",""time""
""fullscreenenter"",""5"",""19233""
","""event"",""trial"",""time""
""fullscreenexit"",""34"",""185238""
","","","","","","","","","","","","","","","","","","","","","",""
"d3-instructions","125","578928","0.0-66.0","1983","4956","8","Male","true","false","false","true","""event"",""trial"",""time""
""fullscreenenter"",""5"",""19233""
""fullscreenexit"",""34"",""185238""
","
","
","""event"",""trial"",""time""
""fullscreenenter"",""5"",""19233""
","""event"",""trial"",""time""
""fullscreenexit"",""34"",""185238""
","","","","","","","","","","","","","","","","","","","","","",""
"d3-instructions","126","595719","0.0-67.0","1983","4956","8","Male","true","false","false","true","""event"",""trial"",""time""
""fullscreenenter"",""5"",""19233""
""fullscreenexit"",""34"",""185238""
","
","
","""event"",""trial"",""time""
""fullscreenenter"",""5"",""19233""
","""event"",""trial"",""time""
""fullscreenexit"",""34"",""185238""
","","","","","","","","","","","","","","","","","","","","","",""
"d3-instructions","127","603188","0.0-68.0","1983","4956","8","Male","true","false","false","true","""event"",""trial"",""time""
""fullscreenenter"",""5"",""19233""
""fullscreenexit"",""34"",""185238""
","
","
","""event"",""trial"",""time""
""fullscreenenter"",""5"",""19233""
","""event"",""trial"",""time""
""fullscreenexit"",""34"",""185238""
","","","","","","","","","","","","","","","","","","","","","",""
"instructions-quiz","128","608045","0.0-69.0","1983","4956","8","Male","true","false","false","true","""event"",""trial"",""time""
""fullscreenenter"",""5"",""19233""
""fullscreenexit"",""34"",""185238""
","
","
","""event"",""trial"",""time""
""fullscreenenter"",""5"",""19233""
","""event"",""trial"",""time""
""fullscreenexit"",""34"",""185238""
","4855.20000000007","audio/quiz/Q1_Prompt.wav","","1","","","","","","","","","","","","","","","","","",""
"audio-keyboard-response","129","616209","0.0-70.0","1983","4956","8","Male","true","false","false","true","""event"",""trial"",""time""
""fullscreenenter"",""5"",""19233""
""fullscreenexit"",""34"",""185238""
","
","
","""event"",""trial"",""time""
""fullscreenenter"",""5"",""19233""
","""event"",""trial"",""time""
""fullscreenexit"",""34"",""185238""
","8162","audio/quiz/Q1_Correct.wav","32","","","","","","","","","","","","","","","","","","",""
"instructions-quiz","130","621416","0.0-71.0","1983","4956","8","Male","true","false","false","true","""event"",""trial"",""time""
""fullscreenenter"",""5"",""19233""
""fullscreenexit"",""34"",""185238""
","
","
","""event"",""trial"",""time""
""fullscreenenter"",""5"",""19233""
","""event"",""trial"",""time""
""fullscreenexit"",""34"",""185238""
","5206.600000000093","audio/quiz/Q2_Prompt.wav","","0","","","","","","","","","","","","","","","","","",""
"audio-keyboard-response","131","624283","0.0-72.0","1983","4956","8","Male","true","false","false","true","""event"",""trial"",""time""
""fullscreenenter"",""5"",""19233""
""fullscreenexit"",""34"",""185238""
","
","
","""event"",""trial"",""time""
""fullscreenenter"",""5"",""19233""
","""event"",""trial"",""time""
""fullscreenexit"",""34"",""185238""
","2868","audio/quiz/Q2_Correct.wav","32","","","","","","","","","","","","","","","","","","",""
"instructions-quiz","132","627553","0.0-73.0","1983","4956","8","Male","true","false","false","true","""event"",""trial"",""time""
""fullscreenenter"",""5"",""19233""
""fullscreenexit"",""34"",""185238""
","
","
","""event"",""trial"",""time""
""fullscreenenter"",""5"",""19233""
","""event"",""trial"",""time""
""fullscreenexit"",""34"",""185238""
","3270.3000000000466","audio/quiz/Q3_Prompt.wav","","1","","","","","","","","","","","","","","","","","",""
"audio-keyboard-response","133","628396","0.0-74.0","1983","4956","8","Male","true","false","false","true","""event"",""trial"",""time""
""fullscreenenter"",""5"",""19233""
""fullscreenexit"",""34"",""185238""
","
","
","""event"",""trial"",""time""
""fullscreenenter"",""5"",""19233""
","""event"",""trial"",""time""
""fullscreenexit"",""34"",""185238""
","842","audio/quiz/Q3_Correct.wav","32","","","","","","","","","","","","","","","","","","",""
"d3-instructions","134","642429","0.0-75.0","1983","4956","8","Male","true","false","false","true","""event"",""trial"",""time""
""fullscreenenter"",""5"",""19233""
""fullscreenexit"",""34"",""185238""
","
","
","""event"",""trial"",""time""
""fullscreenenter"",""5"",""19233""
","""event"",""trial"",""time""
""fullscreenexit"",""34"",""185238""
","","","","","","","","","","","","","","","","","","","","","",""
"d3-animate-choice","135","645728","0.0-76.0-0.0","1983","4956","8","Male","true","false","false","true","""event"",""trial"",""time""
""fullscreenenter"",""5"",""19233""
""fullscreenexit"",""34"",""185238""
","
","
","""event"",""trial"",""time""
""fullscreenenter"",""5"",""19233""
","""event"",""trial"",""time""
""fullscreenexit"",""34"",""185238""
","1296.6999999999534","","49","","","3000","1","","","images/earth.jpg","images/rocket2","images/rocket1","null","images/rocket1","","1","real","null","1","","",""
"d3-animate-choice","136","649280","0.0-76.0-1.0","1983","4956","8","Male","true","false","false","true","""event"",""trial"",""time""
""fullscreenenter"",""5"",""19233""
""fullscreenexit"",""34"",""185238""
","
","
","""event"",""trial"",""time""
""fullscreenenter"",""5"",""19233""
","""event"",""trial"",""time""
""fullscreenexit"",""34"",""185238""
","1546.5","","48","","","3000","1","","","images/purpleplanet.jpg","images/alien4","images/alien3","images/rocket1","images/alien4","images/nothing.png","2","real","true","2","common","0","2022-12-11 02:04:12.315"
"two-step-fixation","137","650283","0.0-76.0-2.0","1983","4956","8","Male","true","false","false","true","""event"",""trial"",""time""
""fullscreenenter"",""5"",""19233""
""fullscreenexit"",""34"",""185238""
","
","
","""event"",""trial"",""time""
""fullscreenenter"",""5"",""19233""
","""event"",""trial"",""time""
""fullscreenexit"",""34"",""185238""
","","images/earth.jpg","","","","","","","","","","","","","","fixation","","","","","",""
"d3-animate-choice","138","652864","0.0-76.0-0.1","1983","4956","8","Male","true","false","false","true","""event"",""trial"",""time""
""fullscreenenter"",""5"",""19233""
""fullscreenexit"",""34"",""185238""
","
","
","""event"",""trial"",""time""
""fullscreenenter"",""5"",""19233""
","""event"",""trial"",""time""
""fullscreenexit"",""34"",""185238""
","578.9000000000233","","49","","","3000","1","","","images/earth.jpg","images/rocket2","images/rocket1","null","images/rocket1","","1","real","null","1","","",""
"d3-animate-choice","139","655601","0.0-76.0-1.1","1983","4956","8","Male","true","false","false","true","""event"",""trial"",""time""
""fullscreenenter"",""5"",""19233""
""fullscreenexit"",""34"",""185238""
","
","
","""event"",""trial"",""time""
""fullscreenenter"",""5"",""19233""
","""event"",""trial"",""time""
""fullscreenexit"",""34"",""185238""
","733","","48","","","3000","1","","","images/purpleplanet.jpg","images/alien4","images/alien3","images/rocket1","images/alien4","images/t.png","2","real","true","2","common","1","2022-12-11 02:04:18.636"
"two-step-fixation","140","656605","0.0-76.0-2.1","1983","4956","8","Male","true","false","false","true","""event"",""trial"",""time""
""fullscreenenter"",""5"",""19233""
""fullscreenexit"",""34"",""185238""
","
","
","""event"",""trial"",""time""
""fullscreenenter"",""5"",""19233""
","""event"",""trial"",""time""
""fullscreenexit"",""34"",""185238""
","","images/earth.jpg","","","","","","","","","","","","","","fixation","","","","","",""
"d3-animate-choice","141","659005","0.0-76.0-0.2","1983","4956","8","Male","true","false","false","true","""event"",""trial"",""time""
""fullscreenenter"",""5"",""19233""
""fullscreenexit"",""34"",""185238""
","
","
","""event"",""trial"",""time""
""fullscreenenter"",""5"",""19233""
","""event"",""trial"",""time""
""fullscreenexit"",""34"",""185238""
","395.39999999990687","","49","","","3000","1","","","images/earth.jpg","images/rocket2","images/rocket1","null","images/rocket1","","1","real","null","1","","",""
"d3-animate-choice","142","661702","0.0-76.0-1.2","1983","4956","8","Male","true","false","false","true","""event"",""trial"",""time""
""fullscreenenter"",""5"",""19233""
""fullscreenexit"",""34"",""185238""
","
","
","""event"",""trial"",""time""
""fullscreenenter"",""5"",""19233""
","""event"",""trial"",""time""
""fullscreenexit"",""34"",""185238""
","96.10000000009313","","27","","","3000","1","692.6999999999534","48","images/purpleplanet.jpg","images/alien4","images/alien3","images/rocket1","images/alien4","images/t.png","2","real","true","","common","1","2022-12-11 02:04:24.737"
"two-step-fixation","143","662707","0.0-76.0-2.2","1983","4956","8","Male","true","false","false","true","""event"",""trial"",""time""
""fullscreenenter"",""5"",""19233""
""fullscreenexit"",""34"",""185238""
","
","
","""event"",""trial"",""time""
""fullscreenenter"",""5"",""19233""
","""event"",""trial"",""time""
""fullscreenexit"",""34"",""185238""
","","images/earth.jpg","","","","","","","","","","","","","","fixation","","","","","",""
"d3-animate-choice","144","665068","0.0-76.0-0.3","1983","4956","8","Male","true","false","false","true","""event"",""trial"",""time""
""fullscreenenter"",""5"",""19233""
""fullscreenexit"",""34"",""185238""
","
","
","""event"",""trial"",""time""
""fullscreenenter"",""5"",""19233""
","""event"",""trial"",""time""
""fullscreenexit"",""34"",""185238""
","356.10000000009313","","49","","","3000","1","","","images/earth.jpg","images/rocket2","images/rocket1","null","images/rocket1","","1","real","null","1","","",""
"d3-animate-choice","145","667931","0.0-76.0-1.3","1983","4956","8","Male","true","false","false","true","""event"",""trial"",""time""
""fullscreenenter"",""5"",""19233""
""fullscreenexit"",""34"",""185238""
","
","
","""event"",""trial"",""time""
""fullscreenenter"",""5"",""19233""
","""event"",""trial"",""time""
""fullscreenexit"",""34"",""185238""
","859.1000000000931","","48","","","3000","1","","","images/purpleplanet.jpg","images/alien4","images/alien3","images/rocket1","images/alien4","images/t.png","2","real","true","2","common","1","2022-12-11 02:04:30.966"
"two-step-fixation","146","668935","0.0-76.0-2.3","1983","4956","8","Male","true","false","false","true","""event"",""trial"",""time""
""fullscreenenter"",""5"",""19233""
""fullscreenexit"",""34"",""185238""
","
","
","""event"",""trial"",""time""
""fullscreenenter"",""5"",""19233""
","""event"",""trial"",""time""
""fullscreenexit"",""34"",""185238""
","","images/earth.jpg","","","","","","","","","","","","","","fixation","","","","","",""
"d3-animate-choice","147","671302","0.0-76.0-0.4","1983","4956","8","Male","true","false","false","true","""event"",""trial"",""time""
""fullscreenenter"",""5"",""19233""
""fullscreenexit"",""34"",""185238""
","
","
","""event"",""trial"",""time""
""fullscreenenter"",""5"",""19233""
","""event"",""trial"",""time""
""fullscreenexit"",""34"",""185238""
","364","","49","","","3000","1","","","images/earth.jpg","images/rocket2","images/rocket1","null","images/rocket1","","1","real","null","1","","",""
"d3-animate-choice","148","673708","0.0-76.0-1.4","1983","4956","8","Male","true","false","false","true","""event"",""trial"",""time""
""fullscreenenter"",""5"",""19233""
""fullscreenexit"",""34"",""185238""
","
","
","""event"",""trial"",""time""
""fullscreenenter"",""5"",""19233""
","""event"",""trial"",""time""
""fullscreenexit"",""34"",""185238""
","402.89999999990687","","48","","","3000","1","","","images/purpleplanet.jpg","images/alien4","images/alien3","images/rocket1","images/alien4","images/t.png","2","real","true","2","common","1","2022-12-11 02:04:36.743"
"two-step-fixation","149","674712","0.0-76.0-2.4","1983","4956","8","Male","true","false","false","true","""event"",""trial"",""time""
""fullscreenenter"",""5"",""19233""
""fullscreenexit"",""34"",""185238""
","
","
","""event"",""trial"",""time""
""fullscreenenter"",""5"",""19233""
","""event"",""trial"",""time""
""fullscreenexit"",""34"",""185238""
","","images/earth.jpg","","","","","","","","","","","","","","fixation","","","","","",""
"d3-animate-choice","150","677027","0.0-76.0-0.5","1983","4956","8","Male","true","false","false","true","""event"",""trial"",""time""
""fullscreenenter"",""5"",""19233""
""fullscreenexit"",""34"",""185238""
","
","
","""event"",""trial"",""time""
""fullscreenenter"",""5"",""19233""
","""event"",""trial"",""time""
""fullscreenexit"",""34"",""185238""
","312.19999999995343","","49","","","3000","1","","","images/earth.jpg","images/rocket2","images/rocket1","null","images/rocket1","","1","real","null","1","","",""
"d3-animate-choice","151","679274","0.0-76.0-1.5","1983","4956","8","Male","true","false","false","true","""event"",""trial"",""time""
""fullscreenenter"",""5"",""19233""
""fullscreenexit"",""34"",""185238""
","
","
","""event"",""trial"",""time""
""fullscreenenter"",""5"",""19233""
","""event"",""trial"",""time""
""fullscreenexit"",""34"",""185238""
","242.0999999998603","","48","","","3000","1","","","images/redplanet1.jpg","images/alien2","images/alien1","images/rocket1","images/alien2","images/t.png","2","real","false","2","rare","1","2022-12-11 02:04:42.309"
"two-step-fixation","152","680279","0.0-76.0-2.5","1983","4956","8","Male","true","false","false","true","""event"",""trial"",""time""
""fullscreenenter"",""5"",""19233""
""fullscreenexit"",""34"",""185238""
","
","
","""event"",""trial"",""time""
""fullscreenenter"",""5"",""19233""
","""event"",""trial"",""time""
""fullscreenexit"",""34"",""185238""
","","images/earth.jpg","","","","","","","","","","","","","","fixation","","","","","",""
"d3-animate-choice","153","682699","0.0-76.0-0.6","1983","4956","8","Male","true","false","false","true","""event"",""trial"",""time""
""fullscreenenter"",""5"",""19233""
""fullscreenexit"",""34"",""185238""
","
","
","""event"",""trial"",""time""
""fullscreenenter"",""5"",""19233""
","""event"",""trial"",""time""
""fullscreenexit"",""34"",""185238""
","417.9000000001397","","49","","","3000","1","","","images/earth.jpg","images/rocket2","images/rocket1","null","images/rocket1","","1","real","null","1","","",""
"d3-animate-choice","154","685184","0.0-76.0-1.6","1983","4956","8","Male","true","false","false","true","""event"",""trial"",""time""
""fullscreenenter"",""5"",""19233""
""fullscreenexit"",""34"",""185238""
","
","
","""event"",""trial"",""time""
""fullscreenenter"",""5"",""19233""
","""event"",""trial"",""time""
""fullscreenexit"",""34"",""185238""
","456.5","","27","","","3000","1","476.69999999995343","48","images/redplanet1.jpg","images/alien2","images/alien1","images/rocket1","images/alien2","images/nothing.png","2","real","false","","rare","0","2022-12-11 02:04:48.219"
"two-step-fixation","155","686187","0.0-76.0-2.6","1983","4956","8","Male","true","false","false","true","""event"",""trial"",""time""
""fullscreenenter"",""5"",""19233""
""fullscreenexit"",""34"",""185238""
","
","
","""event"",""trial"",""time""
""fullscreenenter"",""5"",""19233""
","""event"",""trial"",""time""
""fullscreenexit"",""34"",""185238""
","","images/earth.jpg","","","","","","","","","","","","","","fixation","","","","","",""
"d3-animate-choice","156","689166","0.0-76.0-0.7","1983","4956","8","Male","true","false","false","true","""event"",""trial"",""time""
""fullscreenenter"",""5"",""19233""
""fullscreenexit"",""34"",""185238""
","
","
","""event"",""trial"",""time""
""fullscreenenter"",""5"",""19233""
","""event"",""trial"",""time""
""fullscreenexit"",""34"",""185238""
","970.8000000000466","","48","","","3000","1","","","images/earth.jpg","images/rocket2","images/rocket1","null","images/rocket2","","1","real","null","2","","",""
"d3-animate-choice","157","692061","0.0-76.0-1.7","1983","4956","8","Male","true","false","false","true","""event"",""trial"",""time""
""fullscreenenter"",""5"",""19233""
""fullscreenexit"",""34"",""185238""
","
","
","""event"",""trial"",""time""
""fullscreenenter"",""5"",""19233""
","""event"",""trial"",""time""
""fullscreenexit"",""34"",""185238""
","890.1999999999534","","48","","","3000","1","","","images/purpleplanet.jpg","images/alien4","images/alien3","images/rocket2","images/alien4","images/t.png","2","real","false","2","rare","1","2022-12-11 02:04:55.096"
"two-step-fixation","158","693066","0.0-76.0-2.7","1983","4956","8","Male","true","false","false","true","""event"",""trial"",""time""
""fullscreenenter"",""5"",""19233""
""fullscreenexit"",""34"",""185238""
","
","
","""event"",""trial"",""time""
""fullscreenenter"",""5"",""19233""
","""event"",""trial"",""time""
""fullscreenexit"",""34"",""185238""
","","images/earth.jpg","","","","","","","","","","","","","","fixation","","","","","",""
"d3-animate-choice","159","695197","0.0-76.0-0.8","1983","4956","8","Male","true","false","false","true","""event"",""trial"",""time""
""fullscreenenter"",""5"",""19233""
""fullscreenexit"",""34"",""185238""
","
","
","""event"",""trial"",""time""
""fullscreenenter"",""5"",""19233""
","""event"",""trial"",""time""
""fullscreenexit"",""34"",""185238""
","126.30000000004657","","49","","","3000","1","","","images/earth.jpg","images/rocket2","images/rocket1","null","images/rocket1","","1","real","null","1","","",""
"d3-animate-choice","160","697630","0.0-76.0-1.8","1983","4956","8","Male","true","false","false","true","""event"",""trial"",""time""
""fullscreenenter"",""5"",""19233""
""fullscreenexit"",""34"",""185238""
","
","
","""event"",""trial"",""time""
""fullscreenenter"",""5"",""19233""
","""event"",""trial"",""time""
""fullscreenexit"",""34"",""185238""
","428.5","","48","","","3000","1","","","images/purpleplanet.jpg","images/alien4","images/alien3","images/rocket1","images/alien4","images/t.png","2","real","true","2","common","1","2022-12-11 02:05:00.665"
"two-step-fixation","161","698633","0.0-76.0-2.8","1983","4956","8","Male","true","false","false","true","""event"",""trial"",""time""
""fullscreenenter"",""5"",""19233""
""fullscreenexit"",""34"",""185238""
","
","
","""event"",""trial"",""time""
""fullscreenenter"",""5"",""19233""
","""event"",""trial"",""time""
""fullscreenexit"",""34"",""185238""
","","images/earth.jpg","","","","","","","","","","","","","","fixation","","","","","",""
"d3-animate-choice","162","701639","0.0-76.0-0.9","1983","4956","8","Male","true","false","false","true","""event"",""trial"",""time""
""fullscreenenter"",""5"",""19233""
""fullscreenexit"",""34"",""185238""
","
","
","""event"",""trial"",""time""
""fullscreenenter"",""5"",""19233""
","""event"",""trial"",""time""
""fullscreenexit"",""34"",""185238""
","999.4000000001397","","49","","","3000","1","","","images/earth.jpg","images/rocket2","images/rocket1","null","images/rocket1","","1","real","null","1","","",""
"d3-animate-choice","163","704172","0.0-76.0-1.9","1983","4956","8","Male","true","false","false","true","""event"",""trial"",""time""
""fullscreenenter"",""5"",""19233""
""fullscreenexit"",""34"",""185238""
","
","
","""event"",""trial"",""time""
""fullscreenenter"",""5"",""19233""
","""event"",""trial"",""time""
""fullscreenexit"",""34"",""185238""
","529.8999999999069","","49","","","3000","1","","","images/redplanet1.jpg","images/alien2","images/alien1","images/rocket1","images/alien1","images/t.png","2","real","false","1","rare","1","2022-12-11 02:05:07.207"
"two-step-fixation","164","705176","0.0-76.0-2.9","1983","4956","8","Male","true","false","false","true","""event"",""trial"",""time""
""fullscreenenter"",""5"",""19233""
""fullscreenexit"",""34"",""185238""
","
","
","""event"",""trial"",""time""
""fullscreenenter"",""5"",""19233""
","""event"",""trial"",""time""
""fullscreenexit"",""34"",""185238""
","","images/earth.jpg","","","","","","","","","","","","","","fixation","","","","","",""
"d3-animate-choice","165","708130","0.0-76.0-0.10","1983","4956","8","Male","true","false","false","true","""event"",""trial"",""time""
""fullscreenenter"",""5"",""19233""
""fullscreenexit"",""34"",""185238""
","
","
","""event"",""trial"",""time""
""fullscreenenter"",""5"",""19233""
","""event"",""trial"",""time""
""fullscreenexit"",""34"",""185238""
","947.6999999999534","","49","","","3000","1","","","images/earth.jpg","images/rocket2","images/rocket1","null","images/rocket1","","1","real","null","1","","",""
"d3-animate-choice","166","710632","0.0-76.0-1.10","1983","4956","8","Male","true","false","false","true","""event"",""trial"",""time""
""fullscreenenter"",""5"",""19233""
""fullscreenexit"",""34"",""185238""
","
","
","""event"",""trial"",""time""
""fullscreenenter"",""5"",""19233""
","""event"",""trial"",""time""
""fullscreenexit"",""34"",""185238""
","497.79999999981374","","48","","","3000","1","2107.5999999998603","32","images/purpleplanet.jpg","images/alien4","images/alien3","images/rocket1","images/alien4","images/t.png","2","real","true","2","common","1","2022-12-11 02:05:13.667"
"two-step-fixation","167","711637","0.0-76.0-2.10","1983","4956","8","Male","true","false","false","true","""event"",""trial"",""time""
""fullscreenenter"",""5"",""19233""
""fullscreenexit"",""34"",""185238""
","
","
","""event"",""trial"",""time""
""fullscreenenter"",""5"",""19233""
","""event"",""trial"",""time""
""fullscreenexit"",""34"",""185238""
","","images/earth.jpg","","","","","","","","","","","","","","fixation","","","","","",""
"d3-animate-choice","168","713979","0.0-76.0-0.11","1983","4956","8","Male","true","false","false","true","""event"",""trial"",""time""
""fullscreenenter"",""5"",""19233""
""fullscreenexit"",""34"",""185238""
","
","
","""event"",""trial"",""time""
""fullscreenenter"",""5"",""19233""
","""event"",""trial"",""time""
""fullscreenexit"",""34"",""185238""
","338","","49","","","3000","1","","","images/earth.jpg","images/rocket2","images/rocket1","null","images/rocket1","","1","real","null","1","","",""
"d3-animate-choice","169","716699","0.0-76.0-1.11","1983","4956","8","Male","true","false","false","true","""event"",""trial"",""time""
""fullscreenenter"",""5"",""19233""
""fullscreenexit"",""34"",""185238""
","
","
","""event"",""trial"",""time""
""fullscreenenter"",""5"",""19233""
","""event"",""trial"",""time""
""fullscreenexit"",""34"",""185238""
","716.3000000000466","","48","","","3000","1","","","images/purpleplanet.jpg","images/alien4","images/alien3","images/rocket1","images/alien4","images/t.png","2","real","true","2","common","1","2022-12-11 02:05:19.734"
"two-step-fixation","170","717703","0.0-76.0-2.11","1983","4956","8","Male","true","false","false","true","""event"",""trial"",""time""
""fullscreenenter"",""5"",""19233""
""fullscreenexit"",""34"",""185238""
","
","
","""event"",""trial"",""time""
""fullscreenenter"",""5"",""19233""
","""event"",""trial"",""time""
""fullscreenexit"",""34"",""185238""
","","images/earth.jpg","","","","","","","","","","","","","","fixation","","","","","",""
"d3-animate-choice","171","720182","0.0-76.0-0.12","1983","4956","8","Male","true","false","false","true","""event"",""trial"",""time""
""fullscreenenter"",""5"",""19233""
""fullscreenexit"",""34"",""185238""
","
","
","""event"",""trial"",""time""
""fullscreenenter"",""5"",""19233""
","""event"",""trial"",""time""
""fullscreenexit"",""34"",""185238""
","471","","48","","","3000","1","","","images/earth.jpg","images/rocket2","images/rocket1","null","images/rocket2","","1","real","null","2","","",""
"d3-animate-choice","172","723177","0.0-76.0-1.12","1983","4956","8","Male","true","false","false","true","""event"",""trial"",""time""
""fullscreenenter"",""5"",""19233""
""fullscreenexit"",""34"",""185238""
","
","
","""event"",""trial"",""time""
""fullscreenenter"",""5"",""19233""
","""event"",""trial"",""time""
""fullscreenexit"",""34"",""185238""
","992.1999999999534","","49","","","3000","1","","","images/redplanet1.jpg","images/alien2","images/alien1","images/rocket2","images/alien1","images/nothing.png","2","real","true","1","common","0","2022-12-11 02:05:26.212"
"two-step-fixation","173","724181","0.0-76.0-2.12","1983","4956","8","Male","true","false","false","true","""event"",""trial"",""time""
""fullscreenenter"",""5"",""19233""
""fullscreenexit"",""34"",""185238""
","
","
","""event"",""trial"",""time""
""fullscreenenter"",""5"",""19233""
","""event"",""trial"",""time""
""fullscreenexit"",""34"",""185238""
","","images/earth.jpg","","","","","","","","","","","","","","fixation","","","","","",""
"d3-animate-choice","174","726786","0.0-76.0-0.13","1983","4956","8","Male","true","false","false","true","""event"",""trial"",""time""
""fullscreenenter"",""5"",""19233""
""fullscreenexit"",""34"",""185238""
","
","
","""event"",""trial"",""time""
""fullscreenenter"",""5"",""19233""
","""event"",""trial"",""time""
""fullscreenexit"",""34"",""185238""
","597.8000000000466","","49","","","3000","1","","","images/earth.jpg","images/rocket2","images/rocket1","null","images/rocket1","","1","real","null","1","","",""
"d3-animate-choice","175","729301","0.0-76.0-1.13","1983","4956","8","Male","true","false","false","true","""event"",""trial"",""time""
""fullscreenenter"",""5"",""19233""
""fullscreenexit"",""34"",""185238""
","
","
","""event"",""trial"",""time""
""fullscreenenter"",""5"",""19233""
","""event"",""trial"",""time""
""fullscreenexit"",""34"",""185238""
","511.5999999998603","","48","","","3000","1","","","images/purpleplanet.jpg","images/alien4","images/alien3","images/rocket1","images/alien4","images/t.png","2","real","true","2","common","1","2022-12-11 02:05:32.336"
"two-step-fixation","176","730303","0.0-76.0-2.13","1983","4956","8","Male","true","false","false","true","""event"",""trial"",""time""
""fullscreenenter"",""5"",""19233""
""fullscreenexit"",""34"",""185238""
","
","
","""event"",""trial"",""time""
""fullscreenenter"",""5"",""19233""
","""event"",""trial"",""time""
""fullscreenexit"",""34"",""185238""
","","images/earth.jpg","","","","","","","","","","","","","","fixation","","","","","",""
"d3-animate-choice","177","732959","0.0-76.0-0.14","1983","4956","8","Male","true","false","false","true","""event"",""trial"",""time""
""fullscreenenter"",""5"",""19233""
""fullscreenexit"",""34"",""185238""
","
","
","""event"",""trial"",""time""
""fullscreenenter"",""5"",""19233""
","""event"",""trial"",""time""
""fullscreenexit"",""34"",""185238""
","649","","49","","","3000","1","","","images/earth.jpg","images/rocket2","images/rocket1","null","images/rocket1","","1","real","null","1","","",""
"d3-animate-choice","178","735518","0.0-76.0-1.14","1983","4956","8","Male","true","false","false","true","""event"",""trial"",""time""
""fullscreenenter"",""5"",""19233""
""fullscreenexit"",""34"",""185238""
","
","
","""event"",""trial"",""time""
""fullscreenenter"",""5"",""19233""
","""event"",""trial"",""time""
""fullscreenexit"",""34"",""185238""
","556.7999999998137","","48","","","3000","1","","","images/redplanet1.jpg","images/alien2","images/alien1","images/rocket1","images/alien2","images/t.png","2","real","false","2","rare","1","2022-12-11 02:05:38.553"
"two-step-fixation","179","736521","0.0-76.0-2.14","1983","4956","8","Male","true","false","false","true","""event"",""trial"",""time""
""fullscreenenter"",""5"",""19233""
""fullscreenexit"",""34"",""185238""
","
","
","""event"",""trial"",""time""
""fullscreenenter"",""5"",""19233""
","""event"",""trial"",""time""
""fullscreenexit"",""34"",""185238""
","","images/earth.jpg","","","","","","","","","","","","","","fixation","","","","","",""
"d3-animate-choice","180","738976","0.0-76.0-0.15","1983","4956","8","Male","true","false","false","true","""event"",""trial"",""time""
""fullscreenenter"",""5"",""19233""
""fullscreenexit"",""34"",""185238""
","
","
","""event"",""trial"",""time""
""fullscreenenter"",""5"",""19233""
","""event"",""trial"",""time""
""fullscreenexit"",""34"",""185238""
","451","","49","","","3000","1","1946.8999999999069","49","images/earth.jpg","images/rocket2","images/rocket1","null","images/rocket1","","1","real","null","1","","",""
"d3-animate-choice","181","742363","0.0-76.0-1.15","1983","4956","8","Male","true","false","false","true","""event"",""trial"",""time""
""fullscreenenter"",""5"",""19233""
""fullscreenexit"",""34"",""185238""
","
","
","""event"",""trial"",""time""
""fullscreenenter"",""5"",""19233""
","""event"",""trial"",""time""
""fullscreenexit"",""34"",""185238""
","1382.0999999998603","","48","","","3000","1","1390","32","images/purpleplanet.jpg","images/alien4","images/alien3","images/rocket1","images/alien4","images/nothing.png","2","real","true","2","common","0","2022-12-11 02:05:45.398"
"two-step-fixation","182","743367","0.0-76.0-2.15","1983","4956","8","Male","true","false","false","true","""event"",""trial"",""time""
""fullscreenenter"",""5"",""19233""
""fullscreenexit"",""34"",""185238""
","
","
","""event"",""trial"",""time""
""fullscreenenter"",""5"",""19233""
","""event"",""trial"",""time""
""fullscreenexit"",""34"",""185238""
","","images/earth.jpg","","","","","","","","","","","","","","fixation","","","","","",""
"d3-animate-choice","183","746037","0.0-76.0-0.16","1983","4956","8","Male","true","false","false","true","""event"",""trial"",""time""
""fullscreenenter"",""5"",""19233""
""fullscreenexit"",""34"",""185238""
","
","
","""event"",""trial"",""time""
""fullscreenenter"",""5"",""19233""
","""event"",""trial"",""time""
""fullscreenexit"",""34"",""185238""
","667","","49","","","3000","1","","","images/earth.jpg","images/rocket2","images/rocket1","null","images/rocket1","","1","real","null","1","","",""
"d3-animate-choice","184","749744","0.0-76.0-1.16","1983","4956","8","Male","true","false","false","true","""event"",""trial"",""time""
""fullscreenenter"",""5"",""19233""
""fullscreenexit"",""34"",""185238""
","
","
","""event"",""trial"",""time""
""fullscreenenter"",""5"",""19233""
","""event"",""trial"",""time""
""fullscreenexit"",""34"",""185238""
","1702.1000000000931","","49","","","3000","1","","","images/redplanet1.jpg","images/alien2","images/alien1","images/rocket1","images/alien1","images/nothing.png","2","real","false","1","rare","0","2022-12-11 02:05:52.779"
"two-step-fixation","185","750750","0.0-76.0-2.16","1983","4956","8","Male","true","false","false","true","""event"",""trial"",""time""
""fullscreenenter"",""5"",""19233""
""fullscreenexit"",""34"",""185238""
","
","
","""event"",""trial"",""time""
""fullscreenenter"",""5"",""19233""
","""event"",""trial"",""time""
""fullscreenexit"",""34"",""185238""
","","images/earth.jpg","","","","","","","","","","","","","","fixation","","","","","",""
"d3-animate-choice","186","753400","0.0-76.0-0.17","1983","4956","8","Male","true","false","false","true","""event"",""trial"",""time""
""fullscreenenter"",""5"",""19233""
""fullscreenexit"",""34"",""185238""
","
","
","""event"",""trial"",""time""
""fullscreenenter"",""5"",""19233""
","""event"",""trial"",""time""
""fullscreenexit"",""34"",""185238""
","646.3000000000466","","49","","","3000","1","","","images/earth.jpg","images/rocket2","images/rocket1","null","images/rocket1","","1","real","null","1","","",""
"d3-animate-choice","187","755783","0.0-76.0-1.17","1983","4956","8","Male","true","false","false","true","""event"",""trial"",""time""
""fullscreenenter"",""5"",""19233""
""fullscreenexit"",""34"",""185238""
","
","
","""event"",""trial"",""time""
""fullscreenenter"",""5"",""19233""
","""event"",""trial"",""time""
""fullscreenexit"",""34"",""185238""
","376.80000000004657","","49","","","3000","1","","","images/purpleplanet.jpg","images/alien4","images/alien3","images/rocket1","images/alien3","images/nothing.png","2","real","true","1","common","0","2022-12-11 02:05:58.818"
"two-step-fixation","188","756788","0.0-76.0-2.17","1983","4956","8","Male","true","false","false","true","""event"",""trial"",""time""
""fullscreenenter"",""5"",""19233""
""fullscreenexit"",""34"",""185238""
","
","
","""event"",""trial"",""time""
""fullscreenenter"",""5"",""19233""
","""event"",""trial"",""time""
""fullscreenexit"",""34"",""185238""
","","images/earth.jpg","","","","","","","","","","","","","","fixation","","","","","",""
"d3-animate-choice","189","759261","0.0-76.0-0.18","1983","4956","8","Male","true","false","false","true","""event"",""trial"",""time""
""fullscreenenter"",""5"",""19233""
""fullscreenexit"",""34"",""185238""
","
","
","""event"",""trial"",""time""
""fullscreenenter"",""5"",""19233""
","""event"",""trial"",""time""
""fullscreenexit"",""34"",""185238""
","468.5","","49","","","3000","1","","","images/earth.jpg","images/rocket2","images/rocket1","null","images/rocket1","","1","real","null","1","","",""
"d3-animate-choice","190","761635","0.0-76.0-1.18","1983","4956","8","Male","true","false","false","true","""event"",""trial"",""time""
""fullscreenenter"",""5"",""19233""
""fullscreenexit"",""34"",""185238""
","
","
","""event"",""trial"",""time""
""fullscreenenter"",""5"",""19233""
","""event"",""trial"",""time""
""fullscreenexit"",""34"",""185238""
","372","","48","","","3000","1","","","images/purpleplanet.jpg","images/alien4","images/alien3","images/rocket1","images/alien4","images/t.png","2","real","true","2","common","1","2022-12-11 02:06:04.670"
"two-step-fixation","191","762639","0.0-76.0-2.18","1983","4956","8","Male","true","false","false","true","""event"",""trial"",""time""
""fullscreenenter"",""5"",""19233""
""fullscreenexit"",""34"",""185238""
","
","
","""event"",""trial"",""time""
""fullscreenenter"",""5"",""19233""
","""event"",""trial"",""time""
""fullscreenexit"",""34"",""185238""
","","images/earth.jpg","","","","","","","","","","","","","","fixation","","","","","",""
"d3-animate-choice","192","765126","0.0-76.0-0.19","1983","4956","8","Male","true","false","false","true","""event"",""trial"",""time""
""fullscreenenter"",""5"",""19233""
""fullscreenexit"",""34"",""185238""
","
","
","""event"",""trial"",""time""
""fullscreenenter"",""5"",""19233""
","""event"",""trial"",""time""
""fullscreenexit"",""34"",""185238""
","483.9000000001397","","48","","","3000","1","","","images/earth.jpg","images/rocket2","images/rocket1","null","images/rocket2","","1","real","null","2","","",""
"d3-animate-choice","193","767881","0.0-76.0-1.19","1983","4956","8","Male","true","false","false","true","""event"",""trial"",""time""
""fullscreenenter"",""5"",""19233""
""fullscreenexit"",""34"",""185238""
","
","
","""event"",""trial"",""time""
""fullscreenenter"",""5"",""19233""
","""event"",""trial"",""time""
""fullscreenexit"",""34"",""185238""
","751.3000000000466","","49","","","3000","1","","","images/redplanet1.jpg","images/alien2","images/alien1","images/rocket2","images/alien1","images/t.png","2","real","true","1","common","1","2022-12-11 02:06:10.916"
"two-step-fixation","194","768885","0.0-76.0-2.19","1983","4956","8","Male","true","false","false","true","""event"",""trial"",""time""
""fullscreenenter"",""5"",""19233""
""fullscreenexit"",""34"",""185238""
","
","
","""event"",""trial"",""time""
""fullscreenenter"",""5"",""19233""
","""event"",""trial"",""time""
""fullscreenexit"",""34"",""185238""
","","images/earth.jpg","","","","","","","","","","","","","","fixation","","","","","",""
"d3-animate-choice","195","771353","0.0-76.0-0.20","1983","4956","8","Male","true","false","false","true","""event"",""trial"",""time""
""fullscreenenter"",""5"",""19233""
""fullscreenexit"",""34"",""185238""
","
","
","""event"",""trial"",""time""
""fullscreenenter"",""5"",""19233""
","""event"",""trial"",""time""
""fullscreenexit"",""34"",""185238""
","463.60000000009313","","48","","","3000","1","","","images/earth.jpg","images/rocket2","images/rocket1","null","images/rocket2","","1","real","null","2","","",""
"d3-animate-choice","196","773954","0.0-76.0-1.20","1983","4956","8","Male","true","false","false","true","""event"",""trial"",""time""
""fullscreenenter"",""5"",""19233""
""fullscreenexit"",""34"",""185238""
","
","
","""event"",""trial"",""time""
""fullscreenenter"",""5"",""19233""
","""event"",""trial"",""time""
""fullscreenexit"",""34"",""185238""
","598.8000000000466","","49","","","3000","1","","","images/purpleplanet.jpg","images/alien4","images/alien3","images/rocket2","images/alien3","images/t.png","2","real","false","1","rare","1","2022-12-11 02:06:16.989"
"two-step-fixation","197","774958","0.0-76.0-2.20","1983","4956","8","Male","true","false","false","true","""event"",""trial"",""time""
""fullscreenenter"",""5"",""19233""
""fullscreenexit"",""34"",""185238""
","
","
","""event"",""trial"",""time""
""fullscreenenter"",""5"",""19233""
","""event"",""trial"",""time""
""fullscreenexit"",""34"",""185238""
","","images/earth.jpg","","","","","","","","","","","","","","fixation","","","","","",""
"d3-animate-choice","198","777168","0.0-76.0-0.21","1983","4956","8","Male","true","false","false","true","""event"",""trial"",""time""
""fullscreenenter"",""5"",""19233""
""fullscreenexit"",""34"",""185238""
","
","
","""event"",""trial"",""time""
""fullscreenenter"",""5"",""19233""
","""event"",""trial"",""time""
""fullscreenexit"",""34"",""185238""
","206.30000000004657","","48","","","3000","1","","","images/earth.jpg","images/rocket2","images/rocket1","null","images/rocket2","","1","real","null","2","","",""
"d3-animate-choice","199","779764","0.0-76.0-1.21","1983","4956","8","Male","true","false","false","true","""event"",""trial"",""time""
""fullscreenenter"",""5"",""19233""
""fullscreenexit"",""34"",""185238""
","
","
","""event"",""trial"",""time""
""fullscreenenter"",""5"",""19233""
","""event"",""trial"",""time""
""fullscreenexit"",""34"",""185238""
","589.4000000001397","","49","","","3000","1","","","images/purpleplanet.jpg","images/alien4","images/alien3","images/rocket2","images/alien3","images/t.png","2","real","false","1","rare","1","2022-12-11 02:06:22.799"
"two-step-fixation","200","780768","0.0-76.0-2.21","1983","4956","8","Male","true","false","false","true","""event"",""trial"",""time""
""fullscreenenter"",""5"",""19233""
""fullscreenexit"",""34"",""185238""
","
","
","""event"",""trial"",""time""
""fullscreenenter"",""5"",""19233""
","""event"",""trial"",""time""
""fullscreenexit"",""34"",""185238""
","","images/earth.jpg","","","","","","","","","","","","","","fixation","","","","","",""
"d3-animate-choice","201","783341","0.0-76.0-0.22","1983","4956","8","Male","true","false","false","true","""event"",""trial"",""time""
""fullscreenenter"",""5"",""19233""
""fullscreenexit"",""34"",""185238""
","
","
","""event"",""trial"",""time""
""fullscreenenter"",""5"",""19233""
","""event"",""trial"",""time""
""fullscreenexit"",""34"",""185238""
","569.1999999999534","","48","","","3000","1","","","images/earth.jpg","images/rocket2","images/rocket1","null","images/rocket2","","1","real","null","2","","",""
"d3-animate-choice","202","785842","0.0-76.0-1.22","1983","4956","8","Male","true","false","false","true","""event"",""trial"",""time""
""fullscreenenter"",""5"",""19233""
""fullscreenexit"",""34"",""185238""
","
","
","""event"",""trial"",""time""
""fullscreenenter"",""5"",""19233""
","""event"",""trial"",""time""
""fullscreenexit"",""34"",""185238""
","497.5","","49","","","3000","1","","","images/redplanet1.jpg","images/alien2","images/alien1","images/rocket2","images/alien1","images/t.png","2","real","true","1","common","1","2022-12-11 02:06:28.877"
"two-step-fixation","203","786846","0.0-76.0-2.22","1983","4956","8","Male","true","false","false","true","""event"",""trial"",""time""
""fullscreenenter"",""5"",""19233""
""fullscreenexit"",""34"",""185238""
","
","
","""event"",""trial"",""time""
""fullscreenenter"",""5"",""19233""
","""event"",""trial"",""time""
""fullscreenexit"",""34"",""185238""
","","images/earth.jpg","","","","","","","","","","","","","","fixation","","","","","",""
