"trial_type","trial_index","time_elapsed","internal_node_id","participant_id","subject_id","age","gender","rocket_sides","red_planet_first_rocket","red_display_order","purple_display_order","interactions","blur_events","focus_events","fullscreenenter_events","fullscreenexit_events","rt","stimulus","key_press","button_pressed","success","duration","valid_pressed","rts","keys","planet_text","right_text","left_text","center_text","chosen_text","reward_text","trial_stage","practice_trial","transition_type","choice","transition","reward","timestamp"
"pavlovia","0","15","0.0-0.0","476","3510","12","Male","true","true","false","false","
","
","
","
","
","","","","","","","","","","","","","","","","","","","","","",""
"html-keyboard-response","1","8659","0.0-1.0","476","3510","12","Male","true","true","false","false","
","
","
","
","
","8636.70000000298","Welcome! Press the space bar to begin.","32","","","","","","","","","","","","","","","","","","",""
"audio-keyboard-response","2","10197","0.0-2.0","476","3510","12","Male","true","true","false","false","
","
","
","
","
","1536","audio/beep_loop.wav","32","","","","","","","","","","","","","","","","","","",""
"audio-button-response","3","13706","0.0-3.0","476","3510","12","Male","true","true","false","false","
","
","
","
","
","NaN","audio/fish.mp3","","1","","","","","","","","","","","","","","","","","",""
"audio-button-response","4","16332","0.0-4.0","476","3510","12","Male","true","true","false","false","""event"",""trial"",""time""
""fullscreenenter"",""5"",""20242""
","
","
","""event"",""trial"",""time""
""fullscreenenter"",""5"",""20242""
","
","NaN","audio/tiger.mp3","","4","","","","","","","","","","","","","","","","","",""
"fullscreen","5","21226","0.0-5.0","476","3510","12","Male","true","true","false","false","""event"",""trial"",""time""
""fullscreenenter"",""5"",""20242""
","
","
","""event"",""trial"",""time""
""fullscreenenter"",""5"",""20242""
","
","","","","","true","","","","","","","","","","","","","","","","",""
"d3-instructions","6","30763","0.0-6.0","476","3510","12","Male","true","true","false","false","""event"",""trial"",""time""
""fullscreenenter"",""5"",""20242""
","
","
","""event"",""trial"",""time""
""fullscreenenter"",""5"",""20242""
","
","","","","","","","","","","","","","","","","","","","","","",""
"d3-instructions","7","35838","0.0-7.0","476","3510","12","Male","true","true","false","false","""event"",""trial"",""time""
""fullscreenenter"",""5"",""20242""
","
","
","""event"",""trial"",""time""
""fullscreenenter"",""5"",""20242""
","
","","","","","","","","","","","","","","","","","","","","","",""
"d3-instructions","8","41658","0.0-8.0","476","3510","12","Male","true","true","false","false","""event"",""trial"",""time""
""fullscreenenter"",""5"",""20242""
","
","
","""event"",""trial"",""time""
""fullscreenenter"",""5"",""20242""
","
","","","","","","","","","","","","","","","","","","","","","",""
"d3-instructions","9","47994","0.0-9.0","476","3510","12","Male","true","true","false","false","""event"",""trial"",""time""
""fullscreenenter"",""5"",""20242""
","
","
","""event"",""trial"",""time""
""fullscreenenter"",""5"",""20242""
","
","","","","","","","","","","","","","","","","","","","","","",""
"d3-instructions","10","61808","0.0-10.0","476","3510","12","Male","true","true","false","false","""event"",""trial"",""time""
""fullscreenenter"",""5"",""20242""
","
","
","""event"",""trial"",""time""
""fullscreenenter"",""5"",""20242""
","
","","","","","","","","","","","","","","","","","","","","","",""
"d3-animate-choice","11","64349","0.0-11.0","476","3510","12","Male","true","true","false","false","""event"",""trial"",""time""
""fullscreenenter"",""5"",""20242""
","
","
","""event"",""trial"",""time""
""fullscreenenter"",""5"",""20242""
","
","520","","49","","","3000","1","2532.5","48","images/tutgreenplanet.jpg","images/tutalien1","images/tutalien2","null","images/tutalien2","","NA","practice","null","","","",""
"d3-animate-choice","12","67200","0.0-12.0","476","3510","12","Male","true","true","false","false","""event"",""trial"",""time""
""fullscreenenter"",""5"",""20242""
","
","
","""event"",""trial"",""time""
""fullscreenenter"",""5"",""20242""
","
","838.5","","48","","","3000","1","","","images/tutgreenplanet.jpg","images/tutalien1","images/tutalien2","null","images/tutalien1","","NA","practice","null","","","",""
"d3-animate-choice","13","69609","0.0-13.0","476","3510","12","Male","true","true","false","false","""event"",""trial"",""time""
""fullscreenenter"",""5"",""20242""
","
","
","""event"",""trial"",""time""
""fullscreenenter"",""5"",""20242""
","
","391.8999999985099","","48","","","3000","1","436.3999999985099","80","images/tutgreenplanet.jpg","images/tutalien1","images/tutalien2","null","images/tutalien1","","NA","practice","null","","","",""
"d3-animate-choice","14","71741","0.0-14.0","476","3510","12","Male","true","true","false","false","""event"",""trial"",""time""
""fullscreenenter"",""5"",""20242""
","
","
","""event"",""trial"",""time""
""fullscreenenter"",""5"",""20242""
","
","116.29999999701977","","48","","","3000","1","","","images/tutgreenplanet.jpg","images/tutalien1","images/tutalien2","null","images/tutalien1","","NA","practice","null","","","",""
"d3-instructions","15","77481","0.0-15.0","476","3510","12","Male","true","true","false","false","""event"",""trial"",""time""
""fullscreenenter"",""5"",""20242""
","
","
","""event"",""trial"",""time""
""fullscreenenter"",""5"",""20242""
","
","","","","","","","","","","","","","","","","","","","","","",""
"d3-instructions","16","84681","0.0-16.0","476","3510","12","Male","true","true","false","false","""event"",""trial"",""time""
""fullscreenenter"",""5"",""20242""
","
","
","""event"",""trial"",""time""
""fullscreenenter"",""5"",""20242""
","
","","","","","","","","","","","","","","","","","","","","","",""
"d3-instructions","17","87473","0.0-17.0","476","3510","12","Male","true","true","false","false","""event"",""trial"",""time""
""fullscreenenter"",""5"",""20242""
","
","
","""event"",""trial"",""time""
""fullscreenenter"",""5"",""20242""
","
","","","","","","","","","","","","","","","","","","","","","",""
"d3-instructions","18","94061","0.0-18.0","476","3510","12","Male","true","true","false","false","""event"",""trial"",""time""
""fullscreenenter"",""5"",""20242""
","
","
","""event"",""trial"",""time""
""fullscreenenter"",""5"",""20242""
","
","","","","","","","","","","","","","","","","","","","","","",""
"d3-instructions","19","100446","0.0-19.0","476","3510","12","Male","true","true","false","false","""event"",""trial"",""time""
""fullscreenenter"",""5"",""20242""
","
","
","""event"",""trial"",""time""
""fullscreenenter"",""5"",""20242""
","
","","","","","","","","","","","","","","","","","","","","","",""
"d3-animate-choice","20","103417","0.0-20.0","476","3510","12","Male","true","true","false","false","""event"",""trial"",""time""
""fullscreenenter"",""5"",""20242""
","
","
","""event"",""trial"",""time""
""fullscreenenter"",""5"",""20242""
","
","959.5","","49","","","3000","1","","","images/tutyellowplanet.jpg","null","images/tutalien3","null","images/tutalien3","images/t.png","NA","practice","null","","","",""
"d3-animate-choice","21","105731","0.0-21.0","476","3510","12","Male","true","true","false","false","""event"",""trial"",""time""
""fullscreenenter"",""5"",""20242""
","
","
","""event"",""trial"",""time""
""fullscreenenter"",""5"",""20242""
","
","300.6000000014901","","49","","","3000","1","1745.5","49","images/tutyellowplanet.jpg","null","images/tutalien3","null","images/tutalien3","images/nothing.png","NA","practice","null","","","",""
"d3-animate-choice","22","108017","0.0-22.0","476","3510","12","Male","true","true","false","false","""event"",""trial"",""time""
""fullscreenenter"",""5"",""20242""
","
","
","""event"",""trial"",""time""
""fullscreenenter"",""5"",""20242""
","
","272","","49","","","3000","1","1680.2000000029802","49","images/tutyellowplanet.jpg","null","images/tutalien3","null","images/tutalien3","images/t.png","NA","practice","null","","","",""
"d3-animate-choice","23","110201","0.0-23.0","476","3510","12","Male","true","true","false","false","""event"",""trial"",""time""
""fullscreenenter"",""5"",""20242""
","
","
","""event"",""trial"",""time""
""fullscreenenter"",""5"",""20242""
","
","170.5","","49","","","3000","1","","","images/tutyellowplanet.jpg","null","images/tutalien3","null","images/tutalien3","images/t.png","NA","practice","null","","","",""
"d3-animate-choice","24","112483","0.0-24.0","476","3510","12","Male","true","true","false","false","""event"",""trial"",""time""
""fullscreenenter"",""5"",""20242""
","
","
","""event"",""trial"",""time""
""fullscreenenter"",""5"",""20242""
","
","271.3999999985099","","49","","","3000","1","","","images/tutyellowplanet.jpg","null","images/tutalien3","null","images/tutalien3","images/t.png","NA","practice","null","","","",""
"d3-animate-choice","25","114758","0.0-25.0","476","3510","12","Male","true","true","false","false","""event"",""trial"",""time""
""fullscreenenter"",""5"",""20242""
","
","
","""event"",""trial"",""time""
""fullscreenenter"",""5"",""20242""
","
","264","","49","","","3000","1","","","images/tutyellowplanet.jpg","null","images/tutalien3","null","images/tutalien3","images/t.png","NA","practice","null","","","",""
"d3-animate-choice","26","117038","0.0-26.0","476","3510","12","Male","true","true","false","false","""event"",""trial"",""time""
""fullscreenenter"",""5"",""20242""
","
","
","""event"",""trial"",""time""
""fullscreenenter"",""5"",""20242""
","
","264","","49","","","3000","1","","","images/tutyellowplanet.jpg","null","images/tutalien3","null","images/tutalien3","images/nothing.png","NA","practice","null","","","",""
"d3-animate-choice","27","119351","0.0-27.0","476","3510","12","Male","true","true","false","false","""event"",""trial"",""time""
""fullscreenenter"",""5"",""20242""
","
","
","""event"",""trial"",""time""
""fullscreenenter"",""5"",""20242""
","
","296.5","","49","","","3000","1","","","images/tutyellowplanet.jpg","null","images/tutalien3","null","images/tutalien3","images/nothing.png","NA","practice","null","","","",""
"d3-animate-choice","28","121700","0.0-28.0","476","3510","12","Male","true","true","false","false","""event"",""trial"",""time""
""fullscreenenter"",""5"",""20242""
","
","
","""event"",""trial"",""time""
""fullscreenenter"",""5"",""20242""
","
","334.19999999552965","","49","","","3000","1","","","images/tutyellowplanet.jpg","null","images/tutalien3","null","images/tutalien3","images/t.png","NA","practice","null","","","",""
"d3-animate-choice","29","124136","0.0-29.0","476","3510","12","Male","true","true","false","false","""event"",""trial"",""time""
""fullscreenenter"",""5"",""20242""
","
","
","""event"",""trial"",""time""
""fullscreenenter"",""5"",""20242""
","
","424.6000000014901","","49","","","3000","1","","","images/tutyellowplanet.jpg","null","images/tutalien3","null","images/tutalien3","images/t.png","NA","practice","null","","","",""
"d3-instructions","30","127190","0.0-30.0","476","3510","12","Male","true","true","false","false","""event"",""trial"",""time""
""fullscreenenter"",""5"",""20242""
","
","
","""event"",""trial"",""time""
""fullscreenenter"",""5"",""20242""
","
","","","","","","","","","","","","","","","","","","","","","",""
"d3-instructions","31","130565","0.0-31.0","476","3510","12","Male","true","true","false","false","""event"",""trial"",""time""
""fullscreenenter"",""5"",""20242""
","
","
","""event"",""trial"",""time""
""fullscreenenter"",""5"",""20242""
","
","","","","","","","","","","","","","","","","","","","","","",""
"d3-instructions","32","135467","0.0-32.0","476","3510","12","Male","true","true","false","false","""event"",""trial"",""time""
""fullscreenenter"",""5"",""20242""
","
","
","""event"",""trial"",""time""
""fullscreenenter"",""5"",""20242""
","
","","","","","","","","","","","","","","","","","","","","","",""
"d3-instructions","33","137902","0.0-33.0","476","3510","12","Male","true","true","false","false","""event"",""trial"",""time""
""fullscreenenter"",""5"",""20242""
","
","
","""event"",""trial"",""time""
""fullscreenenter"",""5"",""20242""
","
","","","","","","","","","","","","","","","","","","","","","",""
"d3-animate-choice","34","141095","0.0-34.0","476","3510","12","Male","true","true","false","false","""event"",""trial"",""time""
""fullscreenenter"",""5"",""20242""
","
","
","""event"",""trial"",""time""
""fullscreenenter"",""5"",""20242""
","
","1179.2999999970198","","49","","","3000","1","1545.7999999970198","49","images/tutgreenplanet.jpg","images/tutalien1","images/tutalien2","null","images/tutalien2","images/t.png","NA","practice","null","","","",""
"d3-animate-choice","35","143406","0.0-35.0","476","3510","12","Male","true","true","false","false","""event"",""trial"",""time""
""fullscreenenter"",""5"",""20242""
","
","
","""event"",""trial"",""time""
""fullscreenenter"",""5"",""20242""
","
","297.80000000447035","","48","","","3000","1","","","images/tutgreenplanet.jpg","images/tutalien1","images/tutalien2","null","images/tutalien1","images/nothing.png","NA","practice","null","","","",""
"d3-animate-choice","36","145714","0.0-36.0","476","3510","12","Male","true","true","false","false","""event"",""trial"",""time""
""fullscreenenter"",""5"",""20242""
","
","
","""event"",""trial"",""time""
""fullscreenenter"",""5"",""20242""
","
","295.1000000014901","","49","","","3000","1","","","images/tutgreenplanet.jpg","images/tutalien1","images/tutalien2","null","images/tutalien2","images/t.png","NA","practice","null","","","",""
"d3-animate-choice","37","147993","0.0-37.0","476","3510","12","Male","true","true","false","false","""event"",""trial"",""time""
""fullscreenenter"",""5"",""20242""
","
","
","""event"",""trial"",""time""
""fullscreenenter"",""5"",""20242""
","
","263.1000000014901","","48","","","3000","1","","","images/tutgreenplanet.jpg","images/tutalien1","images/tutalien2","null","images/tutalien1","images/nothing.png","NA","practice","null","","","",""
"d3-animate-choice","38","150060","0.0-38.0","476","3510","12","Male","true","true","false","false","""event"",""trial"",""time""
""fullscreenenter"",""5"",""20242""
","
","
","""event"",""trial"",""time""
""fullscreenenter"",""5"",""20242""
","
","49.899999998509884","","49","","","3000","1","1771.6999999955297","49","images/tutgreenplanet.jpg","images/tutalien1","images/tutalien2","null","images/tutalien2","images/t.png","NA","practice","null","","","",""
"d3-animate-choice","39","152071","0.0-39.0","476","3510","12","Male","true","true","false","false","""event"",""trial"",""time""
""fullscreenenter"",""5"",""20242""
","
","
","""event"",""trial"",""time""
""fullscreenenter"",""5"",""20242""
","
","0.30000000447034836","","49","","","3000","1","","","images/tutgreenplanet.jpg","images/tutalien1","images/tutalien2","null","images/tutalien2","images/t.png","NA","practice","null","","","",""
"d3-animate-choice","40","154291","0.0-40.0","476","3510","12","Male","true","true","false","false","""event"",""trial"",""time""
""fullscreenenter"",""5"",""20242""
","
","
","""event"",""trial"",""time""
""fullscreenenter"",""5"",""20242""
","
","204.89999999850988","","49","","","3000","1","2199.89999999851","49","images/tutgreenplanet.jpg","images/tutalien1","images/tutalien2","null","images/tutalien2","images/t.png","NA","practice","null","","","",""
"d3-animate-choice","41","157002","0.0-41.0","476","3510","12","Male","true","true","false","false","""event"",""trial"",""time""
""fullscreenenter"",""5"",""20242""
","
","
","""event"",""trial"",""time""
""fullscreenenter"",""5"",""20242""
","
","697.5999999940395","","49","","","3000","1","","","images/tutgreenplanet.jpg","images/tutalien1","images/tutalien2","null","images/tutalien2","images/t.png","NA","practice","null","","","",""
"d3-animate-choice","42","159088","0.0-42.0","476","3510","12","Male","true","true","false","false","""event"",""trial"",""time""
""fullscreenenter"",""5"",""20242""
","
","
","""event"",""trial"",""time""
""fullscreenenter"",""5"",""20242""
","
","72.39999999850988","","49","","","3000","1","","","images/tutgreenplanet.jpg","images/tutalien1","images/tutalien2","null","images/tutalien2","images/t.png","NA","practice","null","","","",""
"d3-animate-choice","43","161411","0.0-43.0","476","3510","12","Male","true","true","false","false","""event"",""trial"",""time""
""fullscreenenter"",""5"",""20242""
","
","
","""event"",""trial"",""time""
""fullscreenenter"",""5"",""20242""
","
","307.6000000014901","","49","","","3000","1","","","images/tutgreenplanet.jpg","images/tutalien1","images/tutalien2","null","images/tutalien2","images/nothing.png","NA","practice","null","","","",""
"d3-instructions","44","174961","0.0-44.0","476","3510","12","Male","true","true","false","false","""event"",""trial"",""time""
""fullscreenenter"",""5"",""20242""
","
","
","""event"",""trial"",""time""
""fullscreenenter"",""5"",""20242""
","
","","","","","","","","","","","","","","","","","","","","","",""
"d3-instructions","45","177185","0.0-45.0","476","3510","12","Male","true","true","false","false","""event"",""trial"",""time""
""fullscreenenter"",""5"",""20242""
","
","
","""event"",""trial"",""time""
""fullscreenenter"",""5"",""20242""
","
","","","","","","","","","","","","","","","","","","","","","",""
"d3-instructions","46","180729","0.0-46.0","476","3510","12","Male","true","true","false","false","""event"",""trial"",""time""
""fullscreenenter"",""5"",""20242""
","
","
","""event"",""trial"",""time""
""fullscreenenter"",""5"",""20242""
","
","","","","","","","","","","","","","","","","","","","","","",""
"d3-instructions","47","197569","0.0-47.0","476","3510","12","Male","true","true","false","false","""event"",""trial"",""time""
""fullscreenenter"",""5"",""20242""
","
","
","""event"",""trial"",""time""
""fullscreenenter"",""5"",""20242""
","
","","","","","","","","","","","","","","","","","","","","","",""
"d3-instructions","48","200582","0.0-48.0","476","3510","12","Male","true","true","false","false","""event"",""trial"",""time""
""fullscreenenter"",""5"",""20242""
","
","
","""event"",""trial"",""time""
""fullscreenenter"",""5"",""20242""
","
","","","","","","","","","","","","","","","","","","","","","",""
"d3-instructions","49","205947","0.0-49.0","476","3510","12","Male","true","true","false","false","""event"",""trial"",""time""
""fullscreenenter"",""5"",""20242""
","
","
","""event"",""trial"",""time""
""fullscreenenter"",""5"",""20242""
","
","","","","","","","","","","","","","","","","","","","","","",""
"d3-instructions","50","208623","0.0-50.0","476","3510","12","Male","true","true","false","false","""event"",""trial"",""time""
""fullscreenenter"",""5"",""20242""
","
","
","""event"",""trial"",""time""
""fullscreenenter"",""5"",""20242""
","
","","","","","","","","","","","","","","","","","","","","","",""
"d3-instructions","51","210846","0.0-51.0","476","3510","12","Male","true","true","false","false","""event"",""trial"",""time""
""fullscreenenter"",""5"",""20242""
","
","
","""event"",""trial"",""time""
""fullscreenenter"",""5"",""20242""
","
","","","","","","","","","","","","","","","","","","","","","",""
"d3-instructions","52","213104","0.0-52.0","476","3510","12","Male","true","true","false","false","""event"",""trial"",""time""
""fullscreenenter"",""5"",""20242""
","
","
","""event"",""trial"",""time""
""fullscreenenter"",""5"",""20242""
","
","","","","","","","","","","","","","","","","","","","","","",""
"d3-instructions","53","222646","0.0-53.0","476","3510","12","Male","true","true","false","false","""event"",""trial"",""time""
""fullscreenenter"",""5"",""20242""
","
","
","""event"",""trial"",""time""
""fullscreenenter"",""5"",""20242""
","
","","","","","","","","","","","","","","","","","","","","","",""
"d3-instructions","54","232145","0.0-54.0","476","3510","12","Male","true","true","false","false","""event"",""trial"",""time""
""fullscreenenter"",""5"",""20242""
","
","
","""event"",""trial"",""time""
""fullscreenenter"",""5"",""20242""
","
","","","","","","","","","","","","","","","","","","","","","",""
"d3-instructions","55","238629","0.0-55.0","476","3510","12","Male","true","true","false","false","""event"",""trial"",""time""
""fullscreenenter"",""5"",""20242""
","
","
","""event"",""trial"",""time""
""fullscreenenter"",""5"",""20242""
","
","","","","","","","","","","","","","","","","","","","","","",""
"d3-instructions","56","242795","0.0-56.0","476","3510","12","Male","true","true","false","false","""event"",""trial"",""time""
""fullscreenenter"",""5"",""20242""
","
","
","""event"",""trial"",""time""
""fullscreenenter"",""5"",""20242""
","
","","","","","","","","","","","","","","","","","","","","","",""
"d3-instructions","57","246627","0.0-57.0","476","3510","12","Male","true","true","false","false","""event"",""trial"",""time""
""fullscreenenter"",""5"",""20242""
","
","
","""event"",""trial"",""time""
""fullscreenenter"",""5"",""20242""
","
","","","","","","","","","","","","","","","","","","","","","",""
"d3-instructions","58","252696","0.0-58.0","476","3510","12","Male","true","true","false","false","""event"",""trial"",""time""
""fullscreenenter"",""5"",""20242""
","
","
","""event"",""trial"",""time""
""fullscreenenter"",""5"",""20242""
","
","","","","","","","","","","","","","","","","","","","","","",""
"d3-instructions","59","255202","0.0-59.0","476","3510","12","Male","true","true","false","false","""event"",""trial"",""time""
""fullscreenenter"",""5"",""20242""
","
","
","""event"",""trial"",""time""
""fullscreenenter"",""5"",""20242""
","
","","","","","","","","","","","","","","","","","","","","","",""
"d3-instructions","60","258272","0.0-60.0","476","3510","12","Male","true","true","false","false","""event"",""trial"",""time""
""fullscreenenter"",""5"",""20242""
","
","
","""event"",""trial"",""time""
""fullscreenenter"",""5"",""20242""
","
","","","","","","","","","","","","","","","","","","","","","",""
"d3-animate-choice","61","261311","0.0-61.0-0.0","476","3510","12","Male","true","true","false","false","""event"",""trial"",""time""
""fullscreenenter"",""5"",""20242""
","
","
","""event"",""trial"",""time""
""fullscreenenter"",""5"",""20242""
","
","1021.2999999970198","","48","","","3000","1","","","images/earth.jpg","images/tutrocket1","images/tutrocket2","null","images/tutrocket1","","1","practice","null","2","","",""
"d3-animate-choice","62","264622","0.0-61.0-1.0","476","3510","12","Male","true","true","false","false","""event"",""trial"",""time""
""fullscreenenter"",""5"",""20242""
","
","
","""event"",""trial"",""time""
""fullscreenenter"",""5"",""20242""
","
","1282.6999999955297","","49","","","3000","1","","","images/tutgreenplanet.jpg","images/tutalien2","images/tutalien1","images/tutrocket1","images/tutalien1","images/nothing.png","2","practice","true","1","common","0","2022-11-09 00:30:21.727"
"two-step-fixation","63","265638","0.0-61.0-2.0","476","3510","12","Male","true","true","false","false","""event"",""trial"",""time""
""fullscreenenter"",""5"",""20242""
","
","
","""event"",""trial"",""time""
""fullscreenenter"",""5"",""20242""
","
","","images/earth.jpg","","","","","","","","","","","","","","fixation","","","","","",""
"d3-animate-choice","64","268133","0.0-61.0-0.1","476","3510","12","Male","true","true","false","false","""event"",""trial"",""time""
""fullscreenenter"",""5"",""20242""
","
","
","""event"",""trial"",""time""
""fullscreenenter"",""5"",""20242""
","
","480.1000000014901","","49","","","3000","1","","","images/earth.jpg","images/tutrocket1","images/tutrocket2","null","images/tutrocket2","","1","practice","null","1","","",""
"d3-animate-choice","65","270706","0.0-61.0-1.1","476","3510","12","Male","true","true","false","false","""event"",""trial"",""time""
""fullscreenenter"",""5"",""20242""
","
","
","""event"",""trial"",""time""
""fullscreenenter"",""5"",""20242""
","
","557.7000000029802","","48","","","3000","1","","","images/tutyellowplanet.jpg","images/tutalien4","images/tutalien3","images/tutrocket2","images/tutalien4","images/t.png","2","practice","true","2","common","1","2022-11-09 00:30:27.810"
"two-step-fixation","66","271717","0.0-61.0-2.1","476","3510","12","Male","true","true","false","false","""event"",""trial"",""time""
""fullscreenenter"",""5"",""20242""
","
","
","""event"",""trial"",""time""
""fullscreenenter"",""5"",""20242""
","
","","images/earth.jpg","","","","","","","","","","","","","","fixation","","","","","",""
"d3-animate-choice","67","274273","0.0-61.0-0.2","476","3510","12","Male","true","true","false","false","""event"",""trial"",""time""
""fullscreenenter"",""5"",""20242""
","
","
","""event"",""trial"",""time""
""fullscreenenter"",""5"",""20242""
","
","541.3999999985099","","48","","","3000","1","","","images/earth.jpg","images/tutrocket1","images/tutrocket2","null","images/tutrocket1","","1","practice","null","2","","",""
"d3-animate-choice","68","277097","0.0-61.0-1.2","476","3510","12","Male","true","true","false","false","""event"",""trial"",""time""
""fullscreenenter"",""5"",""20242""
","
","
","""event"",""trial"",""time""
""fullscreenenter"",""5"",""20242""
","
","811.4000000059605","","48","","","3000","1","","","images/tutgreenplanet.jpg","images/tutalien2","images/tutalien1","images/tutrocket1","images/tutalien2","images/nothing.png","2","practice","true","2","common","0","2022-11-09 00:30:34.201"
"two-step-fixation","69","278107","0.0-61.0-2.2","476","3510","12","Male","true","true","false","false","""event"",""trial"",""time""
""fullscreenenter"",""5"",""20242""
","
","
","""event"",""trial"",""time""
""fullscreenenter"",""5"",""20242""
","
","","images/earth.jpg","","","","","","","","","","","","","","fixation","","","","","",""
"d3-animate-choice","70","280685","0.0-61.0-0.3","476","3510","12","Male","true","true","false","false","""event"",""trial"",""time""
""fullscreenenter"",""5"",""20242""
","
","
","""event"",""trial"",""time""
""fullscreenenter"",""5"",""20242""
","
","566.5","","49","","","3000","1","","","images/earth.jpg","images/tutrocket1","images/tutrocket2","null","images/tutrocket2","","1","practice","null","1","","",""
"d3-animate-choice","71","283231","0.0-61.0-1.3","476","3510","12","Male","true","true","false","false","""event"",""trial"",""time""
""fullscreenenter"",""5"",""20242""
","
","
","""event"",""trial"",""time""
""fullscreenenter"",""5"",""20242""
","
","529","","49","","","3000","1","","","images/tutyellowplanet.jpg","images/tutalien4","images/tutalien3","images/tutrocket2","images/tutalien3","images/nothing.png","2","practice","true","1","common","0","2022-11-09 00:30:40.334"
"two-step-fixation","72","284240","0.0-61.0-2.3","476","3510","12","Male","true","true","false","false","""event"",""trial"",""time""
""fullscreenenter"",""5"",""20242""
","
","
","""event"",""trial"",""time""
""fullscreenenter"",""5"",""20242""
","
","","images/earth.jpg","","","","","","","","","","","","","","fixation","","","","","",""
"d3-animate-choice","73","286892","0.0-61.0-0.4","476","3510","12","Male","true","true","false","false","""event"",""trial"",""time""
""fullscreenenter"",""5"",""20242""
","
","
","""event"",""trial"",""time""
""fullscreenenter"",""5"",""20242""
","
","637.5","","49","","","3000","1","","","images/earth.jpg","images/tutrocket1","images/tutrocket2","null","images/tutrocket2","","1","practice","null","1","","",""
"d3-animate-choice","74","289627","0.0-61.0-1.4","476","3510","12","Male","true","true","false","false","""event"",""trial"",""time""
""fullscreenenter"",""5"",""20242""
","
","
","""event"",""trial"",""time""
""fullscreenenter"",""5"",""20242""
","
","721.5","","48","","","3000","1","","","images/tutyellowplanet.jpg","images/tutalien4","images/tutalien3","images/tutrocket2","images/tutalien4","images/nothing.png","2","practice","true","2","common","0","2022-11-09 00:30:46.731"
"two-step-fixation","75","290637","0.0-61.0-2.4","476","3510","12","Male","true","true","false","false","""event"",""trial"",""time""
""fullscreenenter"",""5"",""20242""
","
","
","""event"",""trial"",""time""
""fullscreenenter"",""5"",""20242""
","
","","images/earth.jpg","","","","","","","","","","","","","","fixation","","","","","",""
"d3-animate-choice","76","293159","0.0-61.0-0.5","476","3510","12","Male","true","true","false","false","""event"",""trial"",""time""
""fullscreenenter"",""5"",""20242""
","
","
","""event"",""trial"",""time""
""fullscreenenter"",""5"",""20242""
","
","509.5","","48","","","3000","1","","","images/earth.jpg","images/tutrocket1","images/tutrocket2","null","images/tutrocket1","","1","practice","null","2","","",""
"d3-animate-choice","77","295603","0.0-61.0-1.5","476","3510","12","Male","true","true","false","false","""event"",""trial"",""time""
""fullscreenenter"",""5"",""20242""
","
","
","""event"",""trial"",""time""
""fullscreenenter"",""5"",""20242""
","
","431.70000000298023","","49","","","3000","1","","","images/tutgreenplanet.jpg","images/tutalien2","images/tutalien1","images/tutrocket1","images/tutalien1","images/nothing.png","2","practice","true","1","common","0","2022-11-09 00:30:52.706"
"two-step-fixation","78","296612","0.0-61.0-2.5","476","3510","12","Male","true","true","false","false","""event"",""trial"",""time""
""fullscreenenter"",""5"",""20242""
","
","
","""event"",""trial"",""time""
""fullscreenenter"",""5"",""20242""
","
","","images/earth.jpg","","","","","","","","","","","","","","fixation","","","","","",""
"d3-animate-choice","79","299267","0.0-61.0-0.6","476","3510","12","Male","true","true","false","false","""event"",""trial"",""time""
""fullscreenenter"",""5"",""20242""
","
","
","""event"",""trial"",""time""
""fullscreenenter"",""5"",""20242""
","
","636","","49","","","3000","1","","","images/earth.jpg","images/tutrocket1","images/tutrocket2","null","images/tutrocket2","","1","practice","null","1","","",""
"d3-animate-choice","80","301617","0.0-61.0-1.6","476","3510","12","Male","true","true","false","false","""event"",""trial"",""time""
""fullscreenenter"",""5"",""20242""
","
","
","""event"",""trial"",""time""
""fullscreenenter"",""5"",""20242""
","
","337.5","","48","","","3000","1","","","images/tutyellowplanet.jpg","images/tutalien4","images/tutalien3","images/tutrocket2","images/tutalien4","images/t.png","2","practice","true","2","common","1","2022-11-09 00:30:58.721"
"two-step-fixation","81","302627","0.0-61.0-2.6","476","3510","12","Male","true","true","false","false","""event"",""trial"",""time""
""fullscreenenter"",""5"",""20242""
","
","
","""event"",""trial"",""time""
""fullscreenenter"",""5"",""20242""
","
","","images/earth.jpg","","","","","","","","","","","","","","fixation","","","","","",""
"d3-animate-choice","82","304973","0.0-61.0-0.7","476","3510","12","Male","true","true","false","false","""event"",""trial"",""time""
""fullscreenenter"",""5"",""20242""
","
","
","""event"",""trial"",""time""
""fullscreenenter"",""5"",""20242""
","
","324.70000000298023","","49","","","3000","1","","","images/earth.jpg","images/tutrocket1","images/tutrocket2","null","images/tutrocket2","","1","practice","null","1","","",""
"d3-animate-choice","83","307465","0.0-61.0-1.7","476","3510","12","Male","true","true","false","false","""event"",""trial"",""time""
""fullscreenenter"",""5"",""20242""
","
","
","""event"",""trial"",""time""
""fullscreenenter"",""5"",""20242""
","
","476.19999999552965","","48","","","3000","1","","","images/tutyellowplanet.jpg","images/tutalien4","images/tutalien3","images/tutrocket2","images/tutalien4","images/t.png","2","practice","true","2","common","1","2022-11-09 00:31:04.569"
"two-step-fixation","84","308478","0.0-61.0-2.7","476","3510","12","Male","true","true","false","false","""event"",""trial"",""time""
""fullscreenenter"",""5"",""20242""
","
","
","""event"",""trial"",""time""
""fullscreenenter"",""5"",""20242""
","
","","images/earth.jpg","","","","","","","","","","","","","","fixation","","","","","",""
"d3-animate-choice","85","310828","0.0-61.0-0.8","476","3510","12","Male","true","true","false","false","""event"",""trial"",""time""
""fullscreenenter"",""5"",""20242""
","
","
","""event"",""trial"",""time""
""fullscreenenter"",""5"",""20242""
","
","336.69999999552965","","49","","","3000","1","","","images/earth.jpg","images/tutrocket1","images/tutrocket2","null","images/tutrocket2","","1","practice","null","1","","",""
"d3-animate-choice","86","313479","0.0-61.0-1.8","476","3510","12","Male","true","true","false","false","""event"",""trial"",""time""
""fullscreenenter"",""5"",""20242""
","
","
","""event"",""trial"",""time""
""fullscreenenter"",""5"",""20242""
","
","636.8999999985099","","48","","","3000","1","","","images/tutgreenplanet.jpg","images/tutalien2","images/tutalien1","images/tutrocket2","images/tutalien2","images/nothing.png","2","practice","false","2","rare","0","2022-11-09 00:31:10.583"
"two-step-fixation","87","314488","0.0-61.0-2.8","476","3510","12","Male","true","true","false","false","""event"",""trial"",""time""
""fullscreenenter"",""5"",""20242""
","
","
","""event"",""trial"",""time""
""fullscreenenter"",""5"",""20242""
","
","","images/earth.jpg","","","","","","","","","","","","","","fixation","","","","","",""
"d3-animate-choice","88","316855","0.0-61.0-0.9","476","3510","12","Male","true","true","false","false","""event"",""trial"",""time""
""fullscreenenter"",""5"",""20242""
","
","
","""event"",""trial"",""time""
""fullscreenenter"",""5"",""20242""
","
","350.90000000596046","","49","","","3000","1","","","images/earth.jpg","images/tutrocket1","images/tutrocket2","null","images/tutrocket2","","1","practice","null","1","","",""
"d3-animate-choice","89","319192","0.0-61.0-1.9","476","3510","12","Male","true","true","false","false","""event"",""trial"",""time""
""fullscreenenter"",""5"",""20242""
","
","
","""event"",""trial"",""time""
""fullscreenenter"",""5"",""20242""
","
","325.29999999701977","","48","","","3000","1","","","images/tutyellowplanet.jpg","images/tutalien4","images/tutalien3","images/tutrocket2","images/tutalien4","images/t.png","2","practice","true","2","common","1","2022-11-09 00:31:16.296"
"two-step-fixation","90","320204","0.0-61.0-2.9","476","3510","12","Male","true","true","false","false","""event"",""trial"",""time""
""fullscreenenter"",""5"",""20242""
","
","
","""event"",""trial"",""time""
""fullscreenenter"",""5"",""20242""
","
","","images/earth.jpg","","","","","","","","","","","","","","fixation","","","","","",""
"d3-animate-choice","91","322540","0.0-61.0-0.10","476","3510","12","Male","true","true","false","false","""event"",""trial"",""time""
""fullscreenenter"",""5"",""20242""
","
","
","""event"",""trial"",""time""
""fullscreenenter"",""5"",""20242""
","
","320.79999999701977","","49","","","3000","1","","","images/earth.jpg","images/tutrocket1","images/tutrocket2","null","images/tutrocket2","","1","practice","null","1","","",""
"d3-animate-choice","92","325263","0.0-61.0-1.10","476","3510","12","Male","true","true","false","false","""event"",""trial"",""time""
""fullscreenenter"",""5"",""20242""
","
","
","""event"",""trial"",""time""
""fullscreenenter"",""5"",""20242""
","
","710.5","","48","","","3000","1","","","images/tutgreenplanet.jpg","images/tutalien2","images/tutalien1","images/tutrocket2","images/tutalien2","images/nothing.png","2","practice","false","2","rare","0","2022-11-09 00:31:22.366"
"two-step-fixation","93","326271","0.0-61.0-2.10","476","3510","12","Male","true","true","false","false","""event"",""trial"",""time""
""fullscreenenter"",""5"",""20242""
","
","
","""event"",""trial"",""time""
""fullscreenenter"",""5"",""20242""
","
","","images/earth.jpg","","","","","","","","","","","","","","fixation","","","","","",""
"d3-animate-choice","94","328618","0.0-61.0-0.11","476","3510","12","Male","true","true","false","false","""event"",""trial"",""time""
""fullscreenenter"",""5"",""20242""
","
","
","""event"",""trial"",""time""
""fullscreenenter"",""5"",""20242""
","
","332.1000000014901","","49","","","3000","1","","","images/earth.jpg","images/tutrocket1","images/tutrocket2","null","images/tutrocket2","","1","practice","null","1","","",""
"d3-animate-choice","95","330901","0.0-61.0-1.11","476","3510","12","Male","true","true","false","false","""event"",""trial"",""time""
""fullscreenenter"",""5"",""20242""
","
","
","""event"",""trial"",""time""
""fullscreenenter"",""5"",""20242""
","
","269","","48","","","3000","1","","","images/tutyellowplanet.jpg","images/tutalien4","images/tutalien3","images/tutrocket2","images/tutalien4","images/t.png","2","practice","true","2","common","1","2022-11-09 00:31:28.005"
"two-step-fixation","96","331912","0.0-61.0-2.11","476","3510","12","Male","true","true","false","false","""event"",""trial"",""time""
""fullscreenenter"",""5"",""20242""
","
","
","""event"",""trial"",""time""
""fullscreenenter"",""5"",""20242""
","
","","images/earth.jpg","","","","","","","","","","","","","","fixation","","","","","",""
"d3-animate-choice","97","334422","0.0-61.0-0.12","476","3510","12","Male","true","true","false","false","""event"",""trial"",""time""
""fullscreenenter"",""5"",""20242""
","
","
","""event"",""trial"",""time""
""fullscreenenter"",""5"",""20242""
","
","493.1000000014901","","49","","","3000","1","","","images/earth.jpg","images/tutrocket1","images/tutrocket2","null","images/tutrocket2","","1","practice","null","1","","",""
"d3-animate-choice","98","336797","0.0-61.0-1.12","476","3510","12","Male","true","true","false","false","""event"",""trial"",""time""
""fullscreenenter"",""5"",""20242""
","
","
","""event"",""trial"",""time""
""fullscreenenter"",""5"",""20242""
","
","359.5","","48","","","3000","1","","","images/tutyellowplanet.jpg","images/tutalien4","images/tutalien3","images/tutrocket2","images/tutalien4","images/t.png","2","practice","true","2","common","1","2022-11-09 00:31:33.900"
"two-step-fixation","99","337805","0.0-61.0-2.12","476","3510","12","Male","true","true","false","false","""event"",""trial"",""time""
""fullscreenenter"",""5"",""20242""
","
","
","""event"",""trial"",""time""
""fullscreenenter"",""5"",""20242""
","
","","images/earth.jpg","","","","","","","","","","","","","","fixation","","","","","",""
"d3-animate-choice","100","340169","0.0-61.0-0.13","476","3510","12","Male","true","true","false","false","""event"",""trial"",""time""
""fullscreenenter"",""5"",""20242""
","
","
","""event"",""trial"",""time""
""fullscreenenter"",""5"",""20242""
","
","352.1000000014901","","49","","","3000","1","","","images/earth.jpg","images/tutrocket1","images/tutrocket2","null","images/tutrocket2","","1","practice","null","1","","",""
"d3-animate-choice","101","342441","0.0-61.0-1.13","476","3510","12","Male","true","true","false","false","""event"",""trial"",""time""
""fullscreenenter"",""5"",""20242""
","
","
","""event"",""trial"",""time""
""fullscreenenter"",""5"",""20242""
","
","256.70000000298023","","48","","","3000","1","","","images/tutyellowplanet.jpg","images/tutalien4","images/tutalien3","images/tutrocket2","images/tutalien4","images/nothing.png","2","practice","true","2","common","0","2022-11-09 00:31:39.544"
"two-step-fixation","102","343453","0.0-61.0-2.13","476","3510","12","Male","true","true","false","false","""event"",""trial"",""time""
""fullscreenenter"",""5"",""20242""
","
","
","""event"",""trial"",""time""
""fullscreenenter"",""5"",""20242""
","
","","images/earth.jpg","","","","","","","","","","","","","","fixation","","","","","",""
"d3-animate-choice","103","345785","0.0-61.0-0.14","476","3510","12","Male","true","true","false","false","""event"",""trial"",""time""
""fullscreenenter"",""5"",""20242""
","
","
","""event"",""trial"",""time""
""fullscreenenter"",""5"",""20242""
","
","318.20000000298023","","49","","","3000","1","","","images/earth.jpg","images/tutrocket1","images/tutrocket2","null","images/tutrocket2","","1","practice","null","1","","",""
"d3-animate-choice","104","348149","0.0-61.0-1.14","476","3510","12","Male","true","true","false","false","""event"",""trial"",""time""
""fullscreenenter"",""5"",""20242""
","
","
","""event"",""trial"",""time""
""fullscreenenter"",""5"",""20242""
","
","347.80000000447035","","48","","","3000","1","","","images/tutyellowplanet.jpg","images/tutalien4","images/tutalien3","images/tutrocket2","images/tutalien4","images/t.png","2","practice","true","2","common","1","2022-11-09 00:31:45.253"
"two-step-fixation","105","349160","0.0-61.0-2.14","476","3510","12","Male","true","true","false","false","""event"",""trial"",""time""
""fullscreenenter"",""5"",""20242""
","
","
","""event"",""trial"",""time""
""fullscreenenter"",""5"",""20242""
","
","","images/earth.jpg","","","","","","","","","","","","","","fixation","","","","","",""
"d3-animate-choice","106","351488","0.0-61.0-0.15","476","3510","12","Male","true","true","false","false","""event"",""trial"",""time""
""fullscreenenter"",""5"",""20242""
","
","
","""event"",""trial"",""time""
""fullscreenenter"",""5"",""20242""
","
","312.5","","49","","","3000","1","","","images/earth.jpg","images/tutrocket1","images/tutrocket2","null","images/tutrocket2","","1","practice","null","1","","",""
"d3-animate-choice","107","353916","0.0-61.0-1.15","476","3510","12","Male","true","true","false","false","""event"",""trial"",""time""
""fullscreenenter"",""5"",""20242""
","
","
","""event"",""trial"",""time""
""fullscreenenter"",""5"",""20242""
","
","412.79999999701977","","48","","","3000","1","","","images/tutyellowplanet.jpg","images/tutalien4","images/tutalien3","images/tutrocket2","images/tutalien4","images/t.png","2","practice","true","2","common","1","2022-11-09 00:31:51.019"
"two-step-fixation","108","354927","0.0-61.0-2.15","476","3510","12","Male","true","true","false","false","""event"",""trial"",""time""
""fullscreenenter"",""5"",""20242""
","
","
","""event"",""trial"",""time""
""fullscreenenter"",""5"",""20242""
","
","","images/earth.jpg","","","","","","","","","","","","","","fixation","","","","","",""
"d3-animate-choice","109","356942","0.0-61.0-0.16","476","3510","12","Male","true","true","false","false","""event"",""trial"",""time""
""fullscreenenter"",""5"",""20242""
","
","
","""event"",""trial"",""time""
""fullscreenenter"",""5"",""20242""
","
","0.3999999985098839","","49","","","3000","1","","","images/earth.jpg","images/tutrocket1","images/tutrocket2","null","images/tutrocket2","","1","practice","null","1","","",""
"d3-animate-choice","110","359292","0.0-61.0-1.16","476","3510","12","Male","true","true","false","false","""event"",""trial"",""time""
""fullscreenenter"",""5"",""20242""
","
","
","""event"",""trial"",""time""
""fullscreenenter"",""5"",""20242""
","
","335.5","","48","","","3000","1","","","images/tutyellowplanet.jpg","images/tutalien4","images/tutalien3","images/tutrocket2","images/tutalien4","images/t.png","2","practice","true","2","common","1","2022-11-09 00:31:56.396"
"two-step-fixation","111","360305","0.0-61.0-2.16","476","3510","12","Male","true","true","false","false","""event"",""trial"",""time""
""fullscreenenter"",""5"",""20242""
","
","
","""event"",""trial"",""time""
""fullscreenenter"",""5"",""20242""
","
","","images/earth.jpg","","","","","","","","","","","","","","fixation","","","","","",""
"d3-animate-choice","112","362455","0.0-61.0-0.17","476","3510","12","Male","true","true","false","false","""event"",""trial"",""time""
""fullscreenenter"",""5"",""20242""
","
","
","""event"",""trial"",""time""
""fullscreenenter"",""5"",""20242""
","
","133.90000000596046","","49","","","3000","1","","","images/earth.jpg","images/tutrocket1","images/tutrocket2","null","images/tutrocket2","","1","practice","null","1","","",""
"d3-animate-choice","113","364744","0.0-61.0-1.17","476","3510","12","Male","true","true","false","false","""event"",""trial"",""time""
""fullscreenenter"",""5"",""20242""
","
","
","""event"",""trial"",""time""
""fullscreenenter"",""5"",""20242""
","
","272.8999999985099","","48","","","3000","1","","","images/tutyellowplanet.jpg","images/tutalien4","images/tutalien3","images/tutrocket2","images/tutalien4","images/t.png","2","practice","true","2","common","1","2022-11-09 00:32:01.847"
"two-step-fixation","114","365750","0.0-61.0-2.17","476","3510","12","Male","true","true","false","false","""event"",""trial"",""time""
""fullscreenenter"",""5"",""20242""
","
","
","""event"",""trial"",""time""
""fullscreenenter"",""5"",""20242""
","
","","images/earth.jpg","","","","","","","","","","","","","","fixation","","","","","",""
"d3-animate-choice","115","367802","0.0-61.0-0.18","476","3510","12","Male","true","true","false","false","""event"",""trial"",""time""
""fullscreenenter"",""5"",""20242""
","
","
","""event"",""trial"",""time""
""fullscreenenter"",""5"",""20242""
","
","39.69999999552965","","49","","","3000","1","","","images/earth.jpg","images/tutrocket1","images/tutrocket2","null","images/tutrocket2","","1","practice","null","1","","",""
"d3-animate-choice","116","370138","0.0-61.0-1.18","476","3510","12","Male","true","true","false","false","""event"",""trial"",""time""
""fullscreenenter"",""5"",""20242""
","
","
","""event"",""trial"",""time""
""fullscreenenter"",""5"",""20242""
","
","322.90000000596046","","48","","","3000","1","","","images/tutgreenplanet.jpg","images/tutalien2","images/tutalien1","images/tutrocket2","images/tutalien2","images/nothing.png","2","practice","false","2","rare","0","2022-11-09 00:32:07.241"
"two-step-fixation","117","371149","0.0-61.0-2.18","476","3510","12","Male","true","true","false","false","""event"",""trial"",""time""
""fullscreenenter"",""5"",""20242""
","
","
","""event"",""trial"",""time""
""fullscreenenter"",""5"",""20242""
","
","","images/earth.jpg","","","","","","","","","","","","","","fixation","","","","","",""
"d3-animate-choice","118","373812","0.0-61.0-0.19","476","3510","12","Male","true","true","false","false","""event"",""trial"",""time""
""fullscreenenter"",""5"",""20242""
","
","
","""event"",""trial"",""time""
""fullscreenenter"",""5"",""20242""
","
","645.0999999940395","","49","","","3000","1","","","images/earth.jpg","images/tutrocket1","images/tutrocket2","null","images/tutrocket2","","1","practice","null","1","","",""
"d3-animate-choice","119","376168","0.0-61.0-1.19","476","3510","12","Male","true","true","false","false","""event"",""trial"",""time""
""fullscreenenter"",""5"",""20242""
","
","
","""event"",""trial"",""time""
""fullscreenenter"",""5"",""20242""
","
","337.69999999552965","","48","","","3000","1","","","images/tutyellowplanet.jpg","images/tutalien4","images/tutalien3","images/tutrocket2","images/tutalien4","images/t.png","2","practice","true","2","common","1","2022-11-09 00:32:13.271"
"two-step-fixation","120","377178","0.0-61.0-2.19","476","3510","12","Male","true","true","false","false","""event"",""trial"",""time""
""fullscreenenter"",""5"",""20242""
","
","
","""event"",""trial"",""time""
""fullscreenenter"",""5"",""20242""
","
","","images/earth.jpg","","","","","","","","","","","","","","fixation","","","","","",""
"d3-instructions","121","380307","0.0-62.0","476","3510","12","Male","true","true","false","false","""event"",""trial"",""time""
""fullscreenenter"",""5"",""20242""
","
","
","""event"",""trial"",""time""
""fullscreenenter"",""5"",""20242""
","
","","","","","","","","","","","","","","","","","","","","","",""
"audio-keyboard-response","122","380327","0.0-63.0","476","3510","12","Male","true","true","false","false","""event"",""trial"",""time""
""fullscreenenter"",""5"",""20242""
","
","
","""event"",""trial"",""time""
""fullscreenenter"",""5"",""20242""
","
","21","audio/instructions/treasure_feedback.wav","32","","","","","","","","","","","","","","","","","","",""
"d3-instructions","123","390525","0.0-64.0","476","3510","12","Male","true","true","false","false","""event"",""trial"",""time""
""fullscreenenter"",""5"",""20242""
","
","
","""event"",""trial"",""time""
""fullscreenenter"",""5"",""20242""
","
","","","","","","","","","","","","","","","","","","","","","",""
"d3-instructions","124","396263","0.0-65.0","476","3510","12","Male","true","true","false","false","""event"",""trial"",""time""
""fullscreenenter"",""5"",""20242""
","
","
","""event"",""trial"",""time""
""fullscreenenter"",""5"",""20242""
","
","","","","","","","","","","","","","","","","","","","","","",""
"d3-instructions","125","413733","0.0-66.0","476","3510","12","Male","true","true","false","false","""event"",""trial"",""time""
""fullscreenenter"",""5"",""20242""
","
","
","""event"",""trial"",""time""
""fullscreenenter"",""5"",""20242""
","
","","","","","","","","","","","","","","","","","","","","","",""
"d3-instructions","126","421583","0.0-67.0","476","3510","12","Male","true","true","false","false","""event"",""trial"",""time""
""fullscreenenter"",""5"",""20242""
","
","
","""event"",""trial"",""time""
""fullscreenenter"",""5"",""20242""
","
","","","","","","","","","","","","","","","","","","","","","",""
"d3-instructions","127","424525","0.0-68.0","476","3510","12","Male","true","true","false","false","""event"",""trial"",""time""
""fullscreenenter"",""5"",""20242""
","
","
","""event"",""trial"",""time""
""fullscreenenter"",""5"",""20242""
","
","","","","","","","","","","","","","","","","","","","","","",""
"instructions-quiz","128","427667","0.0-69.0","476","3510","12","Male","true","true","false","false","""event"",""trial"",""time""
""fullscreenenter"",""5"",""20242""
","
","
","""event"",""trial"",""time""
""fullscreenenter"",""5"",""20242""
","
","3129.8000000044703","audio/quiz/Q1_Prompt.wav","","1","","","","","","","","","","","","","","","","","",""
"audio-keyboard-response","129","428917","0.0-70.0","476","3510","12","Male","true","true","false","false","""event"",""trial"",""time""
""fullscreenenter"",""5"",""20242""
","
","
","""event"",""trial"",""time""
""fullscreenenter"",""5"",""20242""
","
","1237","audio/quiz/Q1_Correct.wav","32","","","","","","","","","","","","","","","","","","",""
"instructions-quiz","130","431983","0.0-71.0","476","3510","12","Male","true","true","false","false","""event"",""trial"",""time""
""fullscreenenter"",""5"",""20242""
","
","
","""event"",""trial"",""time""
""fullscreenenter"",""5"",""20242""
","
","3057.39999999851","audio/quiz/Q2_Prompt.wav","","0","","","","","","","","","","","","","","","","","",""
"audio-keyboard-response","131","432221","0.0-72.0","476","3510","12","Male","true","true","false","false","""event"",""trial"",""time""
""fullscreenenter"",""5"",""20242""
","
","
","""event"",""trial"",""time""
""fullscreenenter"",""5"",""20242""
","
","235","audio/quiz/Q2_Correct.wav","32","","","","","","","","","","","","","","","","","","",""
"instructions-quiz","132","435824","0.0-73.0","476","3510","12","Male","true","true","false","false","""event"",""trial"",""time""
""fullscreenenter"",""5"",""20242""
","
","
","""event"",""trial"",""time""
""fullscreenenter"",""5"",""20242""
","
","3595.7000000029802","audio/quiz/Q3_Prompt.wav","","1","","","","","","","","","","","","","","","","","",""
"audio-keyboard-response","133","436426","0.0-74.0","476","3510","12","Male","true","true","false","false","""event"",""trial"",""time""
""fullscreenenter"",""5"",""20242""
","
","
","""event"",""trial"",""time""
""fullscreenenter"",""5"",""20242""
","
","587","audio/quiz/Q3_Correct.wav","32","","","","","","","","","","","","","","","","","","",""
"d3-instructions","134","451422","0.0-75.0","476","3510","12","Male","true","true","false","false","""event"",""trial"",""time""
""fullscreenenter"",""5"",""20242""
","
","
","""event"",""trial"",""time""
""fullscreenenter"",""5"",""20242""
","
","","","","","","","","","","","","","","","","","","","","","",""
"d3-animate-choice","135","454168","0.0-76.0-0.0","476","3510","12","Male","true","true","false","false","""event"",""trial"",""time""
""fullscreenenter"",""5"",""20242""
","
","
","""event"",""trial"",""time""
""fullscreenenter"",""5"",""20242""
","
","734.1000000014901","","49","","","3000","1","","","images/earth.jpg","images/rocket2","images/rocket1","null","images/rocket1","","1","real","null","1","","",""
"d3-animate-choice","136","456916","0.0-76.0-1.0","476","3510","12","Male","true","true","false","false","""event"",""trial"",""time""
""fullscreenenter"",""5"",""20242""
","
","
","""event"",""trial"",""time""
""fullscreenenter"",""5"",""20242""
","
","726.3999999985099","","48","","","3000","1","","","images/redplanet1.jpg","images/alien2","images/alien1","images/rocket1","images/alien2","images/nothing.png","2","real","true","2","common","0","2022-11-09 00:33:34.020"
"two-step-fixation","137","457930","0.0-76.0-2.0","476","3510","12","Male","true","true","false","false","""event"",""trial"",""time""
""fullscreenenter"",""5"",""20242""
","
","
","""event"",""trial"",""time""
""fullscreenenter"",""5"",""20242""
","
","","images/earth.jpg","","","","","","","","","","","","","","fixation","","","","","",""
"d3-animate-choice","138","460236","0.0-76.0-0.1","476","3510","12","Male","true","true","false","false","""event"",""trial"",""time""
""fullscreenenter"",""5"",""20242""
","
","
","""event"",""trial"",""time""
""fullscreenenter"",""5"",""20242""
","
","290.6000000014901","","48","","","3000","1","","","images/earth.jpg","images/rocket2","images/rocket1","null","images/rocket2","","1","real","null","2","","",""
"d3-animate-choice","139","463053","0.0-76.0-1.1","476","3510","12","Male","true","true","false","false","""event"",""trial"",""time""
""fullscreenenter"",""5"",""20242""
","
","
","""event"",""trial"",""time""
""fullscreenenter"",""5"",""20242""
","
","802.3000000044703","","48","","","3000","1","","","images/purpleplanet.jpg","images/alien4","images/alien3","images/rocket2","images/alien4","images/t.png","2","real","true","2","common","1","2022-11-09 00:33:40.156"
"two-step-fixation","140","464063","0.0-76.0-2.1","476","3510","12","Male","true","true","false","false","""event"",""trial"",""time""
""fullscreenenter"",""5"",""20242""
","
","
","""event"",""trial"",""time""
""fullscreenenter"",""5"",""20242""
","
","","images/earth.jpg","","","","","","","","","","","","","","fixation","","","","","",""
"d3-animate-choice","141","466410","0.0-76.0-0.2","476","3510","12","Male","true","true","false","false","""event"",""trial"",""time""
""fullscreenenter"",""5"",""20242""
","
","
","""event"",""trial"",""time""
""fullscreenenter"",""5"",""20242""
","
","331.6000000014901","","49","","","3000","1","","","images/earth.jpg","images/rocket2","images/rocket1","null","images/rocket1","","1","real","null","1","","",""
"d3-animate-choice","142","468729","0.0-76.0-1.2","476","3510","12","Male","true","true","false","false","""event"",""trial"",""time""
""fullscreenenter"",""5"",""20242""
","
","
","""event"",""trial"",""time""
""fullscreenenter"",""5"",""20242""
","
","301.90000000596046","","49","","","3000","1","","","images/redplanet1.jpg","images/alien2","images/alien1","images/rocket1","images/alien1","images/nothing.png","2","real","true","1","common","0","2022-11-09 00:33:45.832"
"two-step-fixation","143","469741","0.0-76.0-2.2","476","3510","12","Male","true","true","false","false","""event"",""trial"",""time""
""fullscreenenter"",""5"",""20242""
","
","
","""event"",""trial"",""time""
""fullscreenenter"",""5"",""20242""
","
","","images/earth.jpg","","","","","","","","","","","","","","fixation","","","","","",""
"d3-animate-choice","144","472155","0.0-76.0-0.3","476","3510","12","Male","true","true","false","false","""event"",""trial"",""time""
""fullscreenenter"",""5"",""20242""
","
","
","""event"",""trial"",""time""
""fullscreenenter"",""5"",""20242""
","
","397.29999999701977","","48","","","3000","1","","","images/earth.jpg","images/rocket2","images/rocket1","null","images/rocket2","","1","real","null","2","","",""
"d3-animate-choice","145","474446","0.0-76.0-1.3","476","3510","12","Male","true","true","false","false","""event"",""trial"",""time""
""fullscreenenter"",""5"",""20242""
","
","
","""event"",""trial"",""time""
""fullscreenenter"",""5"",""20242""
","
","279","","49","","","3000","1","","","images/purpleplanet.jpg","images/alien4","images/alien3","images/rocket2","images/alien3","images/t.png","2","real","true","1","common","1","2022-11-09 00:33:51.550"
"two-step-fixation","146","475457","0.0-76.0-2.3","476","3510","12","Male","true","true","false","false","""event"",""trial"",""time""
""fullscreenenter"",""5"",""20242""
","
","
","""event"",""trial"",""time""
""fullscreenenter"",""5"",""20242""
","
","","images/earth.jpg","","","","","","","","","","","","","","fixation","","","","","",""
"d3-animate-choice","147","477812","0.0-76.0-0.4","476","3510","12","Male","true","true","false","false","""event"",""trial"",""time""
""fullscreenenter"",""5"",""20242""
","
","
","""event"",""trial"",""time""
""fullscreenenter"",""5"",""20242""
","
","333.40000000596046","","48","","","3000","1","","","images/earth.jpg","images/rocket2","images/rocket1","null","images/rocket2","","1","real","null","2","","",""
"d3-animate-choice","148","480103","0.0-76.0-1.4","476","3510","12","Male","true","true","false","false","""event"",""trial"",""time""
""fullscreenenter"",""5"",""20242""
","
","
","""event"",""trial"",""time""
""fullscreenenter"",""5"",""20242""
","
","274.5","","49","","","3000","1","","","images/purpleplanet.jpg","images/alien4","images/alien3","images/rocket2","images/alien3","images/nothing.png","2","real","true","1","common","0","2022-11-09 00:33:57.206"
"two-step-fixation","149","481112","0.0-76.0-2.4","476","3510","12","Male","true","true","false","false","""event"",""trial"",""time""
""fullscreenenter"",""5"",""20242""
","
","
","""event"",""trial"",""time""
""fullscreenenter"",""5"",""20242""
","
","","images/earth.jpg","","","","","","","","","","","","","","fixation","","","","","",""
"d3-animate-choice","150","483452","0.0-76.0-0.5","476","3510","12","Male","true","true","false","false","""event"",""trial"",""time""
""fullscreenenter"",""5"",""20242""
","
","
","""event"",""trial"",""time""
""fullscreenenter"",""5"",""20242""
","
","324.20000000298023","","49","","","3000","1","","","images/earth.jpg","images/rocket2","images/rocket1","null","images/rocket1","","1","real","null","1","","",""
"d3-animate-choice","151","485927","0.0-76.0-1.5","476","3510","12","Male","true","true","false","false","""event"",""trial"",""time""
""fullscreenenter"",""5"",""20242""
","
","
","""event"",""trial"",""time""
""fullscreenenter"",""5"",""20242""
","
","462.8999999985099","","48","","","3000","1","","","images/redplanet1.jpg","images/alien2","images/alien1","images/rocket1","images/alien2","images/t.png","2","real","true","2","common","1","2022-11-09 00:34:03.031"
"two-step-fixation","152","486941","0.0-76.0-2.5","476","3510","12","Male","true","true","false","false","""event"",""trial"",""time""
""fullscreenenter"",""5"",""20242""
","
","
","""event"",""trial"",""time""
""fullscreenenter"",""5"",""20242""
","
","","images/earth.jpg","","","","","","","","","","","","","","fixation","","","","","",""
"d3-animate-choice","153","489696","0.0-76.0-0.6","476","3510","12","Male","true","true","false","false","""event"",""trial"",""time""
""fullscreenenter"",""5"",""20242""
","
","
","""event"",""trial"",""time""
""fullscreenenter"",""5"",""20242""
","
","737.3999999985099","","48","","","3000","1","","","images/earth.jpg","images/rocket2","images/rocket1","null","images/rocket2","","1","real","null","2","","",""
"d3-animate-choice","154","491943","0.0-76.0-1.6","476","3510","12","Male","true","true","false","false","""event"",""trial"",""time""
""fullscreenenter"",""5"",""20242""
","
","
","""event"",""trial"",""time""
""fullscreenenter"",""5"",""20242""
","
","229.80000000447035","","48","","","3000","1","","","images/purpleplanet.jpg","images/alien4","images/alien3","images/rocket2","images/alien4","images/t.png","2","real","true","2","common","1","2022-11-09 00:34:09.047"
"two-step-fixation","155","492957","0.0-76.0-2.6","476","3510","12","Male","true","true","false","false","""event"",""trial"",""time""
""fullscreenenter"",""5"",""20242""
","
","
","""event"",""trial"",""time""
""fullscreenenter"",""5"",""20242""
","
","","images/earth.jpg","","","","","","","","","","","","","","fixation","","","","","",""
"d3-animate-choice","156","495331","0.0-76.0-0.7","476","3510","12","Male","true","true","false","false","""event"",""trial"",""time""
""fullscreenenter"",""5"",""20242""
","
","
","""event"",""trial"",""time""
""fullscreenenter"",""5"",""20242""
","
","356.5","","49","","","3000","1","","","images/earth.jpg","images/rocket2","images/rocket1","null","images/rocket1","","1","real","null","1","","",""
"d3-animate-choice","157","497759","0.0-76.0-1.7","476","3510","12","Male","true","true","false","false","""event"",""trial"",""time""
""fullscreenenter"",""5"",""20242""
","
","
","""event"",""trial"",""time""
""fullscreenenter"",""5"",""20242""
","
","410.70000000298023","","48","","","3000","1","","","images/redplanet1.jpg","images/alien2","images/alien1","images/rocket1","images/alien2","images/t.png","2","real","true","2","common","1","2022-11-09 00:34:14.863"
"two-step-fixation","158","498773","0.0-76.0-2.7","476","3510","12","Male","true","true","false","false","""event"",""trial"",""time""
""fullscreenenter"",""5"",""20242""
","
","
","""event"",""trial"",""time""
""fullscreenenter"",""5"",""20242""
","
","","images/earth.jpg","","","","","","","","","","","","","","fixation","","","","","",""
"d3-animate-choice","159","501055","0.0-76.0-0.8","476","3510","12","Male","true","true","false","false","""event"",""trial"",""time""
""fullscreenenter"",""5"",""20242""
","
","
","""event"",""trial"",""time""
""fullscreenenter"",""5"",""20242""
","
","266.5","","49","","","3000","1","","","images/earth.jpg","images/rocket2","images/rocket1","null","images/rocket1","","1","real","null","1","","",""
"d3-animate-choice","160","503997","0.0-76.0-1.8","476","3510","12","Male","true","true","false","false","""event"",""trial"",""time""
""fullscreenenter"",""5"",""20242""
","
","
","""event"",""trial"",""time""
""fullscreenenter"",""5"",""20242""
","
","923.4000000059605","","48","","","3000","1","","","images/purpleplanet.jpg","images/alien4","images/alien3","images/rocket1","images/alien4","images/t.png","2","real","false","2","rare","1","2022-11-09 00:34:21.100"
"two-step-fixation","161","505009","0.0-76.0-2.8","476","3510","12","Male","true","true","false","false","""event"",""trial"",""time""
""fullscreenenter"",""5"",""20242""
","
","
","""event"",""trial"",""time""
""fullscreenenter"",""5"",""20242""
","
","","images/earth.jpg","","","","","","","","","","","","","","fixation","","","","","",""
"d3-animate-choice","162","507303","0.0-76.0-0.9","476","3510","12","Male","true","true","false","false","""event"",""trial"",""time""
""fullscreenenter"",""5"",""20242""
","
","
","""event"",""trial"",""time""
""fullscreenenter"",""5"",""20242""
","
","276.6000000014901","","49","","","3000","1","","","images/earth.jpg","images/rocket2","images/rocket1","null","images/rocket1","","1","real","null","1","","",""
"d3-animate-choice","163","509578","0.0-76.0-1.9","476","3510","12","Male","true","true","false","false","""event"",""trial"",""time""
""fullscreenenter"",""5"",""20242""
","
","
","""event"",""trial"",""time""
""fullscreenenter"",""5"",""20242""
","
","260","","48","","","3000","1","","","images/redplanet1.jpg","images/alien2","images/alien1","images/rocket1","images/alien2","images/nothing.png","2","real","true","2","common","0","2022-11-09 00:34:26.681"
"two-step-fixation","164","510589","0.0-76.0-2.9","476","3510","12","Male","true","true","false","false","""event"",""trial"",""time""
""fullscreenenter"",""5"",""20242""
","
","
","""event"",""trial"",""time""
""fullscreenenter"",""5"",""20242""
","
","","images/earth.jpg","","","","","","","","","","","","","","fixation","","","","","",""
"d3-animate-choice","165","513176","0.0-76.0-0.10","476","3510","12","Male","true","true","false","false","""event"",""trial"",""time""
""fullscreenenter"",""5"",""20242""
","
","
","""event"",""trial"",""time""
""fullscreenenter"",""5"",""20242""
","
","571.3999999985099","","48","","","3000","1","","","images/earth.jpg","images/rocket2","images/rocket1","null","images/rocket2","","1","real","null","2","","",""
"d3-animate-choice","166","515575","0.0-76.0-1.10","476","3510","12","Male","true","true","false","false","""event"",""trial"",""time""
""fullscreenenter"",""5"",""20242""
","
","
","""event"",""trial"",""time""
""fullscreenenter"",""5"",""20242""
","
","383.30000000447035","","48","","","3000","1","","","images/purpleplanet.jpg","images/alien4","images/alien3","images/rocket2","images/alien4","images/t.png","2","real","true","2","common","1","2022-11-09 00:34:32.679"
"two-step-fixation","167","516588","0.0-76.0-2.10","476","3510","12","Male","true","true","false","false","""event"",""trial"",""time""
""fullscreenenter"",""5"",""20242""
","
","
","""event"",""trial"",""time""
""fullscreenenter"",""5"",""20242""
","
","","images/earth.jpg","","","","","","","","","","","","","","fixation","","","","","",""
"d3-animate-choice","168","518951","0.0-76.0-0.11","476","3510","12","Male","true","true","false","false","""event"",""trial"",""time""
""fullscreenenter"",""5"",""20242""
","
","
","""event"",""trial"",""time""
""fullscreenenter"",""5"",""20242""
","
","346","","48","","","3000","1","","","images/earth.jpg","images/rocket2","images/rocket1","null","images/rocket2","","1","real","null","2","","",""
"d3-animate-choice","169","521319","0.0-76.0-1.11","476","3510","12","Male","true","true","false","false","""event"",""trial"",""time""
""fullscreenenter"",""5"",""20242""
","
","
","""event"",""trial"",""time""
""fullscreenenter"",""5"",""20242""
","
","353.3999999985099","","48","","","3000","1","","","images/purpleplanet.jpg","images/alien4","images/alien3","images/rocket2","images/alien4","images/t.png","2","real","true","2","common","1","2022-11-09 00:34:38.422"
"two-step-fixation","170","522332","0.0-76.0-2.11","476","3510","12","Male","true","true","false","false","""event"",""trial"",""time""
""fullscreenenter"",""5"",""20242""
","
","
","""event"",""trial"",""time""
""fullscreenenter"",""5"",""20242""
","
","","images/earth.jpg","","","","","","","","","","","","","","fixation","","","","","",""
"d3-animate-choice","171","524563","0.0-76.0-0.12","476","3510","12","Male","true","true","false","false","""event"",""trial"",""time""
""fullscreenenter"",""5"",""20242""
","
","
","""event"",""trial"",""time""
""fullscreenenter"",""5"",""20242""
","
","211.79999999701977","","48","","","3000","1","","","images/earth.jpg","images/rocket2","images/rocket1","null","images/rocket2","","1","real","null","2","","",""
"d3-animate-choice","172","526676","0.0-76.0-1.12","476","3510","12","Male","true","true","false","false","""event"",""trial"",""time""
""fullscreenenter"",""5"",""20242""
","
","
","""event"",""trial"",""time""
""fullscreenenter"",""5"",""20242""
","
","97.29999999701977","","48","","","3000","1","","","images/purpleplanet.jpg","images/alien4","images/alien3","images/rocket2","images/alien4","images/nothing.png","2","real","true","2","common","0","2022-11-09 00:34:43.780"
"two-step-fixation","173","527689","0.0-76.0-2.12","476","3510","12","Male","true","true","false","false","""event"",""trial"",""time""
""fullscreenenter"",""5"",""20242""
","
","
","""event"",""trial"",""time""
""fullscreenenter"",""5"",""20242""
","
","","images/earth.jpg","","","","","","","","","","","","","","fixation","","","","","",""
"d3-animate-choice","174","529970","0.0-76.0-0.13","476","3510","12","Male","true","true","false","false","""event"",""trial"",""time""
""fullscreenenter"",""5"",""20242""
","
","
","""event"",""trial"",""time""
""fullscreenenter"",""5"",""20242""
","
","262.69999999552965","","48","","","3000","1","","","images/earth.jpg","images/rocket2","images/rocket1","null","images/rocket2","","1","real","null","2","","",""
"d3-animate-choice","175","532183","0.0-76.0-1.13","476","3510","12","Male","true","true","false","false","""event"",""trial"",""time""
""fullscreenenter"",""5"",""20242""
","
","
","""event"",""trial"",""time""
""fullscreenenter"",""5"",""20242""
","
","198.69999999552965","","48","","","3000","1","","","images/purpleplanet.jpg","images/alien4","images/alien3","images/rocket2","images/alien4","images/nothing.png","2","real","true","2","common","0","2022-11-09 00:34:49.287"
"two-step-fixation","176","533201","0.0-76.0-2.13","476","3510","12","Male","true","true","false","false","""event"",""trial"",""time""
""fullscreenenter"",""5"",""20242""
","
","
","""event"",""trial"",""time""
""fullscreenenter"",""5"",""20242""
","
","","images/earth.jpg","","","","","","","","","","","","","","fixation","","","","","",""
"d3-animate-choice","177","535536","0.0-76.0-0.14","476","3510","12","Male","true","true","false","false","""event"",""trial"",""time""
""fullscreenenter"",""5"",""20242""
","
","
","""event"",""trial"",""time""
""fullscreenenter"",""5"",""20242""
","
","318.79999999701977","","49","","","3000","1","","","images/earth.jpg","images/rocket2","images/rocket1","null","images/rocket1","","1","real","null","1","","",""
"d3-animate-choice","178","537898","0.0-76.0-1.14","476","3510","12","Male","true","true","false","false","""event"",""trial"",""time""
""fullscreenenter"",""5"",""20242""
","
","
","""event"",""trial"",""time""
""fullscreenenter"",""5"",""20242""
","
","345.8999999985099","","48","","","3000","1","","","images/purpleplanet.jpg","images/alien4","images/alien3","images/rocket1","images/alien4","images/t.png","2","real","false","2","rare","1","2022-11-09 00:34:55.002"
"two-step-fixation","179","538911","0.0-76.0-2.14","476","3510","12","Male","true","true","false","false","""event"",""trial"",""time""
""fullscreenenter"",""5"",""20242""
","
","
","""event"",""trial"",""time""
""fullscreenenter"",""5"",""20242""
","
","","images/earth.jpg","","","","","","","","","","","","","","fixation","","","","","",""
"d3-animate-choice","180","541387","0.0-76.0-0.15","476","3510","12","Male","true","true","false","false","""event"",""trial"",""time""
""fullscreenenter"",""5"",""20242""
","
","
","""event"",""trial"",""time""
""fullscreenenter"",""5"",""20242""
","
","459.6000000014901","","48","","","3000","1","","","images/earth.jpg","images/rocket2","images/rocket1","null","images/rocket2","","1","real","null","2","","",""
"d3-animate-choice","181","544113","0.0-76.0-1.15","476","3510","12","Male","true","true","false","false","""event"",""trial"",""time""
""fullscreenenter"",""5"",""20242""
","
","
","""event"",""trial"",""time""
""fullscreenenter"",""5"",""20242""
","
","709.2000000029802","","48","","","3000","1","1948.3999999985099","50","images/redplanet1.jpg","images/alien2","images/alien1","images/rocket2","images/alien2","images/nothing.png","2","real","false","2","rare","0","2022-11-09 00:35:01.216"
"two-step-fixation","182","545125","0.0-76.0-2.15","476","3510","12","Male","true","true","false","false","""event"",""trial"",""time""
""fullscreenenter"",""5"",""20242""
","
","
","""event"",""trial"",""time""
""fullscreenenter"",""5"",""20242""
","
","","images/earth.jpg","","","","","","","","","","","","","","fixation","","","","","",""
"d3-animate-choice","183","547473","0.0-76.0-0.16","476","3510","12","Male","true","true","false","false","""event"",""trial"",""time""
""fullscreenenter"",""5"",""20242""
","
","
","""event"",""trial"",""time""
""fullscreenenter"",""5"",""20242""
","
","333.5","","48","","","3000","1","","","images/earth.jpg","images/rocket2","images/rocket1","null","images/rocket2","","1","real","null","2","","",""
"d3-animate-choice","184","549832","0.0-76.0-1.16","476","3510","12","Male","true","true","false","false","""event"",""trial"",""time""
""fullscreenenter"",""5"",""20242""
","
","
","""event"",""trial"",""time""
""fullscreenenter"",""5"",""20242""
","
","343.20000000298023","","48","","","3000","1","","","images/purpleplanet.jpg","images/alien4","images/alien3","images/rocket2","images/alien4","images/t.png","2","real","true","2","common","1","2022-11-09 00:35:06.935"
"two-step-fixation","185","550844","0.0-76.0-2.16","476","3510","12","Male","true","true","false","false","""event"",""trial"",""time""
""fullscreenenter"",""5"",""20242""
","
","
","""event"",""trial"",""time""
""fullscreenenter"",""5"",""20242""
","
","","images/earth.jpg","","","","","","","","","","","","","","fixation","","","","","",""
"d3-animate-choice","186","552989","0.0-76.0-0.17","476","3510","12","Male","true","true","false","false","""event"",""trial"",""time""
""fullscreenenter"",""5"",""20242""
","
","
","""event"",""trial"",""time""
""fullscreenenter"",""5"",""20242""
","
","129.59999999403954","","48","","","3000","1","","","images/earth.jpg","images/rocket2","images/rocket1","null","images/rocket2","","1","real","null","2","","",""
"d3-animate-choice","187","556775","0.0-76.0-1.17","476","3510","12","Male","true","true","false","false","""event"",""trial"",""time""
""fullscreenenter"",""5"",""20242""
","
","
","""event"",""trial"",""time""
""fullscreenenter"",""5"",""20242""
","
","826.1999999955297","","50","","","3000","1","1428.8999999985099,1769.2999999970198","50,49","images/redplanet1.jpg","images/alien2","images/alien1","images/rocket2","images/alien1","images/t.png","2","real","false","","rare","1","2022-11-09 00:35:13.879"
"two-step-fixation","188","557787","0.0-76.0-2.17","476","3510","12","Male","true","true","false","false","""event"",""trial"",""time""
""fullscreenenter"",""5"",""20242""
","
","
","""event"",""trial"",""time""
""fullscreenenter"",""5"",""20242""
","
","","images/earth.jpg","","","","","","","","","","","","","","fixation","","","","","",""
"d3-animate-choice","189","559960","0.0-76.0-0.18","476","3510","12","Male","true","true","false","false","""event"",""trial"",""time""
""fullscreenenter"",""5"",""20242""
","
","
","""event"",""trial"",""time""
""fullscreenenter"",""5"",""20242""
","
","152.19999999552965","","48","","","3000","1","","","images/earth.jpg","images/rocket2","images/rocket1","null","images/rocket2","","1","real","null","2","","",""
"d3-animate-choice","190","562386","0.0-76.0-1.18","476","3510","12","Male","true","true","false","false","""event"",""trial"",""time""
""fullscreenenter"",""5"",""20242""
","
","
","""event"",""trial"",""time""
""fullscreenenter"",""5"",""20242""
","
","409.80000000447035","","48","","","3000","1","","","images/redplanet1.jpg","images/alien2","images/alien1","images/rocket2","images/alien2","images/t.png","2","real","false","2","rare","1","2022-11-09 00:35:19.489"
"two-step-fixation","191","563398","0.0-76.0-2.18","476","3510","12","Male","true","true","false","false","""event"",""trial"",""time""
""fullscreenenter"",""5"",""20242""
","
","
","""event"",""trial"",""time""
""fullscreenenter"",""5"",""20242""
","
","","images/earth.jpg","","","","","","","","","","","","","","fixation","","","","","",""
"d3-animate-choice","192","565915","0.0-76.0-0.19","476","3510","12","Male","true","true","false","false","""event"",""trial"",""time""
""fullscreenenter"",""5"",""20242""
","
","
","""event"",""trial"",""time""
""fullscreenenter"",""5"",""20242""
","
","502.09999999403954","","48","","","3000","1","","","images/earth.jpg","images/rocket2","images/rocket1","null","images/rocket2","","1","real","null","2","","",""
"d3-animate-choice","193","568778","0.0-76.0-1.19","476","3510","12","Male","true","true","false","false","""event"",""trial"",""time""
""fullscreenenter"",""5"",""20242""
","
","
","""event"",""trial"",""time""
""fullscreenenter"",""5"",""20242""
","
","846.0999999940395","","49","","","3000","1","","","images/redplanet1.jpg","images/alien2","images/alien1","images/rocket2","images/alien1","images/nothing.png","2","real","false","1","rare","0","2022-11-09 00:35:25.882"
"two-step-fixation","194","569792","0.0-76.0-2.19","476","3510","12","Male","true","true","false","false","""event"",""trial"",""time""
""fullscreenenter"",""5"",""20242""
","
","
","""event"",""trial"",""time""
""fullscreenenter"",""5"",""20242""
","
","","images/earth.jpg","","","","","","","","","","","","","","fixation","","","","","",""
"d3-animate-choice","195","572078","0.0-76.0-0.20","476","3510","12","Male","true","true","false","false","""event"",""trial"",""time""
""fullscreenenter"",""5"",""20242""
","
","
","""event"",""trial"",""time""
""fullscreenenter"",""5"",""20242""
","
","268.40000000596046","","48","","","3000","1","","","images/earth.jpg","images/rocket2","images/rocket1","null","images/rocket2","","1","real","null","2","","",""
"d3-animate-choice","196","574415","0.0-76.0-1.20","476","3510","12","Male","true","true","false","false","""event"",""trial"",""time""
""fullscreenenter"",""5"",""20242""
","
","
","""event"",""trial"",""time""
""fullscreenenter"",""5"",""20242""
","
","320.1000000014901","","48","","","3000","1","","","images/purpleplanet.jpg","images/alien4","images/alien3","images/rocket2","images/alien4","images/t.png","2","real","true","2","common","1","2022-11-09 00:35:31.519"
"two-step-fixation","197","575428","0.0-76.0-2.20","476","3510","12","Male","true","true","false","false","""event"",""trial"",""time""
""fullscreenenter"",""5"",""20242""
","
","
","""event"",""trial"",""time""
""fullscreenenter"",""5"",""20242""
","
","","images/earth.jpg","","","","","","","","","","","","","","fixation","","","","","",""
"d3-animate-choice","198","577690","0.0-76.0-0.21","476","3510","12","Male","true","true","false","false","""event"",""trial"",""time""
""fullscreenenter"",""5"",""20242""
","
","
","""event"",""trial"",""time""
""fullscreenenter"",""5"",""20242""
","
","245.30000000447035","","48","","","3000","1","","","images/earth.jpg","images/rocket2","images/rocket1","null","images/rocket2","","1","real","null","2","","",""
"d3-animate-choice","199","580019","0.0-76.0-1.21","476","3510","12","Male","true","true","false","false","""event"",""trial"",""time""
""fullscreenenter"",""5"",""20242""
","
","
","""event"",""trial"",""time""
""fullscreenenter"",""5"",""20242""
","
","319.70000000298023","","48","","","3000","1","","","images/purpleplanet.jpg","images/alien4","images/alien3","images/rocket2","images/alien4","images/t.png","2","real","true","2","common","1","2022-11-09 00:35:37.123"
"two-step-fixation","200","581027","0.0-76.0-2.21","476","3510","12","Male","true","true","false","false","""event"",""trial"",""time""
""fullscreenenter"",""5"",""20242""
","
","
","""event"",""trial"",""time""
""fullscreenenter"",""5"",""20242""
","
","","images/earth.jpg","","","","","","","","","","","","","","fixation","","","","","",""
"d3-animate-choice","201","583264","0.0-76.0-0.22","476","3510","12","Male","true","true","false","false","""event"",""trial"",""time""
""fullscreenenter"",""5"",""20242""
","
","
","""event"",""trial"",""time""
""fullscreenenter"",""5"",""20242""
","
","220.79999999701977","","48","","","3000","1","2171.89999999851","48","images/earth.jpg","images/rocket2","images/rocket1","null","images/rocket2","","1","real","null","2","","",""
"d3-animate-choice","202","585900","0.0-76.0-1.22","476","3510","12","Male","true","true","false","false","""event"",""trial"",""time""
""fullscreenenter"",""5"",""20242""
","
","
","""event"",""trial"",""time""
""fullscreenenter"",""5"",""20242""
","
","623.6000000014901","","48","","","3000","1","","","images/purpleplanet.jpg","images/alien4","images/alien3","images/rocket2","images/alien4","images/t.png","2","real","true","2","common","1","2022-11-09 00:35:43.004"
"two-step-fixation","203","586913","0.0-76.0-2.22","476","3510","12","Male","true","true","false","false","""event"",""trial"",""time""
""fullscreenenter"",""5"",""20242""
","
","
","""event"",""trial"",""time""
""fullscreenenter"",""5"",""20242""
","
","","images/earth.jpg","","","","","","","","","","","","","","fixation","","","","","",""
"d3-animate-choice","204","589685","0.0-76.0-0.23","476","3510","12","Male","true","true","false","false","""event"",""trial"",""time""
""fullscreenenter"",""5"",""20242""
","
","
","""event"",""trial"",""time""
""fullscreenenter"",""5"",""20242""
","
","755.6999999955297","","48","","","3000","1","979.5999999940395,1175.6999999955297,1367.0999999940395,1561.2999999970198,1749.3999999985099,1933.8999999985099,2131.0999999940395","48,48,48,48,48,48,48","images/earth.jpg","images/rocket2","images/rocket1","null","images/rocket2","","1","real","null","2","","",""
"d3-animate-choice","205","592144","0.0-76.0-1.23","476","3510","12","Male","true","true","false","false","""event"",""trial"",""time""
""fullscreenenter"",""5"",""20242""
","
","
","""event"",""trial"",""time""
""fullscreenenter"",""5"",""20242""
","
","445.30000000447035","","48","","","3000","1","1392.8999999985099","48","images/purpleplanet.jpg","images/alien4","images/alien3","images/rocket2","images/alien4","images/t.png","2","real","true","2","common","1","2022-11-09 00:35:49.248"
"two-step-fixation","206","593152","0.0-76.0-2.23","476","3510","12","Male","true","true","false","false","""event"",""trial"",""time""
""fullscreenenter"",""5"",""20242""
","
","
","""event"",""trial"",""time""
""fullscreenenter"",""5"",""20242""
","
","","images/earth.jpg","","","","","","","","","","","","","","fixation","","","","","",""
"d3-animate-choice","207","595319","0.0-76.0-0.24","476","3510","12","Male","true","true","false","false","""event"",""trial"",""time""
""fullscreenenter"",""5"",""20242""
","
","
","""event"",""trial"",""time""
""fullscreenenter"",""5"",""20242""
","
","153.20000000298023","","48","","","3000","1","","","images/earth.jpg","images/rocket2","images/rocket1","null","images/rocket2","","1","real","null","2","","",""
"d3-animate-choice","208","598076","0.0-76.0-1.24","476","3510","12","Male","true","true","false","false","""event"",""trial"",""time""
""fullscreenenter"",""5"",""20242""
","
","
","""event"",""trial"",""time""
""fullscreenenter"",""5"",""20242""
","
","741.5","","49","","","3000","1","","","images/redplanet1.jpg","images/alien2","images/alien1","images/rocket2","images/alien1","images/t.png","2","real","false","1","rare","1","2022-11-09 00:35:55.180"
"two-step-fixation","209","599088","0.0-76.0-2.24","476","3510","12","Male","true","true","false","false","""event"",""trial"",""time""
""fullscreenenter"",""5"",""20242""
","
","
","""event"",""trial"",""time""
""fullscreenenter"",""5"",""20242""
","
","","images/earth.jpg","","","","","","","","","","","","","","fixation","","","","","",""
"d3-animate-choice","210","601418","0.0-76.0-0.25","476","3510","12","Male","true","true","false","false","""event"",""trial"",""time""
""fullscreenenter"",""5"",""20242""
","
","
","""event"",""trial"",""time""
""fullscreenenter"",""5"",""20242""
","
","311.59999999403954","","48","","","3000","1","","","images/earth.jpg","images/rocket2","images/rocket1","null","images/rocket2","","1","real","null","2","","",""
"d3-animate-choice","211","604151","0.0-76.0-1.25","476","3510","12","Male","true","true","false","false","""event"",""trial"",""time""
""fullscreenenter"",""5"",""20242""
","
","
","""event"",""trial"",""time""
""fullscreenenter"",""5"",""20242""
","
","718.5999999940395","","49","","","3000","1","","","images/redplanet1.jpg","images/alien2","images/alien1","images/rocket2","images/alien1","images/nothing.png","2","real","false","1","rare","0","2022-11-09 00:36:01.254"
"two-step-fixation","212","605163","0.0-76.0-2.25","476","3510","12","Male","true","true","false","false","""event"",""trial"",""time""
""fullscreenenter"",""5"",""20242""
","
","
","""event"",""trial"",""time""
""fullscreenenter"",""5"",""20242""
","
","","images/earth.jpg","","","","","","","","","","","","","","fixation","","","","","",""
"d3-animate-choice","213","607407","0.0-76.0-0.26","476","3510","12","Male","true","true","false","false","""event"",""trial"",""time""
""fullscreenenter"",""5"",""20242""
","
","
","""event"",""trial"",""time""
""fullscreenenter"",""5"",""20242""
","
","232.30000000447035","","48","","","3000","1","","","images/earth.jpg","images/rocket2","images/rocket1","null","images/rocket2","","1","real","null","2","","",""
"d3-animate-choice","214","610330","0.0-76.0-1.26","476","3510","12","Male","true","true","false","false","""event"",""trial"",""time""
""fullscreenenter"",""5"",""20242""
","
","
","""event"",""trial"",""time""
""fullscreenenter"",""5"",""20242""
","
","907.8000000044703","","49","","","3000","1","","","images/redplanet1.jpg","images/alien2","images/alien1","images/rocket2","images/alien1","images/t.png","2","real","false","1","rare","1","2022-11-09 00:36:07.434"
"two-step-fixation","215","611340","0.0-76.0-2.26","476","3510","12","Male","true","true","false","false","""event"",""trial"",""time""
""fullscreenenter"",""5"",""20242""
","
","
","""event"",""trial"",""time""
""fullscreenenter"",""5"",""20242""
","
","","images/earth.jpg","","","","","","","","","","","","","","fixation","","","","","",""
"d3-animate-choice","216","613698","0.0-76.0-0.27","476","3510","12","Male","true","true","false","false","""event"",""trial"",""time""
""fullscreenenter"",""5"",""20242""
","
","
","""event"",""trial"",""time""
""fullscreenenter"",""5"",""20242""
","
","340.80000000447035","","48","","","3000","1","1587.5","48","images/earth.jpg","images/rocket2","images/rocket1","null","images/rocket2","","1","real","null","2","","",""
"d3-animate-choice","217","616093","0.0-76.0-1.27","476","3510","12","Male","true","true","false","false","""event"",""trial"",""time""
""fullscreenenter"",""5"",""20242""
","
","
","""event"",""trial"",""time""
""fullscreenenter"",""5"",""20242""
","
","384","","48","","","3000","1","","","images/purpleplanet.jpg","images/alien4","images/alien3","images/rocket2","images/alien4","images/t.png","2","real","true","2","common","1","2022-11-09 00:36:13.196"
"two-step-fixation","218","617102","0.0-76.0-2.27","476","3510","12","Male","true","true","false","false","""event"",""trial"",""time""
""fullscreenenter"",""5"",""20242""
","
","
","""event"",""trial"",""time""
""fullscreenenter"",""5"",""20242""
","
","","images/earth.jpg","","","","","","","","","","","","","","fixation","","","","","",""
"d3-animate-choice","219","619275","0.0-76.0-0.28","476","3510","12","Male","true","true","false","false","""event"",""trial"",""time""
""fullscreenenter"",""5"",""20242""
","
","
","""event"",""trial"",""time""
""fullscreenenter"",""5"",""20242""
","
","163.5","","48","","","3000","1","","","images/earth.jpg","images/rocket2","images/rocket1","null","images/rocket2","","1","real","null","2","","",""
"d3-animate-choice","220","621313","0.0-76.0-1.28","476","3510","12","Male","true","true","false","false","""event"",""trial"",""time""
""fullscreenenter"",""5"",""20242""
","
","
","""event"",""trial"",""time""
""fullscreenenter"",""5"",""20242""
","
","27.200000002980232","","48","","","3000","1","546","48","images/purpleplanet.jpg","images/alien4","images/alien3","images/rocket2","images/alien4","images/nothing.png","2","real","true","2","common","0","2022-11-09 00:36:18.416"
"two-step-fixation","221","622326","0.0-76.0-2.28","476","3510","12","Male","true","true","false","false","""event"",""trial"",""time""
""fullscreenenter"",""5"",""20242""
","
","
","""event"",""trial"",""time""
""fullscreenenter"",""5"",""20242""
","
","","images/earth.jpg","","","","","","","","","","","","","","fixation","","","","","",""
"d3-animate-choice","222","624493","0.0-76.0-0.29","476","3510","12","Male","true","true","false","false","""event"",""trial"",""time""
""fullscreenenter"",""5"",""20242""
","
","
","""event"",""trial"",""time""
""fullscreenenter"",""5"",""20242""
","
","152.39999999850988","","48","","","3000","1","","","images/earth.jpg","images/rocket2","images/rocket1","null","images/rocket2","","1","real","null","2","","",""
"d3-animate-choice","223","626949","0.0-76.0-1.29","476","3510","12","Male","true","true","false","false","""event"",""trial"",""time""
""fullscreenenter"",""5"",""20242""
","
","
","""event"",""trial"",""time""
""fullscreenenter"",""5"",""20242""
","
","440.29999999701977","","48","","","3000","1","","","images/purpleplanet.jpg","images/alien4","images/alien3","images/rocket2","images/alien4","images/t.png","2","real","true","2","common","1","2022-11-09 00:36:24.053"
"two-step-fixation","224","627962","0.0-76.0-2.29","476","3510","12","Male","true","true","false","false","""event"",""trial"",""time""
""fullscreenenter"",""5"",""20242""
","
","
","""event"",""trial"",""time""
""fullscreenenter"",""5"",""20242""
","
","","images/earth.jpg","","","","","","","","","","","","","","fixation","","","","","",""
"d3-animate-choice","225","630302","0.0-76.0-0.30","476","3510","12","Male","true","true","false","false","""event"",""trial"",""time""
""fullscreenenter"",""5"",""20242""
","
","
","""event"",""trial"",""time""
""fullscreenenter"",""5"",""20242""
","
","320.6000000014901","","48","","","3000","1","","","images/earth.jpg","images/rocket2","images/rocket1","null","images/rocket2","","1","real","null","2","","",""
"d3-animate-choice","226","632569","0.0-76.0-1.30","476","3510","12","Male","true","true","false","false","""event"",""trial"",""time""
""fullscreenenter"",""5"",""20242""
","
","
","""event"",""trial"",""time""
""fullscreenenter"",""5"",""20242""
","
","254.10000000149012","","48","","","3000","1","","","images/purpleplanet.jpg","images/alien4","images/alien3","images/rocket2","images/alien4","images/t.png","2","real","true","2","common","1","2022-11-09 00:36:29.673"
"two-step-fixation","227","633581","0.0-76.0-2.30","476","3510","12","Male","true","true","false","false","""event"",""trial"",""time""
""fullscreenenter"",""5"",""20242""
","
","
","""event"",""trial"",""time""
""fullscreenenter"",""5"",""20242""
","
","","images/earth.jpg","","","","","","","","","","","","","","fixation","","","","","",""
"d3-animate-choice","228","635873","0.0-76.0-0.31","476","3510","12","Male","true","true","false","false","""event"",""trial"",""time""
""fullscreenenter"",""5"",""20242""
","
","
","""event"",""trial"",""time""
""fullscreenenter"",""5"",""20242""
","
","277.1000000014901","","48","","","3000","1","","","images/earth.jpg","images/rocket2","images/rocket1","null","images/rocket2","","1","real","null","2","","",""
"d3-animate-choice","229","638236","0.0-76.0-1.31","476","3510","12","Male","true","true","false","false","""event"",""trial"",""time""
""fullscreenenter"",""5"",""20242""
","
","
","""event"",""trial"",""time""
""fullscreenenter"",""5"",""20242""
","
","347.5","","48","","","3000","1","","","images/redplanet1.jpg","images/alien2","images/alien1","images/rocket2","images/alien2","images/nothing.png","2","real","false","2","rare","0","2022-11-09 00:36:35.339"
"two-step-fixation","230","639248","0.0-76.0-2.31","476","3510","12","Male","true","true","false","false","""event"",""trial"",""time""
""fullscreenenter"",""5"",""20242""
","
","
","""event"",""trial"",""time""
""fullscreenenter"",""5"",""20242""
","
","","images/earth.jpg","","","","","","","","","","","","","","fixation","","","","","",""
"d3-animate-choice","231","641608","0.0-76.0-0.32","476","3510","12","Male","true","true","false","false","""event"",""trial"",""time""
""fullscreenenter"",""5"",""20242""
","
","
","""event"",""trial"",""time""
""fullscreenenter"",""5"",""20242""
","
","339.79999999701977","","48","","","3000","1","","","images/earth.jpg","images/rocket2","images/rocket1","null","images/rocket2","","1","real","null","2","","",""
"d3-animate-choice","232","644144","0.0-76.0-1.32","476","3510","12","Male","true","true","false","false","""event"",""trial"",""time""
""fullscreenenter"",""5"",""20242""
","
","
","""event"",""trial"",""time""
""fullscreenenter"",""5"",""20242""
","
","518.8999999985099","","49","","","3000","1","","","images/redplanet1.jpg","images/alien2","images/alien1","images/rocket2","images/alien1","images/nothing.png","2","real","false","1","rare","0","2022-11-09 00:36:41.247"
"two-step-fixation","233","645155","0.0-76.0-2.32","476","3510","12","Male","true","true","false","false","""event"",""trial"",""time""
""fullscreenenter"",""5"",""20242""
","
","
","""event"",""trial"",""time""
""fullscreenenter"",""5"",""20242""
","
","","images/earth.jpg","","","","","","","","","","","","","","fixation","","","","","",""
"d3-animate-choice","234","647577","0.0-76.0-0.33","476","3510","12","Male","true","true","false","false","""event"",""trial"",""time""
""fullscreenenter"",""5"",""20242""
","
","
","""event"",""trial"",""time""
""fullscreenenter"",""5"",""20242""
","
","406.80000000447035","","48","","","3000","1","","","images/earth.jpg","images/rocket2","images/rocket1","null","images/rocket2","","1","real","null","2","","",""
"d3-animate-choice","235","650000","0.0-76.0-1.33","476","3510","12","Male","true","true","false","false","""event"",""trial"",""time""
""fullscreenenter"",""5"",""20242""
","
","
","""event"",""trial"",""time""
""fullscreenenter"",""5"",""20242""
","
","412.69999999552965","","48","","","3000","1","","","images/purpleplanet.jpg","images/alien4","images/alien3","images/rocket2","images/alien4","images/t.png","2","real","true","2","common","1","2022-11-09 00:36:47.104"
"two-step-fixation","236","651010","0.0-76.0-2.33","476","3510","12","Male","true","true","false","false","""event"",""trial"",""time""
""fullscreenenter"",""5"",""20242""
","
","
","""event"",""trial"",""time""
""fullscreenenter"",""5"",""20242""
","
","","images/earth.jpg","","","","","","","","","","","","","","fixation","","","","","",""
"d3-animate-choice","237","653304","0.0-76.0-0.34","476","3510","12","Male","true","true","false","false","""event"",""trial"",""time""
""fullscreenenter"",""5"",""20242""
","
","
","""event"",""trial"",""time""
""fullscreenenter"",""5"",""20242""
","
","276.70000000298023","","48","","","3000","1","","","images/earth.jpg","images/rocket2","images/rocket1","null","images/rocket2","","1","real","null","2","","",""
"d3-animate-choice","238","655728","0.0-76.0-1.34","476","3510","12","Male","true","true","false","false","""event"",""trial"",""time""
""fullscreenenter"",""5"",""20242""
","
","
","""event"",""trial"",""time""
""fullscreenenter"",""5"",""20242""
","
","410.29999999701977","","48","","","3000","1","","","images/purpleplanet.jpg","images/alien4","images/alien3","images/rocket2","images/alien4","images/t.png","2","real","true","2","common","1","2022-11-09 00:36:52.832"
"two-step-fixation","239","656740","0.0-76.0-2.34","476","3510","12","Male","true","true","false","false","""event"",""trial"",""time""
""fullscreenenter"",""5"",""20242""
","
","
","""event"",""trial"",""time""
""fullscreenenter"",""5"",""20242""
","
","","images/earth.jpg","","","","","","","","","","","","","","fixation","","","","","",""
"d3-animate-choice","240","659085","0.0-76.0-0.35","476","3510","12","Male","true","true","false","false","""event"",""trial"",""time""
""fullscreenenter"",""5"",""20242""
","
","
","""event"",""trial"",""time""
""fullscreenenter"",""5"",""20242""
","
","328.8999999985099","","48","","","3000","1","","","images/earth.jpg","images/rocket2","images/rocket1","null","images/rocket2","","1","real","null","2","","",""
"d3-animate-choice","241","662182","0.0-76.0-1.35","476","3510","12","Male","true","true","false","false","""event"",""trial"",""time""
""fullscreenenter"",""5"",""20242""
","
","
","""event"",""trial"",""time""
""fullscreenenter"",""5"",""20242""
","
","1080.8999999985099","","48","","","3000","1","","","images/redplanet1.jpg","images/alien2","images/alien1","images/rocket2","images/alien2","images/t.png","2","real","false","2","rare","1","2022-11-09 00:36:59.286"
"two-step-fixation","242","663192","0.0-76.0-2.35","476","3510","12","Male","true","true","false","false","""event"",""trial"",""time""
""fullscreenenter"",""5"",""20242""
","
","
","""event"",""trial"",""time""
""fullscreenenter"",""5"",""20242""
","
","","images/earth.jpg","","","","","","","","","","","","","","fixation","","","","","",""
"d3-animate-choice","243","665558","0.0-76.0-0.36","476","3510","12","Male","true","true","false","false","""event"",""trial"",""time""
""fullscreenenter"",""5"",""20242""
","
","
","""event"",""trial"",""time""
""fullscreenenter"",""5"",""20242""
","
","350.20000000298023","","48","","","3000","1","","","images/earth.jpg","images/rocket2","images/rocket1","null","images/rocket2","","1","real","null","2","","",""
"d3-animate-choice","244","667929","0.0-76.0-1.36","476","3510","12","Male","true","true","false","false","""event"",""trial"",""time""
""fullscreenenter"",""5"",""20242""
","
","
","""event"",""trial"",""time""
""fullscreenenter"",""5"",""20242""
","
","347","","48","","","3000","1","","","images/redplanet1.jpg","images/alien2","images/alien1","images/rocket2","images/alien2","images/t.png","2","real","false","2","rare","1","2022-11-09 00:37:05.033"
"two-step-fixation","245","668941","0.0-76.0-2.36","476","3510","12","Male","true","true","false","false","""event"",""trial"",""time""
""fullscreenenter"",""5"",""20242""
","
","
","""event"",""trial"",""time""
""fullscreenenter"",""5"",""20242""
","
","","images/earth.jpg","","","","","","","","","","","","","","fixation","","","","","",""
"d3-animate-choice","246","671196","0.0-76.0-0.37","476","3510","12","Male","true","true","false","false","""event"",""trial"",""time""
""fullscreenenter"",""5"",""20242""
","
","
","""event"",""trial"",""time""
""fullscreenenter"",""5"",""20242""
","
