"trial_type","trial_index","time_elapsed","internal_node_id","participant_id","subject_id","age","gender","rocket_sides","red_planet_first_rocket","red_display_order","purple_display_order","interactions","blur_events","focus_events","fullscreenenter_events","fullscreenexit_events","rt","stimulus","key_press","button_pressed","success","duration","valid_pressed","rts","keys","planet_text","right_text","left_text","center_text","chosen_text","reward_text","trial_stage","practice_trial","transition_type","choice","transition","reward","timestamp"
"pavlovia","0","4","0.0-0.0","2712","3088","23","Male","false","false","false","false","
","
","
","
","
","","","","","","","","","","","","","","","","","","","","","",""
"html-keyboard-response","1","2450","0.0-1.0","2712","3088","23","Male","false","false","false","false","
","
","
","
","
","2445","Welcome! Press the space bar to begin.","32","","","","","","","","","","","","","","","","","","",""
"audio-keyboard-response","2","5371","0.0-2.0","2712","3088","23","Male","false","false","false","false","
","
","
","
","
","2920","audio/beep_loop.wav","32","","","","","","","","","","","","","","","","","","",""
"audio-button-response","3","7577","0.0-3.0","2712","3088","23","Male","false","false","false","false","
","
","
","
","
","NaN","audio/fish.mp3","","1","","","","","","","","","","","","","","","","","",""
"audio-button-response","4","11024","0.0-4.0","2712","3088","23","Male","false","false","false","false","""event"",""trial"",""time""
""fullscreenenter"",""5"",""14792""
","
","
","""event"",""trial"",""time""
""fullscreenenter"",""5"",""14792""
","
","NaN","audio/tiger.mp3","","4","","","","","","","","","","","","","","","","","",""
"fullscreen","5","15785","0.0-5.0","2712","3088","23","Male","false","false","false","false","""event"",""trial"",""time""
""fullscreenenter"",""5"",""14792""
","
","
","""event"",""trial"",""time""
""fullscreenenter"",""5"",""14792""
","
","","","","","true","","","","","","","","","","","","","","","","",""
"d3-instructions","6","29755","0.0-6.0","2712","3088","23","Male","false","false","false","false","""event"",""trial"",""time""
""fullscreenenter"",""5"",""14792""
","
","
","""event"",""trial"",""time""
""fullscreenenter"",""5"",""14792""
","
","","","","","","","","","","","","","","","","","","","","","",""
"d3-instructions","7","38772","0.0-7.0","2712","3088","23","Male","false","false","false","false","""event"",""trial"",""time""
""fullscreenenter"",""5"",""14792""
","
","
","""event"",""trial"",""time""
""fullscreenenter"",""5"",""14792""
","
","","","","","","","","","","","","","","","","","","","","","",""
"d3-instructions","8","46829","0.0-8.0","2712","3088","23","Male","false","false","false","false","""event"",""trial"",""time""
""fullscreenenter"",""5"",""14792""
","
","
","""event"",""trial"",""time""
""fullscreenenter"",""5"",""14792""
","
","","","","","","","","","","","","","","","","","","","","","",""
"d3-instructions","9","57725","0.0-9.0","2712","3088","23","Male","false","false","false","false","""event"",""trial"",""time""
""fullscreenenter"",""5"",""14792""
","
","
","""event"",""trial"",""time""
""fullscreenenter"",""5"",""14792""
","
","","","","","","","","","","","","","","","","","","","","","",""
"d3-instructions","10","77710","0.0-10.0","2712","3088","23","Male","false","false","false","false","""event"",""trial"",""time""
""fullscreenenter"",""5"",""14792""
","
","
","""event"",""trial"",""time""
""fullscreenenter"",""5"",""14792""
","
","","","","","","","","","","","","","","","","","","","","","",""
"d3-animate-choice","11","80930","0.0-11.0","2712","3088","23","Male","false","false","false","false","""event"",""trial"",""time""
""fullscreenenter"",""5"",""14792""
","
","
","""event"",""trial"",""time""
""fullscreenenter"",""5"",""14792""
","
","1209.9000000357628","","49","","","3000","1","","","images/tutgreenplanet.jpg","images/tutalien1","images/tutalien2","null","images/tutalien2","","NA","practice","null","","","",""
"d3-animate-choice","12","83357","0.0-12.0","2712","3088","23","Male","false","false","false","false","""event"",""trial"",""time""
""fullscreenenter"",""5"",""14792""
","
","
","""event"",""trial"",""time""
""fullscreenenter"",""5"",""14792""
","
","424.30000001192093","","48","","","3000","1","","","images/tutgreenplanet.jpg","images/tutalien1","images/tutalien2","null","images/tutalien1","","NA","practice","null","","","",""
"d3-animate-choice","13","86034","0.0-13.0","2712","3088","23","Male","false","false","false","false","""event"",""trial"",""time""
""fullscreenenter"",""5"",""14792""
","
","
","""event"",""trial"",""time""
""fullscreenenter"",""5"",""14792""
","
","671.1999999880791","","49","","","3000","1","","","images/tutgreenplanet.jpg","images/tutalien1","images/tutalien2","null","images/tutalien2","","NA","practice","null","","","",""
"d3-animate-choice","14","88681","0.0-14.0","2712","3088","23","Male","false","false","false","false","""event"",""trial"",""time""
""fullscreenenter"",""5"",""14792""
","
","
","""event"",""trial"",""time""
""fullscreenenter"",""5"",""14792""
","
","640","","48","","","3000","1","","","images/tutgreenplanet.jpg","images/tutalien1","images/tutalien2","null","images/tutalien1","","NA","practice","null","","","",""
"d3-instructions","15","95306","0.0-15.0","2712","3088","23","Male","false","false","false","false","""event"",""trial"",""time""
""fullscreenenter"",""5"",""14792""
","
","
","""event"",""trial"",""time""
""fullscreenenter"",""5"",""14792""
","
","","","","","","","","","","","","","","","","","","","","","",""
"d3-instructions","16","102677","0.0-16.0","2712","3088","23","Male","false","false","false","false","""event"",""trial"",""time""
""fullscreenenter"",""5"",""14792""
","
","
","""event"",""trial"",""time""
""fullscreenenter"",""5"",""14792""
","
","","","","","","","","","","","","","","","","","","","","","",""
"d3-instructions","17","112678","0.0-17.0","2712","3088","23","Male","false","false","false","false","""event"",""trial"",""time""
""fullscreenenter"",""5"",""14792""
","
","
","""event"",""trial"",""time""
""fullscreenenter"",""5"",""14792""
","
","","","","","","","","","","","","","","","","","","","","","",""
"d3-instructions","18","125113","0.0-18.0","2712","3088","23","Male","false","false","false","false","""event"",""trial"",""time""
""fullscreenenter"",""5"",""14792""
","
","
","""event"",""trial"",""time""
""fullscreenenter"",""5"",""14792""
","
","","","","","","","","","","","","","","","","","","","","","",""
"d3-instructions","19","138762","0.0-19.0","2712","3088","23","Male","false","false","false","false","""event"",""trial"",""time""
""fullscreenenter"",""5"",""14792""
","
","
","""event"",""trial"",""time""
""fullscreenenter"",""5"",""14792""
","
","","","","","","","","","","","","","","","","","","","","","",""
"d3-animate-choice","20","141310","0.0-20.0","2712","3088","23","Male","false","false","false","false","""event"",""trial"",""time""
""fullscreenenter"",""5"",""14792""
","
","
","""event"",""trial"",""time""
""fullscreenenter"",""5"",""14792""
","
","543.3000000119209","","49","","","3000","1","","","images/tutyellowplanet.jpg","null","images/tutalien3","null","images/tutalien3","images/t.png","NA","practice","null","","","",""
"d3-animate-choice","21","143656","0.0-21.0","2712","3088","23","Male","false","false","false","false","""event"",""trial"",""time""
""fullscreenenter"",""5"",""14792""
","
","
","""event"",""trial"",""time""
""fullscreenenter"",""5"",""14792""
","
","341.60000002384186","","49","","","3000","1","1805.2000000476837","49","images/tutyellowplanet.jpg","null","images/tutalien3","null","images/tutalien3","images/t.png","NA","practice","null","","","",""
"d3-animate-choice","22","145975","0.0-22.0","2712","3088","23","Male","false","false","false","false","""event"",""trial"",""time""
""fullscreenenter"",""5"",""14792""
","
","
","""event"",""trial"",""time""
""fullscreenenter"",""5"",""14792""
","
","315.19999998807907","","49","","","3000","1","1765.1000000238419","49","images/tutyellowplanet.jpg","null","images/tutalien3","null","images/tutalien3","images/t.png","NA","practice","null","","","",""
"d3-animate-choice","23","148201","0.0-23.0","2712","3088","23","Male","false","false","false","false","""event"",""trial"",""time""
""fullscreenenter"",""5"",""14792""
","
","
","""event"",""trial"",""time""
""fullscreenenter"",""5"",""14792""
","
","218.4000000357628","","49","","","3000","1","","","images/tutyellowplanet.jpg","null","images/tutalien3","null","images/tutalien3","images/nothing.png","NA","practice","null","","","",""
"d3-animate-choice","24","150514","0.0-24.0","2712","3088","23","Male","false","false","false","false","""event"",""trial"",""time""
""fullscreenenter"",""5"",""14792""
","
","
","""event"",""trial"",""time""
""fullscreenenter"",""5"",""14792""
","
","309.5","","49","","","3000","1","","","images/tutyellowplanet.jpg","null","images/tutalien3","null","images/tutalien3","images/t.png","NA","practice","null","","","",""
"d3-animate-choice","25","152799","0.0-25.0","2712","3088","23","Male","false","false","false","false","""event"",""trial"",""time""
""fullscreenenter"",""5"",""14792""
","
","
","""event"",""trial"",""time""
""fullscreenenter"",""5"",""14792""
","
","279.2000000476837","","49","","","3000","1","","","images/tutyellowplanet.jpg","null","images/tutalien3","null","images/tutalien3","images/t.png","NA","practice","null","","","",""
"d3-animate-choice","26","155161","0.0-26.0","2712","3088","23","Male","false","false","false","false","""event"",""trial"",""time""
""fullscreenenter"",""5"",""14792""
","
","
","""event"",""trial"",""time""
""fullscreenenter"",""5"",""14792""
","
","358.80000001192093","","49","","","3000","1","","","images/tutyellowplanet.jpg","null","images/tutalien3","null","images/tutalien3","images/t.png","NA","practice","null","","","",""
"d3-animate-choice","27","157501","0.0-27.0","2712","3088","23","Male","false","false","false","false","""event"",""trial"",""time""
""fullscreenenter"",""5"",""14792""
","
","
","""event"",""trial"",""time""
""fullscreenenter"",""5"",""14792""
","
","337.80000001192093","","49","","","3000","1","2108.400000035763","49","images/tutyellowplanet.jpg","null","images/tutalien3","null","images/tutalien3","images/nothing.png","NA","practice","null","","","",""
"d3-animate-choice","28","159945","0.0-28.0","2712","3088","23","Male","false","false","false","false","""event"",""trial"",""time""
""fullscreenenter"",""5"",""14792""
","
","
","""event"",""trial"",""time""
""fullscreenenter"",""5"",""14792""
","
","437.5","","49","","","3000","1","","","images/tutyellowplanet.jpg","null","images/tutalien3","null","images/tutalien3","images/t.png","NA","practice","null","","","",""
"d3-animate-choice","29","162336","0.0-29.0","2712","3088","23","Male","false","false","false","false","""event"",""trial"",""time""
""fullscreenenter"",""5"",""14792""
","
","
","""event"",""trial"",""time""
""fullscreenenter"",""5"",""14792""
","
","388.5","","49","","","3000","1","","","images/tutyellowplanet.jpg","null","images/tutalien3","null","images/tutalien3","images/t.png","NA","practice","null","","","",""
"d3-instructions","30","167951","0.0-30.0","2712","3088","23","Male","false","false","false","false","""event"",""trial"",""time""
""fullscreenenter"",""5"",""14792""
","
","
","""event"",""trial"",""time""
""fullscreenenter"",""5"",""14792""
","
","","","","","","","","","","","","","","","","","","","","","",""
"d3-instructions","31","175935","0.0-31.0","2712","3088","23","Male","false","false","false","false","""event"",""trial"",""time""
""fullscreenenter"",""5"",""14792""
","
","
","""event"",""trial"",""time""
""fullscreenenter"",""5"",""14792""
","
","","","","","","","","","","","","","","","","","","","","","",""
"d3-instructions","32","181523","0.0-32.0","2712","3088","23","Male","false","false","false","false","""event"",""trial"",""time""
""fullscreenenter"",""5"",""14792""
","
","
","""event"",""trial"",""time""
""fullscreenenter"",""5"",""14792""
","
","","","","","","","","","","","","","","","","","","","","","",""
"d3-instructions","33","185244","0.0-33.0","2712","3088","23","Male","false","false","false","false","""event"",""trial"",""time""
""fullscreenenter"",""5"",""14792""
","
","
","""event"",""trial"",""time""
""fullscreenenter"",""5"",""14792""
","
","","","","","","","","","","","","","","","","","","","","","",""
"d3-animate-choice","34","188546","0.0-34.0","2712","3088","23","Male","false","false","false","false","""event"",""trial"",""time""
""fullscreenenter"",""5"",""14792""
","
","
","""event"",""trial"",""time""
""fullscreenenter"",""5"",""14792""
","
","1294.9000000357628","","49","","","3000","1","","","images/tutgreenplanet.jpg","images/tutalien1","images/tutalien2","null","images/tutalien2","images/t.png","NA","practice","null","","","",""
"d3-animate-choice","35","190875","0.0-35.0","2712","3088","23","Male","false","false","false","false","""event"",""trial"",""time""
""fullscreenenter"",""5"",""14792""
","
","
","""event"",""trial"",""time""
""fullscreenenter"",""5"",""14792""
","
","322.69999998807907","","49","","","3000","1","","","images/tutgreenplanet.jpg","images/tutalien1","images/tutalien2","null","images/tutalien2","images/t.png","NA","practice","null","","","",""
"d3-animate-choice","36","193213","0.0-36.0","2712","3088","23","Male","false","false","false","false","""event"",""trial"",""time""
""fullscreenenter"",""5"",""14792""
","
","
","""event"",""trial"",""time""
""fullscreenenter"",""5"",""14792""
","
","334.69999998807907","","49","","","3000","1","","","images/tutgreenplanet.jpg","images/tutalien1","images/tutalien2","null","images/tutalien2","images/t.png","NA","practice","null","","","",""
"d3-animate-choice","37","195608","0.0-37.0","2712","3088","23","Male","false","false","false","false","""event"",""trial"",""time""
""fullscreenenter"",""5"",""14792""
","
","
","""event"",""trial"",""time""
""fullscreenenter"",""5"",""14792""
","
","392.10000002384186","","49","","","3000","1","","","images/tutgreenplanet.jpg","images/tutalien1","images/tutalien2","null","images/tutalien2","images/t.png","NA","practice","null","","","",""
"d3-animate-choice","38","197926","0.0-38.0","2712","3088","23","Male","false","false","false","false","""event"",""trial"",""time""
""fullscreenenter"",""5"",""14792""
","
","
","""event"",""trial"",""time""
""fullscreenenter"",""5"",""14792""
","
","312.80000001192093","","49","","","3000","1","","","images/tutgreenplanet.jpg","images/tutalien1","images/tutalien2","null","images/tutalien2","images/t.png","NA","practice","null","","","",""
"d3-animate-choice","39","201237","0.0-39.0","2712","3088","23","Male","false","false","false","false","""event"",""trial"",""time""
""fullscreenenter"",""5"",""14792""
","
","
","""event"",""trial"",""time""
""fullscreenenter"",""5"",""14792""
","
","1303.300000011921","","49","","","3000","1","","","images/tutgreenplanet.jpg","images/tutalien1","images/tutalien2","null","images/tutalien2","images/t.png","NA","practice","null","","","",""
"d3-animate-choice","40","203664","0.0-40.0","2712","3088","23","Male","false","false","false","false","""event"",""trial"",""time""
""fullscreenenter"",""5"",""14792""
","
","
","""event"",""trial"",""time""
""fullscreenenter"",""5"",""14792""
","
","422.89999997615814","","49","","","3000","1","","","images/tutgreenplanet.jpg","images/tutalien1","images/tutalien2","null","images/tutalien2","images/t.png","NA","practice","null","","","",""
"d3-animate-choice","41","205991","0.0-41.0","2712","3088","23","Male","false","false","false","false","""event"",""trial"",""time""
""fullscreenenter"",""5"",""14792""
","
","
","""event"",""trial"",""time""
""fullscreenenter"",""5"",""14792""
","
","324","","49","","","3000","1","","","images/tutgreenplanet.jpg","images/tutalien1","images/tutalien2","null","images/tutalien2","images/t.png","NA","practice","null","","","",""
"d3-animate-choice","42","208303","0.0-42.0","2712","3088","23","Male","false","false","false","false","""event"",""trial"",""time""
""fullscreenenter"",""5"",""14792""
","
","
","""event"",""trial"",""time""
""fullscreenenter"",""5"",""14792""
","
","310.10000002384186","","49","","","3000","1","1736.6000000238419","49","images/tutgreenplanet.jpg","images/tutalien1","images/tutalien2","null","images/tutalien2","images/t.png","NA","practice","null","","","",""
"d3-animate-choice","43","210611","0.0-43.0","2712","3088","23","Male","false","false","false","false","""event"",""trial"",""time""
""fullscreenenter"",""5"",""14792""
","
","
","""event"",""trial"",""time""
""fullscreenenter"",""5"",""14792""
","
","304.9000000357628","","49","","","3000","1","","","images/tutgreenplanet.jpg","images/tutalien1","images/tutalien2","null","images/tutalien2","images/t.png","NA","practice","null","","","",""
"d3-instructions","44","223009","0.0-44.0","2712","3088","23","Male","false","false","false","false","""event"",""trial"",""time""
""fullscreenenter"",""5"",""14792""
","
","
","""event"",""trial"",""time""
""fullscreenenter"",""5"",""14792""
","
","","","","","","","","","","","","","","","","","","","","","",""
"d3-instructions","45","226287","0.0-45.0","2712","3088","23","Male","false","false","false","false","""event"",""trial"",""time""
""fullscreenenter"",""5"",""14792""
","
","
","""event"",""trial"",""time""
""fullscreenenter"",""5"",""14792""
","
","","","","","","","","","","","","","","","","","","","","","",""
"d3-instructions","46","233428","0.0-46.0","2712","3088","23","Male","false","false","false","false","""event"",""trial"",""time""
""fullscreenenter"",""5"",""14792""
","
","
","""event"",""trial"",""time""
""fullscreenenter"",""5"",""14792""
","
","","","","","","","","","","","","","","","","","","","","","",""
"d3-instructions","47","252790","0.0-47.0","2712","3088","23","Male","false","false","false","false","""event"",""trial"",""time""
""fullscreenenter"",""5"",""14792""
","
","
","""event"",""trial"",""time""
""fullscreenenter"",""5"",""14792""
","
","","","","","","","","","","","","","","","","","","","","","",""
"d3-instructions","48","257872","0.0-48.0","2712","3088","23","Male","false","false","false","false","""event"",""trial"",""time""
""fullscreenenter"",""5"",""14792""
","
","
","""event"",""trial"",""time""
""fullscreenenter"",""5"",""14792""
","
","","","","","","","","","","","","","","","","","","","","","",""
"d3-instructions","49","269269","0.0-49.0","2712","3088","23","Male","false","false","false","false","""event"",""trial"",""time""
""fullscreenenter"",""5"",""14792""
","
","
","""event"",""trial"",""time""
""fullscreenenter"",""5"",""14792""
","
","","","","","","","","","","","","","","","","","","","","","",""
"d3-instructions","50","279422","0.0-50.0","2712","3088","23","Male","false","false","false","false","""event"",""trial"",""time""
""fullscreenenter"",""5"",""14792""
","
","
","""event"",""trial"",""time""
""fullscreenenter"",""5"",""14792""
","
","","","","","","","","","","","","","","","","","","","","","",""
"d3-instructions","51","282115","0.0-51.0","2712","3088","23","Male","false","false","false","false","""event"",""trial"",""time""
""fullscreenenter"",""5"",""14792""
","
","
","""event"",""trial"",""time""
""fullscreenenter"",""5"",""14792""
","
","","","","","","","","","","","","","","","","","","","","","",""
"d3-instructions","52","283724","0.0-52.0","2712","3088","23","Male","false","false","false","false","""event"",""trial"",""time""
""fullscreenenter"",""5"",""14792""
","
","
","""event"",""trial"",""time""
""fullscreenenter"",""5"",""14792""
","
","","","","","","","","","","","","","","","","","","","","","",""
"d3-instructions","53","295364","0.0-53.0","2712","3088","23","Male","false","false","false","false","""event"",""trial"",""time""
""fullscreenenter"",""5"",""14792""
","
","
","""event"",""trial"",""time""
""fullscreenenter"",""5"",""14792""
","
","","","","","","","","","","","","","","","","","","","","","",""
"d3-instructions","54","313423","0.0-54.0","2712","3088","23","Male","false","false","false","false","""event"",""trial"",""time""
""fullscreenenter"",""5"",""14792""
","
","
","""event"",""trial"",""time""
""fullscreenenter"",""5"",""14792""
","
","","","","","","","","","","","","","","","","","","","","","",""
"d3-instructions","55","322111","0.0-55.0","2712","3088","23","Male","false","false","false","false","""event"",""trial"",""time""
""fullscreenenter"",""5"",""14792""
","
","
","""event"",""trial"",""time""
""fullscreenenter"",""5"",""14792""
","
","","","","","","","","","","","","","","","","","","","","","",""
"d3-instructions","56","331584","0.0-56.0","2712","3088","23","Male","false","false","false","false","""event"",""trial"",""time""
""fullscreenenter"",""5"",""14792""
","
","
","""event"",""trial"",""time""
""fullscreenenter"",""5"",""14792""
","
","","","","","","","","","","","","","","","","","","","","","",""
"d3-instructions","57","342031","0.0-57.0","2712","3088","23","Male","false","false","false","false","""event"",""trial"",""time""
""fullscreenenter"",""5"",""14792""
","
","
","""event"",""trial"",""time""
""fullscreenenter"",""5"",""14792""
","
","","","","","","","","","","","","","","","","","","","","","",""
"d3-instructions","58","351811","0.0-58.0","2712","3088","23","Male","false","false","false","false","""event"",""trial"",""time""
""fullscreenenter"",""5"",""14792""
","
","
","""event"",""trial"",""time""
""fullscreenenter"",""5"",""14792""
","
","","","","","","","","","","","","","","","","","","","","","",""
"d3-instructions","59","354710","0.0-59.0","2712","3088","23","Male","false","false","false","false","""event"",""trial"",""time""
""fullscreenenter"",""5"",""14792""
","
","
","""event"",""trial"",""time""
""fullscreenenter"",""5"",""14792""
","
","","","","","","","","","","","","","","","","","","","","","",""
"d3-instructions","60","359668","0.0-60.0","2712","3088","23","Male","false","false","false","false","""event"",""trial"",""time""
""fullscreenenter"",""5"",""14792""
","
","
","""event"",""trial"",""time""
""fullscreenenter"",""5"",""14792""
","
","","","","","","","","","","","","","","","","","","","","","",""
"d3-animate-choice","61","362310","0.0-61.0-0.0","2712","3088","23","Male","false","false","false","false","""event"",""trial"",""time""
""fullscreenenter"",""5"",""14792""
","
","
","""event"",""trial"",""time""
""fullscreenenter"",""5"",""14792""
","
","637.8999999761581","","49","","","3000","1","","","images/earth.jpg","images/tutrocket1","images/tutrocket2","null","images/tutrocket2","","1","practice","null","1","","",""
"d3-animate-choice","62","365210","0.0-61.0-1.0","2712","3088","23","Male","false","false","false","false","""event"",""trial"",""time""
""fullscreenenter"",""5"",""14792""
","
","
","""event"",""trial"",""time""
""fullscreenenter"",""5"",""14792""
","
","893.3000000119209","","49","","","3000","1","","","images/tutgreenplanet.jpg","images/tutalien2","images/tutalien1","images/tutrocket2","images/tutalien1","images/nothing.png","2","practice","true","1","common","0","2022-10-06 04:59:05.970"
"two-step-fixation","63","366214","0.0-61.0-2.0","2712","3088","23","Male","false","false","false","false","""event"",""trial"",""time""
""fullscreenenter"",""5"",""14792""
","
","
","""event"",""trial"",""time""
""fullscreenenter"",""5"",""14792""
","
","","images/earth.jpg","","","","","","","","","","","","","","fixation","","","","","",""
"d3-animate-choice","64","368948","0.0-61.0-0.1","2712","3088","23","Male","false","false","false","false","""event"",""trial"",""time""
""fullscreenenter"",""5"",""14792""
","
","
","""event"",""trial"",""time""
""fullscreenenter"",""5"",""14792""
","
","727.6999999880791","","49","","","3000","1","","","images/earth.jpg","images/tutrocket1","images/tutrocket2","null","images/tutrocket2","","1","practice","null","1","","",""
"d3-animate-choice","65","372053","0.0-61.0-1.1","2712","3088","23","Male","false","false","false","false","""event"",""trial"",""time""
""fullscreenenter"",""5"",""14792""
","
","
","""event"",""trial"",""time""
""fullscreenenter"",""5"",""14792""
","
","1101","","48","","","3000","1","","","images/tutgreenplanet.jpg","images/tutalien2","images/tutalien1","images/tutrocket2","images/tutalien2","images/nothing.png","2","practice","true","2","common","0","2022-10-06 04:59:12.813"
"two-step-fixation","66","373057","0.0-61.0-2.1","2712","3088","23","Male","false","false","false","false","""event"",""trial"",""time""
""fullscreenenter"",""5"",""14792""
","
","
","""event"",""trial"",""time""
""fullscreenenter"",""5"",""14792""
","
","","images/earth.jpg","","","","","","","","","","","","","","fixation","","","","","",""
"d3-animate-choice","67","375495","0.0-61.0-0.2","2712","3088","23","Male","false","false","false","false","""event"",""trial"",""time""
""fullscreenenter"",""5"",""14792""
","
","
","""event"",""trial"",""time""
""fullscreenenter"",""5"",""14792""
","
","431.69999998807907","","48","","","3000","1","","","images/earth.jpg","images/tutrocket1","images/tutrocket2","null","images/tutrocket1","","1","practice","null","2","","",""
"d3-animate-choice","68","378172","0.0-61.0-1.2","2712","3088","23","Male","false","false","false","false","""event"",""trial"",""time""
""fullscreenenter"",""5"",""14792""
","
","
","""event"",""trial"",""time""
""fullscreenenter"",""5"",""14792""
","
","673.1999999880791","","49","","","3000","1","","","images/tutyellowplanet.jpg","images/tutalien4","images/tutalien3","images/tutrocket1","images/tutalien3","images/nothing.png","2","practice","true","1","common","0","2022-10-06 04:59:18.932"
"two-step-fixation","69","379179","0.0-61.0-2.2","2712","3088","23","Male","false","false","false","false","""event"",""trial"",""time""
""fullscreenenter"",""5"",""14792""
","
","
","""event"",""trial"",""time""
""fullscreenenter"",""5"",""14792""
","
","","images/earth.jpg","","","","","","","","","","","","","","fixation","","","","","",""
"d3-animate-choice","70","381510","0.0-61.0-0.3","2712","3088","23","Male","false","false","false","false","""event"",""trial"",""time""
""fullscreenenter"",""5"",""14792""
","
","
","""event"",""trial"",""time""
""fullscreenenter"",""5"",""14792""
","
","326.5","","48","","","3000","1","","","images/earth.jpg","images/tutrocket1","images/tutrocket2","null","images/tutrocket1","","1","practice","null","2","","",""
"d3-animate-choice","71","384141","0.0-61.0-1.3","2712","3088","23","Male","false","false","false","false","""event"",""trial"",""time""
""fullscreenenter"",""5"",""14792""
","
","
","""event"",""trial"",""time""
""fullscreenenter"",""5"",""14792""
","
","622.6999999880791","","48","","","3000","1","","","images/tutyellowplanet.jpg","images/tutalien4","images/tutalien3","images/tutrocket1","images/tutalien4","images/t.png","2","practice","true","2","common","1","2022-10-06 04:59:24.901"
"two-step-fixation","72","385145","0.0-61.0-2.3","2712","3088","23","Male","false","false","false","false","""event"",""trial"",""time""
""fullscreenenter"",""5"",""14792""
","
","
","""event"",""trial"",""time""
""fullscreenenter"",""5"",""14792""
","
","","images/earth.jpg","","","","","","","","","","","","","","fixation","","","","","",""
"d3-animate-choice","73","387498","0.0-61.0-0.4","2712","3088","23","Male","false","false","false","false","""event"",""trial"",""time""
""fullscreenenter"",""5"",""14792""
","
","
","""event"",""trial"",""time""
""fullscreenenter"",""5"",""14792""
","
","349.69999998807907","","48","","","3000","1","","","images/earth.jpg","images/tutrocket1","images/tutrocket2","null","images/tutrocket1","","1","practice","null","2","","",""
"d3-animate-choice","74","389923","0.0-61.0-1.4","2712","3088","23","Male","false","false","false","false","""event"",""trial"",""time""
""fullscreenenter"",""5"",""14792""
","
","
","""event"",""trial"",""time""
""fullscreenenter"",""5"",""14792""
","
","418.30000001192093","","48","","","3000","1","","","images/tutgreenplanet.jpg","images/tutalien2","images/tutalien1","images/tutrocket1","images/tutalien2","images/t.png","2","practice","false","2","rare","1","2022-10-06 04:59:30.683"
"two-step-fixation","75","390928","0.0-61.0-2.4","2712","3088","23","Male","false","false","false","false","""event"",""trial"",""time""
""fullscreenenter"",""5"",""14792""
","
","
","""event"",""trial"",""time""
""fullscreenenter"",""5"",""14792""
","
","","images/earth.jpg","","","","","","","","","","","","","","fixation","","","","","",""
"d3-animate-choice","76","393232","0.0-61.0-0.5","2712","3088","23","Male","false","false","false","false","""event"",""trial"",""time""
""fullscreenenter"",""5"",""14792""
","
","
","""event"",""trial"",""time""
""fullscreenenter"",""5"",""14792""
","
","298","","48","","","3000","1","","","images/earth.jpg","images/tutrocket1","images/tutrocket2","null","images/tutrocket1","","1","practice","null","2","","",""
"d3-animate-choice","77","395746","0.0-61.0-1.5","2712","3088","23","Male","false","false","false","false","""event"",""trial"",""time""
""fullscreenenter"",""5"",""14792""
","
","
","""event"",""trial"",""time""
""fullscreenenter"",""5"",""14792""
","
","509.5999999642372","","48","","","3000","1","","","images/tutgreenplanet.jpg","images/tutalien2","images/tutalien1","images/tutrocket1","images/tutalien2","images/nothing.png","2","practice","false","2","rare","0","2022-10-06 04:59:36.507"
"two-step-fixation","78","396751","0.0-61.0-2.5","2712","3088","23","Male","false","false","false","false","""event"",""trial"",""time""
""fullscreenenter"",""5"",""14792""
","
","
","""event"",""trial"",""time""
""fullscreenenter"",""5"",""14792""
","
","","images/earth.jpg","","","","","","","","","","","","","","fixation","","","","","",""
"d3-animate-choice","79","399003","0.0-61.0-0.6","2712","3088","23","Male","false","false","false","false","""event"",""trial"",""time""
""fullscreenenter"",""5"",""14792""
","
","
","""event"",""trial"",""time""
""fullscreenenter"",""5"",""14792""
","
","244.69999998807907","","48","","","3000","1","","","images/earth.jpg","images/tutrocket1","images/tutrocket2","null","images/tutrocket1","","1","practice","null","2","","",""
"d3-animate-choice","80","401662","0.0-61.0-1.6","2712","3088","23","Male","false","false","false","false","""event"",""trial"",""time""
""fullscreenenter"",""5"",""14792""
","
","
","""event"",""trial"",""time""
""fullscreenenter"",""5"",""14792""
","
","655.5999999642372","","48","","","3000","1","","","images/tutgreenplanet.jpg","images/tutalien2","images/tutalien1","images/tutrocket1","images/tutalien2","images/t.png","2","practice","false","2","rare","1","2022-10-06 04:59:42.422"
"two-step-fixation","81","402666","0.0-61.0-2.6","2712","3088","23","Male","false","false","false","false","""event"",""trial"",""time""
""fullscreenenter"",""5"",""14792""
","
","
","""event"",""trial"",""time""
""fullscreenenter"",""5"",""14792""
","
","","images/earth.jpg","","","","","","","","","","","","","","fixation","","","","","",""
"d3-animate-choice","82","405062","0.0-61.0-0.7","2712","3088","23","Male","false","false","false","false","""event"",""trial"",""time""
""fullscreenenter"",""5"",""14792""
","
","
","""event"",""trial"",""time""
""fullscreenenter"",""5"",""14792""
","
","392.10000002384186","","48","","","3000","1","","","images/earth.jpg","images/tutrocket1","images/tutrocket2","null","images/tutrocket1","","1","practice","null","2","","",""
"d3-animate-choice","83","407525","0.0-61.0-1.7","2712","3088","23","Male","false","false","false","false","""event"",""trial"",""time""
""fullscreenenter"",""5"",""14792""
","
","
","""event"",""trial"",""time""
""fullscreenenter"",""5"",""14792""
","
","457.4000000357628","","48","","","3000","1","","","images/tutyellowplanet.jpg","images/tutalien4","images/tutalien3","images/tutrocket1","images/tutalien4","images/nothing.png","2","practice","true","2","common","0","2022-10-06 04:59:48.285"
"two-step-fixation","84","408528","0.0-61.0-2.7","2712","3088","23","Male","false","false","false","false","""event"",""trial"",""time""
""fullscreenenter"",""5"",""14792""
","
","
","""event"",""trial"",""time""
""fullscreenenter"",""5"",""14792""
","
","","images/earth.jpg","","","","","","","","","","","","","","fixation","","","","","",""
"d3-animate-choice","85","411669","0.0-61.0-0.8","2712","3088","23","Male","false","false","false","false","""event"",""trial"",""time""
""fullscreenenter"",""5"",""14792""
","
","
","""event"",""trial"",""time""
""fullscreenenter"",""5"",""14792""
","
","1135.8999999761581","","48","","","3000","1","","","images/earth.jpg","images/tutrocket1","images/tutrocket2","null","images/tutrocket1","","1","practice","null","2","","",""
"d3-animate-choice","86","415675","0.0-61.0-1.8","2712","3088","23","Male","false","false","false","false","""event"",""trial"",""time""
""fullscreenenter"",""5"",""14792""
","
","
","""event"",""trial"",""time""
""fullscreenenter"",""5"",""14792""
","
","2026.8999999761581","","48","","","3000","1","","","images/tutyellowplanet.jpg","images/tutalien4","images/tutalien3","images/tutrocket1","images/tutalien4","images/t.png","2","practice","true","2","common","1","2022-10-06 04:59:56.435"
"two-step-fixation","87","416679","0.0-61.0-2.8","2712","3088","23","Male","false","false","false","false","""event"",""trial"",""time""
""fullscreenenter"",""5"",""14792""
","
","
","""event"",""trial"",""time""
""fullscreenenter"",""5"",""14792""
","
","","images/earth.jpg","","","","","","","","","","","","","","fixation","","","","","",""
"d3-animate-choice","88","418979","0.0-61.0-0.9","2712","3088","23","Male","false","false","false","false","""event"",""trial"",""time""
""fullscreenenter"",""5"",""14792""
","
","
","""event"",""trial"",""time""
""fullscreenenter"",""5"",""14792""
","
","296.5999999642372","","48","","","3000","1","","","images/earth.jpg","images/tutrocket1","images/tutrocket2","null","images/tutrocket1","","1","practice","null","2","","",""
"d3-animate-choice","89","421538","0.0-61.0-1.9","2712","3088","23","Male","false","false","false","false","""event"",""trial"",""time""
""fullscreenenter"",""5"",""14792""
","
","
","""event"",""trial"",""time""
""fullscreenenter"",""5"",""14792""
","
","555.6000000238419","","48","","","3000","1","","","images/tutgreenplanet.jpg","images/tutalien2","images/tutalien1","images/tutrocket1","images/tutalien2","images/t.png","2","practice","false","2","rare","1","2022-10-06 05:00:02.298"
"two-step-fixation","90","422543","0.0-61.0-2.9","2712","3088","23","Male","false","false","false","false","""event"",""trial"",""time""
""fullscreenenter"",""5"",""14792""
","
","
","""event"",""trial"",""time""
""fullscreenenter"",""5"",""14792""
","
","","images/earth.jpg","","","","","","","","","","","","","","fixation","","","","","",""
"d3-animate-choice","91","424844","0.0-61.0-0.10","2712","3088","23","Male","false","false","false","false","""event"",""trial"",""time""
""fullscreenenter"",""5"",""14792""
","
","
","""event"",""trial"",""time""
""fullscreenenter"",""5"",""14792""
","
","296.5999999642372","","48","","","3000","1","","","images/earth.jpg","images/tutrocket1","images/tutrocket2","null","images/tutrocket1","","1","practice","null","2","","",""
"d3-animate-choice","92","427372","0.0-61.0-1.10","2712","3088","23","Male","false","false","false","false","""event"",""trial"",""time""
""fullscreenenter"",""5"",""14792""
","
","
","""event"",""trial"",""time""
""fullscreenenter"",""5"",""14792""
","
","524.6999999880791","","48","","","3000","1","","","images/tutgreenplanet.jpg","images/tutalien2","images/tutalien1","images/tutrocket1","images/tutalien2","images/t.png","2","practice","false","2","rare","1","2022-10-06 05:00:08.133"
"two-step-fixation","93","428377","0.0-61.0-2.10","2712","3088","23","Male","false","false","false","false","""event"",""trial"",""time""
""fullscreenenter"",""5"",""14792""
","
","
","""event"",""trial"",""time""
""fullscreenenter"",""5"",""14792""
","
","","images/earth.jpg","","","","","","","","","","","","","","fixation","","","","","",""
"d3-animate-choice","94","430696","0.0-61.0-0.11","2712","3088","23","Male","false","false","false","false","""event"",""trial"",""time""
""fullscreenenter"",""5"",""14792""
","
","
","""event"",""trial"",""time""
""fullscreenenter"",""5"",""14792""
","
","311.69999998807907","","48","","","3000","1","","","images/earth.jpg","images/tutrocket1","images/tutrocket2","null","images/tutrocket1","","1","practice","null","2","","",""
"d3-animate-choice","95","434607","0.0-61.0-1.11","2712","3088","23","Male","false","false","false","false","""event"",""trial"",""time""
""fullscreenenter"",""5"",""14792""
","
","
","""event"",""trial"",""time""
""fullscreenenter"",""5"",""14792""
","
","1907.699999988079","","48","","","3000","1","","","images/tutyellowplanet.jpg","images/tutalien4","images/tutalien3","images/tutrocket1","images/tutalien4","images/nothing.png","2","practice","true","2","common","0","2022-10-06 05:00:15.368"
"two-step-fixation","96","435610","0.0-61.0-2.11","2712","3088","23","Male","false","false","false","false","""event"",""trial"",""time""
""fullscreenenter"",""5"",""14792""
","
","
","""event"",""trial"",""time""
""fullscreenenter"",""5"",""14792""
","
","","images/earth.jpg","","","","","","","","","","","","","","fixation","","","","","",""
"d3-animate-choice","97","437915","0.0-61.0-0.12","2712","3088","23","Male","false","false","false","false","""event"",""trial"",""time""
""fullscreenenter"",""5"",""14792""
","
","
","""event"",""trial"",""time""
""fullscreenenter"",""5"",""14792""
","
","301.30000001192093","","48","","","3000","1","","","images/earth.jpg","images/tutrocket1","images/tutrocket2","null","images/tutrocket1","","1","practice","null","2","","",""
"d3-animate-choice","98","440578","0.0-61.0-1.12","2712","3088","23","Male","false","false","false","false","""event"",""trial"",""time""
""fullscreenenter"",""5"",""14792""
","
","
","""event"",""trial"",""time""
""fullscreenenter"",""5"",""14792""
","
","657.1000000238419","","49","","","3000","1","","","images/tutyellowplanet.jpg","images/tutalien4","images/tutalien3","images/tutrocket1","images/tutalien3","images/nothing.png","2","practice","true","1","common","0","2022-10-06 05:00:21.338"
"two-step-fixation","99","441583","0.0-61.0-2.12","2712","3088","23","Male","false","false","false","false","""event"",""trial"",""time""
""fullscreenenter"",""5"",""14792""
","
","
","""event"",""trial"",""time""
""fullscreenenter"",""5"",""14792""
","
","","images/earth.jpg","","","","","","","","","","","","","","fixation","","","","","",""
"d3-animate-choice","100","445399","0.0-61.0-0.13","2712","3088","23","Male","false","false","false","false","""event"",""trial"",""time""
""fullscreenenter"",""5"",""14792""
","
","
","""event"",""trial"",""time""
""fullscreenenter"",""5"",""14792""
","
","1808.4000000357628","","49","","","3000","1","","","images/earth.jpg","images/tutrocket1","images/tutrocket2","null","images/tutrocket2","","1","practice","null","1","","",""
"d3-animate-choice","101","448405","0.0-61.0-1.13","2712","3088","23","Male","false","false","false","false","""event"",""trial"",""time""
""fullscreenenter"",""5"",""14792""
","
","
","""event"",""trial"",""time""
""fullscreenenter"",""5"",""14792""
","
","1000.1999999880791","","49","","","3000","1","","","images/tutyellowplanet.jpg","images/tutalien4","images/tutalien3","images/tutrocket2","images/tutalien3","images/nothing.png","2","practice","false","1","rare","0","2022-10-06 05:00:29.165"
"two-step-fixation","102","449409","0.0-61.0-2.13","2712","3088","23","Male","false","false","false","false","""event"",""trial"",""time""
""fullscreenenter"",""5"",""14792""
","
","
","""event"",""trial"",""time""
""fullscreenenter"",""5"",""14792""
","
","","images/earth.jpg","","","","","","","","","","","","","","fixation","","","","","",""
"d3-animate-choice","103","451696","0.0-61.0-0.14","2712","3088","23","Male","false","false","false","false","""event"",""trial"",""time""
""fullscreenenter"",""5"",""14792""
","
","
","""event"",""trial"",""time""
""fullscreenenter"",""5"",""14792""
","
","283.60000002384186","","48","","","3000","1","","","images/earth.jpg","images/tutrocket1","images/tutrocket2","null","images/tutrocket1","","1","practice","null","2","","",""
"d3-animate-choice","104","454218","0.0-61.0-1.14","2712","3088","23","Male","false","false","false","false","""event"",""trial"",""time""
""fullscreenenter"",""5"",""14792""
","
","
","""event"",""trial"",""time""
""fullscreenenter"",""5"",""14792""
","
","515.1000000238419","","48","","","3000","1","","","images/tutgreenplanet.jpg","images/tutalien2","images/tutalien1","images/tutrocket1","images/tutalien2","images/nothing.png","2","practice","false","2","rare","0","2022-10-06 05:00:34.978"
"two-step-fixation","105","455225","0.0-61.0-2.14","2712","3088","23","Male","false","false","false","false","""event"",""trial"",""time""
""fullscreenenter"",""5"",""14792""
","
","
","""event"",""trial"",""time""
""fullscreenenter"",""5"",""14792""
","
","","images/earth.jpg","","","","","","","","","","","","","","fixation","","","","","",""
"d3-animate-choice","106","457559","0.0-61.0-0.15","2712","3088","23","Male","false","false","false","false","""event"",""trial"",""time""
""fullscreenenter"",""5"",""14792""
","
","
","""event"",""trial"",""time""
""fullscreenenter"",""5"",""14792""
","
","330.5","","48","","","3000","1","","","images/earth.jpg","images/tutrocket1","images/tutrocket2","null","images/tutrocket1","","1","practice","null","2","","",""
"d3-animate-choice","107","460242","0.0-61.0-1.15","2712","3088","23","Male","false","false","false","false","""event"",""trial"",""time""
""fullscreenenter"",""5"",""14792""
","
","
","""event"",""trial"",""time""
""fullscreenenter"",""5"",""14792""
","
","677.1999999880791","","48","","","3000","1","","","images/tutgreenplanet.jpg","images/tutalien2","images/tutalien1","images/tutrocket1","images/tutalien2","images/t.png","2","practice","false","2","rare","1","2022-10-06 05:00:41.002"
"two-step-fixation","108","461246","0.0-61.0-2.15","2712","3088","23","Male","false","false","false","false","""event"",""trial"",""time""
""fullscreenenter"",""5"",""14792""
","
","
","""event"",""trial"",""time""
""fullscreenenter"",""5"",""14792""
","
","","images/earth.jpg","","","","","","","","","","","","","","fixation","","","","","",""
"d3-animate-choice","109","463589","0.0-61.0-0.16","2712","3088","23","Male","false","false","false","false","""event"",""trial"",""time""
""fullscreenenter"",""5"",""14792""
","
","
","""event"",""trial"",""time""
""fullscreenenter"",""5"",""14792""
","
","339.5","","48","","","3000","1","","","images/earth.jpg","images/tutrocket1","images/tutrocket2","null","images/tutrocket1","","1","practice","null","2","","",""
"d3-animate-choice","110","466859","0.0-61.0-1.16","2712","3088","23","Male","false","false","false","false","""event"",""trial"",""time""
""fullscreenenter"",""5"",""14792""
","
","
","""event"",""trial"",""time""
""fullscreenenter"",""5"",""14792""
","
","1268","","48","","","3000","1","","","images/tutyellowplanet.jpg","images/tutalien4","images/tutalien3","images/tutrocket1","images/tutalien4","images/nothing.png","2","practice","true","2","common","0","2022-10-06 05:00:47.619"
"two-step-fixation","111","467863","0.0-61.0-2.16","2712","3088","23","Male","false","false","false","false","""event"",""trial"",""time""
""fullscreenenter"",""5"",""14792""
","
","
","""event"",""trial"",""time""
""fullscreenenter"",""5"",""14792""
","
","","images/earth.jpg","","","","","","","","","","","","","","fixation","","","","","",""
"d3-animate-choice","112","470179","0.0-61.0-0.17","2712","3088","23","Male","false","false","false","false","""event"",""trial"",""time""
""fullscreenenter"",""5"",""14792""
","
","
","""event"",""trial"",""time""
""fullscreenenter"",""5"",""14792""
","
","308.10000002384186","","48","","","3000","1","","","images/earth.jpg","images/tutrocket1","images/tutrocket2","null","images/tutrocket1","","1","practice","null","2","","",""
"d3-animate-choice","113","473310","0.0-61.0-1.17","2712","3088","23","Male","false","false","false","false","""event"",""trial"",""time""
""fullscreenenter"",""5"",""14792""
","
","
","""event"",""trial"",""time""
""fullscreenenter"",""5"",""14792""
","
","1129.199999988079","","48","","","3000","1","","","images/tutyellowplanet.jpg","images/tutalien4","images/tutalien3","images/tutrocket1","images/tutalien4","images/nothing.png","2","practice","true","2","common","0","2022-10-06 05:00:54.071"
"two-step-fixation","114","474313","0.0-61.0-2.17","2712","3088","23","Male","false","false","false","false","""event"",""trial"",""time""
""fullscreenenter"",""5"",""14792""
","
","
","""event"",""trial"",""time""
""fullscreenenter"",""5"",""14792""
","
","","images/earth.jpg","","","","","","","","","","","","","","fixation","","","","","",""
"d3-animate-choice","115","476675","0.0-61.0-0.18","2712","3088","23","Male","false","false","false","false","""event"",""trial"",""time""
""fullscreenenter"",""5"",""14792""
","
","
","""event"",""trial"",""time""
""fullscreenenter"",""5"",""14792""
","
","358.89999997615814","","48","","","3000","1","","","images/earth.jpg","images/tutrocket1","images/tutrocket2","null","images/tutrocket1","","1","practice","null","2","","",""
"d3-animate-choice","116","479223","0.0-61.0-1.18","2712","3088","23","Male","false","false","false","false","""event"",""trial"",""time""
""fullscreenenter"",""5"",""14792""
","
","
","""event"",""trial"",""time""
""fullscreenenter"",""5"",""14792""
","
","543.6999999880791","","48","","","3000","1","","","images/tutgreenplanet.jpg","images/tutalien2","images/tutalien1","images/tutrocket1","images/tutalien2","images/nothing.png","2","practice","false","2","rare","0","2022-10-06 05:00:59.983"
"two-step-fixation","117","480225","0.0-61.0-2.18","2712","3088","23","Male","false","false","false","false","""event"",""trial"",""time""
""fullscreenenter"",""5"",""14792""
","
","
","""event"",""trial"",""time""
""fullscreenenter"",""5"",""14792""
","
","","images/earth.jpg","","","","","","","","","","","","","","fixation","","","","","",""
"d3-animate-choice","118","482556","0.0-61.0-0.19","2712","3088","23","Male","false","false","false","false","""event"",""trial"",""time""
""fullscreenenter"",""5"",""14792""
","
","
","""event"",""trial"",""time""
""fullscreenenter"",""5"",""14792""
","
","328.10000002384186","","48","","","3000","1","","","images/earth.jpg","images/tutrocket1","images/tutrocket2","null","images/tutrocket1","","1","practice","null","2","","",""
"d3-animate-choice","119","486568","0.0-61.0-1.19","2712","3088","23","Male","false","false","false","false","""event"",""trial"",""time""
""fullscreenenter"",""5"",""14792""
","
","
","""event"",""trial"",""time""
""fullscreenenter"",""5"",""14792""
","
","2301.2999999523163","","48","","","3000","1","","","images/tutyellowplanet.jpg","images/tutalien4","images/tutalien3","images/tutrocket1","images/tutalien4","images/t.png","2","practice","true","2","common","1","2022-10-06 05:01:07.328"
"two-step-fixation","120","487571","0.0-61.0-2.19","2712","3088","23","Male","false","false","false","false","""event"",""trial"",""time""
""fullscreenenter"",""5"",""14792""
","
","
","""event"",""trial"",""time""
""fullscreenenter"",""5"",""14792""
","
","","images/earth.jpg","","","","","","","","","","","","","","fixation","","","","","",""
"d3-instructions","121","494104","0.0-62.0","2712","3088","23","Male","false","false","false","false","""event"",""trial"",""time""
""fullscreenenter"",""5"",""14792""
","
","
","""event"",""trial"",""time""
""fullscreenenter"",""5"",""14792""
","
","","","","","","","","","","","","","","","","","","","","","",""
"audio-keyboard-response","122","499201","0.0-63.0","2712","3088","23","Male","false","false","false","false","""event"",""trial"",""time""
""fullscreenenter"",""5"",""14792""
","
","
","""event"",""trial"",""time""
""fullscreenenter"",""5"",""14792""
","
","5097","audio/instructions/treasure_feedback.wav","32","","","","","","","","","","","","","","","","","","",""
"d3-instructions","123","517158","0.0-64.0","2712","3088","23","Male","false","false","false","false","""event"",""trial"",""time""
""fullscreenenter"",""5"",""14792""
","
","
","""event"",""trial"",""time""
""fullscreenenter"",""5"",""14792""
","
","","","","","","","","","","","","","","","","","","","","","",""
"d3-instructions","124","529101","0.0-65.0","2712","3088","23","Male","false","false","false","false","""event"",""trial"",""time""
""fullscreenenter"",""5"",""14792""
","
","
","""event"",""trial"",""time""
""fullscreenenter"",""5"",""14792""
","
","","","","","","","","","","","","","","","","","","","","","",""
"d3-instructions","125","552733","0.0-66.0","2712","3088","23","Male","false","false","false","false","""event"",""trial"",""time""
""fullscreenenter"",""5"",""14792""
","
","
","""event"",""trial"",""time""
""fullscreenenter"",""5"",""14792""
","
","","","","","","","","","","","","","","","","","","","","","",""
"d3-instructions","126","566915","0.0-67.0","2712","3088","23","Male","false","false","false","false","""event"",""trial"",""time""
""fullscreenenter"",""5"",""14792""
","
","
","""event"",""trial"",""time""
""fullscreenenter"",""5"",""14792""
","
","","","","","","","","","","","","","","","","","","","","","",""
"d3-instructions","127","571832","0.0-68.0","2712","3088","23","Male","false","false","false","false","""event"",""trial"",""time""
""fullscreenenter"",""5"",""14792""
","
","
","""event"",""trial"",""time""
""fullscreenenter"",""5"",""14792""
","
","","","","","","","","","","","","","","","","","","","","","",""
"instructions-quiz","128","576435","0.0-69.0","2712","3088","23","Male","false","false","false","false","""event"",""trial"",""time""
""fullscreenenter"",""5"",""14792""
","
","
","""event"",""trial"",""time""
""fullscreenenter"",""5"",""14792""
","
","4600.400000035763","audio/quiz/Q1_Prompt.wav","","1","","","","","","","","","","","","","","","","","",""
"audio-keyboard-response","129","579305","0.0-70.0","2712","3088","23","Male","false","false","false","false","""event"",""trial"",""time""
""fullscreenenter"",""5"",""14792""
","
","
","""event"",""trial"",""time""
""fullscreenenter"",""5"",""14792""
","
","2868","audio/quiz/Q1_Correct.wav","32","","","","","","","","","","","","","","","","","","",""
"instructions-quiz","130","587156","0.0-71.0","2712","3088","23","Male","false","false","false","false","""event"",""trial"",""time""
""fullscreenenter"",""5"",""14792""
","
","
","""event"",""trial"",""time""
""fullscreenenter"",""5"",""14792""
","
","7848.599999964237","audio/quiz/Q2_Prompt.wav","","0","","","","","","","","","","","","","","","","","",""
"audio-keyboard-response","131","587873","0.0-72.0","2712","3088","23","Male","false","false","false","false","""event"",""trial"",""time""
""fullscreenenter"",""5"",""14792""
","
","
","""event"",""trial"",""time""
""fullscreenenter"",""5"",""14792""
","
","720","audio/quiz/Q2_Correct.wav","32","","","","","","","","","","","","","","","","","","",""
"instructions-quiz","132","591102","0.0-73.0","2712","3088","23","Male","false","false","false","false","""event"",""trial"",""time""
""fullscreenenter"",""5"",""14792""
","
","
","""event"",""trial"",""time""
""fullscreenenter"",""5"",""14792""
","
","3226.399999976158","audio/quiz/Q3_Prompt.wav","","1","","","","","","","","","","","","","","","","","",""
"audio-keyboard-response","133","591651","0.0-74.0","2712","3088","23","Male","false","false","false","false","""event"",""trial"",""time""
""fullscreenenter"",""5"",""14792""
","
","
","""event"",""trial"",""time""
""fullscreenenter"",""5"",""14792""
","
","546","audio/quiz/Q3_Correct.wav","32","","","","","","","","","","","","","","","","","","",""
"d3-instructions","134","606724","0.0-75.0","2712","3088","23","Male","false","false","false","false","""event"",""trial"",""time""
""fullscreenenter"",""5"",""14792""
","
","
","""event"",""trial"",""time""
""fullscreenenter"",""5"",""14792""
","
","","","","","","","","","","","","","","","","","","","","","",""
"d3-animate-choice","135","609665","0.0-76.0-0.0","2712","3088","23","Male","false","false","false","false","""event"",""trial"",""time""
""fullscreenenter"",""5"",""14792""
","
","
","""event"",""trial"",""time""
""fullscreenenter"",""5"",""14792""
","
","937.0999999642372","","49","","","3000","1","","","images/earth.jpg","images/rocket1","images/rocket2","null","images/rocket2","","1","real","null","1","","",""
"d3-animate-choice","136","612475","0.0-76.0-1.0","2712","3088","23","Male","false","false","false","false","""event"",""trial"",""time""
""fullscreenenter"",""5"",""14792""
","
","
","""event"",""trial"",""time""
""fullscreenenter"",""5"",""14792""
","
","805.3999999761581","","49","","","3000","1","","","images/redplanet1.jpg","images/alien2","images/alien1","images/rocket2","images/alien1","images/nothing.png","2","real","true","1","common","0","2022-10-06 05:03:13.235"
"two-step-fixation","137","613480","0.0-76.0-2.0","2712","3088","23","Male","false","false","false","false","""event"",""trial"",""time""
""fullscreenenter"",""5"",""14792""
","
","
","""event"",""trial"",""time""
""fullscreenenter"",""5"",""14792""
","
","","images/earth.jpg","","","","","","","","","","","","","","fixation","","","","","",""
"d3-animate-choice","138","615845","0.0-76.0-0.1","2712","3088","23","Male","false","false","false","false","""event"",""trial"",""time""
""fullscreenenter"",""5"",""14792""
","
","
","""event"",""trial"",""time""
""fullscreenenter"",""5"",""14792""
","
","358.69999998807907","","49","","","3000","1","","","images/earth.jpg","images/rocket1","images/rocket2","null","images/rocket2","","1","real","null","1","","",""
"d3-animate-choice","139","619101","0.0-76.0-1.1","2712","3088","23","Male","false","false","false","false","""event"",""trial"",""time""
""fullscreenenter"",""5"",""14792""
","
","
","""event"",""trial"",""time""
""fullscreenenter"",""5"",""14792""
","
","1253.1000000238419","","49","","","3000","1","","","images/purpleplanet.jpg","images/alien4","images/alien3","images/rocket2","images/alien3","images/nothing.png","2","real","false","1","rare","0","2022-10-06 05:03:19.861"
"two-step-fixation","140","620105","0.0-76.0-2.1","2712","3088","23","Male","false","false","false","false","""event"",""trial"",""time""
""fullscreenenter"",""5"",""14792""
","
","
","""event"",""trial"",""time""
""fullscreenenter"",""5"",""14792""
","
","","images/earth.jpg","","","","","","","","","","","","","","fixation","","","","","",""
"d3-animate-choice","141","622424","0.0-76.0-0.2","2712","3088","23","Male","false","false","false","false","""event"",""trial"",""time""
""fullscreenenter"",""5"",""14792""
","
","
","""event"",""trial"",""time""
""fullscreenenter"",""5"",""14792""
","
","315.19999998807907","","49","","","3000","1","","","images/earth.jpg","images/rocket1","images/rocket2","null","images/rocket2","","1","real","null","1","","",""
"d3-animate-choice","142","625252","0.0-76.0-1.2","2712","3088","23","Male","false","false","false","false","""event"",""trial"",""time""
""fullscreenenter"",""5"",""14792""
","
","
","""event"",""trial"",""time""
""fullscreenenter"",""5"",""14792""
","
","823.6000000238419","","48","","","3000","1","","","images/redplanet1.jpg","images/alien2","images/alien1","images/rocket2","images/alien2","images/nothing.png","2","real","true","2","common","0","2022-10-06 05:03:26.012"
"two-step-fixation","143","626257","0.0-76.0-2.2","2712","3088","23","Male","false","false","false","false","""event"",""trial"",""time""
""fullscreenenter"",""5"",""14792""
","
","
","""event"",""trial"",""time""
""fullscreenenter"",""5"",""14792""
","
","","images/earth.jpg","","","","","","","","","","","","","","fixation","","","","","",""
"d3-animate-choice","144","628627","0.0-76.0-0.3","2712","3088","23","Male","false","false","false","false","""event"",""trial"",""time""
""fullscreenenter"",""5"",""14792""
","
","
","""event"",""trial"",""time""
""fullscreenenter"",""5"",""14792""
","
","367.60000002384186","","49","","","3000","1","","","images/earth.jpg","images/rocket1","images/rocket2","null","images/rocket2","","1","real","null","1","","",""
"d3-animate-choice","145","632633","0.0-76.0-1.3","2712","3088","23","Male","false","false","false","false","""event"",""trial"",""time""
""fullscreenenter"",""5"",""14792""
","
","
","""event"",""trial"",""time""
""fullscreenenter"",""5"",""14792""
","
","2116.899999976158","","48","","","3000","1","","","images/redplanet1.jpg","images/alien2","images/alien1","images/rocket2","images/alien2","images/t.png","2","real","true","2","common","1","2022-10-06 05:03:33.393"
"two-step-fixation","146","633637","0.0-76.0-2.3","2712","3088","23","Male","false","false","false","false","""event"",""trial"",""time""
""fullscreenenter"",""5"",""14792""
","
","
","""event"",""trial"",""time""
""fullscreenenter"",""5"",""14792""
","
","","images/earth.jpg","","","","","","","","","","","","","","fixation","","","","","",""
"d3-animate-choice","147","636074","0.0-76.0-0.4","2712","3088","23","Male","false","false","false","false","""event"",""trial"",""time""
""fullscreenenter"",""5"",""14792""
","
","
","""event"",""trial"",""time""
""fullscreenenter"",""5"",""14792""
","
","433.69999998807907","","49","","","3000","1","","","images/earth.jpg","images/rocket1","images/rocket2","null","images/rocket2","","1","real","null","1","","",""
"d3-animate-choice","148","638640","0.0-76.0-1.4","2712","3088","23","Male","false","false","false","false","""event"",""trial"",""time""
""fullscreenenter"",""5"",""14792""
","
","
","""event"",""trial"",""time""
""fullscreenenter"",""5"",""14792""
","
","564.0999999642372","","48","","","3000","1","","","images/redplanet1.jpg","images/alien2","images/alien1","images/rocket2","images/alien2","images/t.png","2","real","true","2","common","1","2022-10-06 05:03:39.400"
"two-step-fixation","149","639644","0.0-76.0-2.4","2712","3088","23","Male","false","false","false","false","""event"",""trial"",""time""
""fullscreenenter"",""5"",""14792""
","
","
","""event"",""trial"",""time""
""fullscreenenter"",""5"",""14792""
","
","","images/earth.jpg","","","","","","","","","","","","","","fixation","","","","","",""
"d3-animate-choice","150","641998","0.0-76.0-0.5","2712","3088","23","Male","false","false","false","false","""event"",""trial"",""time""
""fullscreenenter"",""5"",""14792""
","
","
","""event"",""trial"",""time""
""fullscreenenter"",""5"",""14792""
","
","349.69999998807907","","49","","","3000","1","","","images/earth.jpg","images/rocket1","images/rocket2","null","images/rocket2","","1","real","null","1","","",""
"d3-animate-choice","151","645959","0.0-76.0-1.5","2712","3088","23","Male","false","false","false","false","""event"",""trial"",""time""
""fullscreenenter"",""5"",""14792""
","
","
","""event"",""trial"",""time""
""fullscreenenter"",""5"",""14792""
","
","1957.5","","48","","","3000","1","","","images/purpleplanet.jpg","images/alien4","images/alien3","images/rocket2","images/alien4","images/t.png","2","real","false","2","rare","1","2022-10-06 05:03:46.720"
"two-step-fixation","152","646964","0.0-76.0-2.5","2712","3088","23","Male","false","false","false","false","""event"",""trial"",""time""
""fullscreenenter"",""5"",""14792""
","
","
","""event"",""trial"",""time""
""fullscreenenter"",""5"",""14792""
","
","","images/earth.jpg","","","","","","","","","","","","","","fixation","","","","","",""
"d3-animate-choice","153","649288","0.0-76.0-0.6","2712","3088","23","Male","false","false","false","false","""event"",""trial"",""time""
""fullscreenenter"",""5"",""14792""
","
","
","""event"",""trial"",""time""
""fullscreenenter"",""5"",""14792""
","
","322.10000002384186","","49","","","3000","1","","","images/earth.jpg","images/rocket1","images/rocket2","null","images/rocket2","","1","real","null","1","","",""
"d3-animate-choice","154","651988","0.0-76.0-1.6","2712","3088","23","Male","false","false","false","false","""event"",""trial"",""time""
""fullscreenenter"",""5"",""14792""
","
","
","""event"",""trial"",""time""
""fullscreenenter"",""5"",""14792""
","
","695.4000000357628","","48","","","3000","1","","","images/redplanet1.jpg","images/alien2","images/alien1","images/rocket2","images/alien2","images/nothing.png","2","real","true","2","common","0","2022-10-06 05:03:52.749"
"two-step-fixation","155","652991","0.0-76.0-2.6","2712","3088","23","Male","false","false","false","false","""event"",""trial"",""time""
""fullscreenenter"",""5"",""14792""
","
","
","""event"",""trial"",""time""
""fullscreenenter"",""5"",""14792""
","
","","images/earth.jpg","","","","","","","","","","","","","","fixation","","","","","",""
"d3-animate-choice","156","655370","0.0-76.0-0.7","2712","3088","23","Male","false","false","false","false","""event"",""trial"",""time""
""fullscreenenter"",""5"",""14792""
","
","
","""event"",""trial"",""time""
""fullscreenenter"",""5"",""14792""
","
","376.39999997615814","","49","","","3000","1","","","images/earth.jpg","images/rocket1","images/rocket2","null","images/rocket2","","1","real","null","1","","",""
"d3-animate-choice","157","658134","0.0-76.0-1.7","2712","3088","23","Male","false","false","false","false","""event"",""trial"",""time""
""fullscreenenter"",""5"",""14792""
","
","
","""event"",""trial"",""time""
""fullscreenenter"",""5"",""14792""
","
","759","","48","","","3000","1","","","images/redplanet1.jpg","images/alien2","images/alien1","images/rocket2","images/alien2","images/nothing.png","2","real","true","2","common","0","2022-10-06 05:03:58.894"
"two-step-fixation","158","659137","0.0-76.0-2.7","2712","3088","23","Male","false","false","false","false","""event"",""trial"",""time""
""fullscreenenter"",""5"",""14792""
","
","
","""event"",""trial"",""time""
""fullscreenenter"",""5"",""14792""
","
","","images/earth.jpg","","","","","","","","","","","","","","fixation","","","","","",""
"d3-animate-choice","159","661467","0.0-76.0-0.8","2712","3088","23","Male","false","false","false","false","""event"",""trial"",""time""
""fullscreenenter"",""5"",""14792""
","
","
","""event"",""trial"",""time""
""fullscreenenter"",""5"",""14792""
","
","327.2999999523163","","48","","","3000","1","","","images/earth.jpg","images/rocket1","images/rocket2","null","images/rocket1","","1","real","null","2","","",""
"d3-animate-choice","160","664066","0.0-76.0-1.8","2712","3088","23","Male","false","false","false","false","""event"",""trial"",""time""
""fullscreenenter"",""5"",""14792""
","
","
","""event"",""trial"",""time""
""fullscreenenter"",""5"",""14792""
","
","594.8000000119209","","48","","","3000","1","","","images/purpleplanet.jpg","images/alien4","images/alien3","images/rocket1","images/alien4","images/t.png","2","real","true","2","common","1","2022-10-06 05:04:04.827"
"two-step-fixation","161","665069","0.0-76.0-2.8","2712","3088","23","Male","false","false","false","false","""event"",""trial"",""time""
""fullscreenenter"",""5"",""14792""
","
","
","""event"",""trial"",""time""
""fullscreenenter"",""5"",""14792""
","
","","images/earth.jpg","","","","","","","","","","","","","","fixation","","","","","",""
"d3-animate-choice","162","667373","0.0-76.0-0.9","2712","3088","23","Male","false","false","false","false","""event"",""trial"",""time""
""fullscreenenter"",""5"",""14792""
","
","
","""event"",""trial"",""time""
""fullscreenenter"",""5"",""14792""
","
","300.10000002384186","","48","","","3000","1","","","images/earth.jpg","images/rocket1","images/rocket2","null","images/rocket1","","1","real","null","2","","",""
"d3-animate-choice","163","671380","0.0-76.0-1.9","2712","3088","23","Male","false","false","false","false","""event"",""trial"",""time""
""fullscreenenter"",""5"",""14792""
","
","
","""event"",""trial"",""time""
""fullscreenenter"",""5"",""14792""
","
","2080.800000011921","","48","","","3000","1","","","images/redplanet1.jpg","images/alien2","images/alien1","images/rocket1","images/alien2","images/t.png","2","real","false","2","rare","1","2022-10-06 05:04:12.140"
"two-step-fixation","164","672385","0.0-76.0-2.9","2712","3088","23","Male","false","false","false","false","""event"",""trial"",""time""
""fullscreenenter"",""5"",""14792""
","
","
","""event"",""trial"",""time""
""fullscreenenter"",""5"",""14792""
","
","","images/earth.jpg","","","","","","","","","","","","","","fixation","","","","","",""
"d3-animate-choice","165","674693","0.0-76.0-0.10","2712","3088","23","Male","false","false","false","false","""event"",""trial"",""time""
""fullscreenenter"",""5"",""14792""
","
","
","""event"",""trial"",""time""
""fullscreenenter"",""5"",""14792""
","
","304.19999998807907","","48","","","3000","1","","","images/earth.jpg","images/rocket1","images/rocket2","null","images/rocket1","","1","real","null","2","","",""
"d3-animate-choice","166","677080","0.0-76.0-1.10","2712","3088","23","Male","false","false","false","false","""event"",""trial"",""time""
""fullscreenenter"",""5"",""14792""
","
","
","""event"",""trial"",""time""
""fullscreenenter"",""5"",""14792""
","
","383.5999999642372","","48","","","3000","1","","","images/redplanet1.jpg","images/alien2","images/alien1","images/rocket1","images/alien2","images/t.png","2","real","false","2","rare","1","2022-10-06 05:04:17.840"
"two-step-fixation","167","678085","0.0-76.0-2.10","2712","3088","23","Male","false","false","false","false","""event"",""trial"",""time""
""fullscreenenter"",""5"",""14792""
","
","
","""event"",""trial"",""time""
""fullscreenenter"",""5"",""14792""
","
","","images/earth.jpg","","","","","","","","","","","","","","fixation","","","","","",""
"d3-animate-choice","168","680280","0.0-76.0-0.11","2712","3088","23","Male","false","false","false","false","""event"",""trial"",""time""
""fullscreenenter"",""5"",""14792""
","
","
","""event"",""trial"",""time""
""fullscreenenter"",""5"",""14792""
","
","192.0999999642372","","48","","","3000","1","","","images/earth.jpg","images/rocket1","images/rocket2","null","images/rocket1","","1","real","null","2","","",""
"d3-animate-choice","169","682622","0.0-76.0-1.11","2712","3088","23","Male","false","false","false","false","""event"",""trial"",""time""
""fullscreenenter"",""5"",""14792""
","
","
","""event"",""trial"",""time""
""fullscreenenter"",""5"",""14792""
","
","338.5","","48","","","3000","1","","","images/redplanet1.jpg","images/alien2","images/alien1","images/rocket1","images/alien2","images/t.png","2","real","false","2","rare","1","2022-10-06 05:04:23.382"
"two-step-fixation","170","683627","0.0-76.0-2.11","2712","3088","23","Male","false","false","false","false","""event"",""trial"",""time""
""fullscreenenter"",""5"",""14792""
","
","
","""event"",""trial"",""time""
""fullscreenenter"",""5"",""14792""
","
","","images/earth.jpg","","","","","","","","","","","","","","fixation","","","","","",""
"d3-animate-choice","171","685998","0.0-76.0-0.12","2712","3088","23","Male","false","false","false","false","""event"",""trial"",""time""
""fullscreenenter"",""5"",""14792""
","
","
","""event"",""trial"",""time""
""fullscreenenter"",""5"",""14792""
","
","368.39999997615814","","48","","","3000","1","","","images/earth.jpg","images/rocket1","images/rocket2","null","images/rocket1","","1","real","null","2","","",""
"d3-animate-choice","172","688288","0.0-76.0-1.12","2712","3088","23","Male","false","false","false","false","""event"",""trial"",""time""
""fullscreenenter"",""5"",""14792""
","
","
","""event"",""trial"",""time""
""fullscreenenter"",""5"",""14792""
","
","285.5","","48","","","3000","1","","","images/purpleplanet.jpg","images/alien4","images/alien3","images/rocket1","images/alien4","images/t.png","2","real","true","2","common","1","2022-10-06 05:04:29.048"
"two-step-fixation","173","689290","0.0-76.0-2.12","2712","3088","23","Male","false","false","false","false","""event"",""trial"",""time""
""fullscreenenter"",""5"",""14792""
","
","
","""event"",""trial"",""time""
""fullscreenenter"",""5"",""14792""
","
","","images/earth.jpg","","","","","","","","","","","","","","fixation","","","","","",""
"d3-animate-choice","174","691716","0.0-76.0-0.13","2712","3088","23","Male","false","false","false","false","""event"",""trial"",""time""
""fullscreenenter"",""5"",""14792""
","
","
","""event"",""trial"",""time""
""fullscreenenter"",""5"",""14792""
","
","420.10000002384186","","48","","","3000","1","","","images/earth.jpg","images/rocket1","images/rocket2","null","images/rocket1","","1","real","null","2","","",""
"d3-animate-choice","175","694277","0.0-76.0-1.13","2712","3088","23","Male","false","false","false","false","""event"",""trial"",""time""
""fullscreenenter"",""5"",""14792""
","
","
","""event"",""trial"",""time""
""fullscreenenter"",""5"",""14792""
","
","556.3000000119209","","48","","","3000","1","","","images/redplanet1.jpg","images/alien2","images/alien1","images/rocket1","images/alien2","images/nothing.png","2","real","false","2","rare","0","2022-10-06 05:04:35.037"
"two-step-fixation","176","695281","0.0-76.0-2.13","2712","3088","23","Male","false","false","false","false","""event"",""trial"",""time""
""fullscreenenter"",""5"",""14792""
","
","
","""event"",""trial"",""time""
""fullscreenenter"",""5"",""14792""
","
","","images/earth.jpg","","","","","","","","","","","","","","fixation","","","","","",""
"d3-animate-choice","177","697704","0.0-76.0-0.14","2712","3088","23","Male","false","false","false","false","""event"",""trial"",""time""
""fullscreenenter"",""5"",""14792""
","
","
","""event"",""trial"",""time""
""fullscreenenter"",""5"",""14792""
","
","419.5","","48","","","3000","1","","","images/earth.jpg","images/rocket1","images/rocket2","null","images/rocket1","","1","real","null","2","","",""
"d3-animate-choice","178","700132","0.0-76.0-1.14","2712","3088","23","Male","false","false","false","false","""event"",""trial"",""time""
""fullscreenenter"",""5"",""14792""
","
","
","""event"",""trial"",""time""
""fullscreenenter"",""5"",""14792""
","
","423","","48","","","3000","1","2356.399999976158","48","images/purpleplanet.jpg","images/alien4","images/alien3","images/rocket1","images/alien4","images/t.png","2","real","true","2","common","1","2022-10-06 05:04:40.893"
"two-step-fixation","179","701135","0.0-76.0-2.14","2712","3088","23","Male","false","false","false","false","""event"",""trial"",""time""
""fullscreenenter"",""5"",""14792""
","
","
","""event"",""trial"",""time""
""fullscreenenter"",""5"",""14792""
","
","","images/earth.jpg","","","","","","","","","","","","","","fixation","","","","","",""
"d3-animate-choice","180","703315","0.0-76.0-0.15","2712","3088","23","Male","false","false","false","false","""event"",""trial"",""time""
""fullscreenenter"",""5"",""14792""
","
","
","""event"",""trial"",""time""
""fullscreenenter"",""5"",""14792""
","
","176","","48","","","3000","1","445.7000000476837","48","images/earth.jpg","images/rocket1","images/rocket2","null","images/rocket1","","1","real","null","2","","",""
"d3-animate-choice","181","705802","0.0-76.0-1.15","2712","3088","23","Male","false","false","false","false","""event"",""trial"",""time""
""fullscreenenter"",""5"",""14792""
","
","
","""event"",""trial"",""time""
""fullscreenenter"",""5"",""14792""
","
","482.19999998807907","","48","","","3000","1","","","images/redplanet1.jpg","images/alien2","images/alien1","images/rocket1","images/alien2","images/nothing.png","2","real","false","2","rare","0","2022-10-06 05:04:46.562"
"two-step-fixation","182","706804","0.0-76.0-2.15","2712","3088","23","Male","false","false","false","false","""event"",""trial"",""time""
""fullscreenenter"",""5"",""14792""
","
","
","""event"",""trial"",""time""
""fullscreenenter"",""5"",""14792""
","
","","images/earth.jpg","","","","","","","","","","","","","","fixation","","","","","",""
"d3-animate-choice","183","709201","0.0-76.0-0.16","2712","3088","23","Male","false","false","false","false","""event"",""trial"",""time""
""fullscreenenter"",""5"",""14792""
","
","
","""event"",""trial"",""time""
""fullscreenenter"",""5"",""14792""
","
","393.69999998807907","","48","","","3000","1","","","images/earth.jpg","images/rocket1","images/rocket2","null","images/rocket1","","1","real","null","2","","",""
"d3-animate-choice","184","711492","0.0-76.0-1.16","2712","3088","23","Male","false","false","false","false","""event"",""trial"",""time""
""fullscreenenter"",""5"",""14792""
","
","
","""event"",""trial"",""time""
""fullscreenenter"",""5"",""14792""
","
","286.30000001192093","","48","","","3000","1","2100.800000011921","48","images/purpleplanet.jpg","images/alien4","images/alien3","images/rocket1","images/alien4","images/t.png","2","real","true","2","common","1","2022-10-06 05:04:52.252"
"two-step-fixation","185","712497","0.0-76.0-2.16","2712","3088","23","Male","false","false","false","false","""event"",""trial"",""time""
""fullscreenenter"",""5"",""14792""
","
","
","""event"",""trial"",""time""
""fullscreenenter"",""5"",""14792""
","
","","images/earth.jpg","","","","","","","","","","","","","","fixation","","","","","",""
"d3-animate-choice","186","714854","0.0-76.0-0.17","2712","3088","23","Male","false","false","false","false","""event"",""trial"",""time""
""fullscreenenter"",""5"",""14792""
","
","
","""event"",""trial"",""time""
""fullscreenenter"",""5"",""14792""
","
","353.4000000357628","","48","","","3000","1","","","images/earth.jpg","images/rocket1","images/rocket2","null","images/rocket1","","1","real","null","2","","",""
"d3-animate-choice","187","717404","0.0-76.0-1.17","2712","3088","23","Male","false","false","false","false","""event"",""trial"",""time""
""fullscreenenter"",""5"",""14792""
","
","
","""event"",""trial"",""time""
""fullscreenenter"",""5"",""14792""
","
","547.3999999761581","","48","","","3000","1","2370.699999988079","48","images/purpleplanet.jpg","images/alien4","images/alien3","images/rocket1","images/alien4","images/t.png","2","real","true","2","common","1","2022-10-06 05:04:58.165"
"two-step-fixation","188","718409","0.0-76.0-2.17","2712","3088","23","Male","false","false","false","false","""event"",""trial"",""time""
""fullscreenenter"",""5"",""14792""
","
","
","""event"",""trial"",""time""
""fullscreenenter"",""5"",""14792""
","
","","images/earth.jpg","","","","","","","","","","","","","","fixation","","","","","",""
"d3-animate-choice","189","720417","0.0-76.0-0.18","2712","3088","23","Male","false","false","false","false","""event"",""trial"",""time""
""fullscreenenter"",""5"",""14792""
","
","
","""event"",""trial"",""time""
""fullscreenenter"",""5"",""14792""
","
","5.5","","48","","","3000","1","567.6000000238419","48","images/earth.jpg","images/rocket1","images/rocket2","null","images/rocket1","","1","real","null","2","","",""
"d3-animate-choice","190","722887","0.0-76.0-1.18","2712","3088","23","Male","false","false","false","false","""event"",""trial"",""time""
""fullscreenenter"",""5"",""14792""
","
","
","""event"",""trial"",""time""
""fullscreenenter"",""5"",""14792""
","
","467.0999999642372","","48","","","3000","1","","","images/purpleplanet.jpg","images/alien4","images/alien3","images/rocket1","images/alien4","images/nothing.png","2","real","true","2","common","0","2022-10-06 05:05:03.647"
"two-step-fixation","191","723890","0.0-76.0-2.18","2712","3088","23","Male","false","false","false","false","""event"",""trial"",""time""
""fullscreenenter"",""5"",""14792""
","
","
","""event"",""trial"",""time""
""fullscreenenter"",""5"",""14792""
","
","","images/earth.jpg","","","","","","","","","","","","","","fixation","","","","","",""
"d3-animate-choice","192","726210","0.0-76.0-0.19","2712","3088","23","Male","false","false","false","false","""event"",""trial"",""time""
""fullscreenenter"",""5"",""14792""
","
","
","""event"",""trial"",""time""
""fullscreenenter"",""5"",""14792""
","
","315.19999998807907","","48","","","3000","1","","","images/earth.jpg","images/rocket1","images/rocket2","null","images/rocket1","","1","real","null","2","","",""
"d3-animate-choice","193","728920","0.0-76.0-1.19","2712","3088","23","Male","false","false","false","false","""event"",""trial"",""time""
""fullscreenenter"",""5"",""14792""
","
","
","""event"",""trial"",""time""
""fullscreenenter"",""5"",""14792""
","
","706.6000000238419","","49","","","3000","1","","","images/redplanet1.jpg","images/alien2","images/alien1","images/rocket1","images/alien1","images/t.png","2","real","false","1","rare","1","2022-10-06 05:05:09.681"
"two-step-fixation","194","729923","0.0-76.0-2.19","2712","3088","23","Male","false","false","false","false","""event"",""trial"",""time""
""fullscreenenter"",""5"",""14792""
","
","
","""event"",""trial"",""time""
""fullscreenenter"",""5"",""14792""
","
","","images/earth.jpg","","","","","","","","","","","","","","fixation","","","","","",""
"d3-animate-choice","195","732207","0.0-76.0-0.20","2712","3088","23","Male","false","false","false","false","""event"",""trial"",""time""
""fullscreenenter"",""5"",""14792""
","
","
","""event"",""trial"",""time""
""fullscreenenter"",""5"",""14792""
","
","279","","48","","","3000","1","","","images/earth.jpg","images/rocket1","images/rocket2","null","images/rocket1","","1","real","null","2","","",""
"d3-animate-choice","196","734733","0.0-76.0-1.20","2712","3088","23","Male","false","false","false","false","""event"",""trial"",""time""
""fullscreenenter"",""5"",""14792""
","
","
","""event"",""trial"",""time""
""fullscreenenter"",""5"",""14792""
","
","519.1999999880791","","49","","","3000","1","","","images/redplanet1.jpg","images/alien2","images/alien1","images/rocket1","images/alien1","images/nothing.png","2","real","false","1","rare","0","2022-10-06 05:05:15.493"
"two-step-fixation","197","735737","0.0-76.0-2.20","2712","3088","23","Male","false","false","false","false","""event"",""trial"",""time""
""fullscreenenter"",""5"",""14792""
","
","
","""event"",""trial"",""time""
""fullscreenenter"",""5"",""14792""
","
","","images/earth.jpg","","","","","","","","","","","","","","fixation","","","","","",""
"d3-animate-choice","198","738101","0.0-76.0-0.21","2712","3088","23","Male","false","false","false","false","""event"",""trial"",""time""
""fullscreenenter"",""5"",""14792""
","
","
","""event"",""trial"",""time""
""fullscreenenter"",""5"",""14792""
","
","360.60000002384186","","48","","","3000","1","","","images/earth.jpg","images/rocket1","images/rocket2","null","images/rocket1","","1","real","null","2","","",""
"d3-animate-choice","199","740653","0.0-76.0-1.21","2712","3088","23","Male","false","false","false","false","""event"",""trial"",""time""
""fullscreenenter"",""5"",""14792""
","
","
","""event"",""trial"",""time""
""fullscreenenter"",""5"",""14792""
","
","545.5999999642372","","49","","","3000","1","","","images/redplanet1.jpg","images/alien2","images/alien1","images/rocket1","images/alien1","images/nothing.png","2","real","false","1","rare","0","2022-10-06 05:05:21.413"
"two-step-fixation","200","741656","0.0-76.0-2.21","2712","3088","23","Male","false","false","false","false","""event"",""trial"",""time""
""fullscreenenter"",""5"",""14792""
","
","
","""event"",""trial"",""time""
""fullscreenenter"",""5"",""14792""
","
","","images/earth.jpg","","","","","","","","","","","","","","fixation","","","","","",""
"d3-animate-choice","201","743945","0.0-76.0-0.22","2712","3088","23","Male","false","false","false","false","""event"",""trial"",""time""
""fullscreenenter"",""5"",""14792""
","
","
","""event"",""trial"",""time""
""fullscreenenter"",""5"",""14792""
","
","281.2999999523163","","48","","","3000","1","","","images/earth.jpg","images/rocket1","images/rocket2","null","images/rocket1","","1","real","null","2","","",""
"d3-animate-choice","202","746441","0.0-76.0-1.22","2712","3088","23","Male","false","false","false","false","""event"",""trial"",""time""
""fullscreenenter"",""5"",""14792""
","
","
","""event"",""trial"",""time""
""fullscreenenter"",""5"",""14792""
","
","492.30000001192093","","49","","","3000","1","","","images/redplanet1.jpg","images/alien2","images/alien1","images/rocket1","images/alien1","images/t.png","2","real","false","1","rare","1","2022-10-06 05:05:27.201"
"two-step-fixation","203","747446","0.0-76.0-2.22","2712","3088","23","Male","false","false","false","false","""event"",""trial"",""time""
""fullscreenenter"",""5"",""14792""
","
","
","""event"",""trial"",""time""
""fullscreenenter"",""5"",""14792""
","
","","images/earth.jpg","","","","","","","","","","","","","","fixation","","","","","",""
"d3-animate-choice","204","749745","0.0-76.0-0.23","2712","3088","23","Male","false","false","false","false","""event"",""trial"",""time""
""fullscreenenter"",""5"",""14792""
","
","
","""event"",""trial"",""time""
""fullscreenenter"",""5"",""14792""
","
","293.80000001192093","","48","","","3000","1","","","images/earth.jpg","images/rocket1","images/rocket2","null","images/rocket1","","1","real","null","2","","",""
"d3-animate-choice","205","752212","0.0-76.0-1.23","2712","3088","23","Male","false","false","false","false","""event"",""trial"",""time""
""fullscreenenter"",""5"",""14792""
","
","
","""event"",""trial"",""time""
""fullscreenenter"",""5"",""14792""
","
","464.19999998807907","","49","","","3000","1","","","images/redplanet1.jpg","images/alien2","images/alien1","images/rocket1","images/alien1","images/t.png","2","real","false","1","rare","1","2022-10-06 05:05:32.972"
"two-step-fixation","206","753217","0.0-76.0-2.23","2712","3088","23","Male","false","false","false","false","""event"",""trial"",""time""
""fullscreenenter"",""5"",""14792""
","
","
","""event"",""trial"",""time""
""fullscreenenter"",""5"",""14792""
","
","","images/earth.jpg","","","","","","","","","","","","","","fixation","","","","","",""
"d3-animate-choice","207","755506","0.0-76.0-0.24","2712","3088","23","Male","false","false","false","false","""event"",""trial"",""time""
""fullscreenenter"",""5"",""14792""
","
","
","""event"",""trial"",""time""
""fullscreenenter"",""5"",""14792""
","
","286.2999999523163","","48","","","3000","1","2021.5999999642372","49","images/earth.jpg","images/rocket1","images/rocket2","null","images/rocket1","","1","real","null","2","","",""
"d3-animate-choice","208","757727","0.0-76.0-1.24","2712","3088","23","Male","false","false","false","false","""event"",""trial"",""time""
""fullscreenenter"",""5"",""14792""
","
","
","""event"",""trial"",""time""
""fullscreenenter"",""5"",""14792""
","
","214.10000002384186","","49","","","3000","1","","","images/purpleplanet.jpg","images/alien4","images/alien3","images/rocket1","images/alien3","images/nothing.png","2","real","true","1","common","0","2022-10-06 05:05:38.488"
"two-step-fixation","209","758731","0.0-76.0-2.24","2712","3088","23","Male","false","false","false","false","""event"",""trial"",""time""
""fullscreenenter"",""5"",""14792""
","
","
","""event"",""trial"",""time""
""fullscreenenter"",""5"",""14792""
","
","","images/earth.jpg","","","","","","","","","","","","","","fixation","","","","","",""
"d3-animate-choice","210","760789","0.0-76.0-0.25","2712","3088","23","Male","false","false","false","false","""event"",""trial"",""time""
""fullscreenenter"",""5"",""14792""
","
","
","""event"",""trial"",""time""
""fullscreenenter"",""5"",""14792""
","
","54.90000003576279","","48","","","3000","1","","","images/earth.jpg","images/rocket1","images/rocket2","null","images/rocket1","","1","real","null","2","","",""
"d3-animate-choice","211","763367","0.0-76.0-1.25","2712","3088","23","Male","false","false","false","false","""event"",""trial"",""time""
""fullscreenenter"",""5"",""14792""
","
","
","""event"",""trial"",""time""
""fullscreenenter"",""5"",""14792""
","
","575.8000000119209","","48","","","3000","1","2489.300000011921","48","images/purpleplanet.jpg","images/alien4","images/alien3","images/rocket1","images/alien4","images/t.png","2","real","true","2","common","1","2022-10-06 05:05:44.128"
"two-step-fixation","212","764371","0.0-76.0-2.25","2712","3088","23","Male","false","false","false","false","""event"",""trial"",""time""
""fullscreenenter"",""5"",""14792""
","
","
","""event"",""trial"",""time""
""fullscreenenter"",""5"",""14792""
","
","","images/earth.jpg","","","","","","","","","","","","","","fixation","","","","","",""
"d3-animate-choice","213","766656","0.0-76.0-0.26","2712","3088","23","Male","false","false","false","false","""event"",""trial"",""time""
""fullscreenenter"",""5"",""14792""
","
","
","""event"",""trial"",""time""
""fullscreenenter"",""5"",""14792""
","
","282.4000000357628","","48","","","3000","1","","","images/earth.jpg","images/rocket1","images/rocket2","null","images/rocket1","","1","real","null","2","","",""
"d3-animate-choice","214","769059","0.0-76.0-1.26","2712","3088","23","Male","false","false","false","false","""event"",""trial"",""time""
""fullscreenenter"",""5"",""14792""
","
","
","""event"",""trial"",""time""
""fullscreenenter"",""5"",""14792""
","
","400.5","","48","","","3000","1","","","images/purpleplanet.jpg","images/alien4","images/alien3","images/rocket1","images/alien4","images/t.png","2","real","true","2","common","1","2022-10-06 05:05:49.819"
"two-step-fixation","215","770063","0.0-76.0-2.26","2712","3088","23","Male","false","false","false","false","""event"",""trial"",""time""
""fullscreenenter"",""5"",""14792""
","
","
","""event"",""trial"",""time""
""fullscreenenter"",""5"",""14792""
","
","","images/earth.jpg","","","","","","","","","","","","","","fixation","","","","","",""
"d3-animate-choice","216","772164","0.0-76.0-0.27","2712","3088","23","Male","false","false","false","false","""event"",""trial"",""time""
""fullscreenenter"",""5"",""14792""
","
","
","""event"",""trial"",""time""
""fullscreenenter"",""5"",""14792""
","
","95.19999998807907","","48","","","3000","1","","","images/earth.jpg","images/rocket1","images/rocket2","null","images/rocket1","","1","real","null","2","","",""
"d3-animate-choice","217","774750","0.0-76.0-1.27","2712","3088","23","Male","false","false","false","false","""event"",""trial"",""time""
""fullscreenenter"",""5"",""14792""
","
","
","""event"",""trial"",""time""
""fullscreenenter"",""5"",""14792""
","
","581.5","","48","","","3000","1","","","images/purpleplanet.jpg","images/alien4","images/alien3","images/rocket1","images/alien4","images/nothing.png","2","real","true","2","common","0","2022-10-06 05:05:55.510"
"two-step-fixation","218","775753","0.0-76.0-2.27","2712","3088","23","Male","false","false","false","false","""event"",""trial"",""time""
""fullscreenenter"",""5"",""14792""
","
","
","""event"",""trial"",""time""
""fullscreenenter"",""5"",""14792""
","
","","images/earth.jpg","","","","","","","","","","","","","","fixation","","","","","",""
"d3-animate-choice","219","778135","0.0-76.0-0.28","2712","3088","23","Male","false","false","false","false","""event"",""trial"",""time""
""fullscreenenter"",""5"",""14792""
","
","
","""event"",""trial"",""time""
""fullscreenenter"",""5"",""14792""
","
","376.80000001192093","","48","","","3000","1","","","images/earth.jpg","images/rocket1","images/rocket2","null","images/rocket1","","1","real","null","2","","",""
"d3-animate-choice","220","780610","0.0-76.0-1.28","2712","3088","23","Male","false","false","false","false","""event"",""trial"",""time""
""fullscreenenter"",""5"",""14792""
","
","
","""event"",""trial"",""time""
""fullscreenenter"",""5"",""14792""
","
","472.30000001192093","","48","","","3000","1","2289.399999976158","48","images/purpleplanet.jpg","images/alien4","images/alien3","images/rocket1","images/alien4","images/t.png","2","real","true","2","common","1","2022-10-06 05:06:01.370"
"two-step-fixation","221","781614","0.0-76.0-2.28","2712","3088","23","Male","false","false","false","false","""event"",""trial"",""time""
""fullscreenenter"",""5"",""14792""
","
","
","""event"",""trial"",""time""
""fullscreenenter"",""5"",""14792""
","
","","images/earth.jpg","","","","","","","","","","","","","","fixation","","","","","",""
"d3-animate-choice","222","783634","0.0-76.0-0.29","2712","3088","23","Male","false","false","false","false","""event"",""trial"",""time""
""fullscreenenter"",""5"",""14792""
","
","
","""event"",""trial"",""time""
""fullscreenenter"",""5"",""14792""
","
","16.80000001192093","","48","","","3000","1","","","images/earth.jpg","images/rocket1","images/rocket2","null","images/rocket1","","1","real","null","2","","",""
"d3-animate-choice","223","787409","0.0-76.0-1.29","2712","3088","23","Male","false","false","false","false","""event"",""trial"",""time""
""fullscreenenter"",""5"",""14792""
","
","
","""event"",""trial"",""time""
""fullscreenenter"",""5"",""14792""
","
","1772","","49","","","3000","1","","","images/redplanet1.jpg","images/alien2","images/alien1","images/rocket1","images/alien1","images/t.png","2","real","false","1","rare","1","2022-10-06 05:06:08.169"
"two-step-fixation","224","788413","0.0-76.0-2.29","2712","3088","23","Male","false","false","false","false","""event"",""trial"",""time""
""fullscreenenter"",""5"",""14792""
","
","
","""event"",""trial"",""time""
""fullscreenenter"",""5"",""14792""
","
","","images/earth.jpg","","","","","","","","","","","","","","fixation","","","","","",""
"d3-animate-choice","225","790491","0.0-76.0-0.30","2712","3088","23","Male","false","false","false","false","""event"",""trial"",""time""
""fullscreenenter"",""5"",""14792""
","
","
","""event"",""trial"",""time""
""fullscreenenter"",""5"",""14792""
","
","70.20000004768372","","48","","","3000","1","","","images/earth.jpg","images/rocket1","images/rocket2","null","images/rocket1","","1","real","null","2","","",""
"d3-animate-choice","226","793358","0.0-76.0-1.30","2712","3088","23","Male","false","false","false","false","""event"",""trial"",""time""
""fullscreenenter"",""5"",""14792""
","
","
","""event"",""trial"",""time""
""fullscreenenter"",""5"",""14792""
","
","862.8000000119209","","49","","","3000","1","","","images/redplanet1.jpg","images/alien2","images/alien1","images/rocket1","images/alien1","images/nothing.png","2","real","false","1","rare","0","2022-10-06 05:06:14.119"
"two-step-fixation","227","794361","0.0-76.0-2.30","2712","3088","23","Male","false","false","false","false","""event"",""trial"",""time""
""fullscreenenter"",""5"",""14792""
","
","
","""event"",""trial"",""time""
""fullscreenenter"",""5"",""14792""
","
","","images/earth.jpg","","","","","","","","","","","","","","fixation","","","","","",""
"d3-animate-choice","228","796639","0.0-76.0-0.31","2712","3088","23","Male","false","false","false","false","""event"",""trial"",""time""
""fullscreenenter"",""5"",""14792""
","
","
","""event"",""trial"",""time""
""fullscreenenter"",""5"",""14792""
","
","274.19999998807907","","48","","","3000","1","","","images/earth.jpg","images/rocket1","images/rocket2","null","images/rocket1","","1","real","null","2","","",""
"d3-animate-choice","229","799240","0.0-76.0-1.31","2712","3088","23","Male","false","false","false","false","""event"",""trial"",""time""
""fullscreenenter"",""5"",""14792""
","
","
","""event"",""trial"",""time""
""fullscreenenter"",""5"",""14792""
","
","597.0999999642372","","48","","","3000","1","","","images/purpleplanet.jpg","images/alien4","images/alien3","images/rocket1","images/alien4","images/t.png","2","real","true","2","common","1","2022-10-06 05:06:20.000"
"two-step-fixation","230","800244","0.0-76.0-2.31","2712","3088","23","Male","false","false","false","false","""event"",""trial"",""time""
""fullscreenenter"",""5"",""14792""
","
","
","""event"",""trial"",""time""
""fullscreenenter"",""5"",""14792""
","
","","images/earth.jpg","","","","","","","","","","","","","","fixation","","","","","",""
"d3-animate-choice","231","802526","0.0-76.0-0.32","2712","3088","23","Male","false","false","false","false","""event"",""trial"",""time""
""fullscreenenter"",""5"",""14792""
","
","
","""event"",""trial"",""time""
""fullscreenenter"",""5"",""14792""
","
","278.10000002384186","","48","","","3000","1","","","images/earth.jpg","images/rocket1","images/rocket2","null","images/rocket1","","1","real","null","2","","",""
"d3-animate-choice","232","804977","0.0-76.0-1.32","2712","3088","23","Male","false","false","false","false","""event"",""trial"",""time""
""fullscreenenter"",""5"",""14792""
","
","
","""event"",""trial"",""time""
""fullscreenenter"",""5"",""14792""
","
","446.9000000357628","","48","","","3000","1","2290.7000000476837","48","images/purpleplanet.jpg","images/alien4","images/alien3","images/rocket1","images/alien4","images/t.png","2","real","true","2","common","1","2022-10-06 05:06:25.737"
"two-step-fixation","233","805980","0.0-76.0-2.32","2712","3088","23","Male","false","false","false","false","""event"",""trial"",""time""
""fullscreenenter"",""5"",""14792""
","
","
","""event"",""trial"",""time""
""fullscreenenter"",""5"",""14792""
","
","","images/earth.jpg","","","","","","","","","","","","","","fixation","","","","","",""
"d3-animate-choice","234","808257","0.0-76.0-0.33","2712","3088","23","Male","false","false","false","false","""event"",""trial"",""time""
""fullscreenenter"",""5"",""14792""
","
","
","""event"",""trial"",""time""
""fullscreenenter"",""5"",""14792""
","
","274.5","","48","","","3000","1","","","images/earth.jpg","images/rocket1","images/rocket2","null","images/rocket1","","1","real","null","2","","",""
"d3-animate-choice","235","810790","0.0-76.0-1.33","2712","3088","23","Male","false","false","false","false","""event"",""trial"",""time""
""fullscreenenter"",""5"",""14792""
","
","
","""event"",""trial"",""time""
""fullscreenenter"",""5"",""14792""
","
","529.3999999761581","","48","","","3000","1","","","images/purpleplanet.jpg","images/alien4","images/alien3","images/rocket1","images/alien4","images/nothing.png","2","real","true","2","common","0","2022-10-06 05:06:31.550"
"two-step-fixation","236","811795","0.0-76.0-2.33","2712","3088","23","Male","false","false","false","false","""event"",""trial"",""time""
""fullscreenenter"",""5"",""14792""
","
","
","""event"",""trial"",""time""
""fullscreenenter"",""5"",""14792""
","
","","images/earth.jpg","","","","","","","","","","","","","","fixation","","","","","",""
"d3-animate-choice","237","814078","0.0-76.0-0.34","2712","3088","23","Male","false","false","false","false","""event"",""trial"",""time""
""fullscreenenter"",""5"",""14792""
","
","
","""event"",""trial"",""time""
""fullscreenenter"",""5"",""14792""
","
","279.69999998807907","","48","","","3000","1","","","images/earth.jpg","images/rocket1","images/rocket2","null","images/rocket1","","1","real","null","2","","",""
"d3-animate-choice","238","816562","0.0-76.0-1.34","2712","3088","23","Male","false","false","false","false","""event"",""trial"",""time""
""fullscreenenter"",""5"",""14792""
","
","
","""event"",""trial"",""time""
""fullscreenenter"",""5"",""14792""
","
","479.30000001192093","","48","","","3000","1","","","images/purpleplanet.jpg","images/alien4","images/alien3","images/rocket1","images/alien4","images/t.png","2","real","true","2","common","1","2022-10-06 05:06:37.322"
"two-step-fixation","239","817567","0.0-76.0-2.34","2712","3088","23","Male","false","false","false","false","""event"",""trial"",""time""
""fullscreenenter"",""5"",""14792""
","
","
","""event"",""trial"",""time""
""fullscreenenter"",""5"",""14792""
","
","","images/earth.jpg","","","","","","","","","","","","","","fixation","","","","","",""
"d3-animate-choice","240","819784","0.0-76.0-0.35","2712","3088","23","Male","false","false","false","false","""event"",""trial"",""time""
""fullscreenenter"",""5"",""14792""
","
","
","""event"",""trial"",""time""
""fullscreenenter"",""5"",""14792""
","
","212.10000002384186","","48","","","3000","1","","","images/earth.jpg","images/rocket1","images/rocket2","null","images/rocket1","","1","real","null","2","","",""
"d3-animate-choice","241","823367","0.0-76.0-1.35","2712","3088","23","Male","false","false","false","false","""event"",""trial"",""time""
""fullscreenenter"",""5"",""14792""
","
","
","""event"",""trial"",""time""
""fullscreenenter"",""5"",""14792""
","
","1580","","48","","","3000","1","3567.199999988079","48","images/redplanet1.jpg","images/alien2","images/alien1","images/rocket1","images/alien2","images/t.png","2","real","false","2","rare","1","2022-10-06 05:06:44.127"
"two-step-fixation","242","824370","0.0-76.0-2.35","2712","3088","23","Male","false","false","false","false","""event"",""trial"",""time""
""fullscreenenter"",""5"",""14792""
","
","
","""event"",""trial"",""time""
""fullscreenenter"",""5"",""14792""
","
","","images/earth.jpg","","","","","","","","","","","","","","fixation","","","","","",""
"d3-animate-choice","243","826727","0.0-76.0-0.36","2712","3088","23","Male","false","false","false","false","""event"",""trial"",""time""
""fullscreenenter"",""5"",""14792""
","
","
","""event"",""trial"",""time""
""fullscreenenter"",""5"",""14792""
","
","349","","48","","","3000","1","","","images/earth.jpg","images/rocket1","images/rocket2","null","images/rocket1","","1","real","null","2","","",""
"d3-animate-choice","244","829523","0.0-76.0-1.36","2712","3088","23","Male","false","false","false","false","""event"",""trial"",""time""
""fullscreenenter"",""5"",""14792""
","
","
","""event"",""trial"",""time""
""fullscreenenter"",""5"",""14792""
","
","792.2000000476837","","48","","","3000","1","","","images/redplanet1.jpg","images/alien2","images/alien1","images/rocket1","images/alien2","images/nothing.png","2","real","false","2","rare","0","2022-10-06 05:06:50.284"
