"trial_type","trial_index","time_elapsed","internal_node_id","participant_id","subject_id","age","gender","rocket_sides","red_planet_first_rocket","red_display_order","purple_display_order","interactions","blur_events","focus_events","fullscreenenter_events","fullscreenexit_events","rt","stimulus","key_press","button_pressed","success","duration","valid_pressed","rts","keys","planet_text","right_text","left_text","center_text","chosen_text","reward_text","trial_stage","practice_trial","transition_type","choice","transition","reward","timestamp"
"pavlovia","0","10","0.0-0.0","463","751","19","Female","false","false","true","true","
","
","
","
","
","","","","","","","","","","","","","","","","","","","","","",""
"html-keyboard-response","1","1573","0.0-1.0","463","751","19","Female","false","false","true","true","
","
","
","
","
","1561.3999999761581","Welcome! Press the space bar to begin.","32","","","","","","","","","","","","","","","","","","",""
"audio-keyboard-response","2","6307","0.0-2.0","463","751","19","Female","false","false","true","true","
","
","
","
","
","4609","audio/beep_loop.wav","32","","","","","","","","","","","","","","","","","","",""
"audio-button-response","3","9607","0.0-3.0","463","751","19","Female","false","false","true","true","
","
","
","
","
","NaN","audio/fish.mp3","","1","","","","","","","","","","","","","","","","","",""
"audio-button-response","4","12392","0.0-4.0","463","751","19","Female","false","false","true","true","""event"",""trial"",""time""
""fullscreenenter"",""5"",""16883""
","
","
","""event"",""trial"",""time""
""fullscreenenter"",""5"",""16883""
","
","NaN","audio/tiger.mp3","","4","","","","","","","","","","","","","","","","","",""
"fullscreen","5","17835","0.0-5.0","463","751","19","Female","false","false","true","true","""event"",""trial"",""time""
""fullscreenenter"",""5"",""16883""
","
","
","""event"",""trial"",""time""
""fullscreenenter"",""5"",""16883""
","
","","","","","true","","","","","","","","","","","","","","","","",""
"d3-instructions","6","31659","0.0-6.0","463","751","19","Female","false","false","true","true","""event"",""trial"",""time""
""fullscreenenter"",""5"",""16883""
","
","
","""event"",""trial"",""time""
""fullscreenenter"",""5"",""16883""
","
","","","","","","","","","","","","","","","","","","","","","",""
"d3-instructions","7","43726","0.0-7.0","463","751","19","Female","false","false","true","true","""event"",""trial"",""time""
""fullscreenenter"",""5"",""16883""
","
","
","""event"",""trial"",""time""
""fullscreenenter"",""5"",""16883""
","
","","","","","","","","","","","","","","","","","","","","","",""
"d3-instructions","8","51581","0.0-8.0","463","751","19","Female","false","false","true","true","""event"",""trial"",""time""
""fullscreenenter"",""5"",""16883""
","
","
","""event"",""trial"",""time""
""fullscreenenter"",""5"",""16883""
","
","","","","","","","","","","","","","","","","","","","","","",""
"d3-instructions","9","62488","0.0-9.0","463","751","19","Female","false","false","true","true","""event"",""trial"",""time""
""fullscreenenter"",""5"",""16883""
","
","
","""event"",""trial"",""time""
""fullscreenenter"",""5"",""16883""
","
","","","","","","","","","","","","","","","","","","","","","",""
"d3-instructions","10","83256","0.0-10.0","463","751","19","Female","false","false","true","true","""event"",""trial"",""time""
""fullscreenenter"",""5"",""16883""
","
","
","""event"",""trial"",""time""
""fullscreenenter"",""5"",""16883""
","
","","","","","","","","","","","","","","","","","","","","","",""
"d3-animate-choice","11","86795","0.0-11.0","463","751","19","Female","false","false","true","true","""event"",""trial"",""time""
""fullscreenenter"",""5"",""16883""
","
","
","""event"",""trial"",""time""
""fullscreenenter"",""5"",""16883""
","
","1521.300000011921","","49","","","3000","1","","","images/tutgreenplanet.jpg","images/tutalien1","images/tutalien2","null","images/tutalien2","","NA","practice","null","","","",""
"d3-animate-choice","12","89734","0.0-12.0","463","751","19","Female","false","false","true","true","""event"",""trial"",""time""
""fullscreenenter"",""5"",""16883""
","
","
","""event"",""trial"",""time""
""fullscreenenter"",""5"",""16883""
","
","932.9000000357628","","48","","","3000","1","","","images/tutgreenplanet.jpg","images/tutalien1","images/tutalien2","null","images/tutalien1","","NA","practice","null","","","",""
"d3-animate-choice","13","92135","0.0-13.0","463","751","19","Female","false","false","true","true","""event"",""trial"",""time""
""fullscreenenter"",""5"",""16883""
","
","
","""event"",""trial"",""time""
""fullscreenenter"",""5"",""16883""
","
","392","","49","","","3000","1","","","images/tutgreenplanet.jpg","images/tutalien1","images/tutalien2","null","images/tutalien2","","NA","practice","null","","","",""
"d3-animate-choice","14","94533","0.0-14.0","463","751","19","Female","false","false","true","true","""event"",""trial"",""time""
""fullscreenenter"",""5"",""16883""
","
","
","""event"",""trial"",""time""
""fullscreenenter"",""5"",""16883""
","
","388.30000001192093","","48","","","3000","1","","","images/tutgreenplanet.jpg","images/tutalien1","images/tutalien2","null","images/tutalien1","","NA","practice","null","","","",""
"d3-instructions","15","101385","0.0-15.0","463","751","19","Female","false","false","true","true","""event"",""trial"",""time""
""fullscreenenter"",""5"",""16883""
","
","
","""event"",""trial"",""time""
""fullscreenenter"",""5"",""16883""
","
","","","","","","","","","","","","","","","","","","","","","",""
"d3-instructions","16","109029","0.0-16.0","463","751","19","Female","false","false","true","true","""event"",""trial"",""time""
""fullscreenenter"",""5"",""16883""
","
","
","""event"",""trial"",""time""
""fullscreenenter"",""5"",""16883""
","
","","","","","","","","","","","","","","","","","","","","","",""
"d3-instructions","17","119165","0.0-17.0","463","751","19","Female","false","false","true","true","""event"",""trial"",""time""
""fullscreenenter"",""5"",""16883""
","
","
","""event"",""trial"",""time""
""fullscreenenter"",""5"",""16883""
","
","","","","","","","","","","","","","","","","","","","","","",""
"d3-instructions","18","131902","0.0-18.0","463","751","19","Female","false","false","true","true","""event"",""trial"",""time""
""fullscreenenter"",""5"",""16883""
","
","
","""event"",""trial"",""time""
""fullscreenenter"",""5"",""16883""
","
","","","","","","","","","","","","","","","","","","","","","",""
"d3-instructions","19","145478","0.0-19.0","463","751","19","Female","false","false","true","true","""event"",""trial"",""time""
""fullscreenenter"",""5"",""16883""
","
","
","""event"",""trial"",""time""
""fullscreenenter"",""5"",""16883""
","
","","","","","","","","","","","","","","","","","","","","","",""
"d3-animate-choice","20","148956","0.0-20.0","463","751","19","Female","false","false","true","true","""event"",""trial"",""time""
""fullscreenenter"",""5"",""16883""
","
","
","""event"",""trial"",""time""
""fullscreenenter"",""5"",""16883""
","
","1470.5999999642372","","49","","","3000","1","","","images/tutyellowplanet.jpg","null","images/tutalien3","null","images/tutalien3","images/t.png","NA","practice","null","","","",""
"d3-animate-choice","21","151406","0.0-21.0","463","751","19","Female","false","false","true","true","""event"",""trial"",""time""
""fullscreenenter"",""5"",""16883""
","
","
","""event"",""trial"",""time""
""fullscreenenter"",""5"",""16883""
","
","446.30000001192093","","49","","","3000","1","","","images/tutyellowplanet.jpg","null","images/tutalien3","null","images/tutalien3","images/nothing.png","NA","practice","null","","","",""
"d3-animate-choice","22","153740","0.0-22.0","463","751","19","Female","false","false","true","true","""event"",""trial"",""time""
""fullscreenenter"",""5"",""16883""
","
","
","""event"",""trial"",""time""
""fullscreenenter"",""5"",""16883""
","
","327.9000000357628","","49","","","3000","1","1854.1000000238419","49","images/tutyellowplanet.jpg","null","images/tutalien3","null","images/tutalien3","images/t.png","NA","practice","null","","","",""
"d3-animate-choice","23","156149","0.0-23.0","463","751","19","Female","false","false","true","true","""event"",""trial"",""time""
""fullscreenenter"",""5"",""16883""
","
","
","""event"",""trial"",""time""
""fullscreenenter"",""5"",""16883""
","
","401.5999999642372","","49","","","3000","1","","","images/tutyellowplanet.jpg","null","images/tutalien3","null","images/tutalien3","images/t.png","NA","practice","null","","","",""
"d3-animate-choice","24","158543","0.0-24.0","463","751","19","Female","false","false","true","true","""event"",""trial"",""time""
""fullscreenenter"",""5"",""16883""
","
","
","""event"",""trial"",""time""
""fullscreenenter"",""5"",""16883""
","
","388.39999997615814","","49","","","3000","1","2084.599999964237","49","images/tutyellowplanet.jpg","null","images/tutalien3","null","images/tutalien3","images/t.png","NA","practice","null","","","",""
"d3-animate-choice","25","160950","0.0-25.0","463","751","19","Female","false","false","true","true","""event"",""trial"",""time""
""fullscreenenter"",""5"",""16883""
","
","
","""event"",""trial"",""time""
""fullscreenenter"",""5"",""16883""
","
","398.19999998807907","","49","","","3000","1","","","images/tutyellowplanet.jpg","null","images/tutalien3","null","images/tutalien3","images/t.png","NA","practice","null","","","",""
"d3-animate-choice","26","163759","0.0-26.0","463","751","19","Female","false","false","true","true","""event"",""trial"",""time""
""fullscreenenter"",""5"",""16883""
","
","
","""event"",""trial"",""time""
""fullscreenenter"",""5"",""16883""
","
","802.7000000476837","","49","","","3000","1","2533.5","49","images/tutyellowplanet.jpg","null","images/tutalien3","null","images/tutalien3","images/t.png","NA","practice","null","","","",""
"d3-animate-choice","27","166110","0.0-27.0","463","751","19","Female","false","false","true","true","""event"",""trial"",""time""
""fullscreenenter"",""5"",""16883""
","
","
","""event"",""trial"",""time""
""fullscreenenter"",""5"",""16883""
","
","345.5","","49","","","3000","1","2166.699999988079","49","images/tutyellowplanet.jpg","null","images/tutalien3","null","images/tutalien3","images/t.png","NA","practice","null","","","",""
"d3-animate-choice","28","168473","0.0-28.0","463","751","19","Female","false","false","true","true","""event"",""trial"",""time""
""fullscreenenter"",""5"",""16883""
","
","
","""event"",""trial"",""time""
""fullscreenenter"",""5"",""16883""
","
","355.69999998807907","","49","","","3000","1","","","images/tutyellowplanet.jpg","null","images/tutalien3","null","images/tutalien3","images/t.png","NA","practice","null","","","",""
"d3-animate-choice","29","170865","0.0-29.0","463","751","19","Female","false","false","true","true","""event"",""trial"",""time""
""fullscreenenter"",""5"",""16883""
","
","
","""event"",""trial"",""time""
""fullscreenenter"",""5"",""16883""
","
","387.19999998807907","","49","","","3000","1","","","images/tutyellowplanet.jpg","null","images/tutalien3","null","images/tutalien3","images/nothing.png","NA","practice","null","","","",""
"d3-instructions","30","176048","0.0-30.0","463","751","19","Female","false","false","true","true","""event"",""trial"",""time""
""fullscreenenter"",""5"",""16883""
","
","
","""event"",""trial"",""time""
""fullscreenenter"",""5"",""16883""
","
","","","","","","","","","","","","","","","","","","","","","",""
"d3-instructions","31","187114","0.0-31.0","463","751","19","Female","false","false","true","true","""event"",""trial"",""time""
""fullscreenenter"",""5"",""16883""
","
","
","""event"",""trial"",""time""
""fullscreenenter"",""5"",""16883""
","
","","","","","","","","","","","","","","","","","","","","","",""
"d3-instructions","32","192033","0.0-32.0","463","751","19","Female","false","false","true","true","""event"",""trial"",""time""
""fullscreenenter"",""5"",""16883""
","
","
","""event"",""trial"",""time""
""fullscreenenter"",""5"",""16883""
","
","","","","","","","","","","","","","","","","","","","","","",""
"d3-instructions","33","196523","0.0-33.0","463","751","19","Female","false","false","true","true","""event"",""trial"",""time""
""fullscreenenter"",""5"",""16883""
","
","
","""event"",""trial"",""time""
""fullscreenenter"",""5"",""16883""
","
","","","","","","","","","","","","","","","","","","","","","",""
"d3-animate-choice","34","200079","0.0-34.0","463","751","19","Female","false","false","true","true","""event"",""trial"",""time""
""fullscreenenter"",""5"",""16883""
","
","
","""event"",""trial"",""time""
""fullscreenenter"",""5"",""16883""
","
","1549.4000000357628","","49","","","3000","1","","","images/tutgreenplanet.jpg","images/tutalien1","images/tutalien2","null","images/tutalien2","images/nothing.png","NA","practice","null","","","",""
"d3-animate-choice","35","202658","0.0-35.0","463","751","19","Female","false","false","true","true","""event"",""trial"",""time""
""fullscreenenter"",""5"",""16883""
","
","
","""event"",""trial"",""time""
""fullscreenenter"",""5"",""16883""
","
","573.5999999642372","","49","","","3000","1","","","images/tutgreenplanet.jpg","images/tutalien1","images/tutalien2","null","images/tutalien2","images/t.png","NA","practice","null","","","",""
"d3-animate-choice","36","205492","0.0-36.0","463","751","19","Female","false","false","true","true","""event"",""trial"",""time""
""fullscreenenter"",""5"",""16883""
","
","
","""event"",""trial"",""time""
""fullscreenenter"",""5"",""16883""
","
","826","","49","","","3000","1","","","images/tutgreenplanet.jpg","images/tutalien1","images/tutalien2","null","images/tutalien2","images/t.png","NA","practice","null","","","",""
"d3-animate-choice","37","207844","0.0-37.0","463","751","19","Female","false","false","true","true","""event"",""trial"",""time""
""fullscreenenter"",""5"",""16883""
","
","
","""event"",""trial"",""time""
""fullscreenenter"",""5"",""16883""
","
","347.5999999642372","","49","","","3000","1","","","images/tutgreenplanet.jpg","images/tutalien1","images/tutalien2","null","images/tutalien2","images/t.png","NA","practice","null","","","",""
"d3-animate-choice","38","210154","0.0-38.0","463","751","19","Female","false","false","true","true","""event"",""trial"",""time""
""fullscreenenter"",""5"",""16883""
","
","
","""event"",""trial"",""time""
""fullscreenenter"",""5"",""16883""
","
","301.5999999642372","","49","","","3000","1","1873.8999999761581","49","images/tutgreenplanet.jpg","images/tutalien1","images/tutalien2","null","images/tutalien2","images/t.png","NA","practice","null","","","",""
"d3-animate-choice","39","212470","0.0-39.0","463","751","19","Female","false","false","true","true","""event"",""trial"",""time""
""fullscreenenter"",""5"",""16883""
","
","
","""event"",""trial"",""time""
""fullscreenenter"",""5"",""16883""
","
","312.30000001192093","","49","","","3000","1","","","images/tutgreenplanet.jpg","images/tutalien1","images/tutalien2","null","images/tutalien2","images/t.png","NA","practice","null","","","",""
"d3-animate-choice","40","214816","0.0-40.0","463","751","19","Female","false","false","true","true","""event"",""trial"",""time""
""fullscreenenter"",""5"",""16883""
","
","
","""event"",""trial"",""time""
""fullscreenenter"",""5"",""16883""
","
","342","","49","","","3000","1","","","images/tutgreenplanet.jpg","images/tutalien1","images/tutalien2","null","images/tutalien2","images/t.png","NA","practice","null","","","",""
"d3-animate-choice","41","217138","0.0-41.0","463","751","19","Female","false","false","true","true","""event"",""trial"",""time""
""fullscreenenter"",""5"",""16883""
","
","
","""event"",""trial"",""time""
""fullscreenenter"",""5"",""16883""
","
","315.2999999523163","","49","","","3000","1","","","images/tutgreenplanet.jpg","images/tutalien1","images/tutalien2","null","images/tutalien2","images/t.png","NA","practice","null","","","",""
"d3-animate-choice","42","219465","0.0-42.0","463","751","19","Female","false","false","true","true","""event"",""trial"",""time""
""fullscreenenter"",""5"",""16883""
","
","
","""event"",""trial"",""time""
""fullscreenenter"",""5"",""16883""
","
","324.7000000476837","","49","","","3000","1","","","images/tutgreenplanet.jpg","images/tutalien1","images/tutalien2","null","images/tutalien2","images/t.png","NA","practice","null","","","",""
"d3-animate-choice","43","221744","0.0-43.0","463","751","19","Female","false","false","true","true","""event"",""trial"",""time""
""fullscreenenter"",""5"",""16883""
","
","
","""event"",""trial"",""time""
""fullscreenenter"",""5"",""16883""
","
","272.39999997615814","","49","","","3000","1","","","images/tutgreenplanet.jpg","images/tutalien1","images/tutalien2","null","images/tutalien2","images/t.png","NA","practice","null","","","",""
"d3-instructions","44","234857","0.0-44.0","463","751","19","Female","false","false","true","true","""event"",""trial"",""time""
""fullscreenenter"",""5"",""16883""
","
","
","""event"",""trial"",""time""
""fullscreenenter"",""5"",""16883""
","
","","","","","","","","","","","","","","","","","","","","","",""
"d3-instructions","45","240489","0.0-45.0","463","751","19","Female","false","false","true","true","""event"",""trial"",""time""
""fullscreenenter"",""5"",""16883""
","
","
","""event"",""trial"",""time""
""fullscreenenter"",""5"",""16883""
","
","","","","","","","","","","","","","","","","","","","","","",""
"d3-instructions","46","245700","0.0-46.0","463","751","19","Female","false","false","true","true","""event"",""trial"",""time""
""fullscreenenter"",""5"",""16883""
","
","
","""event"",""trial"",""time""
""fullscreenenter"",""5"",""16883""
","
","","","","","","","","","","","","","","","","","","","","","",""
"d3-instructions","47","262838","0.0-47.0","463","751","19","Female","false","false","true","true","""event"",""trial"",""time""
""fullscreenenter"",""5"",""16883""
","
","
","""event"",""trial"",""time""
""fullscreenenter"",""5"",""16883""
","
","","","","","","","","","","","","","","","","","","","","","",""
"d3-instructions","48","269652","0.0-48.0","463","751","19","Female","false","false","true","true","""event"",""trial"",""time""
""fullscreenenter"",""5"",""16883""
","
","
","""event"",""trial"",""time""
""fullscreenenter"",""5"",""16883""
","
","","","","","","","","","","","","","","","","","","","","","",""
"d3-instructions","49","280676","0.0-49.0","463","751","19","Female","false","false","true","true","""event"",""trial"",""time""
""fullscreenenter"",""5"",""16883""
","
","
","""event"",""trial"",""time""
""fullscreenenter"",""5"",""16883""
","
","","","","","","","","","","","","","","","","","","","","","",""
"d3-instructions","50","291515","0.0-50.0","463","751","19","Female","false","false","true","true","""event"",""trial"",""time""
""fullscreenenter"",""5"",""16883""
","
","
","""event"",""trial"",""time""
""fullscreenenter"",""5"",""16883""
","
","","","","","","","","","","","","","","","","","","","","","",""
"d3-instructions","51","294363","0.0-51.0","463","751","19","Female","false","false","true","true","""event"",""trial"",""time""
""fullscreenenter"",""5"",""16883""
","
","
","""event"",""trial"",""time""
""fullscreenenter"",""5"",""16883""
","
","","","","","","","","","","","","","","","","","","","","","",""
"d3-instructions","52","297046","0.0-52.0","463","751","19","Female","false","false","true","true","""event"",""trial"",""time""
""fullscreenenter"",""5"",""16883""
","
","
","""event"",""trial"",""time""
""fullscreenenter"",""5"",""16883""
","
","","","","","","","","","","","","","","","","","","","","","",""
"d3-instructions","53","308577","0.0-53.0","463","751","19","Female","false","false","true","true","""event"",""trial"",""time""
""fullscreenenter"",""5"",""16883""
","
","
","""event"",""trial"",""time""
""fullscreenenter"",""5"",""16883""
","
","","","","","","","","","","","","","","","","","","","","","",""
"d3-instructions","54","320116","0.0-54.0","463","751","19","Female","false","false","true","true","""event"",""trial"",""time""
""fullscreenenter"",""5"",""16883""
","
","
","""event"",""trial"",""time""
""fullscreenenter"",""5"",""16883""
","
","","","","","","","","","","","","","","","","","","","","","",""
"d3-instructions","55","330376","0.0-55.0","463","751","19","Female","false","false","true","true","""event"",""trial"",""time""
""fullscreenenter"",""5"",""16883""
","
","
","""event"",""trial"",""time""
""fullscreenenter"",""5"",""16883""
","
","","","","","","","","","","","","","","","","","","","","","",""
"d3-instructions","56","339288","0.0-56.0","463","751","19","Female","false","false","true","true","""event"",""trial"",""time""
""fullscreenenter"",""5"",""16883""
","
","
","""event"",""trial"",""time""
""fullscreenenter"",""5"",""16883""
","
","","","","","","","","","","","","","","","","","","","","","",""
"d3-instructions","57","351540","0.0-57.0","463","751","19","Female","false","false","true","true","""event"",""trial"",""time""
""fullscreenenter"",""5"",""16883""
","
","
","""event"",""trial"",""time""
""fullscreenenter"",""5"",""16883""
","
","","","","","","","","","","","","","","","","","","","","","",""
"d3-instructions","58","366007","0.0-58.0","463","751","19","Female","false","false","true","true","""event"",""trial"",""time""
""fullscreenenter"",""5"",""16883""
","
","
","""event"",""trial"",""time""
""fullscreenenter"",""5"",""16883""
","
","","","","","","","","","","","","","","","","","","","","","",""
"d3-instructions","59","370947","0.0-59.0","463","751","19","Female","false","false","true","true","""event"",""trial"",""time""
""fullscreenenter"",""5"",""16883""
","
","
","""event"",""trial"",""time""
""fullscreenenter"",""5"",""16883""
","
","","","","","","","","","","","","","","","","","","","","","",""
"d3-instructions","60","380410","0.0-60.0","463","751","19","Female","false","false","true","true","""event"",""trial"",""time""
""fullscreenenter"",""5"",""16883""
","
","
","""event"",""trial"",""time""
""fullscreenenter"",""5"",""16883""
","
","","","","","","","","","","","","","","","","","","","","","",""
"d3-animate-choice","61","384361","0.0-61.0-0.0","463","751","19","Female","false","false","true","true","""event"",""trial"",""time""
""fullscreenenter"",""5"",""16883""
","
","
","""event"",""trial"",""time""
""fullscreenenter"",""5"",""16883""
","
","1944.6000000238419","","49","","","3000","1","","","images/earth.jpg","images/tutrocket2","images/tutrocket1","null","images/tutrocket1","","1","practice","null","1","","",""
"d3-animate-choice","62","387362","0.0-61.0-1.0","463","751","19","Female","false","false","true","true","""event"",""trial"",""time""
""fullscreenenter"",""5"",""16883""
","
","
","""event"",""trial"",""time""
""fullscreenenter"",""5"",""16883""
","
","993.1999999880791","","49","","","3000","1","","","images/tutgreenplanet.jpg","images/tutalien2","images/tutalien1","images/tutrocket1","images/tutalien1","images/t.png","2","practice","false","1","rare","1","2022-02-15 05:25:51.410"
"two-step-fixation","63","388370","0.0-61.0-2.0","463","751","19","Female","false","false","true","true","""event"",""trial"",""time""
""fullscreenenter"",""5"",""16883""
","
","
","""event"",""trial"",""time""
""fullscreenenter"",""5"",""16883""
","
","","images/earth.jpg","","","","","","","","","","","","","","fixation","","","","","",""
"d3-animate-choice","64","391174","0.0-61.0-0.1","463","751","19","Female","false","false","true","true","""event"",""trial"",""time""
""fullscreenenter"",""5"",""16883""
","
","
","""event"",""trial"",""time""
""fullscreenenter"",""5"",""16883""
","
","794.8999999761581","","48","","","3000","1","","","images/earth.jpg","images/tutrocket2","images/tutrocket1","null","images/tutrocket2","","1","practice","null","2","","",""
"d3-animate-choice","65","393982","0.0-61.0-1.1","463","751","19","Female","false","false","true","true","""event"",""trial"",""time""
""fullscreenenter"",""5"",""16883""
","
","
","""event"",""trial"",""time""
""fullscreenenter"",""5"",""16883""
","
","802.1999999880791","","49","","","3000","1","","","images/tutgreenplanet.jpg","images/tutalien2","images/tutalien1","images/tutrocket2","images/tutalien1","images/nothing.png","2","practice","true","1","common","0","2022-02-15 05:25:58.029"
"two-step-fixation","66","394988","0.0-61.0-2.1","463","751","19","Female","false","false","true","true","""event"",""trial"",""time""
""fullscreenenter"",""5"",""16883""
","
","
","""event"",""trial"",""time""
""fullscreenenter"",""5"",""16883""
","
","","images/earth.jpg","","","","","","","","","","","","","","fixation","","","","","",""
"d3-animate-choice","67","397719","0.0-61.0-0.2","463","751","19","Female","false","false","true","true","""event"",""trial"",""time""
""fullscreenenter"",""5"",""16883""
","
","
","""event"",""trial"",""time""
""fullscreenenter"",""5"",""16883""
","
","723.1999999880791","","49","","","3000","1","","","images/earth.jpg","images/tutrocket2","images/tutrocket1","null","images/tutrocket1","","1","practice","null","1","","",""
"d3-animate-choice","68","400592","0.0-61.0-1.2","463","751","19","Female","false","false","true","true","""event"",""trial"",""time""
""fullscreenenter"",""5"",""16883""
","
","
","""event"",""trial"",""time""
""fullscreenenter"",""5"",""16883""
","
","868.2000000476837","","49","","","3000","1","","","images/tutyellowplanet.jpg","images/tutalien4","images/tutalien3","images/tutrocket1","images/tutalien3","images/nothing.png","2","practice","true","1","common","0","2022-02-15 05:26:04.639"
"two-step-fixation","69","401596","0.0-61.0-2.2","463","751","19","Female","false","false","true","true","""event"",""trial"",""time""
""fullscreenenter"",""5"",""16883""
","
","
","""event"",""trial"",""time""
""fullscreenenter"",""5"",""16883""
","
","","images/earth.jpg","","","","","","","","","","","","","","fixation","","","","","",""
"d3-animate-choice","70","404296","0.0-61.0-0.3","463","751","19","Female","false","false","true","true","""event"",""trial"",""time""
""fullscreenenter"",""5"",""16883""
","
","
","""event"",""trial"",""time""
""fullscreenenter"",""5"",""16883""
","
","690.1999999880791","","49","","","3000","1","","","images/earth.jpg","images/tutrocket2","images/tutrocket1","null","images/tutrocket1","","1","practice","null","1","","",""
"d3-animate-choice","71","407006","0.0-61.0-1.3","463","751","19","Female","false","false","true","true","""event"",""trial"",""time""
""fullscreenenter"",""5"",""16883""
","
","
","""event"",""trial"",""time""
""fullscreenenter"",""5"",""16883""
","
","703.1000000238419","","48","","","3000","1","","","images/tutyellowplanet.jpg","images/tutalien4","images/tutalien3","images/tutrocket1","images/tutalien4","images/t.png","2","practice","true","2","common","1","2022-02-15 05:26:11.053"
"two-step-fixation","72","408012","0.0-61.0-2.3","463","751","19","Female","false","false","true","true","""event"",""trial"",""time""
""fullscreenenter"",""5"",""16883""
","
","
","""event"",""trial"",""time""
""fullscreenenter"",""5"",""16883""
","
","","images/earth.jpg","","","","","","","","","","","","","","fixation","","","","","",""
"d3-animate-choice","73","410383","0.0-61.0-0.4","463","751","19","Female","false","false","true","true","""event"",""trial"",""time""
""fullscreenenter"",""5"",""16883""
","
","
","""event"",""trial"",""time""
""fullscreenenter"",""5"",""16883""
","
","366.30000001192093","","49","","","3000","1","","","images/earth.jpg","images/tutrocket2","images/tutrocket1","null","images/tutrocket1","","1","practice","null","1","","",""
"d3-animate-choice","74","413236","0.0-61.0-1.4","463","751","19","Female","false","false","true","true","""event"",""trial"",""time""
""fullscreenenter"",""5"",""16883""
","
","
","""event"",""trial"",""time""
""fullscreenenter"",""5"",""16883""
","
","844.5","","49","","","3000","1","","","images/tutgreenplanet.jpg","images/tutalien2","images/tutalien1","images/tutrocket1","images/tutalien1","images/nothing.png","2","practice","false","1","rare","0","2022-02-15 05:26:17.283"
"two-step-fixation","75","414241","0.0-61.0-2.4","463","751","19","Female","false","false","true","true","""event"",""trial"",""time""
""fullscreenenter"",""5"",""16883""
","
","
","""event"",""trial"",""time""
""fullscreenenter"",""5"",""16883""
","
","","images/earth.jpg","","","","","","","","","","","","","","fixation","","","","","",""
"d3-animate-choice","76","416827","0.0-61.0-0.5","463","751","19","Female","false","false","true","true","""event"",""trial"",""time""
""fullscreenenter"",""5"",""16883""
","
","
","""event"",""trial"",""time""
""fullscreenenter"",""5"",""16883""
","
","576.0999999642372","","49","","","3000","1","","","images/earth.jpg","images/tutrocket2","images/tutrocket1","null","images/tutrocket1","","1","practice","null","1","","",""
"d3-animate-choice","77","419582","0.0-61.0-1.5","463","751","19","Female","false","false","true","true","""event"",""trial"",""time""
""fullscreenenter"",""5"",""16883""
","
","
","""event"",""trial"",""time""
""fullscreenenter"",""5"",""16883""
","
","749","","48","","","3000","1","","","images/tutyellowplanet.jpg","images/tutalien4","images/tutalien3","images/tutrocket1","images/tutalien4","images/nothing.png","2","practice","true","2","common","0","2022-02-15 05:26:23.629"
"two-step-fixation","78","420586","0.0-61.0-2.5","463","751","19","Female","false","false","true","true","""event"",""trial"",""time""
""fullscreenenter"",""5"",""16883""
","
","
","""event"",""trial"",""time""
""fullscreenenter"",""5"",""16883""
","
","","images/earth.jpg","","","","","","","","","","","","","","fixation","","","","","",""
"d3-animate-choice","79","423175","0.0-61.0-0.6","463","751","19","Female","false","false","true","true","""event"",""trial"",""time""
""fullscreenenter"",""5"",""16883""
","
","
","""event"",""trial"",""time""
""fullscreenenter"",""5"",""16883""
","
","581.2000000476837","","49","","","3000","1","","","images/earth.jpg","images/tutrocket2","images/tutrocket1","null","images/tutrocket1","","1","practice","null","1","","",""
"d3-animate-choice","80","425840","0.0-61.0-1.6","463","751","19","Female","false","false","true","true","""event"",""trial"",""time""
""fullscreenenter"",""5"",""16883""
","
","
","""event"",""trial"",""time""
""fullscreenenter"",""5"",""16883""
","
","657.0999999642372","","48","","","3000","1","","","images/tutyellowplanet.jpg","images/tutalien4","images/tutalien3","images/tutrocket1","images/tutalien4","images/t.png","2","practice","true","2","common","1","2022-02-15 05:26:29.887"
"two-step-fixation","81","426844","0.0-61.0-2.6","463","751","19","Female","false","false","true","true","""event"",""trial"",""time""
""fullscreenenter"",""5"",""16883""
","
","
","""event"",""trial"",""time""
""fullscreenenter"",""5"",""16883""
","
","","images/earth.jpg","","","","","","","","","","","","","","fixation","","","","","",""
"d3-animate-choice","82","429294","0.0-61.0-0.7","463","751","19","Female","false","false","true","true","""event"",""trial"",""time""
""fullscreenenter"",""5"",""16883""
","
","
","""event"",""trial"",""time""
""fullscreenenter"",""5"",""16883""
","
","441.19999998807907","","49","","","3000","1","","","images/earth.jpg","images/tutrocket2","images/tutrocket1","null","images/tutrocket1","","1","practice","null","1","","",""
"d3-animate-choice","83","432492","0.0-61.0-1.7","463","751","19","Female","false","false","true","true","""event"",""trial"",""time""
""fullscreenenter"",""5"",""16883""
","
","
","""event"",""trial"",""time""
""fullscreenenter"",""5"",""16883""
","
","1190.7000000476837","","48","","","3000","1","","","images/tutgreenplanet.jpg","images/tutalien2","images/tutalien1","images/tutrocket1","images/tutalien2","images/nothing.png","2","practice","false","2","rare","0","2022-02-15 05:26:36.539"
"two-step-fixation","84","433497","0.0-61.0-2.7","463","751","19","Female","false","false","true","true","""event"",""trial"",""time""
""fullscreenenter"",""5"",""16883""
","
","
","""event"",""trial"",""time""
""fullscreenenter"",""5"",""16883""
","
","","images/earth.jpg","","","","","","","","","","","","","","fixation","","","","","",""
"d3-animate-choice","85","435825","0.0-61.0-0.8","463","751","19","Female","false","false","true","true","""event"",""trial"",""time""
""fullscreenenter"",""5"",""16883""
","
","
","""event"",""trial"",""time""
""fullscreenenter"",""5"",""16883""
","
","323.2000000476837","","48","","","3000","1","","","images/earth.jpg","images/tutrocket2","images/tutrocket1","null","images/tutrocket2","","1","practice","null","2","","",""
"d3-animate-choice","86","438559","0.0-61.0-1.8","463","751","19","Female","false","false","true","true","""event"",""trial"",""time""
""fullscreenenter"",""5"",""16883""
","
","
","""event"",""trial"",""time""
""fullscreenenter"",""5"",""16883""
","
","725.3000000119209","","48","","","3000","1","","","images/tutgreenplanet.jpg","images/tutalien2","images/tutalien1","images/tutrocket2","images/tutalien2","images/nothing.png","2","practice","true","2","common","0","2022-02-15 05:26:42.606"
"two-step-fixation","87","439563","0.0-61.0-2.8","463","751","19","Female","false","false","true","true","""event"",""trial"",""time""
""fullscreenenter"",""5"",""16883""
","
","
","""event"",""trial"",""time""
""fullscreenenter"",""5"",""16883""
","
","","images/earth.jpg","","","","","","","","","","","","","","fixation","","","","","",""
"d3-animate-choice","88","441884","0.0-61.0-0.9","463","751","19","Female","false","false","true","true","""event"",""trial"",""time""
""fullscreenenter"",""5"",""16883""
","
","
","""event"",""trial"",""time""
""fullscreenenter"",""5"",""16883""
","
","314.30000001192093","","48","","","3000","1","","","images/earth.jpg","images/tutrocket2","images/tutrocket1","null","images/tutrocket2","","1","practice","null","2","","",""
"d3-animate-choice","89","445037","0.0-61.0-1.9","463","751","19","Female","false","false","true","true","""event"",""trial"",""time""
""fullscreenenter"",""5"",""16883""
","
","
","""event"",""trial"",""time""
""fullscreenenter"",""5"",""16883""
","
","1146","","48","","","3000","1","","","images/tutyellowplanet.jpg","images/tutalien4","images/tutalien3","images/tutrocket2","images/tutalien4","images/t.png","2","practice","false","2","rare","1","2022-02-15 05:26:49.085"
"two-step-fixation","90","446042","0.0-61.0-2.9","463","751","19","Female","false","false","true","true","""event"",""trial"",""time""
""fullscreenenter"",""5"",""16883""
","
","
","""event"",""trial"",""time""
""fullscreenenter"",""5"",""16883""
","
","","images/earth.jpg","","","","","","","","","","","","","","fixation","","","","","",""
"d3-animate-choice","91","448393","0.0-61.0-0.10","463","751","19","Female","false","false","true","true","""event"",""trial"",""time""
""fullscreenenter"",""5"",""16883""
","
","
","""event"",""trial"",""time""
""fullscreenenter"",""5"",""16883""
","
","345","","48","","","3000","1","","","images/earth.jpg","images/tutrocket2","images/tutrocket1","null","images/tutrocket2","","1","practice","null","2","","",""
"d3-animate-choice","92","451197","0.0-61.0-1.10","463","751","19","Female","false","false","true","true","""event"",""trial"",""time""
""fullscreenenter"",""5"",""16883""
","
","
","""event"",""trial"",""time""
""fullscreenenter"",""5"",""16883""
","
","798.6999999880791","","49","","","3000","1","","","images/tutgreenplanet.jpg","images/tutalien2","images/tutalien1","images/tutrocket2","images/tutalien1","images/nothing.png","2","practice","true","1","common","0","2022-02-15 05:26:55.244"
"two-step-fixation","93","452201","0.0-61.0-2.10","463","751","19","Female","false","false","true","true","""event"",""trial"",""time""
""fullscreenenter"",""5"",""16883""
","
","
","""event"",""trial"",""time""
""fullscreenenter"",""5"",""16883""
","
","","images/earth.jpg","","","","","","","","","","","","","","fixation","","","","","",""
"d3-animate-choice","94","454471","0.0-61.0-0.11","463","751","19","Female","false","false","true","true","""event"",""trial"",""time""
""fullscreenenter"",""5"",""16883""
","
","
","""event"",""trial"",""time""
""fullscreenenter"",""5"",""16883""
","
","265.80000001192093","","48","","","3000","1","","","images/earth.jpg","images/tutrocket2","images/tutrocket1","null","images/tutrocket2","","1","practice","null","2","","",""
"d3-animate-choice","95","456903","0.0-61.0-1.11","463","751","19","Female","false","false","true","true","""event"",""trial"",""time""
""fullscreenenter"",""5"",""16883""
","
","
","""event"",""trial"",""time""
""fullscreenenter"",""5"",""16883""
","
","424.60000002384186","","48","","","3000","1","","","images/tutgreenplanet.jpg","images/tutalien2","images/tutalien1","images/tutrocket2","images/tutalien2","images/t.png","2","practice","true","2","common","1","2022-02-15 05:27:00.950"
"two-step-fixation","96","457907","0.0-61.0-2.11","463","751","19","Female","false","false","true","true","""event"",""trial"",""time""
""fullscreenenter"",""5"",""16883""
","
","
","""event"",""trial"",""time""
""fullscreenenter"",""5"",""16883""
","
","","images/earth.jpg","","","","","","","","","","","","","","fixation","","","","","",""
"d3-animate-choice","97","460188","0.0-61.0-0.12","463","751","19","Female","false","false","true","true","""event"",""trial"",""time""
""fullscreenenter"",""5"",""16883""
","
","
","""event"",""trial"",""time""
""fullscreenenter"",""5"",""16883""
","
","276.0999999642372","","48","","","3000","1","","","images/earth.jpg","images/tutrocket2","images/tutrocket1","null","images/tutrocket2","","1","practice","null","2","","",""
"d3-animate-choice","98","462645","0.0-61.0-1.12","463","751","19","Female","false","false","true","true","""event"",""trial"",""time""
""fullscreenenter"",""5"",""16883""
","
","
","""event"",""trial"",""time""
""fullscreenenter"",""5"",""16883""
","
","452.30000001192093","","48","","","3000","1","","","images/tutgreenplanet.jpg","images/tutalien2","images/tutalien1","images/tutrocket2","images/tutalien2","images/nothing.png","2","practice","true","2","common","0","2022-02-15 05:27:06.692"
"two-step-fixation","99","463649","0.0-61.0-2.12","463","751","19","Female","false","false","true","true","""event"",""trial"",""time""
""fullscreenenter"",""5"",""16883""
","
","
","""event"",""trial"",""time""
""fullscreenenter"",""5"",""16883""
","
","","images/earth.jpg","","","","","","","","","","","","","","fixation","","","","","",""
"d3-animate-choice","100","465936","0.0-61.0-0.13","463","751","19","Female","false","false","true","true","""event"",""trial"",""time""
""fullscreenenter"",""5"",""16883""
","
","
","""event"",""trial"",""time""
""fullscreenenter"",""5"",""16883""
","
","281.80000001192093","","49","","","3000","1","","","images/earth.jpg","images/tutrocket2","images/tutrocket1","null","images/tutrocket1","","1","practice","null","1","","",""
"d3-animate-choice","101","468959","0.0-61.0-1.13","463","751","19","Female","false","false","true","true","""event"",""trial"",""time""
""fullscreenenter"",""5"",""16883""
","
","
","""event"",""trial"",""time""
""fullscreenenter"",""5"",""16883""
","
","1017.5","","48","","","3000","1","","","images/tutgreenplanet.jpg","images/tutalien2","images/tutalien1","images/tutrocket1","images/tutalien2","images/t.png","2","practice","false","2","rare","1","2022-02-15 05:27:13.006"
"two-step-fixation","102","469963","0.0-61.0-2.13","463","751","19","Female","false","false","true","true","""event"",""trial"",""time""
""fullscreenenter"",""5"",""16883""
","
","
","""event"",""trial"",""time""
""fullscreenenter"",""5"",""16883""
","
","","images/earth.jpg","","","","","","","","","","","","","","fixation","","","","","",""
"d3-animate-choice","103","472449","0.0-61.0-0.14","463","751","19","Female","false","false","true","true","""event"",""trial"",""time""
""fullscreenenter"",""5"",""16883""
","
","
","""event"",""trial"",""time""
""fullscreenenter"",""5"",""16883""
","
","479.2999999523163","","49","","","3000","1","","","images/earth.jpg","images/tutrocket2","images/tutrocket1","null","images/tutrocket1","","1","practice","null","1","","",""
"d3-animate-choice","104","474933","0.0-61.0-1.14","463","751","19","Female","false","false","true","true","""event"",""trial"",""time""
""fullscreenenter"",""5"",""16883""
","
","
","""event"",""trial"",""time""
""fullscreenenter"",""5"",""16883""
","
","477","","48","","","3000","1","","","images/tutyellowplanet.jpg","images/tutalien4","images/tutalien3","images/tutrocket1","images/tutalien4","images/nothing.png","2","practice","true","2","common","0","2022-02-15 05:27:18.980"
"two-step-fixation","105","475938","0.0-61.0-2.14","463","751","19","Female","false","false","true","true","""event"",""trial"",""time""
""fullscreenenter"",""5"",""16883""
","
","
","""event"",""trial"",""time""
""fullscreenenter"",""5"",""16883""
","
","","images/earth.jpg","","","","","","","","","","","","","","fixation","","","","","",""
"d3-animate-choice","106","478324","0.0-61.0-0.15","463","751","19","Female","false","false","true","true","""event"",""trial"",""time""
""fullscreenenter"",""5"",""16883""
","
","
","""event"",""trial"",""time""
""fullscreenenter"",""5"",""16883""
","
","380.19999998807907","","48","","","3000","1","957.1999999880791","32","images/earth.jpg","images/tutrocket2","images/tutrocket1","null","images/tutrocket2","","1","practice","null","2","","",""
"d3-animate-choice","107","481209","0.0-61.0-1.15","463","751","19","Female","false","false","true","true","""event"",""trial"",""time""
""fullscreenenter"",""5"",""16883""
","
","
","""event"",""trial"",""time""
""fullscreenenter"",""5"",""16883""
","
","879.4000000357628","","48","","","3000","1","","","images/tutgreenplanet.jpg","images/tutalien2","images/tutalien1","images/tutrocket2","images/tutalien2","images/nothing.png","2","practice","true","2","common","0","2022-02-15 05:27:25.256"
"two-step-fixation","108","482212","0.0-61.0-2.15","463","751","19","Female","false","false","true","true","""event"",""trial"",""time""
""fullscreenenter"",""5"",""16883""
","
","
","""event"",""trial"",""time""
""fullscreenenter"",""5"",""16883""
","
","","images/earth.jpg","","","","","","","","","","","","","","fixation","","","","","",""
"d3-animate-choice","109","484511","0.0-61.0-0.16","463","751","19","Female","false","false","true","true","""event"",""trial"",""time""
""fullscreenenter"",""5"",""16883""
","
","
","""event"",""trial"",""time""
""fullscreenenter"",""5"",""16883""
","
","289.69999998807907","","49","","","3000","1","","","images/earth.jpg","images/tutrocket2","images/tutrocket1","null","images/tutrocket1","","1","practice","null","1","","",""
"d3-animate-choice","110","486895","0.0-61.0-1.16","463","751","19","Female","false","false","true","true","""event"",""trial"",""time""
""fullscreenenter"",""5"",""16883""
","
","
","""event"",""trial"",""time""
""fullscreenenter"",""5"",""16883""
","
","377.80000001192093","","49","","","3000","1","","","images/tutyellowplanet.jpg","images/tutalien4","images/tutalien3","images/tutrocket1","images/tutalien3","images/nothing.png","2","practice","true","1","common","0","2022-02-15 05:27:30.942"
"two-step-fixation","111","487903","0.0-61.0-2.16","463","751","19","Female","false","false","true","true","""event"",""trial"",""time""
""fullscreenenter"",""5"",""16883""
","
","
","""event"",""trial"",""time""
""fullscreenenter"",""5"",""16883""
","
","","images/earth.jpg","","","","","","","","","","","","","","fixation","","","","","",""
"d3-animate-choice","112","490184","0.0-61.0-0.17","463","751","19","Female","false","false","true","true","""event"",""trial"",""time""
""fullscreenenter"",""5"",""16883""
","
","
","""event"",""trial"",""time""
""fullscreenenter"",""5"",""16883""
","
","274.0999999642372","","49","","","3000","1","","","images/earth.jpg","images/tutrocket2","images/tutrocket1","null","images/tutrocket1","","1","practice","null","1","","",""
"d3-animate-choice","113","492559","0.0-61.0-1.17","463","751","19","Female","false","false","true","true","""event"",""trial"",""time""
""fullscreenenter"",""5"",""16883""
","
","
","""event"",""trial"",""time""
""fullscreenenter"",""5"",""16883""
","
","370.5999999642372","","48","","","3000","1","","","images/tutyellowplanet.jpg","images/tutalien4","images/tutalien3","images/tutrocket1","images/tutalien4","images/t.png","2","practice","true","2","common","1","2022-02-15 05:27:36.606"
"two-step-fixation","114","493562","0.0-61.0-2.17","463","751","19","Female","false","false","true","true","""event"",""trial"",""time""
""fullscreenenter"",""5"",""16883""
","
","
","""event"",""trial"",""time""
""fullscreenenter"",""5"",""16883""
","
","","images/earth.jpg","","","","","","","","","","","","","","fixation","","","","","",""
"d3-animate-choice","115","495902","0.0-61.0-0.18","463","751","19","Female","false","false","true","true","""event"",""trial"",""time""
""fullscreenenter"",""5"",""16883""
","
","
","""event"",""trial"",""time""
""fullscreenenter"",""5"",""16883""
","
","332.19999998807907","","49","","","3000","1","","","images/earth.jpg","images/tutrocket2","images/tutrocket1","null","images/tutrocket1","","1","practice","null","1","","",""
"d3-animate-choice","116","498267","0.0-61.0-1.18","463","751","19","Female","false","false","true","true","""event"",""trial"",""time""
""fullscreenenter"",""5"",""16883""
","
","
","""event"",""trial"",""time""
""fullscreenenter"",""5"",""16883""
","
","358.19999998807907","","48","","","3000","1","","","images/tutyellowplanet.jpg","images/tutalien4","images/tutalien3","images/tutrocket1","images/tutalien4","images/t.png","2","practice","true","2","common","1","2022-02-15 05:27:42.314"
"two-step-fixation","117","499270","0.0-61.0-2.18","463","751","19","Female","false","false","true","true","""event"",""trial"",""time""
""fullscreenenter"",""5"",""16883""
","
","
","""event"",""trial"",""time""
""fullscreenenter"",""5"",""16883""
","
","","images/earth.jpg","","","","","","","","","","","","","","fixation","","","","","",""
"d3-animate-choice","118","501579","0.0-61.0-0.19","463","751","19","Female","false","false","true","true","""event"",""trial"",""time""
""fullscreenenter"",""5"",""16883""
","
","
","""event"",""trial"",""time""
""fullscreenenter"",""5"",""16883""
","
","303.69999998807907","","49","","","3000","1","","","images/earth.jpg","images/tutrocket2","images/tutrocket1","null","images/tutrocket1","","1","practice","null","1","","",""
"d3-animate-choice","119","504283","0.0-61.0-1.19","463","751","19","Female","false","false","true","true","""event"",""trial"",""time""
""fullscreenenter"",""5"",""16883""
","
","
","""event"",""trial"",""time""
""fullscreenenter"",""5"",""16883""
","
","699.5","","48","","","3000","1","","","images/tutgreenplanet.jpg","images/tutalien2","images/tutalien1","images/tutrocket1","images/tutalien2","images/t.png","2","practice","false","2","rare","1","2022-02-15 05:27:48.330"
"two-step-fixation","120","505286","0.0-61.0-2.19","463","751","19","Female","false","false","true","true","""event"",""trial"",""time""
""fullscreenenter"",""5"",""16883""
","
","
","""event"",""trial"",""time""
""fullscreenenter"",""5"",""16883""
","
","","images/earth.jpg","","","","","","","","","","","","","","fixation","","","","","",""
"d3-instructions","121","509614","0.0-62.0","463","751","19","Female","false","false","true","true","""event"",""trial"",""time""
""fullscreenenter"",""5"",""16883""
","
","
","""event"",""trial"",""time""
""fullscreenenter"",""5"",""16883""
","
","","","","","","","","","","","","","","","","","","","","","",""
"audio-keyboard-response","122","514555","0.0-63.0","463","751","19","Female","false","false","true","true","""event"",""trial"",""time""
""fullscreenenter"",""5"",""16883""
","
","
","""event"",""trial"",""time""
""fullscreenenter"",""5"",""16883""
","
","4934","audio/instructions/treasure_feedback.wav","32","","","","","","","","","","","","","","","","","","",""
"d3-instructions","123","533856","0.0-64.0","463","751","19","Female","false","false","true","true","""event"",""trial"",""time""
""fullscreenenter"",""5"",""16883""
","
","
","""event"",""trial"",""time""
""fullscreenenter"",""5"",""16883""
","
","","","","","","","","","","","","","","","","","","","","","",""
"d3-instructions","124","549861","0.0-65.0","463","751","19","Female","false","false","true","true","""event"",""trial"",""time""
""fullscreenenter"",""5"",""16883""
","
","
","""event"",""trial"",""time""
""fullscreenenter"",""5"",""16883""
","
","","","","","","","","","","","","","","","","","","","","","",""
"d3-instructions","125","575418","0.0-66.0","463","751","19","Female","false","false","true","true","""event"",""trial"",""time""
""fullscreenenter"",""5"",""16883""
","
","
","""event"",""trial"",""time""
""fullscreenenter"",""5"",""16883""
","
","","","","","","","","","","","","","","","","","","","","","",""
"d3-instructions","126","597686","0.0-67.0","463","751","19","Female","false","false","true","true","""event"",""trial"",""time""
""fullscreenenter"",""5"",""16883""
","
","
","""event"",""trial"",""time""
""fullscreenenter"",""5"",""16883""
","
","","","","","","","","","","","","","","","","","","","","","",""
"d3-instructions","127","605277","0.0-68.0","463","751","19","Female","false","false","true","true","""event"",""trial"",""time""
""fullscreenenter"",""5"",""16883""
","
","
","""event"",""trial"",""time""
""fullscreenenter"",""5"",""16883""
","
","","","","","","","","","","","","","","","","","","","","","",""
"instructions-quiz","128","610576","0.0-69.0","463","751","19","Female","false","false","true","true","""event"",""trial"",""time""
""fullscreenenter"",""5"",""16883""
","
","
","""event"",""trial"",""time""
""fullscreenenter"",""5"",""16883""
","
","5295.399999976158","audio/quiz/Q1_Prompt.wav","","1","","","","","","","","","","","","","","","","","",""
"audio-keyboard-response","129","615852","0.0-70.0","463","751","19","Female","false","false","true","true","""event"",""trial"",""time""
""fullscreenenter"",""5"",""16883""
","
","
","""event"",""trial"",""time""
""fullscreenenter"",""5"",""16883""
","
","5271","audio/quiz/Q1_Correct.wav","32","","","","","","","","","","","","","","","","","","",""
"instructions-quiz","130","621119","0.0-71.0","463","751","19","Female","false","false","true","true","""event"",""trial"",""time""
""fullscreenenter"",""5"",""16883""
","
","
","""event"",""trial"",""time""
""fullscreenenter"",""5"",""16883""
","
","5263.199999988079","audio/quiz/Q2_Prompt.wav","","0","","","","","","","","","","","","","","","","","",""
"audio-keyboard-response","131","624337","0.0-72.0","463","751","19","Female","false","false","true","true","""event"",""trial"",""time""
""fullscreenenter"",""5"",""16883""
","
","
","""event"",""trial"",""time""
""fullscreenenter"",""5"",""16883""
","
","3210","audio/quiz/Q2_Correct.wav","32","","","","","","","","","","","","","","","","","","",""
"instructions-quiz","132","628196","0.0-73.0","463","751","19","Female","false","false","true","true","""event"",""trial"",""time""
""fullscreenenter"",""5"",""16883""
","
","
","""event"",""trial"",""time""
""fullscreenenter"",""5"",""16883""
","
","3854.899999976158","audio/quiz/Q3_Prompt.wav","","1","","","","","","","","","","","","","","","","","",""
"audio-keyboard-response","133","629759","0.0-74.0","463","751","19","Female","false","false","true","true","""event"",""trial"",""time""
""fullscreenenter"",""5"",""16883""
","
","
","""event"",""trial"",""time""
""fullscreenenter"",""5"",""16883""
","
","1556","audio/quiz/Q3_Correct.wav","32","","","","","","","","","","","","","","","","","","",""
"d3-instructions","134","647244","0.0-75.0","463","751","19","Female","false","false","true","true","""event"",""trial"",""time""
""fullscreenenter"",""5"",""16883""
","
","
","""event"",""trial"",""time""
""fullscreenenter"",""5"",""16883""
","
","","","","","","","","","","","","","","","","","","","","","",""
"d3-animate-choice","135","650825","0.0-76.0-0.0","463","751","19","Female","false","false","true","true","""event"",""trial"",""time""
""fullscreenenter"",""5"",""16883""
","
","
","""event"",""trial"",""time""
""fullscreenenter"",""5"",""16883""
","
","1576","","48","","","3000","1","","","images/earth.jpg","images/rocket1","images/rocket2","null","images/rocket1","","1","real","null","2","","",""
"d3-animate-choice","136","653618","0.0-76.0-1.0","463","751","19","Female","false","false","true","true","""event"",""trial"",""time""
""fullscreenenter"",""5"",""16883""
","
","
","""event"",""trial"",""time""
""fullscreenenter"",""5"",""16883""
","
","786.3000000119209","","49","","","3000","1","","","images/purpleplanet.jpg","images/alien4","images/alien3","images/rocket1","images/alien3","images/nothing.png","2","real","true","1","common","0","2022-02-15 05:30:17.665"
"two-step-fixation","137","654623","0.0-76.0-2.0","463","751","19","Female","false","false","true","true","""event"",""trial"",""time""
""fullscreenenter"",""5"",""16883""
","
","
","""event"",""trial"",""time""
""fullscreenenter"",""5"",""16883""
","
","","images/earth.jpg","","","","","","","","","","","","","","fixation","","","","","",""
"d3-animate-choice","138","656973","0.0-76.0-0.1","463","751","19","Female","false","false","true","true","""event"",""trial"",""time""
""fullscreenenter"",""5"",""16883""
","
","
","""event"",""trial"",""time""
""fullscreenenter"",""5"",""16883""
","
","344.5","","48","","","3000","1","","","images/earth.jpg","images/rocket1","images/rocket2","null","images/rocket1","","1","real","null","2","","",""
"d3-animate-choice","139","659618","0.0-76.0-1.1","463","751","19","Female","false","false","true","true","""event"",""trial"",""time""
""fullscreenenter"",""5"",""16883""
","
","
","""event"",""trial"",""time""
""fullscreenenter"",""5"",""16883""
","
","640.1000000238419","","48","","","3000","1","","","images/purpleplanet.jpg","images/alien4","images/alien3","images/rocket1","images/alien4","images/t.png","2","real","true","2","common","1","2022-02-15 05:30:23.665"
"two-step-fixation","140","660625","0.0-76.0-2.1","463","751","19","Female","false","false","true","true","""event"",""trial"",""time""
""fullscreenenter"",""5"",""16883""
","
","
","""event"",""trial"",""time""
""fullscreenenter"",""5"",""16883""
","
","","images/earth.jpg","","","","","","","","","","","","","","fixation","","","","","",""
"d3-animate-choice","141","663028","0.0-76.0-0.2","463","751","19","Female","false","false","true","true","""event"",""trial"",""time""
""fullscreenenter"",""5"",""16883""
","
","
","""event"",""trial"",""time""
""fullscreenenter"",""5"",""16883""
","
","397.30000001192093","","48","","","3000","1","","","images/earth.jpg","images/rocket1","images/rocket2","null","images/rocket1","","1","real","null","2","","",""
"d3-animate-choice","142","665647","0.0-76.0-1.2","463","751","19","Female","false","false","true","true","""event"",""trial"",""time""
""fullscreenenter"",""5"",""16883""
","
","
","""event"",""trial"",""time""
""fullscreenenter"",""5"",""16883""
","
","612.5","","48","","","3000","1","","","images/purpleplanet.jpg","images/alien4","images/alien3","images/rocket1","images/alien4","images/t.png","2","real","true","2","common","1","2022-02-15 05:30:29.694"
"two-step-fixation","143","666651","0.0-76.0-2.2","463","751","19","Female","false","false","true","true","""event"",""trial"",""time""
""fullscreenenter"",""5"",""16883""
","
","
","""event"",""trial"",""time""
""fullscreenenter"",""5"",""16883""
","
","","images/earth.jpg","","","","","","","","","","","","","","fixation","","","","","",""
"d3-animate-choice","144","668985","0.0-76.0-0.3","463","751","19","Female","false","false","true","true","""event"",""trial"",""time""
""fullscreenenter"",""5"",""16883""
","
","
","""event"",""trial"",""time""
""fullscreenenter"",""5"",""16883""
","
","329.5","","48","","","3000","1","","","images/earth.jpg","images/rocket1","images/rocket2","null","images/rocket1","","1","real","null","2","","",""
"d3-animate-choice","145","671382","0.0-76.0-1.3","463","751","19","Female","false","false","true","true","""event"",""trial"",""time""
""fullscreenenter"",""5"",""16883""
","
","
","""event"",""trial"",""time""
""fullscreenenter"",""5"",""16883""
","
","390.19999998807907","","48","","","3000","1","","","images/purpleplanet.jpg","images/alien4","images/alien3","images/rocket1","images/alien4","images/t.png","2","real","true","2","common","1","2022-02-15 05:30:35.429"
"two-step-fixation","146","672386","0.0-76.0-2.3","463","751","19","Female","false","false","true","true","""event"",""trial"",""time""
""fullscreenenter"",""5"",""16883""
","
","
","""event"",""trial"",""time""
""fullscreenenter"",""5"",""16883""
","
","","images/earth.jpg","","","","","","","","","","","","","","fixation","","","","","",""
"d3-animate-choice","147","674680","0.0-76.0-0.4","463","751","19","Female","false","false","true","true","""event"",""trial"",""time""
""fullscreenenter"",""5"",""16883""
","
","
","""event"",""trial"",""time""
""fullscreenenter"",""5"",""16883""
","
","289.39999997615814","","48","","","3000","1","","","images/earth.jpg","images/rocket1","images/rocket2","null","images/rocket1","","1","real","null","2","","",""
"d3-animate-choice","148","677090","0.0-76.0-1.4","463","751","19","Female","false","false","true","true","""event"",""trial"",""time""
""fullscreenenter"",""5"",""16883""
","
","
","""event"",""trial"",""time""
""fullscreenenter"",""5"",""16883""
","
","405","","48","","","3000","1","","","images/purpleplanet.jpg","images/alien4","images/alien3","images/rocket1","images/alien4","images/nothing.png","2","real","true","2","common","0","2022-02-15 05:30:41.137"
"two-step-fixation","149","678094","0.0-76.0-2.4","463","751","19","Female","false","false","true","true","""event"",""trial"",""time""
""fullscreenenter"",""5"",""16883""
","
","
","""event"",""trial"",""time""
""fullscreenenter"",""5"",""16883""
","
","","images/earth.jpg","","","","","","","","","","","","","","fixation","","","","","",""
"d3-animate-choice","150","680395","0.0-76.0-0.5","463","751","19","Female","false","false","true","true","""event"",""trial"",""time""
""fullscreenenter"",""5"",""16883""
","
","
","""event"",""trial"",""time""
""fullscreenenter"",""5"",""16883""
","
","296.19999998807907","","48","","","3000","1","","","images/earth.jpg","images/rocket1","images/rocket2","null","images/rocket1","","1","real","null","2","","",""
"d3-animate-choice","151","683439","0.0-76.0-1.5","463","751","19","Female","false","false","true","true","""event"",""trial"",""time""
""fullscreenenter"",""5"",""16883""
","
","
","""event"",""trial"",""time""
""fullscreenenter"",""5"",""16883""
","
","1036.5","","49","","","3000","1","","","images/redplanet1.jpg","images/alien2","images/alien1","images/rocket1","images/alien1","images/t.png","2","real","false","1","rare","1","2022-02-15 05:30:47.486"
"two-step-fixation","152","684445","0.0-76.0-2.5","463","751","19","Female","false","false","true","true","""event"",""trial"",""time""
""fullscreenenter"",""5"",""16883""
","
","
","""event"",""trial"",""time""
""fullscreenenter"",""5"",""16883""
","
","","images/earth.jpg","","","","","","","","","","","","","","fixation","","","","","",""
"d3-animate-choice","153","686825","0.0-76.0-0.6","463","751","19","Female","false","false","true","true","""event"",""trial"",""time""
""fullscreenenter"",""5"",""16883""
","
","
","""event"",""trial"",""time""
""fullscreenenter"",""5"",""16883""
","
","372.69999998807907","","48","","","3000","1","","","images/earth.jpg","images/rocket1","images/rocket2","null","images/rocket1","","1","real","null","2","","",""
"d3-animate-choice","154","689378","0.0-76.0-1.6","463","751","19","Female","false","false","true","true","""event"",""trial"",""time""
""fullscreenenter"",""5"",""16883""
","
","
","""event"",""trial"",""time""
""fullscreenenter"",""5"",""16883""
","
","546.3999999761581","","48","","","3000","1","","","images/purpleplanet.jpg","images/alien4","images/alien3","images/rocket1","images/alien4","images/t.png","2","real","true","2","common","1","2022-02-15 05:30:53.425"
"two-step-fixation","155","690384","0.0-76.0-2.6","463","751","19","Female","false","false","true","true","""event"",""trial"",""time""
""fullscreenenter"",""5"",""16883""
","
","
","""event"",""trial"",""time""
""fullscreenenter"",""5"",""16883""
","
","","images/earth.jpg","","","","","","","","","","","","","","fixation","","","","","",""
"d3-animate-choice","156","692674","0.0-76.0-0.7","463","751","19","Female","false","false","true","true","""event"",""trial"",""time""
""fullscreenenter"",""5"",""16883""
","
","
","""event"",""trial"",""time""
""fullscreenenter"",""5"",""16883""
","
","284.80000001192093","","48","","","3000","1","","","images/earth.jpg","images/rocket1","images/rocket2","null","images/rocket1","","1","real","null","2","","",""
"d3-animate-choice","157","695573","0.0-76.0-1.7","463","751","19","Female","false","false","true","true","""event"",""trial"",""time""
""fullscreenenter"",""5"",""16883""
","
","
","""event"",""trial"",""time""
""fullscreenenter"",""5"",""16883""
","
","893.0999999642372","","48","","","3000","1","","","images/purpleplanet.jpg","images/alien4","images/alien3","images/rocket1","images/alien4","images/t.png","2","real","true","2","common","1","2022-02-15 05:30:59.620"
"two-step-fixation","158","696578","0.0-76.0-2.7","463","751","19","Female","false","false","true","true","""event"",""trial"",""time""
""fullscreenenter"",""5"",""16883""
","
","
","""event"",""trial"",""time""
""fullscreenenter"",""5"",""16883""
","
","","images/earth.jpg","","","","","","","","","","","","","","fixation","","","","","",""
"d3-animate-choice","159","698888","0.0-76.0-0.8","463","751","19","Female","false","false","true","true","""event"",""trial"",""time""
""fullscreenenter"",""5"",""16883""
","
","
","""event"",""trial"",""time""
""fullscreenenter"",""5"",""16883""
","
","303.80000001192093","","48","","","3000","1","","","images/earth.jpg","images/rocket1","images/rocket2","null","images/rocket1","","1","real","null","2","","",""
"d3-animate-choice","160","701704","0.0-76.0-1.8","463","751","19","Female","false","false","true","true","""event"",""trial"",""time""
""fullscreenenter"",""5"",""16883""
","
","
","""event"",""trial"",""time""
""fullscreenenter"",""5"",""16883""
","
","808.8999999761581","","49","","","3000","1","","","images/redplanet1.jpg","images/alien2","images/alien1","images/rocket1","images/alien1","images/t.png","2","real","false","1","rare","1","2022-02-15 05:31:05.751"
"two-step-fixation","161","702708","0.0-76.0-2.8","463","751","19","Female","false","false","true","true","""event"",""trial"",""time""
""fullscreenenter"",""5"",""16883""
","
","
","""event"",""trial"",""time""
""fullscreenenter"",""5"",""16883""
","
","","images/earth.jpg","","","","","","","","","","","","","","fixation","","","","","",""
"d3-animate-choice","162","704997","0.0-76.0-0.9","463","751","19","Female","false","false","true","true","""event"",""trial"",""time""
""fullscreenenter"",""5"",""16883""
","
","
","""event"",""trial"",""time""
""fullscreenenter"",""5"",""16883""
","
","284.0999999642372","","48","","","3000","1","","","images/earth.jpg","images/rocket1","images/rocket2","null","images/rocket1","","1","real","null","2","","",""
"d3-animate-choice","163","707451","0.0-76.0-1.9","463","751","19","Female","false","false","true","true","""event"",""trial"",""time""
""fullscreenenter"",""5"",""16883""
","
","
","""event"",""trial"",""time""
""fullscreenenter"",""5"",""16883""
","
","446","","48","","","3000","1","","","images/redplanet1.jpg","images/alien2","images/alien1","images/rocket1","images/alien2","images/nothing.png","2","real","false","2","rare","0","2022-02-15 05:31:11.498"
"two-step-fixation","164","708455","0.0-76.0-2.9","463","751","19","Female","false","false","true","true","""event"",""trial"",""time""
""fullscreenenter"",""5"",""16883""
","
","
","""event"",""trial"",""time""
""fullscreenenter"",""5"",""16883""
","
","","images/earth.jpg","","","","","","","","","","","","","","fixation","","","","","",""
"d3-animate-choice","165","710983","0.0-76.0-0.10","463","751","19","Female","false","false","true","true","""event"",""trial"",""time""
""fullscreenenter"",""5"",""16883""
","
","
","""event"",""trial"",""time""
""fullscreenenter"",""5"",""16883""
","
","522.5","","48","","","3000","1","","","images/earth.jpg","images/rocket1","images/rocket2","null","images/rocket1","","1","real","null","2","","",""
"d3-animate-choice","166","713632","0.0-76.0-1.10","463","751","19","Female","false","false","true","true","""event"",""trial"",""time""
""fullscreenenter"",""5"",""16883""
","
","
","""event"",""trial"",""time""
""fullscreenenter"",""5"",""16883""
","
","644.6999999880791","","48","","","3000","1","","","images/purpleplanet.jpg","images/alien4","images/alien3","images/rocket1","images/alien4","images/t.png","2","real","true","2","common","1","2022-02-15 05:31:17.679"
"two-step-fixation","167","714636","0.0-76.0-2.10","463","751","19","Female","false","false","true","true","""event"",""trial"",""time""
""fullscreenenter"",""5"",""16883""
","
","
","""event"",""trial"",""time""
""fullscreenenter"",""5"",""16883""
","
","","images/earth.jpg","","","","","","","","","","","","","","fixation","","","","","",""
"d3-animate-choice","168","716942","0.0-76.0-0.11","463","751","19","Female","false","false","true","true","""event"",""trial"",""time""
""fullscreenenter"",""5"",""16883""
","
","
","""event"",""trial"",""time""
""fullscreenenter"",""5"",""16883""
","
","302.5999999642372","","48","","","3000","1","","","images/earth.jpg","images/rocket1","images/rocket2","null","images/rocket1","","1","real","null","2","","",""
"d3-animate-choice","169","719336","0.0-76.0-1.11","463","751","19","Female","false","false","true","true","""event"",""trial"",""time""
""fullscreenenter"",""5"",""16883""
","
","
","""event"",""trial"",""time""
""fullscreenenter"",""5"",""16883""
","
","387.9000000357628","","48","","","3000","1","","","images/purpleplanet.jpg","images/alien4","images/alien3","images/rocket1","images/alien4","images/t.png","2","real","true","2","common","1","2022-02-15 05:31:23.383"
"two-step-fixation","170","720340","0.0-76.0-2.11","463","751","19","Female","false","false","true","true","""event"",""trial"",""time""
""fullscreenenter"",""5"",""16883""
","
","
","""event"",""trial"",""time""
""fullscreenenter"",""5"",""16883""
","
","","images/earth.jpg","","","","","","","","","","","","","","fixation","","","","","",""
"d3-animate-choice","171","722620","0.0-76.0-0.12","463","751","19","Female","false","false","true","true","""event"",""trial"",""time""
""fullscreenenter"",""5"",""16883""
","
","
","""event"",""trial"",""time""
""fullscreenenter"",""5"",""16883""
","
","274","","48","","","3000","1","","","images/earth.jpg","images/rocket1","images/rocket2","null","images/rocket1","","1","real","null","2","","",""
"d3-animate-choice","172","724979","0.0-76.0-1.12","463","751","19","Female","false","false","true","true","""event"",""trial"",""time""
""fullscreenenter"",""5"",""16883""
","
","
","""event"",""trial"",""time""
""fullscreenenter"",""5"",""16883""
","
","353.4000000357628","","48","","","3000","1","","","images/purpleplanet.jpg","images/alien4","images/alien3","images/rocket1","images/alien4","images/nothing.png","2","real","true","2","common","0","2022-02-15 05:31:29.026"
"two-step-fixation","173","725982","0.0-76.0-2.12","463","751","19","Female","false","false","true","true","""event"",""trial"",""time""
""fullscreenenter"",""5"",""16883""
","
","
","""event"",""trial"",""time""
""fullscreenenter"",""5"",""16883""
","
","","images/earth.jpg","","","","","","","","","","","","","","fixation","","","","","",""
"d3-animate-choice","174","728268","0.0-76.0-0.13","463","751","19","Female","false","false","true","true","""event"",""trial"",""time""
""fullscreenenter"",""5"",""16883""
","
","
","""event"",""trial"",""time""
""fullscreenenter"",""5"",""16883""
","
","279.5999999642372","","48","","","3000","1","","","images/earth.jpg","images/rocket1","images/rocket2","null","images/rocket1","","1","real","null","2","","",""
"d3-animate-choice","175","730810","0.0-76.0-1.13","463","751","19","Female","false","false","true","true","""event"",""trial"",""time""
""fullscreenenter"",""5"",""16883""
","
","
","""event"",""trial"",""time""
""fullscreenenter"",""5"",""16883""
","
","537.3000000119209","","48","","","3000","1","","","images/purpleplanet.jpg","images/alien4","images/alien3","images/rocket1","images/alien4","images/t.png","2","real","true","2","common","1","2022-02-15 05:31:34.857"
"two-step-fixation","176","731814","0.0-76.0-2.13","463","751","19","Female","false","false","true","true","""event"",""trial"",""time""
""fullscreenenter"",""5"",""16883""
","
","
","""event"",""trial"",""time""
""fullscreenenter"",""5"",""16883""
","
","","images/earth.jpg","","","","","","","","","","","","","","fixation","","","","","",""
"d3-animate-choice","177","734225","0.0-76.0-0.14","463","751","19","Female","false","false","true","true","""event"",""trial"",""time""
""fullscreenenter"",""5"",""16883""
","
","
","""event"",""trial"",""time""
""fullscreenenter"",""5"",""16883""
","
","406.69999998807907","","48","","","3000","1","","","images/earth.jpg","images/rocket1","images/rocket2","null","images/rocket1","","1","real","null","2","","",""
"d3-animate-choice","178","736645","0.0-76.0-1.14","463","751","19","Female","false","false","true","true","""event"",""trial"",""time""
""fullscreenenter"",""5"",""16883""
","
","
","""event"",""trial"",""time""
""fullscreenenter"",""5"",""16883""
","
","416.5","","48","","","3000","1","","","images/purpleplanet.jpg","images/alien4","images/alien3","images/rocket1","images/alien4","images/t.png","2","real","true","2","common","1","2022-02-15 05:31:40.692"
"two-step-fixation","179","737649","0.0-76.0-2.14","463","751","19","Female","false","false","true","true","""event"",""trial"",""time""
""fullscreenenter"",""5"",""16883""
","
","
","""event"",""trial"",""time""
""fullscreenenter"",""5"",""16883""
","
","","images/earth.jpg","","","","","","","","","","","","","","fixation","","","","","",""
"d3-animate-choice","180","739942","0.0-76.0-0.15","463","751","19","Female","false","false","true","true","""event"",""trial"",""time""
""fullscreenenter"",""5"",""16883""
","
","
","""event"",""trial"",""time""
""fullscreenenter"",""5"",""16883""
","
","289.2000000476837","","48","","","3000","1","","","images/earth.jpg","images/rocket1","images/rocket2","null","images/rocket1","","1","real","null","2","","",""
"d3-animate-choice","181","742330","0.0-76.0-1.15","463","751","19","Female","false","false","true","true","""event"",""trial"",""time""
""fullscreenenter"",""5"",""16883""
","
","
","""event"",""trial"",""time""
""fullscreenenter"",""5"",""16883""
","
","383.19999998807907","","48","","","3000","1","","","images/purpleplanet.jpg","images/alien4","images/alien3","images/rocket1","images/alien4","images/t.png","2","real","true","2","common","1","2022-02-15 05:31:46.377"
"two-step-fixation","182","743334","0.0-76.0-2.15","463","751","19","Female","false","false","true","true","""event"",""trial"",""time""
""fullscreenenter"",""5"",""16883""
","
","
","""event"",""trial"",""time""
""fullscreenenter"",""5"",""16883""
","
","","images/earth.jpg","","","","","","","","","","","","","","fixation","","","","","",""
"d3-animate-choice","183","745631","0.0-76.0-0.16","463","751","19","Female","false","false","true","true","""event"",""trial"",""time""
""fullscreenenter"",""5"",""16883""
","
","
","""event"",""trial"",""time""
""fullscreenenter"",""5"",""16883""
","
","292.9000000357628","","48","","","3000","1","","","images/earth.jpg","images/rocket1","images/rocket2","null","images/rocket1","","1","real","null","2","","",""
"d3-animate-choice","184","748104","0.0-76.0-1.16","463","751","19","Female","false","false","true","true","""event"",""trial"",""time""
""fullscreenenter"",""5"",""16883""
","
","
","""event"",""trial"",""time""
""fullscreenenter"",""5"",""16883""
","
","464.69999998807907","","48","","","3000","1","","","images/purpleplanet.jpg","images/alien4","images/alien3","images/rocket1","images/alien4","images/t.png","2","real","true","2","common","1","2022-02-15 05:31:52.151"
"two-step-fixation","185","749109","0.0-76.0-2.16","463","751","19","Female","false","false","true","true","""event"",""trial"",""time""
""fullscreenenter"",""5"",""16883""
","
","
","""event"",""trial"",""time""
""fullscreenenter"",""5"",""16883""
","
","","images/earth.jpg","","","","","","","","","","","","","","fixation","","","","","",""
"d3-animate-choice","186","751523","0.0-76.0-0.17","463","751","19","Female","false","false","true","true","""event"",""trial"",""time""
""fullscreenenter"",""5"",""16883""
","
","
","""event"",""trial"",""time""
""fullscreenenter"",""5"",""16883""
","
","406.19999998807907","","48","","","3000","1","","","images/earth.jpg","images/rocket1","images/rocket2","null","images/rocket1","","1","real","null","2","","",""
"d3-animate-choice","187","754297","0.0-76.0-1.17","463","751","19","Female","false","false","true","true","""event"",""trial"",""time""
""fullscreenenter"",""5"",""16883""
","
","
","""event"",""trial"",""time""
""fullscreenenter"",""5"",""16883""
","
","768.6999999880791","","49","","","3000","1","","","images/redplanet1.jpg","images/alien2","images/alien1","images/rocket1","images/alien1","images/nothing.png","2","real","false","1","rare","0","2022-02-15 05:31:58.344"
"two-step-fixation","188","755303","0.0-76.0-2.17","463","751","19","Female","false","false","true","true","""event"",""trial"",""time""
""fullscreenenter"",""5"",""16883""
","
","
","""event"",""trial"",""time""
""fullscreenenter"",""5"",""16883""
","
","","images/earth.jpg","","","","","","","","","","","","","","fixation","","","","","",""
"d3-animate-choice","189","757593","0.0-76.0-0.18","463","751","19","Female","false","false","true","true","""event"",""trial"",""time""
""fullscreenenter"",""5"",""16883""
","
","
","""event"",""trial"",""time""
""fullscreenenter"",""5"",""16883""
","
","284.5999999642372","","48","","","3000","1","","","images/earth.jpg","images/rocket1","images/rocket2","null","images/rocket1","","1","real","null","2","","",""
"d3-animate-choice","190","759975","0.0-76.0-1.18","463","751","19","Female","false","false","true","true","""event"",""trial"",""time""
""fullscreenenter"",""5"",""16883""
","
","
","""event"",""trial"",""time""
""fullscreenenter"",""5"",""16883""
","
","376.7999999523163","","48","","","3000","1","","","images/purpleplanet.jpg","images/alien4","images/alien3","images/rocket1","images/alien4","images/t.png","2","real","true","2","common","1","2022-02-15 05:32:04.022"
"two-step-fixation","191","760979","0.0-76.0-2.18","463","751","19","Female","false","false","true","true","""event"",""trial"",""time""
""fullscreenenter"",""5"",""16883""
","
","
","""event"",""trial"",""time""
""fullscreenenter"",""5"",""16883""
","
","","images/earth.jpg","","","","","","","","","","","","","","fixation","","","","","",""
"d3-animate-choice","192","763276","0.0-76.0-0.19","463","751","19","Female","false","false","true","true","""event"",""trial"",""time""
""fullscreenenter"",""5"",""16883""
","
","
","""event"",""trial"",""time""
""fullscreenenter"",""5"",""16883""
","
","290.5","","48","","","3000","1","","","images/earth.jpg","images/rocket1","images/rocket2","null","images/rocket1","","1","real","null","2","","",""
"d3-animate-choice","193","765633","0.0-76.0-1.19","463","751","19","Female","false","false","true","true","""event"",""trial"",""time""
""fullscreenenter"",""5"",""16883""
","
","
","""event"",""trial"",""time""
""fullscreenenter"",""5"",""16883""
","
","350.7999999523163","","48","","","3000","1","","","images/purpleplanet.jpg","images/alien4","images/alien3","images/rocket1","images/alien4","images/t.png","2","real","true","2","common","1","2022-02-15 05:32:09.680"
"two-step-fixation","194","766640","0.0-76.0-2.19","463","751","19","Female","false","false","true","true","""event"",""trial"",""time""
""fullscreenenter"",""5"",""16883""
","
","
","""event"",""trial"",""time""
""fullscreenenter"",""5"",""16883""
","
","","images/earth.jpg","","","","","","","","","","","","","","fixation","","","","","",""
"d3-animate-choice","195","769018","0.0-76.0-0.20","463","751","19","Female","false","false","true","true","""event"",""trial"",""time""
""fullscreenenter"",""5"",""16883""
","
","
","""event"",""trial"",""time""
""fullscreenenter"",""5"",""16883""
","
","372.5","","48","","","3000","1","","","images/earth.jpg","images/rocket1","images/rocket2","null","images/rocket1","","1","real","null","2","","",""
"d3-animate-choice","196","771467","0.0-76.0-1.20","463","751","19","Female","false","false","true","true","""event"",""trial"",""time""
""fullscreenenter"",""5"",""16883""
","
","
","""event"",""trial"",""time""
""fullscreenenter"",""5"",""16883""
","
","443.19999998807907","","48","","","3000","1","","","images/purpleplanet.jpg","images/alien4","images/alien3","images/rocket1","images/alien4","images/t.png","2","real","true","2","common","1","2022-02-15 05:32:15.514"
"two-step-fixation","197","772473","0.0-76.0-2.20","463","751","19","Female","false","false","true","true","""event"",""trial"",""time""
""fullscreenenter"",""5"",""16883""
","
","
","""event"",""trial"",""time""
""fullscreenenter"",""5"",""16883""
","
","","images/earth.jpg","","","","","","","","","","","","","","fixation","","","","","",""
"d3-animate-choice","198","774968","0.0-76.0-0.21","463","751","19","Female","false","false","true","true","""event"",""trial"",""time""
""fullscreenenter"",""5"",""16883""
","
","
","""event"",""trial"",""time""
""fullscreenenter"",""5"",""16883""
","
","490.10000002384186","","48","","","3000","1","","","images/earth.jpg","images/rocket1","images/rocket2","null","images/rocket1","","1","real","null","2","","",""
"d3-animate-choice","199","777327","0.0-76.0-1.21","463","751","19","Female","false","false","true","true","""event"",""trial"",""time""
""fullscreenenter"",""5"",""16883""
","
","
","""event"",""trial"",""time""
""fullscreenenter"",""5"",""16883""
","
","355.2999999523163","","48","","","3000","1","","","images/purpleplanet.jpg","images/alien4","images/alien3","images/rocket1","images/alien4","images/nothing.png","2","real","true","2","common","0","2022-02-15 05:32:21.374"
"two-step-fixation","200","778332","0.0-76.0-2.21","463","751","19","Female","false","false","true","true","""event"",""trial"",""time""
""fullscreenenter"",""5"",""16883""
","
","
","""event"",""trial"",""time""
""fullscreenenter"",""5"",""16883""
","
","","images/earth.jpg","","","","","","","","","","","","","","fixation","","","","","",""
"d3-animate-choice","201","780636","0.0-76.0-0.22","463","751","19","Female","false","false","true","true","""event"",""trial"",""time""
""fullscreenenter"",""5"",""16883""
","
","
","""event"",""trial"",""time""
""fullscreenenter"",""5"",""16883""
","
","297.39999997615814","","48","","","3000","1","","","images/earth.jpg","images/rocket1","images/rocket2","null","images/rocket1","","1","real","null","2","","",""
"d3-animate-choice","202","783219","0.0-76.0-1.22","463","751","19","Female","false","false","true","true","""event"",""trial"",""time""
""fullscreenenter"",""5"",""16883""
","
","
","""event"",""trial"",""time""
""fullscreenenter"",""5"",""16883""
","
","577.8999999761581","","49","","","3000","1","","","images/redplanet1.jpg","images/alien2","images/alien1","images/rocket1","images/alien1","images/nothing.png","2","real","false","1","rare","0","2022-02-15 05:32:27.266"
"two-step-fixation","203","784223","0.0-76.0-2.22","463","751","19","Female","false","false","true","true","""event"",""trial"",""time""
""fullscreenenter"",""5"",""16883""
","
","
","""event"",""trial"",""time""
""fullscreenenter"",""5"",""16883""
","
","","images/earth.jpg","","","","","","","","","","","","","","fixation","","","","","",""
"d3-animate-choice","204","786592","0.0-76.0-0.23","463","751","19","Female","false","false","true","true","""event"",""trial"",""time""
""fullscreenenter"",""5"",""16883""
","
","
","""event"",""trial"",""time""
""fullscreenenter"",""5"",""16883""
","
","363.9000000357628","","48","","","3000","1","","","images/earth.jpg","images/rocket1","images/rocket2","null","images/rocket1","","1","real","null","2","","",""
"d3-animate-choice","205","789652","0.0-76.0-1.23","463","751","19","Female","false","false","true","true","""event"",""trial"",""time""
""fullscreenenter"",""5"",""16883""
","
","
","""event"",""trial"",""time""
""fullscreenenter"",""5"",""16883""
","
","1053.3999999761581","","49","","","3000","1","","","images/redplanet1.jpg","images/alien2","images/alien1","images/rocket1","images/alien1","images/t.png","2","real","false","1","rare","1","2022-02-15 05:32:33.699"
"two-step-fixation","206","790655","0.0-76.0-2.23","463","751","19","Female","false","false","true","true","""event"",""trial"",""time""
""fullscreenenter"",""5"",""16883""
","
","
","""event"",""trial"",""time""
""fullscreenenter"",""5"",""16883""
","
","","images/earth.jpg","","","","","","","","","","","","","","fixation","","","","","",""
"d3-animate-choice","207","792967","0.0-76.0-0.24","463","751","19","Female","false","false","true","true","""event"",""trial"",""time""
""fullscreenenter"",""5"",""16883""
","
","
","""event"",""trial"",""time""
""fullscreenenter"",""5"",""16883""
","
","307.5999999642372","","48","","","3000","1","","","images/earth.jpg","images/rocket1","images/rocket2","null","images/rocket1","","1","real","null","2","","",""
"d3-animate-choice","208","795361","0.0-76.0-1.24","463","751","19","Female","false","false","true","true","""event"",""trial"",""time""
""fullscreenenter"",""5"",""16883""
","
","
","""event"",""trial"",""time""
""fullscreenenter"",""5"",""16883""
","
","387.69999998807907","","48","","","3000","1","","","images/purpleplanet.jpg","images/alien4","images/alien3","images/rocket1","images/alien4","images/t.png","2","real","true","2","common","1","2022-02-15 05:32:39.408"
"two-step-fixation","209","796367","0.0-76.0-2.24","463","751","19","Female","false","false","true","true","""event"",""trial"",""time""
""fullscreenenter"",""5"",""16883""
","
","
","""event"",""trial"",""time""
""fullscreenenter"",""5"",""16883""
","
","","images/earth.jpg","","","","","","","","","","","","","","fixation","","","","","",""
"d3-animate-choice","210","798694","0.0-76.0-0.25","463","751","19","Female","false","false","true","true","""event"",""trial"",""time""
""fullscreenenter"",""5"",""16883""
","
","
","""event"",""trial"",""time""
""fullscreenenter"",""5"",""16883""
","
","319.39999997615814","","48","","","3000","1","","","images/earth.jpg","images/rocket1","images/rocket2","null","images/rocket1","","1","real","null","2","","",""
"d3-animate-choice","211","801111","0.0-76.0-1.25","463","751","19","Female","false","false","true","true","""event"",""trial"",""time""
""fullscreenenter"",""5"",""16883""
","
","
","""event"",""trial"",""time""
""fullscreenenter"",""5"",""16883""
","
","413.19999998807907","","48","","","3000","1","","","images/purpleplanet.jpg","images/alien4","images/alien3","images/rocket1","images/alien4","images/t.png","2","real","true","2","common","1","2022-02-15 05:32:45.158"
"two-step-fixation","212","802115","0.0-76.0-2.25","463","751","19","Female","false","false","true","true","""event"",""trial"",""time""
""fullscreenenter"",""5"",""16883""
","
","
","""event"",""trial"",""time""
""fullscreenenter"",""5"",""16883""
","
","","images/earth.jpg","","","","","","","","","","","","","","fixation","","","","","",""
"d3-animate-choice","213","804408","0.0-76.0-0.26","463","751","19","Female","false","false","true","true","""event"",""trial"",""time""
""fullscreenenter"",""5"",""16883""
","
","
","""event"",""trial"",""time""
""fullscreenenter"",""5"",""16883""
","
","288.30000001192093","","48","","","3000","1","","","images/earth.jpg","images/rocket1","images/rocket2","null","images/rocket1","","1","real","null","2","","",""
"d3-animate-choice","214","806789","0.0-76.0-1.26","463","751","19","Female","false","false","true","true","""event"",""trial"",""time""
""fullscreenenter"",""5"",""16883""
","
","
","""event"",""trial"",""time""
""fullscreenenter"",""5"",""16883""
","
","372.19999998807907","","48","","","3000","1","","","images/purpleplanet.jpg","images/alien4","images/alien3","images/rocket1","images/alien4","images/t.png","2","real","true","2","common","1","2022-02-15 05:32:50.836"
"two-step-fixation","215","807793","0.0-76.0-2.26","463","751","19","Female","false","false","true","true","""event"",""trial"",""time""
""fullscreenenter"",""5"",""16883""
","
","
","""event"",""trial"",""time""
""fullscreenenter"",""5"",""16883""
","
","","images/earth.jpg","","","","","","","","","","","","","","fixation","","","","","",""
"d3-animate-choice","216","810098","0.0-76.0-0.27","463","751","19","Female","false","false","true","true","""event"",""trial"",""time""
""fullscreenenter"",""5"",""16883""
","
","
","""event"",""trial"",""time""
""fullscreenenter"",""5"",""16883""
","
","300.19999998807907","","48","","","3000","1","","","images/earth.jpg","images/rocket1","images/rocket2","null","images/rocket1","","1","real","null","2","","",""
"d3-animate-choice","217","812925","0.0-76.0-1.27","463","751","19","Female","false","false","true","true","""event"",""trial"",""time""
""fullscreenenter"",""5"",""16883""
","
","
","""event"",""trial"",""time""
""fullscreenenter"",""5"",""16883""
","
","821","","49","","","3000","1","","","images/redplanet1.jpg","images/alien2","images/alien1","images/rocket1","images/alien1","images/nothing.png","2","real","false","1","rare","0","2022-02-15 05:32:56.972"
"two-step-fixation","218","813929","0.0-76.0-2.27","463","751","19","Female","false","false","true","true","""event"",""trial"",""time""
""fullscreenenter"",""5"",""16883""
","
","
","""event"",""trial"",""time""
""fullscreenenter"",""5"",""16883""
","
","","images/earth.jpg","","","","","","","","","","","","","","fixation","","","","","",""
"d3-animate-choice","219","816276","0.0-76.0-0.28","463","751","19","Female","false","false","true","true","""event"",""trial"",""time""
""fullscreenenter"",""5"",""16883""
","
","
","""event"",""trial"",""time""
""fullscreenenter"",""5"",""16883""
","
","342.5","","48","","","3000","1","","","images/earth.jpg","images/rocket1","images/rocket2","null","images/rocket1","","1","real","null","2","","",""
"d3-animate-choice","220","818654","0.0-76.0-1.28","463","751","19","Female","false","false","true","true","""event"",""trial"",""time""
""fullscreenenter"",""5"",""16883""
","
","
","""event"",""trial"",""time""
""fullscreenenter"",""5"",""16883""
","
","373.69999998807907","","48","","","3000","1","","","images/purpleplanet.jpg","images/alien4","images/alien3","images/rocket1","images/alien4","images/t.png","2","real","true","2","common","1","2022-02-15 05:33:02.701"
"two-step-fixation","221","819659","0.0-76.0-2.28","463","751","19","Female","false","false","true","true","""event"",""trial"",""time""
""fullscreenenter"",""5"",""16883""
","
","
","""event"",""trial"",""time""
""fullscreenenter"",""5"",""16883""
","
","","images/earth.jpg","","","","","","","","","","","","","","fixation","","","","","",""
"d3-animate-choice","222","821925","0.0-76.0-0.29","463","751","19","Female","false","false","true","true","""event"",""trial"",""time""
""fullscreenenter"",""5"",""16883""
","
","
","""event"",""trial"",""time""
""fullscreenenter"",""5"",""16883""
","
","261.60000002384186","","48","","","3000","1","","","images/earth.jpg","images/rocket1","images/rocket2","null","images/rocket1","","1","real","null","2","","",""
"d3-animate-choice","223","824285","0.0-76.0-1.29","463","751","19","Female","false","false","true","true","""event"",""trial"",""time""
""fullscreenenter"",""5"",""16883""
","
","
","""event"",""trial"",""time""
""fullscreenenter"",""5"",""16883""
","
","355.60000002384186","","48","","","3000","1","","","images/purpleplanet.jpg","images/alien4","images/alien3","images/rocket1","images/alien4","images/t.png","2","real","true","2","common","1","2022-02-15 05:33:08.332"
"two-step-fixation","224","825290","0.0-76.0-2.29","463","751","19","Female","false","false","true","true","""event"",""trial"",""time""
""fullscreenenter"",""5"",""16883""
","
","
","""event"",""trial"",""time""
""fullscreenenter"",""5"",""16883""
","
","","images/earth.jpg","","","","","","","","","","","","","","fixation","","","","","",""
"d3-animate-choice","225","827583","0.0-76.0-0.30","463","751","19","Female","false","false","true","true","""event"",""trial"",""time""
""fullscreenenter"",""5"",""16883""
","
","
","""event"",""trial"",""time""
""fullscreenenter"",""5"",""16883""
","
","288.7999999523163","","48","","","3000","1","","","images/earth.jpg","images/rocket1","images/rocket2","null","images/rocket1","","1","real","null","2","","",""
"d3-animate-choice","226","829968","0.0-76.0-1.30","463","751","19","Female","false","false","true","true","""event"",""trial"",""time""
""fullscreenenter"",""5"",""16883""
","
","
","""event"",""trial"",""time""
""fullscreenenter"",""5"",""16883""
","
","380.60000002384186","","48","","","3000","1","","","images/purpleplanet.jpg","images/alien4","images/alien3","images/rocket1","images/alien4","images/t.png","2","real","true","2","common","1","2022-02-15 05:33:14.015"
"two-step-fixation","227","830971","0.0-76.0-2.30","463","751","19","Female","false","false","true","true","""event"",""trial"",""time""
""fullscreenenter"",""5"",""16883""
","
","
","""event"",""trial"",""time""
""fullscreenenter"",""5"",""16883""
","
","","images/earth.jpg","","","","","","","","","","","","","","fixation","","","","","",""
"d3-animate-choice","228","833303","0.0-76.0-0.31","463","751","19","Female","false","false","true","true","""event"",""trial"",""time""
""fullscreenenter"",""5"",""16883""
","
","
","""event"",""trial"",""time""
""fullscreenenter"",""5"",""16883""
","
","326.5999999642372","","48","","","3000","1","","","images/earth.jpg","images/rocket1","images/rocket2","null","images/rocket1","","1","real","null","2","","",""
"d3-animate-choice","229","836218","0.0-76.0-1.31","463","751","19","Female","false","false","true","true","""event"",""trial"",""time""
""fullscreenenter"",""5"",""16883""
","
","
","""event"",""trial"",""time""
""fullscreenenter"",""5"",""16883""
","
","911.3999999761581","","49","","","3000","1","","","images/redplanet1.jpg","images/alien2","images/alien1","images/rocket1","images/alien1","images/nothing.png","2","real","false","1","rare","0","2022-02-15 05:33:20.265"
"two-step-fixation","230","837224","0.0-76.0-2.31","463","751","19","Female","false","false","true","true","""event"",""trial"",""time""
""fullscreenenter"",""5"",""16883""
","
","
","""event"",""trial"",""time""
""fullscreenenter"",""5"",""16883""
","
","","images/earth.jpg","","","","","","","","","","","","","","fixation","","","","","",""
"d3-animate-choice","231","839524","0.0-76.0-0.32","463","751","19","Female","false","false","true","true","""event"",""trial"",""time""
""fullscreenenter"",""5"",""16883""
","
","
","""event"",""trial"",""time""
""fullscreenenter"",""5"",""16883""
","
","293.2999999523163","","48","","","3000","1","","","images/earth.jpg","images/rocket1","images/rocket2","null","images/rocket1","","1","real","null","2","","",""
"d3-animate-choice","232","841892","0.0-76.0-1.32","463","751","19","Female","false","false","true","true","""event"",""trial"",""time""
""fullscreenenter"",""5"",""16883""
","
","
","""event"",""trial"",""time""
""fullscreenenter"",""5"",""16883""
","
","362.5","","48","","","3000","1","","","images/purpleplanet.jpg","images/alien4","images/alien3","images/rocket1","images/alien4","images/t.png","2","real","true","2","common","1","2022-02-15 05:33:25.939"
"two-step-fixation","233","842896","0.0-76.0-2.32","463","751","19","Female","false","false","true","true","""event"",""trial"",""time""
""fullscreenenter"",""5"",""16883""
","
","
","""event"",""trial"",""time""
""fullscreenenter"",""5"",""16883""
","
","","images/earth.jpg","","","","","","","","","","","","","","fixation","","","","","",""
"d3-animate-choice","234","845317","0.0-76.0-0.33","463","751","19","Female","false","false","true","true","""event"",""trial"",""time""
""fullscreenenter"",""5"",""16883""
","
","
","""event"",""trial"",""time""
""fullscreenenter"",""5"",""16883""
","
","417.89999997615814","","48","","","3000","1","","","images/earth.jpg","images/rocket1","images/rocket2","null","images/rocket1","","1","real","null","2","","",""
"d3-animate-choice","235","847928","0.0-76.0-1.33","463","751","19","Female","false","false","true","true","""event"",""trial"",""time""
""fullscreenenter"",""5"",""16883""
","
","
","""event"",""trial"",""time""
""fullscreenenter"",""5"",""16883""
","
","606.5999999642372","","48","","","3000","1","","","images/purpleplanet.jpg","images/alien4","images/alien3","images/rocket1","images/alien4","images/t.png","2","real","true","2","common","1","2022-02-15 05:33:31.975"
"two-step-fixation","236","848930","0.0-76.0-2.33","463","751","19","Female","false","false","true","true","""event"",""trial"",""time""
""fullscreenenter"",""5"",""16883""
","
","
","""event"",""trial"",""time""
""fullscreenenter"",""5"",""16883""
","
","","images/earth.jpg","","","","","","","","","","","","","","fixation","","","","","",""
"d3-animate-choice","237","851366","0.0-76.0-0.34","463","751","19","Female","false","false","true","true","""event"",""trial"",""time""
""fullscreenenter"",""5"",""16883""
","
","
","""event"",""trial"",""time""
""fullscreenenter"",""5"",""16883""
","
","431.60000002384186","","48","","","3000","1","","","images/earth.jpg","images/rocket1","images/rocket2","null","images/rocket1","","1","real","null","2","","",""
"d3-animate-choice","238","853741","0.0-76.0-1.34","463","751","19","Female","false","false","true","true","""event"",""trial"",""time""
""fullscreenenter"",""5"",""16883""
","
","
","""event"",""trial"",""time""
""fullscreenenter"",""5"",""16883""
","
","369.7999999523163","","48","","","3000","1","","","images/purpleplanet.jpg","images/alien4","images/alien3","images/rocket1","images/alien4","images/t.png","2","real","true","2","common","1","2022-02-15 05:33:37.788"
"two-step-fixation","239","854745","0.0-76.0-2.34","463","751","19","Female","false","false","true","true","""event"",""trial"",""time""
""fullscreenenter"",""5"",""16883""
","
","
","""event"",""trial"",""time""
""fullscreenenter"",""5"",""16883""
","
","","images/earth.jpg","","","","","","","","","","","","","","fixation","","","","","",""
"d3-animate-choice","240","857073","0.0-76.0-0.35","463","751","19","Female","false","false","true","true","""event"",""trial"",""time""
""fullscreenenter"",""5"",""16883""
","
","
","""event"",""trial"",""time""
""fullscreenenter"",""5"",""16883""
","
","323.19999998807907","","48","","","3000","1","","","images/earth.jpg","images/rocket1","images/rocket2","null","images/rocket1","","1","real","null","2","","",""
"d3-animate-choice","241","859467","0.0-76.0-1.35","463","751","19","Female","false","false","true","true","""event"",""trial"",""time""
""fullscreenenter"",""5"",""16883""
","
","
","""event"",""trial"",""time""
""fullscreenenter"",""5"",""16883""
","
","388.30000001192093","","48","","","3000","1","","","images/purpleplanet.jpg","images/alien4","images/alien3","images/rocket1","images/alien4","images/t.png","2","real","true","2","common","1","2022-02-15 05:33:43.514"
"two-step-fixation","242","860473","0.0-76.0-2.35","463","751","19","Female","false","false","true","true","""event"",""trial"",""time""
""fullscreenenter"",""5"",""16883""
","
","
","""event"",""trial"",""time""
""fullscreenenter"",""5"",""16883""
","
","","images/earth.jpg","","","","","","","","","","","","","","fixation","","","","","",""
"d3-animate-choice","243","862803","0.0-76.0-0.36","463","751","19","Female","false","false","true","true","""event"",""trial"",""time""
""fullscreenenter"",""5"",""16883""
","
","
","""event"",""trial"",""time""
""fullscreenenter"",""5"",""16883""
","
","325.60000002384186","","48","","","3000","1","","","images/earth.jpg","images/rocket1","images/rocket2","null","images/rocket1","","1","real","null","2","","",""
"d3-animate-choice","244","865536","0.0-76.0-1.36","463","751","19","Female","false","false","true","true","""event"",""trial"",""time""
""fullscreenenter"",""5"",""16883""
","
","
","""event"",""trial"",""time""
""fullscreenenter"",""5"",""16883""
","
","729.8999999761581","","48","","","3000","1","","","images/redplanet1.jpg","images/alien2","images/alien1","images/rocket1","images/alien2","images/t.png","2","real","false","2","rare","1","2022-02-15 05:33:49.584"
"two-step-fixation","245","866541","0.0-76.0-2.36","463","751","19","Female","false","false","true","true","""event"",""trial"",""time""
""fullscreenenter"",""5"",""16883""
","
","
","""event"",""trial"",""time""
""fullscreenenter"",""5"",""16883""
","
","","images/earth.jpg","","","","","","","","","","","","","","fixation","","","","","",""
"d3-animate-choice","246","868866","0.0-76.0-0.37","463","751","19","Female","false","false","true","true","""event"",""trial"",""time""
""fullscreenenter"",""5"",""16883""
","
","
","""event"",""trial"",""time""
""fullscreenenter"",""5"",""16883""
","
