"trial_type","trial_index","time_elapsed","internal_node_id","participant_id","subject_id","age","gender","rocket_sides","red_planet_first_rocket","red_display_order","purple_display_order","interactions","blur_events","focus_events","fullscreenenter_events","fullscreenexit_events","rt","stimulus","key_press","button_pressed","success","duration","valid_pressed","rts","keys","planet_text","right_text","left_text","center_text","chosen_text","reward_text","trial_stage","practice_trial","transition_type","choice","transition","reward","timestamp"
"pavlovia","0","15","0.0-0.0","1457","2008","14","Female","true","false","false","true","""event"",""trial"",""time""
""focus"",""0"",""0""
","
","""event"",""trial"",""time""
""focus"",""0"",""0""
","
","
","","","","","","","","","","","","","","","","","","","","","",""
"html-keyboard-response","1","1470","0.0-1.0","1457","2008","14","Female","true","false","false","true","""event"",""trial"",""time""
""focus"",""0"",""0""
","
","""event"",""trial"",""time""
""focus"",""0"",""0""
","
","
","1449.699999999255","Welcome! Press the space bar to begin.","32","","","","","","","","","","","","","","","","","","",""
"audio-keyboard-response","2","4734","0.0-2.0","1457","2008","14","Female","true","false","false","true","""event"",""trial"",""time""
""focus"",""0"",""0""
","
","""event"",""trial"",""time""
""focus"",""0"",""0""
","
","
","3232","audio/beep_loop.wav","32","","","","","","","","","","","","","","","","","","",""
"audio-button-response","3","7731","0.0-3.0","1457","2008","14","Female","true","false","false","true","""event"",""trial"",""time""
""focus"",""0"",""0""
","
","""event"",""trial"",""time""
""focus"",""0"",""0""
","
","
","NaN","audio/fish.mp3","","1","","","","","","","","","","","","","","","","","",""
"audio-button-response","4","10639","0.0-4.0","1457","2008","14","Female","true","false","false","true","""event"",""trial"",""time""
""focus"",""0"",""0""
""fullscreenenter"",""5"",""13578""
","
","""event"",""trial"",""time""
""focus"",""0"",""0""
","""event"",""trial"",""time""
""fullscreenenter"",""5"",""13578""
","
","NaN","audio/tiger.mp3","","4","","","","","","","","","","","","","","","","","",""
"fullscreen","5","14567","0.0-5.0","1457","2008","14","Female","true","false","false","true","""event"",""trial"",""time""
""focus"",""0"",""0""
""fullscreenenter"",""5"",""13578""
""fullscreenexit"",""6"",""21875""
""blur"",""6"",""23211""
""focus"",""6"",""25700""
","""event"",""trial"",""time""
""blur"",""6"",""23211""
","""event"",""trial"",""time""
""focus"",""0"",""0""
""focus"",""6"",""25700""
","""event"",""trial"",""time""
""fullscreenenter"",""5"",""13578""
","""event"",""trial"",""time""
""fullscreenexit"",""6"",""21875""
","","","","","true","","","","","","","","","","","","","","","","",""
"d3-instructions","6","27349","0.0-6.0","1457","2008","14","Female","true","false","false","true","""event"",""trial"",""time""
""focus"",""0"",""0""
""fullscreenenter"",""5"",""13578""
""fullscreenexit"",""6"",""21875""
""blur"",""6"",""23211""
""focus"",""6"",""25700""
""blur"",""7"",""31822""
""focus"",""7"",""35837""
","""event"",""trial"",""time""
""blur"",""6"",""23211""
""blur"",""7"",""31822""
","""event"",""trial"",""time""
""focus"",""0"",""0""
""focus"",""6"",""25700""
""focus"",""7"",""35837""
","""event"",""trial"",""time""
""fullscreenenter"",""5"",""13578""
","""event"",""trial"",""time""
""fullscreenexit"",""6"",""21875""
","","","","","","","","","","","","","","","","","","","","","",""
"d3-instructions","7","53105","0.0-7.0","1457","2008","14","Female","true","false","false","true","""event"",""trial"",""time""
""focus"",""0"",""0""
""fullscreenenter"",""5"",""13578""
""fullscreenexit"",""6"",""21875""
""blur"",""6"",""23211""
""focus"",""6"",""25700""
""blur"",""7"",""31822""
""focus"",""7"",""35837""
""blur"",""8"",""68478""
""focus"",""8"",""71212""
","""event"",""trial"",""time""
""blur"",""6"",""23211""
""blur"",""7"",""31822""
""blur"",""8"",""68478""
","""event"",""trial"",""time""
""focus"",""0"",""0""
""focus"",""6"",""25700""
""focus"",""7"",""35837""
""focus"",""8"",""71212""
","""event"",""trial"",""time""
""fullscreenenter"",""5"",""13578""
","""event"",""trial"",""time""
""fullscreenexit"",""6"",""21875""
","","","","","","","","","","","","","","","","","","","","","",""
"d3-instructions","8","75620","0.0-8.0","1457","2008","14","Female","true","false","false","true","""event"",""trial"",""time""
""focus"",""0"",""0""
""fullscreenenter"",""5"",""13578""
""fullscreenexit"",""6"",""21875""
""blur"",""6"",""23211""
""focus"",""6"",""25700""
""blur"",""7"",""31822""
""focus"",""7"",""35837""
""blur"",""8"",""68478""
""focus"",""8"",""71212""
","""event"",""trial"",""time""
""blur"",""6"",""23211""
""blur"",""7"",""31822""
""blur"",""8"",""68478""
","""event"",""trial"",""time""
""focus"",""0"",""0""
""focus"",""6"",""25700""
""focus"",""7"",""35837""
""focus"",""8"",""71212""
","""event"",""trial"",""time""
""fullscreenenter"",""5"",""13578""
","""event"",""trial"",""time""
""fullscreenexit"",""6"",""21875""
","","","","","","","","","","","","","","","","","","","","","",""
"d3-instructions","9","88045","0.0-9.0","1457","2008","14","Female","true","false","false","true","""event"",""trial"",""time""
""focus"",""0"",""0""
""fullscreenenter"",""5"",""13578""
""fullscreenexit"",""6"",""21875""
""blur"",""6"",""23211""
""focus"",""6"",""25700""
""blur"",""7"",""31822""
""focus"",""7"",""35837""
""blur"",""8"",""68478""
""focus"",""8"",""71212""
","""event"",""trial"",""time""
""blur"",""6"",""23211""
""blur"",""7"",""31822""
""blur"",""8"",""68478""
","""event"",""trial"",""time""
""focus"",""0"",""0""
""focus"",""6"",""25700""
""focus"",""7"",""35837""
""focus"",""8"",""71212""
","""event"",""trial"",""time""
""fullscreenenter"",""5"",""13578""
","""event"",""trial"",""time""
""fullscreenexit"",""6"",""21875""
","","","","","","","","","","","","","","","","","","","","","",""
"d3-instructions","10","101254","0.0-10.0","1457","2008","14","Female","true","false","false","true","""event"",""trial"",""time""
""focus"",""0"",""0""
""fullscreenenter"",""5"",""13578""
""fullscreenexit"",""6"",""21875""
""blur"",""6"",""23211""
""focus"",""6"",""25700""
""blur"",""7"",""31822""
""focus"",""7"",""35837""
""blur"",""8"",""68478""
""focus"",""8"",""71212""
","""event"",""trial"",""time""
""blur"",""6"",""23211""
""blur"",""7"",""31822""
""blur"",""8"",""68478""
","""event"",""trial"",""time""
""focus"",""0"",""0""
""focus"",""6"",""25700""
""focus"",""7"",""35837""
""focus"",""8"",""71212""
","""event"",""trial"",""time""
""fullscreenenter"",""5"",""13578""
","""event"",""trial"",""time""
""fullscreenexit"",""6"",""21875""
","","","","","","","","","","","","","","","","","","","","","",""
"d3-animate-choice","11","106924","0.0-11.0","1457","2008","14","Female","true","false","false","true","""event"",""trial"",""time""
""focus"",""0"",""0""
""fullscreenenter"",""5"",""13578""
""fullscreenexit"",""6"",""21875""
""blur"",""6"",""23211""
""focus"",""6"",""25700""
""blur"",""7"",""31822""
""focus"",""7"",""35837""
""blur"",""8"",""68478""
""focus"",""8"",""71212""
","""event"",""trial"",""time""
""blur"",""6"",""23211""
""blur"",""7"",""31822""
""blur"",""8"",""68478""
","""event"",""trial"",""time""
""focus"",""0"",""0""
""focus"",""6"",""25700""
""focus"",""7"",""35837""
""focus"",""8"",""71212""
","""event"",""trial"",""time""
""fullscreenenter"",""5"",""13578""
","""event"",""trial"",""time""
""fullscreenexit"",""6"",""21875""
","3640.2000000001863","","49","","","3000","1","","","images/tutgreenplanet.jpg","images/tutalien1","images/tutalien2","null","images/tutalien2","","NA","practice","null","","","",""
"d3-animate-choice","12","110777","0.0-12.0","1457","2008","14","Female","true","false","false","true","""event"",""trial"",""time""
""focus"",""0"",""0""
""fullscreenenter"",""5"",""13578""
""fullscreenexit"",""6"",""21875""
""blur"",""6"",""23211""
""focus"",""6"",""25700""
""blur"",""7"",""31822""
""focus"",""7"",""35837""
""blur"",""8"",""68478""
""focus"",""8"",""71212""
","""event"",""trial"",""time""
""blur"",""6"",""23211""
""blur"",""7"",""31822""
""blur"",""8"",""68478""
","""event"",""trial"",""time""
""focus"",""0"",""0""
""focus"",""6"",""25700""
""focus"",""7"",""35837""
""focus"",""8"",""71212""
","""event"",""trial"",""time""
""fullscreenenter"",""5"",""13578""
","""event"",""trial"",""time""
""fullscreenexit"",""6"",""21875""
","1835.0999999996275","","48","","","3000","1","","","images/tutgreenplanet.jpg","images/tutalien1","images/tutalien2","null","images/tutalien1","","NA","practice","null","","","",""
"d3-animate-choice","13","113623","0.0-13.0","1457","2008","14","Female","true","false","false","true","""event"",""trial"",""time""
""focus"",""0"",""0""
""fullscreenenter"",""5"",""13578""
""fullscreenexit"",""6"",""21875""
""blur"",""6"",""23211""
""focus"",""6"",""25700""
""blur"",""7"",""31822""
""focus"",""7"",""35837""
""blur"",""8"",""68478""
""focus"",""8"",""71212""
","""event"",""trial"",""time""
""blur"",""6"",""23211""
""blur"",""7"",""31822""
""blur"",""8"",""68478""
","""event"",""trial"",""time""
""focus"",""0"",""0""
""focus"",""6"",""25700""
""focus"",""7"",""35837""
""focus"",""8"",""71212""
","""event"",""trial"",""time""
""fullscreenenter"",""5"",""13578""
","""event"",""trial"",""time""
""fullscreenexit"",""6"",""21875""
","830.5","","49","","","3000","1","","","images/tutgreenplanet.jpg","images/tutalien1","images/tutalien2","null","images/tutalien2","","NA","practice","null","","","",""
"d3-animate-choice","14","116109","0.0-14.0","1457","2008","14","Female","true","false","false","true","""event"",""trial"",""time""
""focus"",""0"",""0""
""fullscreenenter"",""5"",""13578""
""fullscreenexit"",""6"",""21875""
""blur"",""6"",""23211""
""focus"",""6"",""25700""
""blur"",""7"",""31822""
""focus"",""7"",""35837""
""blur"",""8"",""68478""
""focus"",""8"",""71212""
","""event"",""trial"",""time""
""blur"",""6"",""23211""
""blur"",""7"",""31822""
""blur"",""8"",""68478""
","""event"",""trial"",""time""
""focus"",""0"",""0""
""focus"",""6"",""25700""
""focus"",""7"",""35837""
""focus"",""8"",""71212""
","""event"",""trial"",""time""
""fullscreenenter"",""5"",""13578""
","""event"",""trial"",""time""
""fullscreenexit"",""6"",""21875""
","469.20000000018626","","48","","","3000","1","","","images/tutgreenplanet.jpg","images/tutalien1","images/tutalien2","null","images/tutalien1","","NA","practice","null","","","",""
"d3-instructions","15","119144","0.0-15.0","1457","2008","14","Female","true","false","false","true","""event"",""trial"",""time""
""focus"",""0"",""0""
""fullscreenenter"",""5"",""13578""
""fullscreenexit"",""6"",""21875""
""blur"",""6"",""23211""
""focus"",""6"",""25700""
""blur"",""7"",""31822""
""focus"",""7"",""35837""
""blur"",""8"",""68478""
""focus"",""8"",""71212""
","""event"",""trial"",""time""
""blur"",""6"",""23211""
""blur"",""7"",""31822""
""blur"",""8"",""68478""
","""event"",""trial"",""time""
""focus"",""0"",""0""
""focus"",""6"",""25700""
""focus"",""7"",""35837""
""focus"",""8"",""71212""
","""event"",""trial"",""time""
""fullscreenenter"",""5"",""13578""
","""event"",""trial"",""time""
""fullscreenexit"",""6"",""21875""
","","","","","","","","","","","","","","","","","","","","","",""
"d3-instructions","16","120625","0.0-16.0","1457","2008","14","Female","true","false","false","true","""event"",""trial"",""time""
""focus"",""0"",""0""
""fullscreenenter"",""5"",""13578""
""fullscreenexit"",""6"",""21875""
""blur"",""6"",""23211""
""focus"",""6"",""25700""
""blur"",""7"",""31822""
""focus"",""7"",""35837""
""blur"",""8"",""68478""
""focus"",""8"",""71212""
","""event"",""trial"",""time""
""blur"",""6"",""23211""
""blur"",""7"",""31822""
""blur"",""8"",""68478""
","""event"",""trial"",""time""
""focus"",""0"",""0""
""focus"",""6"",""25700""
""focus"",""7"",""35837""
""focus"",""8"",""71212""
","""event"",""trial"",""time""
""fullscreenenter"",""5"",""13578""
","""event"",""trial"",""time""
""fullscreenexit"",""6"",""21875""
","","","","","","","","","","","","","","","","","","","","","",""
"d3-instructions","17","121938","0.0-17.0","1457","2008","14","Female","true","false","false","true","""event"",""trial"",""time""
""focus"",""0"",""0""
""fullscreenenter"",""5"",""13578""
""fullscreenexit"",""6"",""21875""
""blur"",""6"",""23211""
""focus"",""6"",""25700""
""blur"",""7"",""31822""
""focus"",""7"",""35837""
""blur"",""8"",""68478""
""focus"",""8"",""71212""
","""event"",""trial"",""time""
""blur"",""6"",""23211""
""blur"",""7"",""31822""
""blur"",""8"",""68478""
","""event"",""trial"",""time""
""focus"",""0"",""0""
""focus"",""6"",""25700""
""focus"",""7"",""35837""
""focus"",""8"",""71212""
","""event"",""trial"",""time""
""fullscreenenter"",""5"",""13578""
","""event"",""trial"",""time""
""fullscreenexit"",""6"",""21875""
","","","","","","","","","","","","","","","","","","","","","",""
"d3-instructions","18","124137","0.0-18.0","1457","2008","14","Female","true","false","false","true","""event"",""trial"",""time""
""focus"",""0"",""0""
""fullscreenenter"",""5"",""13578""
""fullscreenexit"",""6"",""21875""
""blur"",""6"",""23211""
""focus"",""6"",""25700""
""blur"",""7"",""31822""
""focus"",""7"",""35837""
""blur"",""8"",""68478""
""focus"",""8"",""71212""
","""event"",""trial"",""time""
""blur"",""6"",""23211""
""blur"",""7"",""31822""
""blur"",""8"",""68478""
","""event"",""trial"",""time""
""focus"",""0"",""0""
""focus"",""6"",""25700""
""focus"",""7"",""35837""
""focus"",""8"",""71212""
","""event"",""trial"",""time""
""fullscreenenter"",""5"",""13578""
","""event"",""trial"",""time""
""fullscreenexit"",""6"",""21875""
","","","","","","","","","","","","","","","","","","","","","",""
"d3-instructions","19","133159","0.0-19.0","1457","2008","14","Female","true","false","false","true","""event"",""trial"",""time""
""focus"",""0"",""0""
""fullscreenenter"",""5"",""13578""
""fullscreenexit"",""6"",""21875""
""blur"",""6"",""23211""
""focus"",""6"",""25700""
""blur"",""7"",""31822""
""focus"",""7"",""35837""
""blur"",""8"",""68478""
""focus"",""8"",""71212""
","""event"",""trial"",""time""
""blur"",""6"",""23211""
""blur"",""7"",""31822""
""blur"",""8"",""68478""
","""event"",""trial"",""time""
""focus"",""0"",""0""
""focus"",""6"",""25700""
""focus"",""7"",""35837""
""focus"",""8"",""71212""
","""event"",""trial"",""time""
""fullscreenenter"",""5"",""13578""
","""event"",""trial"",""time""
""fullscreenexit"",""6"",""21875""
","","","","","","","","","","","","","","","","","","","","","",""
"d3-animate-choice","20","135788","0.0-20.0","1457","2008","14","Female","true","false","false","true","""event"",""trial"",""time""
""focus"",""0"",""0""
""fullscreenenter"",""5"",""13578""
""fullscreenexit"",""6"",""21875""
""blur"",""6"",""23211""
""focus"",""6"",""25700""
""blur"",""7"",""31822""
""focus"",""7"",""35837""
""blur"",""8"",""68478""
""focus"",""8"",""71212""
","""event"",""trial"",""time""
""blur"",""6"",""23211""
""blur"",""7"",""31822""
""blur"",""8"",""68478""
","""event"",""trial"",""time""
""focus"",""0"",""0""
""focus"",""6"",""25700""
""focus"",""7"",""35837""
""focus"",""8"",""71212""
","""event"",""trial"",""time""
""fullscreenenter"",""5"",""13578""
","""event"",""trial"",""time""
""fullscreenexit"",""6"",""21875""
","616.3000000007451","","49","","","3000","1","840,1107.7000000001863,1324.9000000003725,1550.2000000001863,1756.6000000005588,1967.9000000003725,2157.100000000559,2361.4000000003725,2565.100000000559","49,49,49,49,49,49,49,49,49","images/tutyellowplanet.jpg","null","images/tutalien3","null","images/tutalien3","images/nothing.png","NA","practice","null","","","",""
"d3-animate-choice","21","137927","0.0-21.0","1457","2008","14","Female","true","false","false","true","""event"",""trial"",""time""
""focus"",""0"",""0""
""fullscreenenter"",""5"",""13578""
""fullscreenexit"",""6"",""21875""
""blur"",""6"",""23211""
""focus"",""6"",""25700""
""blur"",""7"",""31822""
""focus"",""7"",""35837""
""blur"",""8"",""68478""
""focus"",""8"",""71212""
","""event"",""trial"",""time""
""blur"",""6"",""23211""
""blur"",""7"",""31822""
""blur"",""8"",""68478""
","""event"",""trial"",""time""
""focus"",""0"",""0""
""focus"",""6"",""25700""
""focus"",""7"",""35837""
""focus"",""8"",""71212""
","""event"",""trial"",""time""
""fullscreenenter"",""5"",""13578""
","""event"",""trial"",""time""
""fullscreenexit"",""6"",""21875""
","128.29999999981374","","49","","","3000","1","328.79999999981374,519.5,734.7999999998137,948.7000000001863,1151.4000000003725,1364.4000000003725,1563.7000000001863,1779.1000000005588,1999.2999999998137","49,49,49,49,49,49,49,49,49","images/tutyellowplanet.jpg","null","images/tutalien3","null","images/tutalien3","images/t.png","NA","practice","null","","","",""
"d3-animate-choice","22","140051","0.0-22.0","1457","2008","14","Female","true","false","false","true","""event"",""trial"",""time""
""focus"",""0"",""0""
""fullscreenenter"",""5"",""13578""
""fullscreenexit"",""6"",""21875""
""blur"",""6"",""23211""
""focus"",""6"",""25700""
""blur"",""7"",""31822""
""focus"",""7"",""35837""
""blur"",""8"",""68478""
""focus"",""8"",""71212""
","""event"",""trial"",""time""
""blur"",""6"",""23211""
""blur"",""7"",""31822""
""blur"",""8"",""68478""
","""event"",""trial"",""time""
""focus"",""0"",""0""
""focus"",""6"",""25700""
""focus"",""7"",""35837""
""focus"",""8"",""71212""
","""event"",""trial"",""time""
""fullscreenenter"",""5"",""13578""
","""event"",""trial"",""time""
""fullscreenexit"",""6"",""21875""
","110","","49","","","3000","1","311.5,500.40000000037253,721.7000000001863,925.1000000005588,1123.5,1335,1542.1000000005588,1758.1000000005588,1983.4000000003725","49,49,49,49,49,49,49,49,49","images/tutyellowplanet.jpg","null","images/tutalien3","null","images/tutalien3","images/nothing.png","NA","practice","null","","","",""
"d3-animate-choice","23","142141","0.0-23.0","1457","2008","14","Female","true","false","false","true","""event"",""trial"",""time""
""focus"",""0"",""0""
""fullscreenenter"",""5"",""13578""
""fullscreenexit"",""6"",""21875""
""blur"",""6"",""23211""
""focus"",""6"",""25700""
""blur"",""7"",""31822""
""focus"",""7"",""35837""
""blur"",""8"",""68478""
""focus"",""8"",""71212""
","""event"",""trial"",""time""
""blur"",""6"",""23211""
""blur"",""7"",""31822""
""blur"",""8"",""68478""
","""event"",""trial"",""time""
""focus"",""0"",""0""
""focus"",""6"",""25700""
""focus"",""7"",""35837""
""focus"",""8"",""71212""
","""event"",""trial"",""time""
""fullscreenenter"",""5"",""13578""
","""event"",""trial"",""time""
""fullscreenexit"",""6"",""21875""
","76.8999999994412","","49","","","3000","1","288.8999999994412,508.3999999994412,732.0999999996275,973.5,1167.0999999996275,1377,1596.3999999994412,1822.5999999996275,2048","49,49,49,49,49,49,49,49,49","images/tutyellowplanet.jpg","null","images/tutalien3","null","images/tutalien3","images/t.png","NA","practice","null","","","",""
"d3-animate-choice","24","144334","0.0-24.0","1457","2008","14","Female","true","false","false","true","""event"",""trial"",""time""
""focus"",""0"",""0""
""fullscreenenter"",""5"",""13578""
""fullscreenexit"",""6"",""21875""
""blur"",""6"",""23211""
""focus"",""6"",""25700""
""blur"",""7"",""31822""
""focus"",""7"",""35837""
""blur"",""8"",""68478""
""focus"",""8"",""71212""
","""event"",""trial"",""time""
""blur"",""6"",""23211""
""blur"",""7"",""31822""
""blur"",""8"",""68478""
","""event"",""trial"",""time""
""focus"",""0"",""0""
""focus"",""6"",""25700""
""focus"",""7"",""35837""
""focus"",""8"",""71212""
","""event"",""trial"",""time""
""fullscreenenter"",""5"",""13578""
","""event"",""trial"",""time""
""fullscreenexit"",""6"",""21875""
","177.3999999994412","","49","","","3000","1","395.20000000018626,629.2000000001863,834.2999999998137,1058.0999999996275,1287.5,1499.0999999996275,1715.7000000001863,1952","49,49,49,49,49,49,49,49","images/tutyellowplanet.jpg","null","images/tutalien3","null","images/tutalien3","images/t.png","NA","practice","null","","","",""
"d3-animate-choice","25","146346","0.0-25.0","1457","2008","14","Female","true","false","false","true","""event"",""trial"",""time""
""focus"",""0"",""0""
""fullscreenenter"",""5"",""13578""
""fullscreenexit"",""6"",""21875""
""blur"",""6"",""23211""
""focus"",""6"",""25700""
""blur"",""7"",""31822""
""focus"",""7"",""35837""
""blur"",""8"",""68478""
""focus"",""8"",""71212""
","""event"",""trial"",""time""
""blur"",""6"",""23211""
""blur"",""7"",""31822""
""blur"",""8"",""68478""
","""event"",""trial"",""time""
""focus"",""0"",""0""
""focus"",""6"",""25700""
""focus"",""7"",""35837""
""focus"",""8"",""71212""
","""event"",""trial"",""time""
""fullscreenenter"",""5"",""13578""
","""event"",""trial"",""time""
""fullscreenexit"",""6"",""21875""
","0.5","","49","","","3000","1","230.29999999981374,461,692.7999999998137,928.9000000003725,1161.4000000003725,1404.5999999996275,1660.7999999998137,1902","49,49,49,49,49,49,49,49","images/tutyellowplanet.jpg","null","images/tutalien3","null","images/tutalien3","images/nothing.png","NA","practice","null","","","",""
"d3-animate-choice","26","148478","0.0-26.0","1457","2008","14","Female","true","false","false","true","""event"",""trial"",""time""
""focus"",""0"",""0""
""fullscreenenter"",""5"",""13578""
""fullscreenexit"",""6"",""21875""
""blur"",""6"",""23211""
""focus"",""6"",""25700""
""blur"",""7"",""31822""
""focus"",""7"",""35837""
""blur"",""8"",""68478""
""focus"",""8"",""71212""
","""event"",""trial"",""time""
""blur"",""6"",""23211""
""blur"",""7"",""31822""
""blur"",""8"",""68478""
","""event"",""trial"",""time""
""focus"",""0"",""0""
""focus"",""6"",""25700""
""focus"",""7"",""35837""
""focus"",""8"",""71212""
","""event"",""trial"",""time""
""fullscreenenter"",""5"",""13578""
","""event"",""trial"",""time""
""fullscreenexit"",""6"",""21875""
","117.90000000037253","","49","","","3000","1","376.20000000018626,611.2000000001863,860.5,1100,1357,1592.4000000003725,1825.7000000001863,2060","49,49,49,49,49,49,49,49","images/tutyellowplanet.jpg","null","images/tutalien3","null","images/tutalien3","images/t.png","NA","practice","null","","","",""
"d3-animate-choice","27","150658","0.0-27.0","1457","2008","14","Female","true","false","false","true","""event"",""trial"",""time""
""focus"",""0"",""0""
""fullscreenenter"",""5"",""13578""
""fullscreenexit"",""6"",""21875""
""blur"",""6"",""23211""
""focus"",""6"",""25700""
""blur"",""7"",""31822""
""focus"",""7"",""35837""
""blur"",""8"",""68478""
""focus"",""8"",""71212""
","""event"",""trial"",""time""
""blur"",""6"",""23211""
""blur"",""7"",""31822""
""blur"",""8"",""68478""
","""event"",""trial"",""time""
""focus"",""0"",""0""
""focus"",""6"",""25700""
""focus"",""7"",""35837""
""focus"",""8"",""71212""
","""event"",""trial"",""time""
""fullscreenenter"",""5"",""13578""
","""event"",""trial"",""time""
""fullscreenexit"",""6"",""21875""
","163","","49","","","3000","1","460.90000000037253,659.9000000003725,901.4000000003725,1145.4000000003725,1391.1000000005588,1615.5,1862.7000000001863,2120.2999999998137","49,49,49,49,49,49,49,49","images/tutyellowplanet.jpg","null","images/tutalien3","null","images/tutalien3","images/nothing.png","NA","practice","null","","","",""
"d3-animate-choice","28","152868","0.0-28.0","1457","2008","14","Female","true","false","false","true","""event"",""trial"",""time""
""focus"",""0"",""0""
""fullscreenenter"",""5"",""13578""
""fullscreenexit"",""6"",""21875""
""blur"",""6"",""23211""
""focus"",""6"",""25700""
""blur"",""7"",""31822""
""focus"",""7"",""35837""
""blur"",""8"",""68478""
""focus"",""8"",""71212""
","""event"",""trial"",""time""
""blur"",""6"",""23211""
""blur"",""7"",""31822""
""blur"",""8"",""68478""
","""event"",""trial"",""time""
""focus"",""0"",""0""
""focus"",""6"",""25700""
""focus"",""7"",""35837""
""focus"",""8"",""71212""
","""event"",""trial"",""time""
""fullscreenenter"",""5"",""13578""
","""event"",""trial"",""time""
""fullscreenexit"",""6"",""21875""
","198.79999999981374","","49","","","3000","1","432.5,663.5,897.2000000001863,1147.4000000003725,1377,1605.0999999996275,1851,2122.7000000001863","49,49,49,49,49,49,49,49","images/tutyellowplanet.jpg","null","images/tutalien3","null","images/tutalien3","images/t.png","NA","practice","null","","","",""
"d3-animate-choice","29","155007","0.0-29.0","1457","2008","14","Female","true","false","false","true","""event"",""trial"",""time""
""focus"",""0"",""0""
""fullscreenenter"",""5"",""13578""
""fullscreenexit"",""6"",""21875""
""blur"",""6"",""23211""
""focus"",""6"",""25700""
""blur"",""7"",""31822""
""focus"",""7"",""35837""
""blur"",""8"",""68478""
""focus"",""8"",""71212""
","""event"",""trial"",""time""
""blur"",""6"",""23211""
""blur"",""7"",""31822""
""blur"",""8"",""68478""
","""event"",""trial"",""time""
""focus"",""0"",""0""
""focus"",""6"",""25700""
""focus"",""7"",""35837""
""focus"",""8"",""71212""
","""event"",""trial"",""time""
""fullscreenenter"",""5"",""13578""
","""event"",""trial"",""time""
""fullscreenexit"",""6"",""21875""
","126","","49","","","3000","1","347.79999999981374,582.5,820.5,1069.5999999996275,1283.3999999994412,1510.5,1742.7999999998137,1993.199999999255","49,49,49,49,49,49,49,49","images/tutyellowplanet.jpg","null","images/tutalien3","null","images/tutalien3","images/t.png","NA","practice","null","","","",""
"d3-instructions","30","157564","0.0-30.0","1457","2008","14","Female","true","false","false","true","""event"",""trial"",""time""
""focus"",""0"",""0""
""fullscreenenter"",""5"",""13578""
""fullscreenexit"",""6"",""21875""
""blur"",""6"",""23211""
""focus"",""6"",""25700""
""blur"",""7"",""31822""
""focus"",""7"",""35837""
""blur"",""8"",""68478""
""focus"",""8"",""71212""
","""event"",""trial"",""time""
""blur"",""6"",""23211""
""blur"",""7"",""31822""
""blur"",""8"",""68478""
","""event"",""trial"",""time""
""focus"",""0"",""0""
""focus"",""6"",""25700""
""focus"",""7"",""35837""
""focus"",""8"",""71212""
","""event"",""trial"",""time""
""fullscreenenter"",""5"",""13578""
","""event"",""trial"",""time""
""fullscreenexit"",""6"",""21875""
","","","","","","","","","","","","","","","","","","","","","",""
"d3-instructions","31","159329","0.0-31.0","1457","2008","14","Female","true","false","false","true","""event"",""trial"",""time""
""focus"",""0"",""0""
""fullscreenenter"",""5"",""13578""
""fullscreenexit"",""6"",""21875""
""blur"",""6"",""23211""
""focus"",""6"",""25700""
""blur"",""7"",""31822""
""focus"",""7"",""35837""
""blur"",""8"",""68478""
""focus"",""8"",""71212""
","""event"",""trial"",""time""
""blur"",""6"",""23211""
""blur"",""7"",""31822""
""blur"",""8"",""68478""
","""event"",""trial"",""time""
""focus"",""0"",""0""
""focus"",""6"",""25700""
""focus"",""7"",""35837""
""focus"",""8"",""71212""
","""event"",""trial"",""time""
""fullscreenenter"",""5"",""13578""
","""event"",""trial"",""time""
""fullscreenexit"",""6"",""21875""
","","","","","","","","","","","","","","","","","","","","","",""
"d3-instructions","32","163058","0.0-32.0","1457","2008","14","Female","true","false","false","true","""event"",""trial"",""time""
""focus"",""0"",""0""
""fullscreenenter"",""5"",""13578""
""fullscreenexit"",""6"",""21875""
""blur"",""6"",""23211""
""focus"",""6"",""25700""
""blur"",""7"",""31822""
""focus"",""7"",""35837""
""blur"",""8"",""68478""
""focus"",""8"",""71212""
","""event"",""trial"",""time""
""blur"",""6"",""23211""
""blur"",""7"",""31822""
""blur"",""8"",""68478""
","""event"",""trial"",""time""
""focus"",""0"",""0""
""focus"",""6"",""25700""
""focus"",""7"",""35837""
""focus"",""8"",""71212""
","""event"",""trial"",""time""
""fullscreenenter"",""5"",""13578""
","""event"",""trial"",""time""
""fullscreenexit"",""6"",""21875""
","","","","","","","","","","","","","","","","","","","","","",""
"d3-instructions","33","165062","0.0-33.0","1457","2008","14","Female","true","false","false","true","""event"",""trial"",""time""
""focus"",""0"",""0""
""fullscreenenter"",""5"",""13578""
""fullscreenexit"",""6"",""21875""
""blur"",""6"",""23211""
""focus"",""6"",""25700""
""blur"",""7"",""31822""
""focus"",""7"",""35837""
""blur"",""8"",""68478""
""focus"",""8"",""71212""
","""event"",""trial"",""time""
""blur"",""6"",""23211""
""blur"",""7"",""31822""
""blur"",""8"",""68478""
","""event"",""trial"",""time""
""focus"",""0"",""0""
""focus"",""6"",""25700""
""focus"",""7"",""35837""
""focus"",""8"",""71212""
","""event"",""trial"",""time""
""fullscreenenter"",""5"",""13578""
","""event"",""trial"",""time""
""fullscreenexit"",""6"",""21875""
","","","","","","","","","","","","","","","","","","","","","",""
"d3-animate-choice","34","167975","0.0-34.0","1457","2008","14","Female","true","false","false","true","""event"",""trial"",""time""
""focus"",""0"",""0""
""fullscreenenter"",""5"",""13578""
""fullscreenexit"",""6"",""21875""
""blur"",""6"",""23211""
""focus"",""6"",""25700""
""blur"",""7"",""31822""
""focus"",""7"",""35837""
""blur"",""8"",""68478""
""focus"",""8"",""71212""
","""event"",""trial"",""time""
""blur"",""6"",""23211""
""blur"",""7"",""31822""
""blur"",""8"",""68478""
","""event"",""trial"",""time""
""focus"",""0"",""0""
""focus"",""6"",""25700""
""focus"",""7"",""35837""
""focus"",""8"",""71212""
","""event"",""trial"",""time""
""fullscreenenter"",""5"",""13578""
","""event"",""trial"",""time""
""fullscreenexit"",""6"",""21875""
","894","","49","","","3000","1","","","images/tutgreenplanet.jpg","images/tutalien1","images/tutalien2","null","images/tutalien2","images/t.png","NA","practice","null","","","",""
"d3-animate-choice","35","170615","0.0-35.0","1457","2008","14","Female","true","false","false","true","""event"",""trial"",""time""
""focus"",""0"",""0""
""fullscreenenter"",""5"",""13578""
""fullscreenexit"",""6"",""21875""
""blur"",""6"",""23211""
""focus"",""6"",""25700""
""blur"",""7"",""31822""
""focus"",""7"",""35837""
""blur"",""8"",""68478""
""focus"",""8"",""71212""
","""event"",""trial"",""time""
""blur"",""6"",""23211""
""blur"",""7"",""31822""
""blur"",""8"",""68478""
","""event"",""trial"",""time""
""focus"",""0"",""0""
""focus"",""6"",""25700""
""focus"",""7"",""35837""
""focus"",""8"",""71212""
","""event"",""trial"",""time""
""fullscreenenter"",""5"",""13578""
","""event"",""trial"",""time""
""fullscreenexit"",""6"",""21875""
","631.1000000005588","","48","","","3000","1","684.2999999998137","13","images/tutgreenplanet.jpg","images/tutalien1","images/tutalien2","null","images/tutalien1","images/nothing.png","NA","practice","null","","","",""
"d3-animate-choice","36","173059","0.0-36.0","1457","2008","14","Female","true","false","false","true","""event"",""trial"",""time""
""focus"",""0"",""0""
""fullscreenenter"",""5"",""13578""
""fullscreenexit"",""6"",""21875""
""blur"",""6"",""23211""
""focus"",""6"",""25700""
""blur"",""7"",""31822""
""focus"",""7"",""35837""
""blur"",""8"",""68478""
""focus"",""8"",""71212""
","""event"",""trial"",""time""
""blur"",""6"",""23211""
""blur"",""7"",""31822""
""blur"",""8"",""68478""
","""event"",""trial"",""time""
""focus"",""0"",""0""
""focus"",""6"",""25700""
""focus"",""7"",""35837""
""focus"",""8"",""71212""
","""event"",""trial"",""time""
""fullscreenenter"",""5"",""13578""
","""event"",""trial"",""time""
""fullscreenexit"",""6"",""21875""
","426","","49","","","3000","1","","","images/tutgreenplanet.jpg","images/tutalien1","images/tutalien2","null","images/tutalien2","images/t.png","NA","practice","null","","","",""
"d3-animate-choice","37","176170","0.0-37.0","1457","2008","14","Female","true","false","false","true","""event"",""trial"",""time""
""focus"",""0"",""0""
""fullscreenenter"",""5"",""13578""
""fullscreenexit"",""6"",""21875""
""blur"",""6"",""23211""
""focus"",""6"",""25700""
""blur"",""7"",""31822""
""focus"",""7"",""35837""
""blur"",""8"",""68478""
""focus"",""8"",""71212""
","""event"",""trial"",""time""
""blur"",""6"",""23211""
""blur"",""7"",""31822""
""blur"",""8"",""68478""
","""event"",""trial"",""time""
""focus"",""0"",""0""
""focus"",""6"",""25700""
""focus"",""7"",""35837""
""focus"",""8"",""71212""
","""event"",""trial"",""time""
""fullscreenenter"",""5"",""13578""
","""event"",""trial"",""time""
""fullscreenexit"",""6"",""21875""
","1096.4000000003725","","49","","","3000","1","","","images/tutgreenplanet.jpg","images/tutalien1","images/tutalien2","null","images/tutalien2","images/t.png","NA","practice","null","","","",""
"d3-animate-choice","38","178606","0.0-38.0","1457","2008","14","Female","true","false","false","true","""event"",""trial"",""time""
""focus"",""0"",""0""
""fullscreenenter"",""5"",""13578""
""fullscreenexit"",""6"",""21875""
""blur"",""6"",""23211""
""focus"",""6"",""25700""
""blur"",""7"",""31822""
""focus"",""7"",""35837""
""blur"",""8"",""68478""
""focus"",""8"",""71212""
","""event"",""trial"",""time""
""blur"",""6"",""23211""
""blur"",""7"",""31822""
""blur"",""8"",""68478""
","""event"",""trial"",""time""
""focus"",""0"",""0""
""focus"",""6"",""25700""
""focus"",""7"",""35837""
""focus"",""8"",""71212""
","""event"",""trial"",""time""
""fullscreenenter"",""5"",""13578""
","""event"",""trial"",""time""
""fullscreenexit"",""6"",""21875""
","423","","49","","","3000","1","","","images/tutgreenplanet.jpg","images/tutalien1","images/tutalien2","null","images/tutalien2","images/t.png","NA","practice","null","","","",""
"d3-animate-choice","39","180908","0.0-39.0","1457","2008","14","Female","true","false","false","true","""event"",""trial"",""time""
""focus"",""0"",""0""
""fullscreenenter"",""5"",""13578""
""fullscreenexit"",""6"",""21875""
""blur"",""6"",""23211""
""focus"",""6"",""25700""
""blur"",""7"",""31822""
""focus"",""7"",""35837""
""blur"",""8"",""68478""
""focus"",""8"",""71212""
","""event"",""trial"",""time""
""blur"",""6"",""23211""
""blur"",""7"",""31822""
""blur"",""8"",""68478""
","""event"",""trial"",""time""
""focus"",""0"",""0""
""focus"",""6"",""25700""
""focus"",""7"",""35837""
""focus"",""8"",""71212""
","""event"",""trial"",""time""
""fullscreenenter"",""5"",""13578""
","""event"",""trial"",""time""
""fullscreenexit"",""6"",""21875""
","289.3999999994412","","49","","","3000","1","","","images/tutgreenplanet.jpg","images/tutalien1","images/tutalien2","null","images/tutalien2","images/t.png","NA","practice","null","","","",""
"d3-animate-choice","40","183257","0.0-40.0","1457","2008","14","Female","true","false","false","true","""event"",""trial"",""time""
""focus"",""0"",""0""
""fullscreenenter"",""5"",""13578""
""fullscreenexit"",""6"",""21875""
""blur"",""6"",""23211""
""focus"",""6"",""25700""
""blur"",""7"",""31822""
""focus"",""7"",""35837""
""blur"",""8"",""68478""
""focus"",""8"",""71212""
","""event"",""trial"",""time""
""blur"",""6"",""23211""
""blur"",""7"",""31822""
""blur"",""8"",""68478""
","""event"",""trial"",""time""
""focus"",""0"",""0""
""focus"",""6"",""25700""
""focus"",""7"",""35837""
""focus"",""8"",""71212""
","""event"",""trial"",""time""
""fullscreenenter"",""5"",""13578""
","""event"",""trial"",""time""
""fullscreenexit"",""6"",""21875""
","335.90000000037253","","49","","","3000","1","1856.7999999998137","49","images/tutgreenplanet.jpg","images/tutalien1","images/tutalien2","null","images/tutalien2","images/t.png","NA","practice","null","","","",""
"d3-animate-choice","41","185643","0.0-41.0","1457","2008","14","Female","true","false","false","true","""event"",""trial"",""time""
""focus"",""0"",""0""
""fullscreenenter"",""5"",""13578""
""fullscreenexit"",""6"",""21875""
""blur"",""6"",""23211""
""focus"",""6"",""25700""
""blur"",""7"",""31822""
""focus"",""7"",""35837""
""blur"",""8"",""68478""
""focus"",""8"",""71212""
","""event"",""trial"",""time""
""blur"",""6"",""23211""
""blur"",""7"",""31822""
""blur"",""8"",""68478""
","""event"",""trial"",""time""
""focus"",""0"",""0""
""focus"",""6"",""25700""
""focus"",""7"",""35837""
""focus"",""8"",""71212""
","""event"",""trial"",""time""
""fullscreenenter"",""5"",""13578""
","""event"",""trial"",""time""
""fullscreenexit"",""6"",""21875""
","368.90000000037253","","49","","","3000","1","","","images/tutgreenplanet.jpg","images/tutalien1","images/tutalien2","null","images/tutalien2","images/t.png","NA","practice","null","","","",""
"d3-animate-choice","42","188045","0.0-42.0","1457","2008","14","Female","true","false","false","true","""event"",""trial"",""time""
""focus"",""0"",""0""
""fullscreenenter"",""5"",""13578""
""fullscreenexit"",""6"",""21875""
""blur"",""6"",""23211""
""focus"",""6"",""25700""
""blur"",""7"",""31822""
""focus"",""7"",""35837""
""blur"",""8"",""68478""
""focus"",""8"",""71212""
","""event"",""trial"",""time""
""blur"",""6"",""23211""
""blur"",""7"",""31822""
""blur"",""8"",""68478""
","""event"",""trial"",""time""
""focus"",""0"",""0""
""focus"",""6"",""25700""
""focus"",""7"",""35837""
""focus"",""8"",""71212""
","""event"",""trial"",""time""
""fullscreenenter"",""5"",""13578""
","""event"",""trial"",""time""
""fullscreenexit"",""6"",""21875""
","392.40000000037253","","49","","","3000","1","","","images/tutgreenplanet.jpg","images/tutalien1","images/tutalien2","null","images/tutalien2","images/t.png","NA","practice","null","","","",""
"d3-animate-choice","43","190434","0.0-43.0","1457","2008","14","Female","true","false","false","true","""event"",""trial"",""time""
""focus"",""0"",""0""
""fullscreenenter"",""5"",""13578""
""fullscreenexit"",""6"",""21875""
""blur"",""6"",""23211""
""focus"",""6"",""25700""
""blur"",""7"",""31822""
""focus"",""7"",""35837""
""blur"",""8"",""68478""
""focus"",""8"",""71212""
","""event"",""trial"",""time""
""blur"",""6"",""23211""
""blur"",""7"",""31822""
""blur"",""8"",""68478""
","""event"",""trial"",""time""
""focus"",""0"",""0""
""focus"",""6"",""25700""
""focus"",""7"",""35837""
""focus"",""8"",""71212""
","""event"",""trial"",""time""
""fullscreenenter"",""5"",""13578""
","""event"",""trial"",""time""
""fullscreenexit"",""6"",""21875""
","377.70000000018626","","49","","","3000","1","","","images/tutgreenplanet.jpg","images/tutalien1","images/tutalien2","null","images/tutalien2","images/t.png","NA","practice","null","","","",""
"d3-instructions","44","195644","0.0-44.0","1457","2008","14","Female","true","false","false","true","""event"",""trial"",""time""
""focus"",""0"",""0""
""fullscreenenter"",""5"",""13578""
""fullscreenexit"",""6"",""21875""
""blur"",""6"",""23211""
""focus"",""6"",""25700""
""blur"",""7"",""31822""
""focus"",""7"",""35837""
""blur"",""8"",""68478""
""focus"",""8"",""71212""
","""event"",""trial"",""time""
""blur"",""6"",""23211""
""blur"",""7"",""31822""
""blur"",""8"",""68478""
","""event"",""trial"",""time""
""focus"",""0"",""0""
""focus"",""6"",""25700""
""focus"",""7"",""35837""
""focus"",""8"",""71212""
","""event"",""trial"",""time""
""fullscreenenter"",""5"",""13578""
","""event"",""trial"",""time""
""fullscreenexit"",""6"",""21875""
","","","","","","","","","","","","","","","","","","","","","",""
"d3-instructions","45","197998","0.0-45.0","1457","2008","14","Female","true","false","false","true","""event"",""trial"",""time""
""focus"",""0"",""0""
""fullscreenenter"",""5"",""13578""
""fullscreenexit"",""6"",""21875""
""blur"",""6"",""23211""
""focus"",""6"",""25700""
""blur"",""7"",""31822""
""focus"",""7"",""35837""
""blur"",""8"",""68478""
""focus"",""8"",""71212""
","""event"",""trial"",""time""
""blur"",""6"",""23211""
""blur"",""7"",""31822""
""blur"",""8"",""68478""
","""event"",""trial"",""time""
""focus"",""0"",""0""
""focus"",""6"",""25700""
""focus"",""7"",""35837""
""focus"",""8"",""71212""
","""event"",""trial"",""time""
""fullscreenenter"",""5"",""13578""
","""event"",""trial"",""time""
""fullscreenexit"",""6"",""21875""
","","","","","","","","","","","","","","","","","","","","","",""
"d3-instructions","46","199689","0.0-46.0","1457","2008","14","Female","true","false","false","true","""event"",""trial"",""time""
""focus"",""0"",""0""
""fullscreenenter"",""5"",""13578""
""fullscreenexit"",""6"",""21875""
""blur"",""6"",""23211""
""focus"",""6"",""25700""
""blur"",""7"",""31822""
""focus"",""7"",""35837""
""blur"",""8"",""68478""
""focus"",""8"",""71212""
","""event"",""trial"",""time""
""blur"",""6"",""23211""
""blur"",""7"",""31822""
""blur"",""8"",""68478""
","""event"",""trial"",""time""
""focus"",""0"",""0""
""focus"",""6"",""25700""
""focus"",""7"",""35837""
""focus"",""8"",""71212""
","""event"",""trial"",""time""
""fullscreenenter"",""5"",""13578""
","""event"",""trial"",""time""
""fullscreenexit"",""6"",""21875""
","","","","","","","","","","","","","","","","","","","","","",""
"d3-instructions","47","201213","0.0-47.0","1457","2008","14","Female","true","false","false","true","""event"",""trial"",""time""
""focus"",""0"",""0""
""fullscreenenter"",""5"",""13578""
""fullscreenexit"",""6"",""21875""
""blur"",""6"",""23211""
""focus"",""6"",""25700""
""blur"",""7"",""31822""
""focus"",""7"",""35837""
""blur"",""8"",""68478""
""focus"",""8"",""71212""
","""event"",""trial"",""time""
""blur"",""6"",""23211""
""blur"",""7"",""31822""
""blur"",""8"",""68478""
","""event"",""trial"",""time""
""focus"",""0"",""0""
""focus"",""6"",""25700""
""focus"",""7"",""35837""
""focus"",""8"",""71212""
","""event"",""trial"",""time""
""fullscreenenter"",""5"",""13578""
","""event"",""trial"",""time""
""fullscreenexit"",""6"",""21875""
","","","","","","","","","","","","","","","","","","","","","",""
"d3-instructions","48","202641","0.0-48.0","1457","2008","14","Female","true","false","false","true","""event"",""trial"",""time""
""focus"",""0"",""0""
""fullscreenenter"",""5"",""13578""
""fullscreenexit"",""6"",""21875""
""blur"",""6"",""23211""
""focus"",""6"",""25700""
""blur"",""7"",""31822""
""focus"",""7"",""35837""
""blur"",""8"",""68478""
""focus"",""8"",""71212""
","""event"",""trial"",""time""
""blur"",""6"",""23211""
""blur"",""7"",""31822""
""blur"",""8"",""68478""
","""event"",""trial"",""time""
""focus"",""0"",""0""
""focus"",""6"",""25700""
""focus"",""7"",""35837""
""focus"",""8"",""71212""
","""event"",""trial"",""time""
""fullscreenenter"",""5"",""13578""
","""event"",""trial"",""time""
""fullscreenexit"",""6"",""21875""
","","","","","","","","","","","","","","","","","","","","","",""
"d3-instructions","49","203849","0.0-49.0","1457","2008","14","Female","true","false","false","true","""event"",""trial"",""time""
""focus"",""0"",""0""
""fullscreenenter"",""5"",""13578""
""fullscreenexit"",""6"",""21875""
""blur"",""6"",""23211""
""focus"",""6"",""25700""
""blur"",""7"",""31822""
""focus"",""7"",""35837""
""blur"",""8"",""68478""
""focus"",""8"",""71212""
","""event"",""trial"",""time""
""blur"",""6"",""23211""
""blur"",""7"",""31822""
""blur"",""8"",""68478""
","""event"",""trial"",""time""
""focus"",""0"",""0""
""focus"",""6"",""25700""
""focus"",""7"",""35837""
""focus"",""8"",""71212""
","""event"",""trial"",""time""
""fullscreenenter"",""5"",""13578""
","""event"",""trial"",""time""
""fullscreenexit"",""6"",""21875""
","","","","","","","","","","","","","","","","","","","","","",""
"d3-instructions","50","205135","0.0-50.0","1457","2008","14","Female","true","false","false","true","""event"",""trial"",""time""
""focus"",""0"",""0""
""fullscreenenter"",""5"",""13578""
""fullscreenexit"",""6"",""21875""
""blur"",""6"",""23211""
""focus"",""6"",""25700""
""blur"",""7"",""31822""
""focus"",""7"",""35837""
""blur"",""8"",""68478""
""focus"",""8"",""71212""
","""event"",""trial"",""time""
""blur"",""6"",""23211""
""blur"",""7"",""31822""
""blur"",""8"",""68478""
","""event"",""trial"",""time""
""focus"",""0"",""0""
""focus"",""6"",""25700""
""focus"",""7"",""35837""
""focus"",""8"",""71212""
","""event"",""trial"",""time""
""fullscreenenter"",""5"",""13578""
","""event"",""trial"",""time""
""fullscreenexit"",""6"",""21875""
","","","","","","","","","","","","","","","","","","","","","",""
"d3-instructions","51","206857","0.0-51.0","1457","2008","14","Female","true","false","false","true","""event"",""trial"",""time""
""focus"",""0"",""0""
""fullscreenenter"",""5"",""13578""
""fullscreenexit"",""6"",""21875""
""blur"",""6"",""23211""
""focus"",""6"",""25700""
""blur"",""7"",""31822""
""focus"",""7"",""35837""
""blur"",""8"",""68478""
""focus"",""8"",""71212""
","""event"",""trial"",""time""
""blur"",""6"",""23211""
""blur"",""7"",""31822""
""blur"",""8"",""68478""
","""event"",""trial"",""time""
""focus"",""0"",""0""
""focus"",""6"",""25700""
""focus"",""7"",""35837""
""focus"",""8"",""71212""
","""event"",""trial"",""time""
""fullscreenenter"",""5"",""13578""
","""event"",""trial"",""time""
""fullscreenexit"",""6"",""21875""
","","","","","","","","","","","","","","","","","","","","","",""
"d3-instructions","52","208238","0.0-52.0","1457","2008","14","Female","true","false","false","true","""event"",""trial"",""time""
""focus"",""0"",""0""
""fullscreenenter"",""5"",""13578""
""fullscreenexit"",""6"",""21875""
""blur"",""6"",""23211""
""focus"",""6"",""25700""
""blur"",""7"",""31822""
""focus"",""7"",""35837""
""blur"",""8"",""68478""
""focus"",""8"",""71212""
","""event"",""trial"",""time""
""blur"",""6"",""23211""
""blur"",""7"",""31822""
""blur"",""8"",""68478""
","""event"",""trial"",""time""
""focus"",""0"",""0""
""focus"",""6"",""25700""
""focus"",""7"",""35837""
""focus"",""8"",""71212""
","""event"",""trial"",""time""
""fullscreenenter"",""5"",""13578""
","""event"",""trial"",""time""
""fullscreenexit"",""6"",""21875""
","","","","","","","","","","","","","","","","","","","","","",""
"d3-instructions","53","210214","0.0-53.0","1457","2008","14","Female","true","false","false","true","""event"",""trial"",""time""
""focus"",""0"",""0""
""fullscreenenter"",""5"",""13578""
""fullscreenexit"",""6"",""21875""
""blur"",""6"",""23211""
""focus"",""6"",""25700""
""blur"",""7"",""31822""
""focus"",""7"",""35837""
""blur"",""8"",""68478""
""focus"",""8"",""71212""
","""event"",""trial"",""time""
""blur"",""6"",""23211""
""blur"",""7"",""31822""
""blur"",""8"",""68478""
","""event"",""trial"",""time""
""focus"",""0"",""0""
""focus"",""6"",""25700""
""focus"",""7"",""35837""
""focus"",""8"",""71212""
","""event"",""trial"",""time""
""fullscreenenter"",""5"",""13578""
","""event"",""trial"",""time""
""fullscreenexit"",""6"",""21875""
","","","","","","","","","","","","","","","","","","","","","",""
"d3-instructions","54","211290","0.0-54.0","1457","2008","14","Female","true","false","false","true","""event"",""trial"",""time""
""focus"",""0"",""0""
""fullscreenenter"",""5"",""13578""
""fullscreenexit"",""6"",""21875""
""blur"",""6"",""23211""
""focus"",""6"",""25700""
""blur"",""7"",""31822""
""focus"",""7"",""35837""
""blur"",""8"",""68478""
""focus"",""8"",""71212""
","""event"",""trial"",""time""
""blur"",""6"",""23211""
""blur"",""7"",""31822""
""blur"",""8"",""68478""
","""event"",""trial"",""time""
""focus"",""0"",""0""
""focus"",""6"",""25700""
""focus"",""7"",""35837""
""focus"",""8"",""71212""
","""event"",""trial"",""time""
""fullscreenenter"",""5"",""13578""
","""event"",""trial"",""time""
""fullscreenexit"",""6"",""21875""
","","","","","","","","","","","","","","","","","","","","","",""
"d3-instructions","55","212662","0.0-55.0","1457","2008","14","Female","true","false","false","true","""event"",""trial"",""time""
""focus"",""0"",""0""
""fullscreenenter"",""5"",""13578""
""fullscreenexit"",""6"",""21875""
""blur"",""6"",""23211""
""focus"",""6"",""25700""
""blur"",""7"",""31822""
""focus"",""7"",""35837""
""blur"",""8"",""68478""
""focus"",""8"",""71212""
","""event"",""trial"",""time""
""blur"",""6"",""23211""
""blur"",""7"",""31822""
""blur"",""8"",""68478""
","""event"",""trial"",""time""
""focus"",""0"",""0""
""focus"",""6"",""25700""
""focus"",""7"",""35837""
""focus"",""8"",""71212""
","""event"",""trial"",""time""
""fullscreenenter"",""5"",""13578""
","""event"",""trial"",""time""
""fullscreenexit"",""6"",""21875""
","","","","","","","","","","","","","","","","","","","","","",""
"d3-instructions","56","213747","0.0-56.0","1457","2008","14","Female","true","false","false","true","""event"",""trial"",""time""
""focus"",""0"",""0""
""fullscreenenter"",""5"",""13578""
""fullscreenexit"",""6"",""21875""
""blur"",""6"",""23211""
""focus"",""6"",""25700""
""blur"",""7"",""31822""
""focus"",""7"",""35837""
""blur"",""8"",""68478""
""focus"",""8"",""71212""
","""event"",""trial"",""time""
""blur"",""6"",""23211""
""blur"",""7"",""31822""
""blur"",""8"",""68478""
","""event"",""trial"",""time""
""focus"",""0"",""0""
""focus"",""6"",""25700""
""focus"",""7"",""35837""
""focus"",""8"",""71212""
","""event"",""trial"",""time""
""fullscreenenter"",""5"",""13578""
","""event"",""trial"",""time""
""fullscreenexit"",""6"",""21875""
","","","","","","","","","","","","","","","","","","","","","",""
"d3-instructions","57","215132","0.0-57.0","1457","2008","14","Female","true","false","false","true","""event"",""trial"",""time""
""focus"",""0"",""0""
""fullscreenenter"",""5"",""13578""
""fullscreenexit"",""6"",""21875""
""blur"",""6"",""23211""
""focus"",""6"",""25700""
""blur"",""7"",""31822""
""focus"",""7"",""35837""
""blur"",""8"",""68478""
""focus"",""8"",""71212""
","""event"",""trial"",""time""
""blur"",""6"",""23211""
""blur"",""7"",""31822""
""blur"",""8"",""68478""
","""event"",""trial"",""time""
""focus"",""0"",""0""
""focus"",""6"",""25700""
""focus"",""7"",""35837""
""focus"",""8"",""71212""
","""event"",""trial"",""time""
""fullscreenenter"",""5"",""13578""
","""event"",""trial"",""time""
""fullscreenexit"",""6"",""21875""
","","","","","","","","","","","","","","","","","","","","","",""
"d3-instructions","58","219895","0.0-58.0","1457","2008","14","Female","true","false","false","true","""event"",""trial"",""time""
""focus"",""0"",""0""
""fullscreenenter"",""5"",""13578""
""fullscreenexit"",""6"",""21875""
""blur"",""6"",""23211""
""focus"",""6"",""25700""
""blur"",""7"",""31822""
""focus"",""7"",""35837""
""blur"",""8"",""68478""
""focus"",""8"",""71212""
","""event"",""trial"",""time""
""blur"",""6"",""23211""
""blur"",""7"",""31822""
""blur"",""8"",""68478""
","""event"",""trial"",""time""
""focus"",""0"",""0""
""focus"",""6"",""25700""
""focus"",""7"",""35837""
""focus"",""8"",""71212""
","""event"",""trial"",""time""
""fullscreenenter"",""5"",""13578""
","""event"",""trial"",""time""
""fullscreenexit"",""6"",""21875""
","","","","","","","","","","","","","","","","","","","","","",""
"d3-instructions","59","221889","0.0-59.0","1457","2008","14","Female","true","false","false","true","""event"",""trial"",""time""
""focus"",""0"",""0""
""fullscreenenter"",""5"",""13578""
""fullscreenexit"",""6"",""21875""
""blur"",""6"",""23211""
""focus"",""6"",""25700""
""blur"",""7"",""31822""
""focus"",""7"",""35837""
""blur"",""8"",""68478""
""focus"",""8"",""71212""
","""event"",""trial"",""time""
""blur"",""6"",""23211""
""blur"",""7"",""31822""
""blur"",""8"",""68478""
","""event"",""trial"",""time""
""focus"",""0"",""0""
""focus"",""6"",""25700""
""focus"",""7"",""35837""
""focus"",""8"",""71212""
","""event"",""trial"",""time""
""fullscreenenter"",""5"",""13578""
","""event"",""trial"",""time""
""fullscreenexit"",""6"",""21875""
","","","","","","","","","","","","","","","","","","","","","",""
"d3-instructions","60","224811","0.0-60.0","1457","2008","14","Female","true","false","false","true","""event"",""trial"",""time""
""focus"",""0"",""0""
""fullscreenenter"",""5"",""13578""
""fullscreenexit"",""6"",""21875""
""blur"",""6"",""23211""
""focus"",""6"",""25700""
""blur"",""7"",""31822""
""focus"",""7"",""35837""
""blur"",""8"",""68478""
""focus"",""8"",""71212""
","""event"",""trial"",""time""
""blur"",""6"",""23211""
""blur"",""7"",""31822""
""blur"",""8"",""68478""
","""event"",""trial"",""time""
""focus"",""0"",""0""
""focus"",""6"",""25700""
""focus"",""7"",""35837""
""focus"",""8"",""71212""
","""event"",""trial"",""time""
""fullscreenenter"",""5"",""13578""
","""event"",""trial"",""time""
""fullscreenexit"",""6"",""21875""
","","","","","","","","","","","","","","","","","","","","","",""
"d3-animate-choice","61","228824","0.0-61.0-0.0","1457","2008","14","Female","true","false","false","true","""event"",""trial"",""time""
""focus"",""0"",""0""
""fullscreenenter"",""5"",""13578""
""fullscreenexit"",""6"",""21875""
""blur"",""6"",""23211""
""focus"",""6"",""25700""
""blur"",""7"",""31822""
""focus"",""7"",""35837""
""blur"",""8"",""68478""
""focus"",""8"",""71212""
","""event"",""trial"",""time""
""blur"",""6"",""23211""
""blur"",""7"",""31822""
""blur"",""8"",""68478""
","""event"",""trial"",""time""
""focus"",""0"",""0""
""focus"",""6"",""25700""
""focus"",""7"",""35837""
""focus"",""8"",""71212""
","""event"",""trial"",""time""
""fullscreenenter"",""5"",""13578""
","""event"",""trial"",""time""
""fullscreenexit"",""6"",""21875""
","2954.7999999998137","","192","","","3000","1","3962.100000000559","49","images/earth.jpg","images/tutrocket1","images/tutrocket2","null","images/tutrocket2","","1","practice","null","","","",""
"d3-animate-choice","62","231946","0.0-61.0-1.0","1457","2008","14","Female","true","false","false","true","""event"",""trial"",""time""
""focus"",""0"",""0""
""fullscreenenter"",""5"",""13578""
""fullscreenexit"",""6"",""21875""
""blur"",""6"",""23211""
""focus"",""6"",""25700""
""blur"",""7"",""31822""
""focus"",""7"",""35837""
""blur"",""8"",""68478""
""focus"",""8"",""71212""
","""event"",""trial"",""time""
""blur"",""6"",""23211""
""blur"",""7"",""31822""
""blur"",""8"",""68478""
","""event"",""trial"",""time""
""focus"",""0"",""0""
""focus"",""6"",""25700""
""focus"",""7"",""35837""
""focus"",""8"",""71212""
","""event"",""trial"",""time""
""fullscreenenter"",""5"",""13578""
","""event"",""trial"",""time""
""fullscreenexit"",""6"",""21875""
","1097.9000000003725","","49","","","3000","1","","","images/tutgreenplanet.jpg","images/tutalien2","images/tutalien1","images/tutrocket2","images/tutalien1","images/nothing.png","2","practice","true","1","common","0","2022-05-31 01:54:11.758"
"two-step-fixation","63","232958","0.0-61.0-2.0","1457","2008","14","Female","true","false","false","true","""event"",""trial"",""time""
""focus"",""0"",""0""
""fullscreenenter"",""5"",""13578""
""fullscreenexit"",""6"",""21875""
""blur"",""6"",""23211""
""focus"",""6"",""25700""
""blur"",""7"",""31822""
""focus"",""7"",""35837""
""blur"",""8"",""68478""
""focus"",""8"",""71212""
","""event"",""trial"",""time""
""blur"",""6"",""23211""
""blur"",""7"",""31822""
""blur"",""8"",""68478""
","""event"",""trial"",""time""
""focus"",""0"",""0""
""focus"",""6"",""25700""
""focus"",""7"",""35837""
""focus"",""8"",""71212""
","""event"",""trial"",""time""
""fullscreenenter"",""5"",""13578""
","""event"",""trial"",""time""
""fullscreenexit"",""6"",""21875""
","","images/earth.jpg","","","","","","","","","","","","","","fixation","","","","","",""
"d3-animate-choice","64","235548","0.0-61.0-0.1","1457","2008","14","Female","true","false","false","true","""event"",""trial"",""time""
""focus"",""0"",""0""
""fullscreenenter"",""5"",""13578""
""fullscreenexit"",""6"",""21875""
""blur"",""6"",""23211""
""focus"",""6"",""25700""
""blur"",""7"",""31822""
""focus"",""7"",""35837""
""blur"",""8"",""68478""
""focus"",""8"",""71212""
","""event"",""trial"",""time""
""blur"",""6"",""23211""
""blur"",""7"",""31822""
""blur"",""8"",""68478""
","""event"",""trial"",""time""
""focus"",""0"",""0""
""focus"",""6"",""25700""
""focus"",""7"",""35837""
""focus"",""8"",""71212""
","""event"",""trial"",""time""
""fullscreenenter"",""5"",""13578""
","""event"",""trial"",""time""
""fullscreenexit"",""6"",""21875""
","577.5999999996275","","48","","","3000","1","","","images/earth.jpg","images/tutrocket1","images/tutrocket2","null","images/tutrocket1","","1","practice","null","2","","",""
"d3-animate-choice","65","237912","0.0-61.0-1.1","1457","2008","14","Female","true","false","false","true","""event"",""trial"",""time""
""focus"",""0"",""0""
""fullscreenenter"",""5"",""13578""
""fullscreenexit"",""6"",""21875""
""blur"",""6"",""23211""
""focus"",""6"",""25700""
""blur"",""7"",""31822""
""focus"",""7"",""35837""
""blur"",""8"",""68478""
""focus"",""8"",""71212""
","""event"",""trial"",""time""
""blur"",""6"",""23211""
""blur"",""7"",""31822""
""blur"",""8"",""68478""
","""event"",""trial"",""time""
""focus"",""0"",""0""
""focus"",""6"",""25700""
""focus"",""7"",""35837""
""focus"",""8"",""71212""
","""event"",""trial"",""time""
""fullscreenenter"",""5"",""13578""
","""event"",""trial"",""time""
""fullscreenexit"",""6"",""21875""
","348.80000000074506","","48","","","3000","1","","","images/tutyellowplanet.jpg","images/tutalien4","images/tutalien3","images/tutrocket1","images/tutalien4","images/nothing.png","2","practice","true","2","common","0","2022-05-31 01:54:17.723"
"two-step-fixation","66","238919","0.0-61.0-2.1","1457","2008","14","Female","true","false","false","true","""event"",""trial"",""time""
""focus"",""0"",""0""
""fullscreenenter"",""5"",""13578""
""fullscreenexit"",""6"",""21875""
""blur"",""6"",""23211""
""focus"",""6"",""25700""
""blur"",""7"",""31822""
""focus"",""7"",""35837""
""blur"",""8"",""68478""
""focus"",""8"",""71212""
","""event"",""trial"",""time""
""blur"",""6"",""23211""
""blur"",""7"",""31822""
""blur"",""8"",""68478""
","""event"",""trial"",""time""
""focus"",""0"",""0""
""focus"",""6"",""25700""
""focus"",""7"",""35837""
""focus"",""8"",""71212""
","""event"",""trial"",""time""
""fullscreenenter"",""5"",""13578""
","""event"",""trial"",""time""
""fullscreenexit"",""6"",""21875""
","","images/earth.jpg","","","","","","","","","","","","","","fixation","","","","","",""
"d3-animate-choice","67","240937","0.0-61.0-0.2","1457","2008","14","Female","true","false","false","true","""event"",""trial"",""time""
""focus"",""0"",""0""
""fullscreenenter"",""5"",""13578""
""fullscreenexit"",""6"",""21875""
""blur"",""6"",""23211""
""focus"",""6"",""25700""
""blur"",""7"",""31822""
""focus"",""7"",""35837""
""blur"",""8"",""68478""
""focus"",""8"",""71212""
","""event"",""trial"",""time""
""blur"",""6"",""23211""
""blur"",""7"",""31822""
""blur"",""8"",""68478""
","""event"",""trial"",""time""
""focus"",""0"",""0""
""focus"",""6"",""25700""
""focus"",""7"",""35837""
""focus"",""8"",""71212""
","""event"",""trial"",""time""
""fullscreenenter"",""5"",""13578""
","""event"",""trial"",""time""
""fullscreenexit"",""6"",""21875""
","0.39999999944120646","","49","","","3000","1","","","images/earth.jpg","images/tutrocket1","images/tutrocket2","null","images/tutrocket2","","1","practice","null","1","","",""
"d3-animate-choice","68","243360","0.0-61.0-1.2","1457","2008","14","Female","true","false","false","true","""event"",""trial"",""time""
""focus"",""0"",""0""
""fullscreenenter"",""5"",""13578""
""fullscreenexit"",""6"",""21875""
""blur"",""6"",""23211""
""focus"",""6"",""25700""
""blur"",""7"",""31822""
""focus"",""7"",""35837""
""blur"",""8"",""68478""
""focus"",""8"",""71212""
","""event"",""trial"",""time""
""blur"",""6"",""23211""
""blur"",""7"",""31822""
""blur"",""8"",""68478""
","""event"",""trial"",""time""
""focus"",""0"",""0""
""focus"",""6"",""25700""
""focus"",""7"",""35837""
""focus"",""8"",""71212""
","""event"",""trial"",""time""
""fullscreenenter"",""5"",""13578""
","""event"",""trial"",""time""
""fullscreenexit"",""6"",""21875""
","409.20000000018626","","49","","","3000","1","","","images/tutgreenplanet.jpg","images/tutalien2","images/tutalien1","images/tutrocket2","images/tutalien1","images/t.png","2","practice","true","1","common","1","2022-05-31 01:54:23.171"
"two-step-fixation","69","244368","0.0-61.0-2.2","1457","2008","14","Female","true","false","false","true","""event"",""trial"",""time""
""focus"",""0"",""0""
""fullscreenenter"",""5"",""13578""
""fullscreenexit"",""6"",""21875""
""blur"",""6"",""23211""
""focus"",""6"",""25700""
""blur"",""7"",""31822""
""focus"",""7"",""35837""
""blur"",""8"",""68478""
""focus"",""8"",""71212""
","""event"",""trial"",""time""
""blur"",""6"",""23211""
""blur"",""7"",""31822""
""blur"",""8"",""68478""
","""event"",""trial"",""time""
""focus"",""0"",""0""
""focus"",""6"",""25700""
""focus"",""7"",""35837""
""focus"",""8"",""71212""
","""event"",""trial"",""time""
""fullscreenenter"",""5"",""13578""
","""event"",""trial"",""time""
""fullscreenexit"",""6"",""21875""
","","images/earth.jpg","","","","","","","","","","","","","","fixation","","","","","",""
"d3-animate-choice","70","246957","0.0-61.0-0.3","1457","2008","14","Female","true","false","false","true","""event"",""trial"",""time""
""focus"",""0"",""0""
""fullscreenenter"",""5"",""13578""
""fullscreenexit"",""6"",""21875""
""blur"",""6"",""23211""
""focus"",""6"",""25700""
""blur"",""7"",""31822""
""focus"",""7"",""35837""
""blur"",""8"",""68478""
""focus"",""8"",""71212""
","""event"",""trial"",""time""
""blur"",""6"",""23211""
""blur"",""7"",""31822""
""blur"",""8"",""68478""
","""event"",""trial"",""time""
""focus"",""0"",""0""
""focus"",""6"",""25700""
""focus"",""7"",""35837""
""focus"",""8"",""71212""
","""event"",""trial"",""time""
""fullscreenenter"",""5"",""13578""
","""event"",""trial"",""time""
""fullscreenexit"",""6"",""21875""
","570.2999999998137","","49","","","3000","1","","","images/earth.jpg","images/tutrocket1","images/tutrocket2","null","images/tutrocket2","","1","practice","null","1","","",""
"d3-animate-choice","71","249311","0.0-61.0-1.3","1457","2008","14","Female","true","false","false","true","""event"",""trial"",""time""
""focus"",""0"",""0""
""fullscreenenter"",""5"",""13578""
""fullscreenexit"",""6"",""21875""
""blur"",""6"",""23211""
""focus"",""6"",""25700""
""blur"",""7"",""31822""
""focus"",""7"",""35837""
""blur"",""8"",""68478""
""focus"",""8"",""71212""
","""event"",""trial"",""time""
""blur"",""6"",""23211""
""blur"",""7"",""31822""
""blur"",""8"",""68478""
","""event"",""trial"",""time""
""focus"",""0"",""0""
""focus"",""6"",""25700""
""focus"",""7"",""35837""
""focus"",""8"",""71212""
","""event"",""trial"",""time""
""fullscreenenter"",""5"",""13578""
","""event"",""trial"",""time""
""fullscreenexit"",""6"",""21875""
","339.09999999962747","","49","","","3000","1","","","images/tutgreenplanet.jpg","images/tutalien2","images/tutalien1","images/tutrocket2","images/tutalien1","images/nothing.png","2","practice","true","1","common","0","2022-05-31 01:54:29.122"
"two-step-fixation","72","250318","0.0-61.0-2.3","1457","2008","14","Female","true","false","false","true","""event"",""trial"",""time""
""focus"",""0"",""0""
""fullscreenenter"",""5"",""13578""
""fullscreenexit"",""6"",""21875""
""blur"",""6"",""23211""
""focus"",""6"",""25700""
""blur"",""7"",""31822""
""focus"",""7"",""35837""
""blur"",""8"",""68478""
""focus"",""8"",""71212""
","""event"",""trial"",""time""
""blur"",""6"",""23211""
""blur"",""7"",""31822""
""blur"",""8"",""68478""
","""event"",""trial"",""time""
""focus"",""0"",""0""
""focus"",""6"",""25700""
""focus"",""7"",""35837""
""focus"",""8"",""71212""
","""event"",""trial"",""time""
""fullscreenenter"",""5"",""13578""
","""event"",""trial"",""time""
""fullscreenexit"",""6"",""21875""
","","images/earth.jpg","","","","","","","","","","","","","","fixation","","","","","",""
"d3-animate-choice","73","252630","0.0-61.0-0.4","1457","2008","14","Female","true","false","false","true","""event"",""trial"",""time""
""focus"",""0"",""0""
""fullscreenenter"",""5"",""13578""
""fullscreenexit"",""6"",""21875""
""blur"",""6"",""23211""
""focus"",""6"",""25700""
""blur"",""7"",""31822""
""focus"",""7"",""35837""
""blur"",""8"",""68478""
""focus"",""8"",""71212""
","""event"",""trial"",""time""
""blur"",""6"",""23211""
""blur"",""7"",""31822""
""blur"",""8"",""68478""
","""event"",""trial"",""time""
""focus"",""0"",""0""
""focus"",""6"",""25700""
""focus"",""7"",""35837""
""focus"",""8"",""71212""
","""event"",""trial"",""time""
""fullscreenenter"",""5"",""13578""
","""event"",""trial"",""time""
""fullscreenexit"",""6"",""21875""
","291.79999999981374","","48","","","3000","1","","","images/earth.jpg","images/tutrocket1","images/tutrocket2","null","images/tutrocket1","","1","practice","null","2","","",""
"d3-animate-choice","74","255046","0.0-61.0-1.4","1457","2008","14","Female","true","false","false","true","""event"",""trial"",""time""
""focus"",""0"",""0""
""fullscreenenter"",""5"",""13578""
""fullscreenexit"",""6"",""21875""
""blur"",""6"",""23211""
""focus"",""6"",""25700""
""blur"",""7"",""31822""
""focus"",""7"",""35837""
""blur"",""8"",""68478""
""focus"",""8"",""71212""
","""event"",""trial"",""time""
""blur"",""6"",""23211""
""blur"",""7"",""31822""
""blur"",""8"",""68478""
","""event"",""trial"",""time""
""focus"",""0"",""0""
""focus"",""6"",""25700""
""focus"",""7"",""35837""
""focus"",""8"",""71212""
","""event"",""trial"",""time""
""fullscreenenter"",""5"",""13578""
","""event"",""trial"",""time""
""fullscreenexit"",""6"",""21875""
","401.09999999962747","","49","","","3000","1","","","images/tutgreenplanet.jpg","images/tutalien2","images/tutalien1","images/tutrocket1","images/tutalien1","images/nothing.png","2","practice","false","1","rare","0","2022-05-31 01:54:34.857"
"two-step-fixation","75","256055","0.0-61.0-2.4","1457","2008","14","Female","true","false","false","true","""event"",""trial"",""time""
""focus"",""0"",""0""
""fullscreenenter"",""5"",""13578""
""fullscreenexit"",""6"",""21875""
""blur"",""6"",""23211""
""focus"",""6"",""25700""
""blur"",""7"",""31822""
""focus"",""7"",""35837""
""blur"",""8"",""68478""
""focus"",""8"",""71212""
","""event"",""trial"",""time""
""blur"",""6"",""23211""
""blur"",""7"",""31822""
""blur"",""8"",""68478""
","""event"",""trial"",""time""
""focus"",""0"",""0""
""focus"",""6"",""25700""
""focus"",""7"",""35837""
""focus"",""8"",""71212""
","""event"",""trial"",""time""
""fullscreenenter"",""5"",""13578""
","""event"",""trial"",""time""
""fullscreenexit"",""6"",""21875""
","","images/earth.jpg","","","","","","","","","","","","","","fixation","","","","","",""
"d3-animate-choice","76","258420","0.0-61.0-0.5","1457","2008","14","Female","true","false","false","true","""event"",""trial"",""time""
""focus"",""0"",""0""
""fullscreenenter"",""5"",""13578""
""fullscreenexit"",""6"",""21875""
""blur"",""6"",""23211""
""focus"",""6"",""25700""
""blur"",""7"",""31822""
""focus"",""7"",""35837""
""blur"",""8"",""68478""
""focus"",""8"",""71212""
","""event"",""trial"",""time""
""blur"",""6"",""23211""
""blur"",""7"",""31822""
""blur"",""8"",""68478""
","""event"",""trial"",""time""
""focus"",""0"",""0""
""focus"",""6"",""25700""
""focus"",""7"",""35837""
""focus"",""8"",""71212""
","""event"",""trial"",""time""
""fullscreenenter"",""5"",""13578""
","""event"",""trial"",""time""
""fullscreenexit"",""6"",""21875""
","349.8999999994412","","49","","","3000","1","","","images/earth.jpg","images/tutrocket1","images/tutrocket2","null","images/tutrocket2","","1","practice","null","1","","",""
"d3-animate-choice","77","261013","0.0-61.0-1.5","1457","2008","14","Female","true","false","false","true","""event"",""trial"",""time""
""focus"",""0"",""0""
""fullscreenenter"",""5"",""13578""
""fullscreenexit"",""6"",""21875""
""blur"",""6"",""23211""
""focus"",""6"",""25700""
""blur"",""7"",""31822""
""focus"",""7"",""35837""
""blur"",""8"",""68478""
""focus"",""8"",""71212""
","""event"",""trial"",""time""
""blur"",""6"",""23211""
""blur"",""7"",""31822""
""blur"",""8"",""68478""
","""event"",""trial"",""time""
""focus"",""0"",""0""
""focus"",""6"",""25700""
""focus"",""7"",""35837""
""focus"",""8"",""71212""
","""event"",""trial"",""time""
""fullscreenenter"",""5"",""13578""
","""event"",""trial"",""time""
""fullscreenexit"",""6"",""21875""
","580.2999999998137","","49","","","3000","1","","","images/tutyellowplanet.jpg","images/tutalien4","images/tutalien3","images/tutrocket2","images/tutalien3","images/nothing.png","2","practice","false","1","rare","0","2022-05-31 01:54:40.824"
"two-step-fixation","78","262025","0.0-61.0-2.5","1457","2008","14","Female","true","false","false","true","""event"",""trial"",""time""
""focus"",""0"",""0""
""fullscreenenter"",""5"",""13578""
""fullscreenexit"",""6"",""21875""
""blur"",""6"",""23211""
""focus"",""6"",""25700""
""blur"",""7"",""31822""
""focus"",""7"",""35837""
""blur"",""8"",""68478""
""focus"",""8"",""71212""
","""event"",""trial"",""time""
""blur"",""6"",""23211""
""blur"",""7"",""31822""
""blur"",""8"",""68478""
","""event"",""trial"",""time""
""focus"",""0"",""0""
""focus"",""6"",""25700""
""focus"",""7"",""35837""
""focus"",""8"",""71212""
","""event"",""trial"",""time""
""fullscreenenter"",""5"",""13578""
","""event"",""trial"",""time""
""fullscreenexit"",""6"",""21875""
","","images/earth.jpg","","","","","","","","","","","","","","fixation","","","","","",""
"d3-animate-choice","79","264358","0.0-61.0-0.6","1457","2008","14","Female","true","false","false","true","""event"",""trial"",""time""
""focus"",""0"",""0""
""fullscreenenter"",""5"",""13578""
""fullscreenexit"",""6"",""21875""
""blur"",""6"",""23211""
""focus"",""6"",""25700""
""blur"",""7"",""31822""
""focus"",""7"",""35837""
""blur"",""8"",""68478""
""focus"",""8"",""71212""
","""event"",""trial"",""time""
""blur"",""6"",""23211""
""blur"",""7"",""31822""
""blur"",""8"",""68478""
","""event"",""trial"",""time""
""focus"",""0"",""0""
""focus"",""6"",""25700""
""focus"",""7"",""35837""
""focus"",""8"",""71212""
","""event"",""trial"",""time""
""fullscreenenter"",""5"",""13578""
","""event"",""trial"",""time""
""fullscreenexit"",""6"",""21875""
","316.20000000018626","","49","","","3000","1","2130.0999999996275","49","images/earth.jpg","images/tutrocket1","images/tutrocket2","null","images/tutrocket2","","1","practice","null","1","","",""
"d3-animate-choice","80","266992","0.0-61.0-1.6","1457","2008","14","Female","true","false","false","true","""event"",""trial"",""time""
""focus"",""0"",""0""
""fullscreenenter"",""5"",""13578""
""fullscreenexit"",""6"",""21875""
""blur"",""6"",""23211""
""focus"",""6"",""25700""
""blur"",""7"",""31822""
""focus"",""7"",""35837""
""blur"",""8"",""68478""
""focus"",""8"",""71212""
","""event"",""trial"",""time""
""blur"",""6"",""23211""
""blur"",""7"",""31822""
""blur"",""8"",""68478""
","""event"",""trial"",""time""
""focus"",""0"",""0""
""focus"",""6"",""25700""
""focus"",""7"",""35837""
""focus"",""8"",""71212""
","""event"",""trial"",""time""
""fullscreenenter"",""5"",""13578""
","""event"",""trial"",""time""
""fullscreenexit"",""6"",""21875""
","619.9000000003725","","49","","","3000","1","","","images/tutgreenplanet.jpg","images/tutalien2","images/tutalien1","images/tutrocket2","images/tutalien1","images/nothing.png","2","practice","true","1","common","0","2022-05-31 01:54:46.803"
"two-step-fixation","81","268000","0.0-61.0-2.6","1457","2008","14","Female","true","false","false","true","""event"",""trial"",""time""
""focus"",""0"",""0""
""fullscreenenter"",""5"",""13578""
""fullscreenexit"",""6"",""21875""
""blur"",""6"",""23211""
""focus"",""6"",""25700""
""blur"",""7"",""31822""
""focus"",""7"",""35837""
""blur"",""8"",""68478""
""focus"",""8"",""71212""
","""event"",""trial"",""time""
""blur"",""6"",""23211""
""blur"",""7"",""31822""
""blur"",""8"",""68478""
","""event"",""trial"",""time""
""focus"",""0"",""0""
""focus"",""6"",""25700""
""focus"",""7"",""35837""
""focus"",""8"",""71212""
","""event"",""trial"",""time""
""fullscreenenter"",""5"",""13578""
","""event"",""trial"",""time""
""fullscreenexit"",""6"",""21875""
","","images/earth.jpg","","","","","","","","","","","","","","fixation","","","","","",""
"d3-animate-choice","82","270344","0.0-61.0-0.7","1457","2008","14","Female","true","false","false","true","""event"",""trial"",""time""
""focus"",""0"",""0""
""fullscreenenter"",""5"",""13578""
""fullscreenexit"",""6"",""21875""
""blur"",""6"",""23211""
""focus"",""6"",""25700""
""blur"",""7"",""31822""
""focus"",""7"",""35837""
""blur"",""8"",""68478""
""focus"",""8"",""71212""
","""event"",""trial"",""time""
""blur"",""6"",""23211""
""blur"",""7"",""31822""
""blur"",""8"",""68478""
","""event"",""trial"",""time""
""focus"",""0"",""0""
""focus"",""6"",""25700""
""focus"",""7"",""35837""
""focus"",""8"",""71212""
","""event"",""trial"",""time""
""fullscreenenter"",""5"",""13578""
","""event"",""trial"",""time""
""fullscreenexit"",""6"",""21875""
","324.70000000018626","","49","","","3000","1","","","images/earth.jpg","images/tutrocket1","images/tutrocket2","null","images/tutrocket2","","1","practice","null","1","","",""
"d3-animate-choice","83","272949","0.0-61.0-1.7","1457","2008","14","Female","true","false","false","true","""event"",""trial"",""time""
""focus"",""0"",""0""
""fullscreenenter"",""5"",""13578""
""fullscreenexit"",""6"",""21875""
""blur"",""6"",""23211""
""focus"",""6"",""25700""
""blur"",""7"",""31822""
""focus"",""7"",""35837""
""blur"",""8"",""68478""
""focus"",""8"",""71212""
","""event"",""trial"",""time""
""blur"",""6"",""23211""
""blur"",""7"",""31822""
""blur"",""8"",""68478""
","""event"",""trial"",""time""
""focus"",""0"",""0""
""focus"",""6"",""25700""
""focus"",""7"",""35837""
""focus"",""8"",""71212""
","""event"",""trial"",""time""
""fullscreenenter"",""5"",""13578""
","""event"",""trial"",""time""
""fullscreenexit"",""6"",""21875""
","586.7000000001863","","49","","","3000","1","","","images/tutgreenplanet.jpg","images/tutalien2","images/tutalien1","images/tutrocket2","images/tutalien1","images/nothing.png","2","practice","true","1","common","0","2022-05-31 01:54:52.760"
"two-step-fixation","84","273961","0.0-61.0-2.7","1457","2008","14","Female","true","false","false","true","""event"",""trial"",""time""
""focus"",""0"",""0""
""fullscreenenter"",""5"",""13578""
""fullscreenexit"",""6"",""21875""
""blur"",""6"",""23211""
""focus"",""6"",""25700""
""blur"",""7"",""31822""
""focus"",""7"",""35837""
""blur"",""8"",""68478""
""focus"",""8"",""71212""
","""event"",""trial"",""time""
""blur"",""6"",""23211""
""blur"",""7"",""31822""
""blur"",""8"",""68478""
","""event"",""trial"",""time""
""focus"",""0"",""0""
""focus"",""6"",""25700""
""focus"",""7"",""35837""
""focus"",""8"",""71212""
","""event"",""trial"",""time""
""fullscreenenter"",""5"",""13578""
","""event"",""trial"",""time""
""fullscreenexit"",""6"",""21875""
","","images/earth.jpg","","","","","","","","","","","","","","fixation","","","","","",""
"d3-animate-choice","85","276246","0.0-61.0-0.8","1457","2008","14","Female","true","false","false","true","""event"",""trial"",""time""
""focus"",""0"",""0""
""fullscreenenter"",""5"",""13578""
""fullscreenexit"",""6"",""21875""
""blur"",""6"",""23211""
""focus"",""6"",""25700""
""blur"",""7"",""31822""
""focus"",""7"",""35837""
""blur"",""8"",""68478""
""focus"",""8"",""71212""
","""event"",""trial"",""time""
""blur"",""6"",""23211""
""blur"",""7"",""31822""
""blur"",""8"",""68478""
","""event"",""trial"",""time""
""focus"",""0"",""0""
""focus"",""6"",""25700""
""focus"",""7"",""35837""
""focus"",""8"",""71212""
","""event"",""trial"",""time""
""fullscreenenter"",""5"",""13578""
","""event"",""trial"",""time""
""fullscreenexit"",""6"",""21875""
","266.6000000005588","","48","","","3000","1","","","images/earth.jpg","images/tutrocket1","images/tutrocket2","null","images/tutrocket1","","1","practice","null","2","","",""
"d3-animate-choice","86","278946","0.0-61.0-1.8","1457","2008","14","Female","true","false","false","true","""event"",""trial"",""time""
""focus"",""0"",""0""
""fullscreenenter"",""5"",""13578""
""fullscreenexit"",""6"",""21875""
""blur"",""6"",""23211""
""focus"",""6"",""25700""
""blur"",""7"",""31822""
""focus"",""7"",""35837""
""blur"",""8"",""68478""
""focus"",""8"",""71212""
","""event"",""trial"",""time""
""blur"",""6"",""23211""
""blur"",""7"",""31822""
""blur"",""8"",""68478""
","""event"",""trial"",""time""
""focus"",""0"",""0""
""focus"",""6"",""25700""
""focus"",""7"",""35837""
""focus"",""8"",""71212""
","""event"",""trial"",""time""
""fullscreenenter"",""5"",""13578""
","""event"",""trial"",""time""
""fullscreenexit"",""6"",""21875""
","685.1000000005588","","48","","","3000","1","","","images/tutgreenplanet.jpg","images/tutalien2","images/tutalien1","images/tutrocket1","images/tutalien2","images/t.png","2","practice","false","2","rare","1","2022-05-31 01:54:58.757"
"two-step-fixation","87","279957","0.0-61.0-2.8","1457","2008","14","Female","true","false","false","true","""event"",""trial"",""time""
""focus"",""0"",""0""
""fullscreenenter"",""5"",""13578""
""fullscreenexit"",""6"",""21875""
""blur"",""6"",""23211""
""focus"",""6"",""25700""
""blur"",""7"",""31822""
""focus"",""7"",""35837""
""blur"",""8"",""68478""
""focus"",""8"",""71212""
","""event"",""trial"",""time""
""blur"",""6"",""23211""
""blur"",""7"",""31822""
""blur"",""8"",""68478""
","""event"",""trial"",""time""
""focus"",""0"",""0""
""focus"",""6"",""25700""
""focus"",""7"",""35837""
""focus"",""8"",""71212""
","""event"",""trial"",""time""
""fullscreenenter"",""5"",""13578""
","""event"",""trial"",""time""
""fullscreenexit"",""6"",""21875""
","","images/earth.jpg","","","","","","","","","","","","","","fixation","","","","","",""
"d3-animate-choice","88","282443","0.0-61.0-0.9","1457","2008","14","Female","true","false","false","true","""event"",""trial"",""time""
""focus"",""0"",""0""
""fullscreenenter"",""5"",""13578""
""fullscreenexit"",""6"",""21875""
""blur"",""6"",""23211""
""focus"",""6"",""25700""
""blur"",""7"",""31822""
""focus"",""7"",""35837""
""blur"",""8"",""68478""
""focus"",""8"",""71212""
","""event"",""trial"",""time""
""blur"",""6"",""23211""
""blur"",""7"",""31822""
""blur"",""8"",""68478""
","""event"",""trial"",""time""
""focus"",""0"",""0""
""focus"",""6"",""25700""
""focus"",""7"",""35837""
""focus"",""8"",""71212""
","""event"",""trial"",""time""
""fullscreenenter"",""5"",""13578""
","""event"",""trial"",""time""
""fullscreenexit"",""6"",""21875""
","473.29999999981374","","49","","","3000","1","","","images/earth.jpg","images/tutrocket1","images/tutrocket2","null","images/tutrocket2","","1","practice","null","1","","",""
"d3-animate-choice","89","284888","0.0-61.0-1.9","1457","2008","14","Female","true","false","false","true","""event"",""trial"",""time""
""focus"",""0"",""0""
""fullscreenenter"",""5"",""13578""
""fullscreenexit"",""6"",""21875""
""blur"",""6"",""23211""
""focus"",""6"",""25700""
""blur"",""7"",""31822""
""focus"",""7"",""35837""
""blur"",""8"",""68478""
""focus"",""8"",""71212""
","""event"",""trial"",""time""
""blur"",""6"",""23211""
""blur"",""7"",""31822""
""blur"",""8"",""68478""
","""event"",""trial"",""time""
""focus"",""0"",""0""
""focus"",""6"",""25700""
""focus"",""7"",""35837""
""focus"",""8"",""71212""
","""event"",""trial"",""time""
""fullscreenenter"",""5"",""13578""
","""event"",""trial"",""time""
""fullscreenexit"",""6"",""21875""
","424.8999999994412","","49","","","3000","1","594.8999999994412","49","images/tutyellowplanet.jpg","images/tutalien4","images/tutalien3","images/tutrocket2","images/tutalien3","images/t.png","2","practice","false","1","rare","1","2022-05-31 01:55:04.699"
"two-step-fixation","90","285899","0.0-61.0-2.9","1457","2008","14","Female","true","false","false","true","""event"",""trial"",""time""
""focus"",""0"",""0""
""fullscreenenter"",""5"",""13578""
""fullscreenexit"",""6"",""21875""
""blur"",""6"",""23211""
""focus"",""6"",""25700""
""blur"",""7"",""31822""
""focus"",""7"",""35837""
""blur"",""8"",""68478""
""focus"",""8"",""71212""
","""event"",""trial"",""time""
""blur"",""6"",""23211""
""blur"",""7"",""31822""
""blur"",""8"",""68478""
","""event"",""trial"",""time""
""focus"",""0"",""0""
""focus"",""6"",""25700""
""focus"",""7"",""35837""
""focus"",""8"",""71212""
","""event"",""trial"",""time""
""fullscreenenter"",""5"",""13578""
","""event"",""trial"",""time""
""fullscreenexit"",""6"",""21875""
","","images/earth.jpg","","","","","","","","","","","","","","fixation","","","","","",""
"d3-animate-choice","91","287934","0.0-61.0-0.10","1457","2008","14","Female","true","false","false","true","""event"",""trial"",""time""
""focus"",""0"",""0""
""fullscreenenter"",""5"",""13578""
""fullscreenexit"",""6"",""21875""
""blur"",""6"",""23211""
""focus"",""6"",""25700""
""blur"",""7"",""31822""
""focus"",""7"",""35837""
""blur"",""8"",""68478""
""focus"",""8"",""71212""
","""event"",""trial"",""time""
""blur"",""6"",""23211""
""blur"",""7"",""31822""
""blur"",""8"",""68478""
","""event"",""trial"",""time""
""focus"",""0"",""0""
""focus"",""6"",""25700""
""focus"",""7"",""35837""
""focus"",""8"",""71212""
","""event"",""trial"",""time""
""fullscreenenter"",""5"",""13578""
","""event"",""trial"",""time""
""fullscreenexit"",""6"",""21875""
","23.399999999441206","","48","","","3000","1","260.59999999962747,564.8999999994412","48,48","images/earth.jpg","images/tutrocket1","images/tutrocket2","null","images/tutrocket1","","1","practice","null","2","","",""
"d3-animate-choice","92","290332","0.0-61.0-1.10","1457","2008","14","Female","true","false","false","true","""event"",""trial"",""time""
""focus"",""0"",""0""
""fullscreenenter"",""5"",""13578""
""fullscreenexit"",""6"",""21875""
""blur"",""6"",""23211""
""focus"",""6"",""25700""
""blur"",""7"",""31822""
""focus"",""7"",""35837""
""blur"",""8"",""68478""
""focus"",""8"",""71212""
","""event"",""trial"",""time""
""blur"",""6"",""23211""
""blur"",""7"",""31822""
""blur"",""8"",""68478""
","""event"",""trial"",""time""
""focus"",""0"",""0""
""focus"",""6"",""25700""
""focus"",""7"",""35837""
""focus"",""8"",""71212""
","""event"",""trial"",""time""
""fullscreenenter"",""5"",""13578""
","""event"",""trial"",""time""
""fullscreenexit"",""6"",""21875""
","387.40000000037253","","48","","","3000","1","","","images/tutyellowplanet.jpg","images/tutalien4","images/tutalien3","images/tutrocket1","images/tutalien4","images/nothing.png","2","practice","true","2","common","0","2022-05-31 01:55:10.143"
"two-step-fixation","93","291342","0.0-61.0-2.10","1457","2008","14","Female","true","false","false","true","""event"",""trial"",""time""
""focus"",""0"",""0""
""fullscreenenter"",""5"",""13578""
""fullscreenexit"",""6"",""21875""
""blur"",""6"",""23211""
""focus"",""6"",""25700""
""blur"",""7"",""31822""
""focus"",""7"",""35837""
""blur"",""8"",""68478""
""focus"",""8"",""71212""
","""event"",""trial"",""time""
""blur"",""6"",""23211""
""blur"",""7"",""31822""
""blur"",""8"",""68478""
","""event"",""trial"",""time""
""focus"",""0"",""0""
""focus"",""6"",""25700""
""focus"",""7"",""35837""
""focus"",""8"",""71212""
","""event"",""trial"",""time""
""fullscreenenter"",""5"",""13578""
","""event"",""trial"",""time""
""fullscreenexit"",""6"",""21875""
","","images/earth.jpg","","","","","","","","","","","","","","fixation","","","","","",""
"d3-animate-choice","94","293681","0.0-61.0-0.11","1457","2008","14","Female","true","false","false","true","""event"",""trial"",""time""
""focus"",""0"",""0""
""fullscreenenter"",""5"",""13578""
""fullscreenexit"",""6"",""21875""
""blur"",""6"",""23211""
""focus"",""6"",""25700""
""blur"",""7"",""31822""
""focus"",""7"",""35837""
""blur"",""8"",""68478""
""focus"",""8"",""71212""
","""event"",""trial"",""time""
""blur"",""6"",""23211""
""blur"",""7"",""31822""
""blur"",""8"",""68478""
","""event"",""trial"",""time""
""focus"",""0"",""0""
""focus"",""6"",""25700""
""focus"",""7"",""35837""
""focus"",""8"",""71212""
","""event"",""trial"",""time""
""fullscreenenter"",""5"",""13578""
","""event"",""trial"",""time""
""fullscreenexit"",""6"",""21875""
","319.5","","49","","","3000","1","","","images/earth.jpg","images/tutrocket1","images/tutrocket2","null","images/tutrocket2","","1","practice","null","1","","",""
"d3-animate-choice","95","296013","0.0-61.0-1.11","1457","2008","14","Female","true","false","false","true","""event"",""trial"",""time""
""focus"",""0"",""0""
""fullscreenenter"",""5"",""13578""
""fullscreenexit"",""6"",""21875""
""blur"",""6"",""23211""
""focus"",""6"",""25700""
""blur"",""7"",""31822""
""focus"",""7"",""35837""
""blur"",""8"",""68478""
""focus"",""8"",""71212""
","""event"",""trial"",""time""
""blur"",""6"",""23211""
""blur"",""7"",""31822""
""blur"",""8"",""68478""
","""event"",""trial"",""time""
""focus"",""0"",""0""
""focus"",""6"",""25700""
""focus"",""7"",""35837""
""focus"",""8"",""71212""
","""event"",""trial"",""time""
""fullscreenenter"",""5"",""13578""
","""event"",""trial"",""time""
""fullscreenexit"",""6"",""21875""
","319.79999999981374","","49","","","3000","1","","","images/tutgreenplanet.jpg","images/tutalien2","images/tutalien1","images/tutrocket2","images/tutalien1","images/nothing.png","2","practice","true","1","common","0","2022-05-31 01:55:15.825"
"two-step-fixation","96","297026","0.0-61.0-2.11","1457","2008","14","Female","true","false","false","true","""event"",""trial"",""time""
""focus"",""0"",""0""
""fullscreenenter"",""5"",""13578""
""fullscreenexit"",""6"",""21875""
""blur"",""6"",""23211""
""focus"",""6"",""25700""
""blur"",""7"",""31822""
""focus"",""7"",""35837""
""blur"",""8"",""68478""
""focus"",""8"",""71212""
","""event"",""trial"",""time""
""blur"",""6"",""23211""
""blur"",""7"",""31822""
""blur"",""8"",""68478""
","""event"",""trial"",""time""
""focus"",""0"",""0""
""focus"",""6"",""25700""
""focus"",""7"",""35837""
""focus"",""8"",""71212""
","""event"",""trial"",""time""
""fullscreenenter"",""5"",""13578""
","""event"",""trial"",""time""
""fullscreenexit"",""6"",""21875""
","","images/earth.jpg","","","","","","","","","","","","","","fixation","","","","","",""
"d3-animate-choice","97","299234","0.0-61.0-0.12","1457","2008","14","Female","true","false","false","true","""event"",""trial"",""time""
""focus"",""0"",""0""
""fullscreenenter"",""5"",""13578""
""fullscreenexit"",""6"",""21875""
""blur"",""6"",""23211""
""focus"",""6"",""25700""
""blur"",""7"",""31822""
""focus"",""7"",""35837""
""blur"",""8"",""68478""
""focus"",""8"",""71212""
","""event"",""trial"",""time""
""blur"",""6"",""23211""
""blur"",""7"",""31822""
""blur"",""8"",""68478""
","""event"",""trial"",""time""
""focus"",""0"",""0""
""focus"",""6"",""25700""
""focus"",""7"",""35837""
""focus"",""8"",""71212""
","""event"",""trial"",""time""
""fullscreenenter"",""5"",""13578""
","""event"",""trial"",""time""
""fullscreenexit"",""6"",""21875""
","193.90000000037253","","48","","","3000","1","535.9000000003725","48","images/earth.jpg","images/tutrocket1","images/tutrocket2","null","images/tutrocket1","","1","practice","null","2","","",""
"d3-animate-choice","98","301469","0.0-61.0-1.12","1457","2008","14","Female","true","false","false","true","""event"",""trial"",""time""
""focus"",""0"",""0""
""fullscreenenter"",""5"",""13578""
""fullscreenexit"",""6"",""21875""
""blur"",""6"",""23211""
""focus"",""6"",""25700""
""blur"",""7"",""31822""
""focus"",""7"",""35837""
""blur"",""8"",""68478""
""focus"",""8"",""71212""
","""event"",""trial"",""time""
""blur"",""6"",""23211""
""blur"",""7"",""31822""
""blur"",""8"",""68478""
","""event"",""trial"",""time""
""focus"",""0"",""0""
""focus"",""6"",""25700""
""focus"",""7"",""35837""
""focus"",""8"",""71212""
","""event"",""trial"",""time""
""fullscreenenter"",""5"",""13578""
","""event"",""trial"",""time""
""fullscreenexit"",""6"",""21875""
","216.80000000074506","","49","","","3000","1","615.3000000007451","49","images/tutyellowplanet.jpg","images/tutalien4","images/tutalien3","images/tutrocket1","images/tutalien3","images/t.png","2","practice","true","1","common","1","2022-05-31 01:55:21.281"
"two-step-fixation","99","302483","0.0-61.0-2.12","1457","2008","14","Female","true","false","false","true","""event"",""trial"",""time""
""focus"",""0"",""0""
""fullscreenenter"",""5"",""13578""
""fullscreenexit"",""6"",""21875""
""blur"",""6"",""23211""
""focus"",""6"",""25700""
""blur"",""7"",""31822""
""focus"",""7"",""35837""
""blur"",""8"",""68478""
""focus"",""8"",""71212""
","""event"",""trial"",""time""
""blur"",""6"",""23211""
""blur"",""7"",""31822""
""blur"",""8"",""68478""
","""event"",""trial"",""time""
""focus"",""0"",""0""
""focus"",""6"",""25700""
""focus"",""7"",""35837""
""focus"",""8"",""71212""
","""event"",""trial"",""time""
""fullscreenenter"",""5"",""13578""
","""event"",""trial"",""time""
""fullscreenexit"",""6"",""21875""
","","images/earth.jpg","","","","","","","","","","","","","","fixation","","","","","",""
"d3-animate-choice","100","304729","0.0-61.0-0.13","1457","2008","14","Female","true","false","false","true","""event"",""trial"",""time""
""focus"",""0"",""0""
""fullscreenenter"",""5"",""13578""
""fullscreenexit"",""6"",""21875""
""blur"",""6"",""23211""
""focus"",""6"",""25700""
""blur"",""7"",""31822""
""focus"",""7"",""35837""
""blur"",""8"",""68478""
""focus"",""8"",""71212""
","""event"",""trial"",""time""
""blur"",""6"",""23211""
""blur"",""7"",""31822""
""blur"",""8"",""68478""
","""event"",""trial"",""time""
""focus"",""0"",""0""
""focus"",""6"",""25700""
""focus"",""7"",""35837""
""focus"",""8"",""71212""
","""event"",""trial"",""time""
""fullscreenenter"",""5"",""13578""
","""event"",""trial"",""time""
""fullscreenexit"",""6"",""21875""
","233.1000000005588","","48","","","3000","1","","","images/earth.jpg","images/tutrocket1","images/tutrocket2","null","images/tutrocket1","","1","practice","null","2","","",""
"d3-animate-choice","101","306991","0.0-61.0-1.13","1457","2008","14","Female","true","false","false","true","""event"",""trial"",""time""
""focus"",""0"",""0""
""fullscreenenter"",""5"",""13578""
""fullscreenexit"",""6"",""21875""
""blur"",""6"",""23211""
""focus"",""6"",""25700""
""blur"",""7"",""31822""
""focus"",""7"",""35837""
""blur"",""8"",""68478""
""focus"",""8"",""71212""
","""event"",""trial"",""time""
""blur"",""6"",""23211""
""blur"",""7"",""31822""
""blur"",""8"",""68478""
","""event"",""trial"",""time""
""focus"",""0"",""0""
""focus"",""6"",""25700""
""focus"",""7"",""35837""
""focus"",""8"",""71212""
","""event"",""trial"",""time""
""fullscreenenter"",""5"",""13578""
","""event"",""trial"",""time""
""fullscreenexit"",""6"",""21875""
","250.70000000018626","","49","","","3000","1","","","images/tutyellowplanet.jpg","images/tutalien4","images/tutalien3","images/tutrocket1","images/tutalien3","images/nothing.png","2","practice","true","1","common","0","2022-05-31 01:55:26.803"
"two-step-fixation","102","308003","0.0-61.0-2.13","1457","2008","14","Female","true","false","false","true","""event"",""trial"",""time""
""focus"",""0"",""0""
""fullscreenenter"",""5"",""13578""
""fullscreenexit"",""6"",""21875""
""blur"",""6"",""23211""
""focus"",""6"",""25700""
""blur"",""7"",""31822""
""focus"",""7"",""35837""
""blur"",""8"",""68478""
""focus"",""8"",""71212""
","""event"",""trial"",""time""
""blur"",""6"",""23211""
""blur"",""7"",""31822""
""blur"",""8"",""68478""
","""event"",""trial"",""time""
""focus"",""0"",""0""
""focus"",""6"",""25700""
""focus"",""7"",""35837""
""focus"",""8"",""71212""
","""event"",""trial"",""time""
""fullscreenenter"",""5"",""13578""
","""event"",""trial"",""time""
""fullscreenexit"",""6"",""21875""
","","images/earth.jpg","","","","","","","","","","","","","","fixation","","","","","",""
"d3-animate-choice","103","310308","0.0-61.0-0.14","1457","2008","14","Female","true","false","false","true","""event"",""trial"",""time""
""focus"",""0"",""0""
""fullscreenenter"",""5"",""13578""
""fullscreenexit"",""6"",""21875""
""blur"",""6"",""23211""
""focus"",""6"",""25700""
""blur"",""7"",""31822""
""focus"",""7"",""35837""
""blur"",""8"",""68478""
""focus"",""8"",""71212""
","""event"",""trial"",""time""
""blur"",""6"",""23211""
""blur"",""7"",""31822""
""blur"",""8"",""68478""
","""event"",""trial"",""time""
""focus"",""0"",""0""
""focus"",""6"",""25700""
""focus"",""7"",""35837""
""focus"",""8"",""71212""
","""event"",""trial"",""time""
""fullscreenenter"",""5"",""13578""
","""event"",""trial"",""time""
""fullscreenexit"",""6"",""21875""
","289.70000000018626","","48","","","3000","1","","","images/earth.jpg","images/tutrocket1","images/tutrocket2","null","images/tutrocket1","","1","practice","null","2","","",""
"d3-animate-choice","104","312789","0.0-61.0-1.14","1457","2008","14","Female","true","false","false","true","""event"",""trial"",""time""
""focus"",""0"",""0""
""fullscreenenter"",""5"",""13578""
""fullscreenexit"",""6"",""21875""
""blur"",""6"",""23211""
""focus"",""6"",""25700""
""blur"",""7"",""31822""
""focus"",""7"",""35837""
""blur"",""8"",""68478""
""focus"",""8"",""71212""
","""event"",""trial"",""time""
""blur"",""6"",""23211""
""blur"",""7"",""31822""
""blur"",""8"",""68478""
","""event"",""trial"",""time""
""focus"",""0"",""0""
""focus"",""6"",""25700""
""focus"",""7"",""35837""
""focus"",""8"",""71212""
","""event"",""trial"",""time""
""fullscreenenter"",""5"",""13578""
","""event"",""trial"",""time""
""fullscreenexit"",""6"",""21875""
","463.5","","48","","","3000","1","","","images/tutgreenplanet.jpg","images/tutalien2","images/tutalien1","images/tutrocket1","images/tutalien2","images/nothing.png","2","practice","false","2","rare","0","2022-05-31 01:55:32.600"
"two-step-fixation","105","313799","0.0-61.0-2.14","1457","2008","14","Female","true","false","false","true","""event"",""trial"",""time""
""focus"",""0"",""0""
""fullscreenenter"",""5"",""13578""
""fullscreenexit"",""6"",""21875""
""blur"",""6"",""23211""
""focus"",""6"",""25700""
""blur"",""7"",""31822""
""focus"",""7"",""35837""
""blur"",""8"",""68478""
""focus"",""8"",""71212""
","""event"",""trial"",""time""
""blur"",""6"",""23211""
""blur"",""7"",""31822""
""blur"",""8"",""68478""
","""event"",""trial"",""time""
""focus"",""0"",""0""
""focus"",""6"",""25700""
""focus"",""7"",""35837""
""focus"",""8"",""71212""
","""event"",""trial"",""time""
""fullscreenenter"",""5"",""13578""
","""event"",""trial"",""time""
""fullscreenexit"",""6"",""21875""
","","images/earth.jpg","","","","","","","","","","","","","","fixation","","","","","",""
"d3-animate-choice","106","315899","0.0-61.0-0.15","1457","2008","14","Female","true","false","false","true","""event"",""trial"",""time""
""focus"",""0"",""0""
""fullscreenenter"",""5"",""13578""
""fullscreenexit"",""6"",""21875""
""blur"",""6"",""23211""
""focus"",""6"",""25700""
""blur"",""7"",""31822""
""focus"",""7"",""35837""
""blur"",""8"",""68478""
""focus"",""8"",""71212""
","""event"",""trial"",""time""
""blur"",""6"",""23211""
""blur"",""7"",""31822""
""blur"",""8"",""68478""
","""event"",""trial"",""time""
""focus"",""0"",""0""
""focus"",""6"",""25700""
""focus"",""7"",""35837""
""focus"",""8"",""71212""
","""event"",""trial"",""time""
""fullscreenenter"",""5"",""13578""
","""event"",""trial"",""time""
""fullscreenexit"",""6"",""21875""
","83.40000000037253","","49","","","3000","1","450.5","49","images/earth.jpg","images/tutrocket1","images/tutrocket2","null","images/tutrocket2","","1","practice","null","1","","",""
"d3-animate-choice","107","318281","0.0-61.0-1.15","1457","2008","14","Female","true","false","false","true","""event"",""trial"",""time""
""focus"",""0"",""0""
""fullscreenenter"",""5"",""13578""
""fullscreenexit"",""6"",""21875""
""blur"",""6"",""23211""
""focus"",""6"",""25700""
""blur"",""7"",""31822""
""focus"",""7"",""35837""
""blur"",""8"",""68478""
""focus"",""8"",""71212""
","""event"",""trial"",""time""
""blur"",""6"",""23211""
""blur"",""7"",""31822""
""blur"",""8"",""68478""
","""event"",""trial"",""time""
""focus"",""0"",""0""
""focus"",""6"",""25700""
""focus"",""7"",""35837""
""focus"",""8"",""71212""
","""event"",""trial"",""time""
""fullscreenenter"",""5"",""13578""
","""event"",""trial"",""time""
""fullscreenexit"",""6"",""21875""
","367.29999999981374","","48","","","3000","1","","","images/tutgreenplanet.jpg","images/tutalien2","images/tutalien1","images/tutrocket2","images/tutalien2","images/t.png","2","practice","true","2","common","1","2022-05-31 01:55:38.092"
"two-step-fixation","108","319292","0.0-61.0-2.15","1457","2008","14","Female","true","false","false","true","""event"",""trial"",""time""
""focus"",""0"",""0""
""fullscreenenter"",""5"",""13578""
""fullscreenexit"",""6"",""21875""
""blur"",""6"",""23211""
""focus"",""6"",""25700""
""blur"",""7"",""31822""
""focus"",""7"",""35837""
""blur"",""8"",""68478""
""focus"",""8"",""71212""
","""event"",""trial"",""time""
""blur"",""6"",""23211""
""blur"",""7"",""31822""
""blur"",""8"",""68478""
","""event"",""trial"",""time""
""focus"",""0"",""0""
""focus"",""6"",""25700""
""focus"",""7"",""35837""
""focus"",""8"",""71212""
","""event"",""trial"",""time""
""fullscreenenter"",""5"",""13578""
","""event"",""trial"",""time""
""fullscreenexit"",""6"",""21875""
","","images/earth.jpg","","","","","","","","","","","","","","fixation","","","","","",""
"d3-animate-choice","109","321524","0.0-61.0-0.16","1457","2008","14","Female","true","false","false","true","""event"",""trial"",""time""
""focus"",""0"",""0""
""fullscreenenter"",""5"",""13578""
""fullscreenexit"",""6"",""21875""
""blur"",""6"",""23211""
""focus"",""6"",""25700""
""blur"",""7"",""31822""
""focus"",""7"",""35837""
""blur"",""8"",""68478""
""focus"",""8"",""71212""
","""event"",""trial"",""time""
""blur"",""6"",""23211""
""blur"",""7"",""31822""
""blur"",""8"",""68478""
","""event"",""trial"",""time""
""focus"",""0"",""0""
""focus"",""6"",""25700""
""focus"",""7"",""35837""
""focus"",""8"",""71212""
