"trial_type","trial_index","time_elapsed","internal_node_id","participant_id","subject_id","age","gender","rocket_sides","red_planet_first_rocket","red_display_order","purple_display_order","interactions","blur_events","focus_events","fullscreenenter_events","fullscreenexit_events","rt","stimulus","key_press","button_pressed","success","duration","valid_pressed","rts","keys","planet_text","right_text","left_text","center_text","chosen_text","reward_text","trial_stage","practice_trial","transition_type","choice","transition","reward","timestamp"
"pavlovia","0","3","0.0-0.0","1456","3556","9","Female","true","false","false","true","
","
","
","
","
","","","","","","","","","","","","","","","","","","","","","",""
"html-keyboard-response","1","6334","0.0-1.0","1456","3556","9","Female","true","false","false","true","
","
","
","
","
","6330.600000023842","Welcome! Press the space bar to begin.","32","","","","","","","","","","","","","","","","","","",""
"audio-keyboard-response","2","11426","0.0-2.0","1456","3556","9","Female","true","false","false","true","
","
","
","
","
","4640","audio/beep_loop.wav","32","","","","","","","","","","","","","","","","","","",""
"audio-button-response","3","20068","0.0-3.0","1456","3556","9","Female","true","false","false","true","
","
","
","
","
","NaN","audio/fish.mp3","","1","","","","","","","","","","","","","","","","","",""
"audio-button-response","4","24465","0.0-4.0","1456","3556","9","Female","true","false","false","true","""event"",""trial"",""time""
""fullscreenenter"",""5"",""39040""
","
","
","""event"",""trial"",""time""
""fullscreenenter"",""5"",""39040""
","
","NaN","audio/tiger.mp3","","4","","","","","","","","","","","","","","","","","",""
"fullscreen","5","40026","0.0-5.0","1456","3556","9","Female","true","false","false","true","""event"",""trial"",""time""
""fullscreenenter"",""5"",""39040""
""blur"",""6"",""51361""
""fullscreenexit"",""6"",""51367""
""focus"",""6"",""51370""
","""event"",""trial"",""time""
""blur"",""6"",""51361""
","""event"",""trial"",""time""
""focus"",""6"",""51370""
","""event"",""trial"",""time""
""fullscreenenter"",""5"",""39040""
","""event"",""trial"",""time""
""fullscreenexit"",""6"",""51367""
","","","","","true","","","","","","","","","","","","","","","","",""
"d3-instructions","6","63909","0.0-6.0","1456","3556","9","Female","true","false","false","true","""event"",""trial"",""time""
""fullscreenenter"",""5"",""39040""
""blur"",""6"",""51361""
""fullscreenexit"",""6"",""51367""
""focus"",""6"",""51370""
","""event"",""trial"",""time""
""blur"",""6"",""51361""
","""event"",""trial"",""time""
""focus"",""6"",""51370""
","""event"",""trial"",""time""
""fullscreenenter"",""5"",""39040""
","""event"",""trial"",""time""
""fullscreenexit"",""6"",""51367""
","","","","","","","","","","","","","","","","","","","","","",""
"d3-instructions","7","75235","0.0-7.0","1456","3556","9","Female","true","false","false","true","""event"",""trial"",""time""
""fullscreenenter"",""5"",""39040""
""blur"",""6"",""51361""
""fullscreenexit"",""6"",""51367""
""focus"",""6"",""51370""
","""event"",""trial"",""time""
""blur"",""6"",""51361""
","""event"",""trial"",""time""
""focus"",""6"",""51370""
","""event"",""trial"",""time""
""fullscreenenter"",""5"",""39040""
","""event"",""trial"",""time""
""fullscreenexit"",""6"",""51367""
","","","","","","","","","","","","","","","","","","","","","",""
"d3-instructions","8","87078","0.0-8.0","1456","3556","9","Female","true","false","false","true","""event"",""trial"",""time""
""fullscreenenter"",""5"",""39040""
""blur"",""6"",""51361""
""fullscreenexit"",""6"",""51367""
""focus"",""6"",""51370""
","""event"",""trial"",""time""
""blur"",""6"",""51361""
","""event"",""trial"",""time""
""focus"",""6"",""51370""
","""event"",""trial"",""time""
""fullscreenenter"",""5"",""39040""
","""event"",""trial"",""time""
""fullscreenexit"",""6"",""51367""
","","","","","","","","","","","","","","","","","","","","","",""
"d3-instructions","9","102408","0.0-9.0","1456","3556","9","Female","true","false","false","true","""event"",""trial"",""time""
""fullscreenenter"",""5"",""39040""
""blur"",""6"",""51361""
""fullscreenexit"",""6"",""51367""
""focus"",""6"",""51370""
","""event"",""trial"",""time""
""blur"",""6"",""51361""
","""event"",""trial"",""time""
""focus"",""6"",""51370""
","""event"",""trial"",""time""
""fullscreenenter"",""5"",""39040""
","""event"",""trial"",""time""
""fullscreenexit"",""6"",""51367""
","","","","","","","","","","","","","","","","","","","","","",""
"d3-instructions","10","123221","0.0-10.0","1456","3556","9","Female","true","false","false","true","""event"",""trial"",""time""
""fullscreenenter"",""5"",""39040""
""blur"",""6"",""51361""
""fullscreenexit"",""6"",""51367""
""focus"",""6"",""51370""
","""event"",""trial"",""time""
""blur"",""6"",""51361""
","""event"",""trial"",""time""
""focus"",""6"",""51370""
","""event"",""trial"",""time""
""fullscreenenter"",""5"",""39040""
","""event"",""trial"",""time""
""fullscreenexit"",""6"",""51367""
","","","","","","","","","","","","","","","","","","","","","",""
"d3-animate-choice","11","129095","0.0-11.0","1456","3556","9","Female","true","false","false","true","""event"",""trial"",""time""
""fullscreenenter"",""5"",""39040""
""blur"",""6"",""51361""
""fullscreenexit"",""6"",""51367""
""focus"",""6"",""51370""
","""event"",""trial"",""time""
""blur"",""6"",""51361""
","""event"",""trial"",""time""
""focus"",""6"",""51370""
","""event"",""trial"",""time""
""fullscreenenter"",""5"",""39040""
","""event"",""trial"",""time""
""fullscreenexit"",""6"",""51367""
","3858.600000023842","","49","","","3000","1","","","images/tutgreenplanet.jpg","images/tutalien1","images/tutalien2","null","images/tutalien2","","NA","practice","null","","","",""
"d3-animate-choice","12","134154","0.0-12.0","1456","3556","9","Female","true","false","false","true","""event"",""trial"",""time""
""fullscreenenter"",""5"",""39040""
""blur"",""6"",""51361""
""fullscreenexit"",""6"",""51367""
""focus"",""6"",""51370""
","""event"",""trial"",""time""
""blur"",""6"",""51361""
","""event"",""trial"",""time""
""focus"",""6"",""51370""
","""event"",""trial"",""time""
""fullscreenenter"",""5"",""39040""
","""event"",""trial"",""time""
""fullscreenexit"",""6"",""51367""
","3033.899999976158","","48","","","3000","1","","","images/tutgreenplanet.jpg","images/tutalien1","images/tutalien2","null","images/tutalien1","","NA","practice","null","","","",""
"d3-animate-choice","13","138343","0.0-13.0","1456","3556","9","Female","true","false","false","true","""event"",""trial"",""time""
""fullscreenenter"",""5"",""39040""
""blur"",""6"",""51361""
""fullscreenexit"",""6"",""51367""
""focus"",""6"",""51370""
","""event"",""trial"",""time""
""blur"",""6"",""51361""
","""event"",""trial"",""time""
""focus"",""6"",""51370""
","""event"",""trial"",""time""
""fullscreenenter"",""5"",""39040""
","""event"",""trial"",""time""
""fullscreenexit"",""6"",""51367""
","2174.399999976158","","49","","","3000","1","","","images/tutgreenplanet.jpg","images/tutalien1","images/tutalien2","null","images/tutalien2","","NA","practice","null","","","",""
"d3-animate-choice","14","141094","0.0-14.0","1456","3556","9","Female","true","false","false","true","""event"",""trial"",""time""
""fullscreenenter"",""5"",""39040""
""blur"",""6"",""51361""
""fullscreenexit"",""6"",""51367""
""focus"",""6"",""51370""
","""event"",""trial"",""time""
""blur"",""6"",""51361""
","""event"",""trial"",""time""
""focus"",""6"",""51370""
","""event"",""trial"",""time""
""fullscreenenter"",""5"",""39040""
","""event"",""trial"",""time""
""fullscreenexit"",""6"",""51367""
","736.5","","49","","","3000","1","","","images/tutgreenplanet.jpg","images/tutalien1","images/tutalien2","null","images/tutalien2","","NA","practice","null","","","",""
"d3-instructions","15","150972","0.0-15.0","1456","3556","9","Female","true","false","false","true","""event"",""trial"",""time""
""fullscreenenter"",""5"",""39040""
""blur"",""6"",""51361""
""fullscreenexit"",""6"",""51367""
""focus"",""6"",""51370""
","""event"",""trial"",""time""
""blur"",""6"",""51361""
","""event"",""trial"",""time""
""focus"",""6"",""51370""
","""event"",""trial"",""time""
""fullscreenenter"",""5"",""39040""
","""event"",""trial"",""time""
""fullscreenexit"",""6"",""51367""
","","","","","","","","","","","","","","","","","","","","","",""
"d3-instructions","16","169243","0.0-16.0","1456","3556","9","Female","true","false","false","true","""event"",""trial"",""time""
""fullscreenenter"",""5"",""39040""
""blur"",""6"",""51361""
""fullscreenexit"",""6"",""51367""
""focus"",""6"",""51370""
","""event"",""trial"",""time""
""blur"",""6"",""51361""
","""event"",""trial"",""time""
""focus"",""6"",""51370""
","""event"",""trial"",""time""
""fullscreenenter"",""5"",""39040""
","""event"",""trial"",""time""
""fullscreenexit"",""6"",""51367""
","","","","","","","","","","","","","","","","","","","","","",""
"d3-instructions","17","190935","0.0-17.0","1456","3556","9","Female","true","false","false","true","""event"",""trial"",""time""
""fullscreenenter"",""5"",""39040""
""blur"",""6"",""51361""
""fullscreenexit"",""6"",""51367""
""focus"",""6"",""51370""
","""event"",""trial"",""time""
""blur"",""6"",""51361""
","""event"",""trial"",""time""
""focus"",""6"",""51370""
","""event"",""trial"",""time""
""fullscreenenter"",""5"",""39040""
","""event"",""trial"",""time""
""fullscreenexit"",""6"",""51367""
","","","","","","","","","","","","","","","","","","","","","",""
"d3-instructions","18","210726","0.0-18.0","1456","3556","9","Female","true","false","false","true","""event"",""trial"",""time""
""fullscreenenter"",""5"",""39040""
""blur"",""6"",""51361""
""fullscreenexit"",""6"",""51367""
""focus"",""6"",""51370""
","""event"",""trial"",""time""
""blur"",""6"",""51361""
","""event"",""trial"",""time""
""focus"",""6"",""51370""
","""event"",""trial"",""time""
""fullscreenenter"",""5"",""39040""
","""event"",""trial"",""time""
""fullscreenexit"",""6"",""51367""
","","","","","","","","","","","","","","","","","","","","","",""
"d3-instructions","19","225879","0.0-19.0","1456","3556","9","Female","true","false","false","true","""event"",""trial"",""time""
""fullscreenenter"",""5"",""39040""
""blur"",""6"",""51361""
""fullscreenexit"",""6"",""51367""
""focus"",""6"",""51370""
","""event"",""trial"",""time""
""blur"",""6"",""51361""
","""event"",""trial"",""time""
""focus"",""6"",""51370""
","""event"",""trial"",""time""
""fullscreenenter"",""5"",""39040""
","""event"",""trial"",""time""
""fullscreenexit"",""6"",""51367""
","","","","","","","","","","","","","","","","","","","","","",""
"d3-animate-choice","20","229956","0.0-20.0","1456","3556","9","Female","true","false","false","true","""event"",""trial"",""time""
""fullscreenenter"",""5"",""39040""
""blur"",""6"",""51361""
""fullscreenexit"",""6"",""51367""
""focus"",""6"",""51370""
","""event"",""trial"",""time""
""blur"",""6"",""51361""
","""event"",""trial"",""time""
""focus"",""6"",""51370""
","""event"",""trial"",""time""
""fullscreenenter"",""5"",""39040""
","""event"",""trial"",""time""
""fullscreenexit"",""6"",""51367""
","2054.400000035763","","49","","","3000","1","","","images/tutyellowplanet.jpg","null","images/tutalien3","null","images/tutalien3","images/t.png","NA","practice","null","","","",""
"d3-animate-choice","21","232526","0.0-21.0","1456","3556","9","Female","true","false","false","true","""event"",""trial"",""time""
""fullscreenenter"",""5"",""39040""
""blur"",""6"",""51361""
""fullscreenexit"",""6"",""51367""
""focus"",""6"",""51370""
","""event"",""trial"",""time""
""blur"",""6"",""51361""
","""event"",""trial"",""time""
""focus"",""6"",""51370""
","""event"",""trial"",""time""
""fullscreenenter"",""5"",""39040""
","""event"",""trial"",""time""
""fullscreenexit"",""6"",""51367""
","548.1999999880791","","49","","","3000","1","","","images/tutyellowplanet.jpg","null","images/tutalien3","null","images/tutalien3","images/t.png","NA","practice","null","","","",""
"d3-animate-choice","22","235001","0.0-22.0","1456","3556","9","Female","true","false","false","true","""event"",""trial"",""time""
""fullscreenenter"",""5"",""39040""
""blur"",""6"",""51361""
""fullscreenexit"",""6"",""51367""
""focus"",""6"",""51370""
","""event"",""trial"",""time""
""blur"",""6"",""51361""
","""event"",""trial"",""time""
""focus"",""6"",""51370""
","""event"",""trial"",""time""
""fullscreenenter"",""5"",""39040""
","""event"",""trial"",""time""
""fullscreenexit"",""6"",""51367""
","466","","49","","","3000","1","","","images/tutyellowplanet.jpg","null","images/tutalien3","null","images/tutalien3","images/t.png","NA","practice","null","","","",""
"d3-animate-choice","23","237566","0.0-23.0","1456","3556","9","Female","true","false","false","true","""event"",""trial"",""time""
""fullscreenenter"",""5"",""39040""
""blur"",""6"",""51361""
""fullscreenexit"",""6"",""51367""
""focus"",""6"",""51370""
","""event"",""trial"",""time""
""blur"",""6"",""51361""
","""event"",""trial"",""time""
""focus"",""6"",""51370""
","""event"",""trial"",""time""
""fullscreenenter"",""5"",""39040""
","""event"",""trial"",""time""
""fullscreenexit"",""6"",""51367""
","549.2000000476837","","49","","","3000","1","","","images/tutyellowplanet.jpg","null","images/tutalien3","null","images/tutalien3","images/t.png","NA","practice","null","","","",""
"d3-animate-choice","24","240226","0.0-24.0","1456","3556","9","Female","true","false","false","true","""event"",""trial"",""time""
""fullscreenenter"",""5"",""39040""
""blur"",""6"",""51361""
""fullscreenexit"",""6"",""51367""
""focus"",""6"",""51370""
","""event"",""trial"",""time""
""blur"",""6"",""51361""
","""event"",""trial"",""time""
""focus"",""6"",""51370""
","""event"",""trial"",""time""
""fullscreenenter"",""5"",""39040""
","""event"",""trial"",""time""
""fullscreenexit"",""6"",""51367""
","650.1999999880791","","49","","","3000","1","2386.300000011921","49","images/tutyellowplanet.jpg","null","images/tutalien3","null","images/tutalien3","images/t.png","NA","practice","null","","","",""
"d3-animate-choice","25","242686","0.0-25.0","1456","3556","9","Female","true","false","false","true","""event"",""trial"",""time""
""fullscreenenter"",""5"",""39040""
""blur"",""6"",""51361""
""fullscreenexit"",""6"",""51367""
""focus"",""6"",""51370""
","""event"",""trial"",""time""
""blur"",""6"",""51361""
","""event"",""trial"",""time""
""focus"",""6"",""51370""
","""event"",""trial"",""time""
""fullscreenenter"",""5"",""39040""
","""event"",""trial"",""time""
""fullscreenexit"",""6"",""51367""
","443.39999997615814","","49","","","3000","1","","","images/tutyellowplanet.jpg","null","images/tutalien3","null","images/tutalien3","images/t.png","NA","practice","null","","","",""
"d3-animate-choice","26","246006","0.0-26.0","1456","3556","9","Female","true","false","false","true","""event"",""trial"",""time""
""fullscreenenter"",""5"",""39040""
""blur"",""6"",""51361""
""fullscreenexit"",""6"",""51367""
""focus"",""6"",""51370""
","""event"",""trial"",""time""
""blur"",""6"",""51361""
","""event"",""trial"",""time""
""focus"",""6"",""51370""
","""event"",""trial"",""time""
""fullscreenenter"",""5"",""39040""
","""event"",""trial"",""time""
""fullscreenexit"",""6"",""51367""
","1314.5","","49","","","3000","1","","","images/tutyellowplanet.jpg","null","images/tutalien3","null","images/tutalien3","images/nothing.png","NA","practice","null","","","",""
"d3-animate-choice","27","248535","0.0-27.0","1456","3556","9","Female","true","false","false","true","""event"",""trial"",""time""
""fullscreenenter"",""5"",""39040""
""blur"",""6"",""51361""
""fullscreenexit"",""6"",""51367""
""focus"",""6"",""51370""
","""event"",""trial"",""time""
""blur"",""6"",""51361""
","""event"",""trial"",""time""
""focus"",""6"",""51370""
","""event"",""trial"",""time""
""fullscreenenter"",""5"",""39040""
","""event"",""trial"",""time""
""fullscreenexit"",""6"",""51367""
","505.10000002384186","","49","","","3000","1","","","images/tutyellowplanet.jpg","null","images/tutalien3","null","images/tutalien3","images/nothing.png","NA","practice","null","","","",""
"d3-animate-choice","28","251054","0.0-28.0","1456","3556","9","Female","true","false","false","true","""event"",""trial"",""time""
""fullscreenenter"",""5"",""39040""
""blur"",""6"",""51361""
""fullscreenexit"",""6"",""51367""
""focus"",""6"",""51370""
","""event"",""trial"",""time""
""blur"",""6"",""51361""
","""event"",""trial"",""time""
""focus"",""6"",""51370""
","""event"",""trial"",""time""
""fullscreenenter"",""5"",""39040""
","""event"",""trial"",""time""
""fullscreenexit"",""6"",""51367""
","511.0999999642372","","49","","","3000","1","","","images/tutyellowplanet.jpg","null","images/tutalien3","null","images/tutalien3","images/nothing.png","NA","practice","null","","","",""
"d3-animate-choice","29","253514","0.0-29.0","1456","3556","9","Female","true","false","false","true","""event"",""trial"",""time""
""fullscreenenter"",""5"",""39040""
""blur"",""6"",""51361""
""fullscreenexit"",""6"",""51367""
""focus"",""6"",""51370""
","""event"",""trial"",""time""
""blur"",""6"",""51361""
","""event"",""trial"",""time""
""focus"",""6"",""51370""
","""event"",""trial"",""time""
""fullscreenenter"",""5"",""39040""
","""event"",""trial"",""time""
""fullscreenexit"",""6"",""51367""
","449.5","","49","","","3000","1","","","images/tutyellowplanet.jpg","null","images/tutalien3","null","images/tutalien3","images/t.png","NA","practice","null","","","",""
"d3-instructions","30","262015","0.0-30.0","1456","3556","9","Female","true","false","false","true","""event"",""trial"",""time""
""fullscreenenter"",""5"",""39040""
""blur"",""6"",""51361""
""fullscreenexit"",""6"",""51367""
""focus"",""6"",""51370""
","""event"",""trial"",""time""
""blur"",""6"",""51361""
","""event"",""trial"",""time""
""focus"",""6"",""51370""
","""event"",""trial"",""time""
""fullscreenenter"",""5"",""39040""
","""event"",""trial"",""time""
""fullscreenexit"",""6"",""51367""
","","","","","","","","","","","","","","","","","","","","","",""
"d3-instructions","31","283410","0.0-31.0","1456","3556","9","Female","true","false","false","true","""event"",""trial"",""time""
""fullscreenenter"",""5"",""39040""
""blur"",""6"",""51361""
""fullscreenexit"",""6"",""51367""
""focus"",""6"",""51370""
","""event"",""trial"",""time""
""blur"",""6"",""51361""
","""event"",""trial"",""time""
""focus"",""6"",""51370""
","""event"",""trial"",""time""
""fullscreenenter"",""5"",""39040""
","""event"",""trial"",""time""
""fullscreenexit"",""6"",""51367""
","","","","","","","","","","","","","","","","","","","","","",""
"d3-instructions","32","293563","0.0-32.0","1456","3556","9","Female","true","false","false","true","""event"",""trial"",""time""
""fullscreenenter"",""5"",""39040""
""blur"",""6"",""51361""
""fullscreenexit"",""6"",""51367""
""focus"",""6"",""51370""
","""event"",""trial"",""time""
""blur"",""6"",""51361""
","""event"",""trial"",""time""
""focus"",""6"",""51370""
","""event"",""trial"",""time""
""fullscreenenter"",""5"",""39040""
","""event"",""trial"",""time""
""fullscreenexit"",""6"",""51367""
","","","","","","","","","","","","","","","","","","","","","",""
"d3-instructions","33","303470","0.0-33.0","1456","3556","9","Female","true","false","false","true","""event"",""trial"",""time""
""fullscreenenter"",""5"",""39040""
""blur"",""6"",""51361""
""fullscreenexit"",""6"",""51367""
""focus"",""6"",""51370""
","""event"",""trial"",""time""
""blur"",""6"",""51361""
","""event"",""trial"",""time""
""focus"",""6"",""51370""
","""event"",""trial"",""time""
""fullscreenenter"",""5"",""39040""
","""event"",""trial"",""time""
""fullscreenexit"",""6"",""51367""
","","","","","","","","","","","","","","","","","","","","","",""
"d3-animate-choice","34","307232","0.0-34.0","1456","3556","9","Female","true","false","false","true","""event"",""trial"",""time""
""fullscreenenter"",""5"",""39040""
""blur"",""6"",""51361""
""fullscreenexit"",""6"",""51367""
""focus"",""6"",""51370""
","""event"",""trial"",""time""
""blur"",""6"",""51361""
","""event"",""trial"",""time""
""focus"",""6"",""51370""
","""event"",""trial"",""time""
""fullscreenenter"",""5"",""39040""
","""event"",""trial"",""time""
""fullscreenexit"",""6"",""51367""
","1756.5999999642372","","48","","","3000","1","","","images/tutgreenplanet.jpg","images/tutalien1","images/tutalien2","null","images/tutalien1","images/nothing.png","NA","practice","null","","","",""
"d3-animate-choice","35","311557","0.0-35.0","1456","3556","9","Female","true","false","false","true","""event"",""trial"",""time""
""fullscreenenter"",""5"",""39040""
""blur"",""6"",""51361""
""fullscreenexit"",""6"",""51367""
""focus"",""6"",""51370""
","""event"",""trial"",""time""
""blur"",""6"",""51361""
","""event"",""trial"",""time""
""focus"",""6"",""51370""
","""event"",""trial"",""time""
""fullscreenenter"",""5"",""39040""
","""event"",""trial"",""time""
""fullscreenexit"",""6"",""51367""
","2310.199999988079","","48","","","3000","1","","","images/tutgreenplanet.jpg","images/tutalien1","images/tutalien2","null","images/tutalien1","images/nothing.png","NA","practice","null","","","",""
"d3-animate-choice","36","314726","0.0-36.0","1456","3556","9","Female","true","false","false","true","""event"",""trial"",""time""
""fullscreenenter"",""5"",""39040""
""blur"",""6"",""51361""
""fullscreenexit"",""6"",""51367""
""focus"",""6"",""51370""
","""event"",""trial"",""time""
""blur"",""6"",""51361""
","""event"",""trial"",""time""
""focus"",""6"",""51370""
","""event"",""trial"",""time""
""fullscreenenter"",""5"",""39040""
","""event"",""trial"",""time""
""fullscreenexit"",""6"",""51367""
","1155.5999999642372","","48","","","3000","1","","","images/tutgreenplanet.jpg","images/tutalien1","images/tutalien2","null","images/tutalien1","images/nothing.png","NA","practice","null","","","",""
"d3-animate-choice","37","318277","0.0-37.0","1456","3556","9","Female","true","false","false","true","""event"",""trial"",""time""
""fullscreenenter"",""5"",""39040""
""blur"",""6"",""51361""
""fullscreenexit"",""6"",""51367""
""focus"",""6"",""51370""
","""event"",""trial"",""time""
""blur"",""6"",""51361""
","""event"",""trial"",""time""
""focus"",""6"",""51370""
","""event"",""trial"",""time""
""fullscreenenter"",""5"",""39040""
","""event"",""trial"",""time""
""fullscreenexit"",""6"",""51367""
","1539.4000000357628","","48","","","3000","1","","","images/tutgreenplanet.jpg","images/tutalien1","images/tutalien2","null","images/tutalien1","images/nothing.png","NA","practice","null","","","",""
"d3-animate-choice","38","321837","0.0-38.0","1456","3556","9","Female","true","false","false","true","""event"",""trial"",""time""
""fullscreenenter"",""5"",""39040""
""blur"",""6"",""51361""
""fullscreenexit"",""6"",""51367""
""focus"",""6"",""51370""
","""event"",""trial"",""time""
""blur"",""6"",""51361""
","""event"",""trial"",""time""
""focus"",""6"",""51370""
","""event"",""trial"",""time""
""fullscreenenter"",""5"",""39040""
","""event"",""trial"",""time""
""fullscreenexit"",""6"",""51367""
","1544.9000000357628","","49","","","3000","1","","","images/tutgreenplanet.jpg","images/tutalien1","images/tutalien2","null","images/tutalien2","images/t.png","NA","practice","null","","","",""
"d3-animate-choice","39","324406","0.0-39.0","1456","3556","9","Female","true","false","false","true","""event"",""trial"",""time""
""fullscreenenter"",""5"",""39040""
""blur"",""6"",""51361""
""fullscreenexit"",""6"",""51367""
""focus"",""6"",""51370""
","""event"",""trial"",""time""
""blur"",""6"",""51361""
","""event"",""trial"",""time""
""focus"",""6"",""51370""
","""event"",""trial"",""time""
""fullscreenenter"",""5"",""39040""
","""event"",""trial"",""time""
""fullscreenexit"",""6"",""51367""
","560.3000000119209","","49","","","3000","1","","","images/tutgreenplanet.jpg","images/tutalien1","images/tutalien2","null","images/tutalien2","images/t.png","NA","practice","null","","","",""
"d3-animate-choice","40","326966","0.0-40.0","1456","3556","9","Female","true","false","false","true","""event"",""trial"",""time""
""fullscreenenter"",""5"",""39040""
""blur"",""6"",""51361""
""fullscreenexit"",""6"",""51367""
""focus"",""6"",""51370""
","""event"",""trial"",""time""
""blur"",""6"",""51361""
","""event"",""trial"",""time""
""focus"",""6"",""51370""
","""event"",""trial"",""time""
""fullscreenenter"",""5"",""39040""
","""event"",""trial"",""time""
""fullscreenexit"",""6"",""51367""
","540","","49","","","3000","1","","","images/tutgreenplanet.jpg","images/tutalien1","images/tutalien2","null","images/tutalien2","images/t.png","NA","practice","null","","","",""
"d3-animate-choice","41","329379","0.0-41.0","1456","3556","9","Female","true","false","false","true","""event"",""trial"",""time""
""fullscreenenter"",""5"",""39040""
""blur"",""6"",""51361""
""fullscreenexit"",""6"",""51367""
""focus"",""6"",""51370""
","""event"",""trial"",""time""
""blur"",""6"",""51361""
","""event"",""trial"",""time""
""focus"",""6"",""51370""
","""event"",""trial"",""time""
""fullscreenenter"",""5"",""39040""
","""event"",""trial"",""time""
""fullscreenexit"",""6"",""51367""
","409.80000001192093","","49","","","3000","1","","","images/tutgreenplanet.jpg","images/tutalien1","images/tutalien2","null","images/tutalien2","images/t.png","NA","practice","null","","","",""
"d3-animate-choice","42","332106","0.0-42.0","1456","3556","9","Female","true","false","false","true","""event"",""trial"",""time""
""fullscreenenter"",""5"",""39040""
""blur"",""6"",""51361""
""fullscreenexit"",""6"",""51367""
""focus"",""6"",""51370""
","""event"",""trial"",""time""
""blur"",""6"",""51361""
","""event"",""trial"",""time""
""focus"",""6"",""51370""
","""event"",""trial"",""time""
""fullscreenenter"",""5"",""39040""
","""event"",""trial"",""time""
""fullscreenexit"",""6"",""51367""
","717.8999999761581","","49","","","3000","1","","","images/tutgreenplanet.jpg","images/tutalien1","images/tutalien2","null","images/tutalien2","images/nothing.png","NA","practice","null","","","",""
"d3-animate-choice","43","337470","0.0-43.0","1456","3556","9","Female","true","false","false","true","""event"",""trial"",""time""
""fullscreenenter"",""5"",""39040""
""blur"",""6"",""51361""
""fullscreenexit"",""6"",""51367""
""focus"",""6"",""51370""
","""event"",""trial"",""time""
""blur"",""6"",""51361""
","""event"",""trial"",""time""
""focus"",""6"",""51370""
","""event"",""trial"",""time""
""fullscreenenter"",""5"",""39040""
","""event"",""trial"",""time""
""fullscreenexit"",""6"",""51367""
","3359.899999976158","","49","","","3000","1","","","images/tutgreenplanet.jpg","images/tutalien1","images/tutalien2","null","images/tutalien2","images/t.png","NA","practice","null","","","",""
"d3-instructions","44","353069","0.0-44.0","1456","3556","9","Female","true","false","false","true","""event"",""trial"",""time""
""fullscreenenter"",""5"",""39040""
""blur"",""6"",""51361""
""fullscreenexit"",""6"",""51367""
""focus"",""6"",""51370""
","""event"",""trial"",""time""
""blur"",""6"",""51361""
","""event"",""trial"",""time""
""focus"",""6"",""51370""
","""event"",""trial"",""time""
""fullscreenenter"",""5"",""39040""
","""event"",""trial"",""time""
""fullscreenexit"",""6"",""51367""
","","","","","","","","","","","","","","","","","","","","","",""
"d3-instructions","45","365066","0.0-45.0","1456","3556","9","Female","true","false","false","true","""event"",""trial"",""time""
""fullscreenenter"",""5"",""39040""
""blur"",""6"",""51361""
""fullscreenexit"",""6"",""51367""
""focus"",""6"",""51370""
","""event"",""trial"",""time""
""blur"",""6"",""51361""
","""event"",""trial"",""time""
""focus"",""6"",""51370""
","""event"",""trial"",""time""
""fullscreenenter"",""5"",""39040""
","""event"",""trial"",""time""
""fullscreenexit"",""6"",""51367""
","","","","","","","","","","","","","","","","","","","","","",""
"d3-instructions","46","372381","0.0-46.0","1456","3556","9","Female","true","false","false","true","""event"",""trial"",""time""
""fullscreenenter"",""5"",""39040""
""blur"",""6"",""51361""
""fullscreenexit"",""6"",""51367""
""focus"",""6"",""51370""
","""event"",""trial"",""time""
""blur"",""6"",""51361""
","""event"",""trial"",""time""
""focus"",""6"",""51370""
","""event"",""trial"",""time""
""fullscreenenter"",""5"",""39040""
","""event"",""trial"",""time""
""fullscreenexit"",""6"",""51367""
","","","","","","","","","","","","","","","","","","","","","",""
"d3-instructions","47","393033","0.0-47.0","1456","3556","9","Female","true","false","false","true","""event"",""trial"",""time""
""fullscreenenter"",""5"",""39040""
""blur"",""6"",""51361""
""fullscreenexit"",""6"",""51367""
""focus"",""6"",""51370""
","""event"",""trial"",""time""
""blur"",""6"",""51361""
","""event"",""trial"",""time""
""focus"",""6"",""51370""
","""event"",""trial"",""time""
""fullscreenenter"",""5"",""39040""
","""event"",""trial"",""time""
""fullscreenexit"",""6"",""51367""
","","","","","","","","","","","","","","","","","","","","","",""
"d3-instructions","48","402691","0.0-48.0","1456","3556","9","Female","true","false","false","true","""event"",""trial"",""time""
""fullscreenenter"",""5"",""39040""
""blur"",""6"",""51361""
""fullscreenexit"",""6"",""51367""
""focus"",""6"",""51370""
","""event"",""trial"",""time""
""blur"",""6"",""51361""
","""event"",""trial"",""time""
""focus"",""6"",""51370""
","""event"",""trial"",""time""
""fullscreenenter"",""5"",""39040""
","""event"",""trial"",""time""
""fullscreenexit"",""6"",""51367""
","","","","","","","","","","","","","","","","","","","","","",""
"d3-instructions","49","416330","0.0-49.0","1456","3556","9","Female","true","false","false","true","""event"",""trial"",""time""
""fullscreenenter"",""5"",""39040""
""blur"",""6"",""51361""
""fullscreenexit"",""6"",""51367""
""focus"",""6"",""51370""
","""event"",""trial"",""time""
""blur"",""6"",""51361""
","""event"",""trial"",""time""
""focus"",""6"",""51370""
","""event"",""trial"",""time""
""fullscreenenter"",""5"",""39040""
","""event"",""trial"",""time""
""fullscreenexit"",""6"",""51367""
","","","","","","","","","","","","","","","","","","","","","",""
"d3-instructions","50","430340","0.0-50.0","1456","3556","9","Female","true","false","false","true","""event"",""trial"",""time""
""fullscreenenter"",""5"",""39040""
""blur"",""6"",""51361""
""fullscreenexit"",""6"",""51367""
""focus"",""6"",""51370""
","""event"",""trial"",""time""
""blur"",""6"",""51361""
","""event"",""trial"",""time""
""focus"",""6"",""51370""
","""event"",""trial"",""time""
""fullscreenenter"",""5"",""39040""
","""event"",""trial"",""time""
""fullscreenexit"",""6"",""51367""
","","","","","","","","","","","","","","","","","","","","","",""
"d3-instructions","51","437917","0.0-51.0","1456","3556","9","Female","true","false","false","true","""event"",""trial"",""time""
""fullscreenenter"",""5"",""39040""
""blur"",""6"",""51361""
""fullscreenexit"",""6"",""51367""
""focus"",""6"",""51370""
","""event"",""trial"",""time""
""blur"",""6"",""51361""
","""event"",""trial"",""time""
""focus"",""6"",""51370""
","""event"",""trial"",""time""
""fullscreenenter"",""5"",""39040""
","""event"",""trial"",""time""
""fullscreenexit"",""6"",""51367""
","","","","","","","","","","","","","","","","","","","","","",""
"d3-instructions","52","446149","0.0-52.0","1456","3556","9","Female","true","false","false","true","""event"",""trial"",""time""
""fullscreenenter"",""5"",""39040""
""blur"",""6"",""51361""
""fullscreenexit"",""6"",""51367""
""focus"",""6"",""51370""
","""event"",""trial"",""time""
""blur"",""6"",""51361""
","""event"",""trial"",""time""
""focus"",""6"",""51370""
","""event"",""trial"",""time""
""fullscreenenter"",""5"",""39040""
","""event"",""trial"",""time""
""fullscreenexit"",""6"",""51367""
","","","","","","","","","","","","","","","","","","","","","",""
"d3-instructions","53","467109","0.0-53.0","1456","3556","9","Female","true","false","false","true","""event"",""trial"",""time""
""fullscreenenter"",""5"",""39040""
""blur"",""6"",""51361""
""fullscreenexit"",""6"",""51367""
""focus"",""6"",""51370""
","""event"",""trial"",""time""
""blur"",""6"",""51361""
","""event"",""trial"",""time""
""focus"",""6"",""51370""
","""event"",""trial"",""time""
""fullscreenenter"",""5"",""39040""
","""event"",""trial"",""time""
""fullscreenexit"",""6"",""51367""
","","","","","","","","","","","","","","","","","","","","","",""
"d3-instructions","54","487817","0.0-54.0","1456","3556","9","Female","true","false","false","true","""event"",""trial"",""time""
""fullscreenenter"",""5"",""39040""
""blur"",""6"",""51361""
""fullscreenexit"",""6"",""51367""
""focus"",""6"",""51370""
","""event"",""trial"",""time""
""blur"",""6"",""51361""
","""event"",""trial"",""time""
""focus"",""6"",""51370""
","""event"",""trial"",""time""
""fullscreenenter"",""5"",""39040""
","""event"",""trial"",""time""
""fullscreenexit"",""6"",""51367""
","","","","","","","","","","","","","","","","","","","","","",""
"d3-instructions","55","506544","0.0-55.0","1456","3556","9","Female","true","false","false","true","""event"",""trial"",""time""
""fullscreenenter"",""5"",""39040""
""blur"",""6"",""51361""
""fullscreenexit"",""6"",""51367""
""focus"",""6"",""51370""
","""event"",""trial"",""time""
""blur"",""6"",""51361""
","""event"",""trial"",""time""
""focus"",""6"",""51370""
","""event"",""trial"",""time""
""fullscreenenter"",""5"",""39040""
","""event"",""trial"",""time""
""fullscreenexit"",""6"",""51367""
","","","","","","","","","","","","","","","","","","","","","",""
"d3-instructions","56","519778","0.0-56.0","1456","3556","9","Female","true","false","false","true","""event"",""trial"",""time""
""fullscreenenter"",""5"",""39040""
""blur"",""6"",""51361""
""fullscreenexit"",""6"",""51367""
""focus"",""6"",""51370""
","""event"",""trial"",""time""
""blur"",""6"",""51361""
","""event"",""trial"",""time""
""focus"",""6"",""51370""
","""event"",""trial"",""time""
""fullscreenenter"",""5"",""39040""
","""event"",""trial"",""time""
""fullscreenexit"",""6"",""51367""
","","","","","","","","","","","","","","","","","","","","","",""
"d3-instructions","57","534656","0.0-57.0","1456","3556","9","Female","true","false","false","true","""event"",""trial"",""time""
""fullscreenenter"",""5"",""39040""
""blur"",""6"",""51361""
""fullscreenexit"",""6"",""51367""
""focus"",""6"",""51370""
","""event"",""trial"",""time""
""blur"",""6"",""51361""
","""event"",""trial"",""time""
""focus"",""6"",""51370""
","""event"",""trial"",""time""
""fullscreenenter"",""5"",""39040""
","""event"",""trial"",""time""
""fullscreenexit"",""6"",""51367""
","","","","","","","","","","","","","","","","","","","","","",""
"d3-instructions","58","551402","0.0-58.0","1456","3556","9","Female","true","false","false","true","""event"",""trial"",""time""
""fullscreenenter"",""5"",""39040""
""blur"",""6"",""51361""
""fullscreenexit"",""6"",""51367""
""focus"",""6"",""51370""
","""event"",""trial"",""time""
""blur"",""6"",""51361""
","""event"",""trial"",""time""
""focus"",""6"",""51370""
","""event"",""trial"",""time""
""fullscreenenter"",""5"",""39040""
","""event"",""trial"",""time""
""fullscreenexit"",""6"",""51367""
","","","","","","","","","","","","","","","","","","","","","",""
"d3-instructions","59","557702","0.0-59.0","1456","3556","9","Female","true","false","false","true","""event"",""trial"",""time""
""fullscreenenter"",""5"",""39040""
""blur"",""6"",""51361""
""fullscreenexit"",""6"",""51367""
""focus"",""6"",""51370""
","""event"",""trial"",""time""
""blur"",""6"",""51361""
","""event"",""trial"",""time""
""focus"",""6"",""51370""
","""event"",""trial"",""time""
""fullscreenenter"",""5"",""39040""
","""event"",""trial"",""time""
""fullscreenexit"",""6"",""51367""
","","","","","","","","","","","","","","","","","","","","","",""
"d3-instructions","60","569416","0.0-60.0","1456","3556","9","Female","true","false","false","true","""event"",""trial"",""time""
""fullscreenenter"",""5"",""39040""
""blur"",""6"",""51361""
""fullscreenexit"",""6"",""51367""
""focus"",""6"",""51370""
","""event"",""trial"",""time""
""blur"",""6"",""51361""
","""event"",""trial"",""time""
""focus"",""6"",""51370""
","""event"",""trial"",""time""
""fullscreenenter"",""5"",""39040""
","""event"",""trial"",""time""
""fullscreenexit"",""6"",""51367""
","","","","","","","","","","","","","","","","","","","","","",""
"d3-animate-choice","61","572469","0.0-61.0-0.0","1456","3556","9","Female","true","false","false","true","""event"",""trial"",""time""
""fullscreenenter"",""5"",""39040""
""blur"",""6"",""51361""
""fullscreenexit"",""6"",""51367""
""focus"",""6"",""51370""
","""event"",""trial"",""time""
""blur"",""6"",""51361""
","""event"",""trial"",""time""
""focus"",""6"",""51370""
","""event"",""trial"",""time""
""fullscreenenter"",""5"",""39040""
","""event"",""trial"",""time""
""fullscreenexit"",""6"",""51367""
","1033.300000011921","","48","","","3000","1","","","images/earth.jpg","images/tutrocket1","images/tutrocket2","null","images/tutrocket1","","1","practice","null","2","","",""
"d3-animate-choice","62","576494","0.0-61.0-1.0","1456","3556","9","Female","true","false","false","true","""event"",""trial"",""time""
""fullscreenenter"",""5"",""39040""
""blur"",""6"",""51361""
""fullscreenexit"",""6"",""51367""
""focus"",""6"",""51370""
","""event"",""trial"",""time""
""blur"",""6"",""51361""
","""event"",""trial"",""time""
""focus"",""6"",""51370""
","""event"",""trial"",""time""
""fullscreenenter"",""5"",""39040""
","""event"",""trial"",""time""
""fullscreenexit"",""6"",""51367""
","null","","null","","","3000","0","","","images/tutyellowplanet.jpg","images/tutalien4","images/tutalien3","images/tutrocket1","","","2","practice","true","","common","0","2022-11-11 00:49:48.945"
"two-step-fixation","63","577510","0.0-61.0-2.0","1456","3556","9","Female","true","false","false","true","""event"",""trial"",""time""
""fullscreenenter"",""5"",""39040""
""blur"",""6"",""51361""
""fullscreenexit"",""6"",""51367""
""focus"",""6"",""51370""
","""event"",""trial"",""time""
""blur"",""6"",""51361""
","""event"",""trial"",""time""
""focus"",""6"",""51370""
","""event"",""trial"",""time""
""fullscreenenter"",""5"",""39040""
","""event"",""trial"",""time""
""fullscreenexit"",""6"",""51367""
","","images/earth.jpg","","","","","","","","","","","","","","fixation","","","","","",""
"d3-animate-choice","64","580710","0.0-61.0-0.1","1456","3556","9","Female","true","false","false","true","""event"",""trial"",""time""
""fullscreenenter"",""5"",""39040""
""blur"",""6"",""51361""
""fullscreenexit"",""6"",""51367""
""focus"",""6"",""51370""
","""event"",""trial"",""time""
""blur"",""6"",""51361""
","""event"",""trial"",""time""
""focus"",""6"",""51370""
","""event"",""trial"",""time""
""fullscreenenter"",""5"",""39040""
","""event"",""trial"",""time""
""fullscreenexit"",""6"",""51367""
","1194.5999999642372","","48","","","3000","1","","","images/earth.jpg","images/tutrocket1","images/tutrocket2","null","images/tutrocket1","","1","practice","null","2","","",""
"d3-animate-choice","65","583490","0.0-61.0-1.1","1456","3556","9","Female","true","false","false","true","""event"",""trial"",""time""
""fullscreenenter"",""5"",""39040""
""blur"",""6"",""51361""
""fullscreenexit"",""6"",""51367""
""focus"",""6"",""51370""
","""event"",""trial"",""time""
""blur"",""6"",""51361""
","""event"",""trial"",""time""
""focus"",""6"",""51370""
","""event"",""trial"",""time""
""fullscreenenter"",""5"",""39040""
","""event"",""trial"",""time""
""fullscreenexit"",""6"",""51367""
","773","","49","","","3000","1","","","images/tutyellowplanet.jpg","images/tutalien4","images/tutalien3","images/tutrocket1","images/tutalien3","images/t.png","2","practice","true","1","common","1","2022-11-11 00:49:55.941"
"two-step-fixation","66","584506","0.0-61.0-2.1","1456","3556","9","Female","true","false","false","true","""event"",""trial"",""time""
""fullscreenenter"",""5"",""39040""
""blur"",""6"",""51361""
""fullscreenexit"",""6"",""51367""
""focus"",""6"",""51370""
","""event"",""trial"",""time""
""blur"",""6"",""51361""
","""event"",""trial"",""time""
""focus"",""6"",""51370""
","""event"",""trial"",""time""
""fullscreenenter"",""5"",""39040""
","""event"",""trial"",""time""
""fullscreenexit"",""6"",""51367""
","","images/earth.jpg","","","","","","","","","","","","","","fixation","","","","","",""
"d3-animate-choice","67","587117","0.0-61.0-0.2","1456","3556","9","Female","true","false","false","true","""event"",""trial"",""time""
""fullscreenenter"",""5"",""39040""
""blur"",""6"",""51361""
""fullscreenexit"",""6"",""51367""
""focus"",""6"",""51370""
","""event"",""trial"",""time""
""blur"",""6"",""51361""
","""event"",""trial"",""time""
""focus"",""6"",""51370""
","""event"",""trial"",""time""
""fullscreenenter"",""5"",""39040""
","""event"",""trial"",""time""
""fullscreenexit"",""6"",""51367""
","608.5","","48","","","3000","1","","","images/earth.jpg","images/tutrocket1","images/tutrocket2","null","images/tutrocket1","","1","practice","null","2","","",""
"d3-animate-choice","68","589694","0.0-61.0-1.2","1456","3556","9","Female","true","false","false","true","""event"",""trial"",""time""
""fullscreenenter"",""5"",""39040""
""blur"",""6"",""51361""
""fullscreenexit"",""6"",""51367""
""focus"",""6"",""51370""
","""event"",""trial"",""time""
""blur"",""6"",""51361""
","""event"",""trial"",""time""
""focus"",""6"",""51370""
","""event"",""trial"",""time""
""fullscreenenter"",""5"",""39040""
","""event"",""trial"",""time""
""fullscreenexit"",""6"",""51367""
","572.1999999880791","","49","","","3000","1","","","images/tutyellowplanet.jpg","images/tutalien4","images/tutalien3","images/tutrocket1","images/tutalien3","images/nothing.png","2","practice","true","1","common","0","2022-11-11 00:50:02.146"
"two-step-fixation","69","590701","0.0-61.0-2.2","1456","3556","9","Female","true","false","false","true","""event"",""trial"",""time""
""fullscreenenter"",""5"",""39040""
""blur"",""6"",""51361""
""fullscreenexit"",""6"",""51367""
""focus"",""6"",""51370""
","""event"",""trial"",""time""
""blur"",""6"",""51361""
","""event"",""trial"",""time""
""focus"",""6"",""51370""
","""event"",""trial"",""time""
""fullscreenenter"",""5"",""39040""
","""event"",""trial"",""time""
""fullscreenexit"",""6"",""51367""
","","images/earth.jpg","","","","","","","","","","","","","","fixation","","","","","",""
"d3-animate-choice","70","594217","0.0-61.0-0.3","1456","3556","9","Female","true","false","false","true","""event"",""trial"",""time""
""fullscreenenter"",""5"",""39040""
""blur"",""6"",""51361""
""fullscreenexit"",""6"",""51367""
""focus"",""6"",""51370""
","""event"",""trial"",""time""
""blur"",""6"",""51361""
","""event"",""trial"",""time""
""focus"",""6"",""51370""
","""event"",""trial"",""time""
""fullscreenenter"",""5"",""39040""
","""event"",""trial"",""time""
""fullscreenexit"",""6"",""51367""
","1511.5","","48","","","3000","1","","","images/earth.jpg","images/tutrocket1","images/tutrocket2","null","images/tutrocket1","","1","practice","null","2","","",""
"d3-animate-choice","71","597068","0.0-61.0-1.3","1456","3556","9","Female","true","false","false","true","""event"",""trial"",""time""
""fullscreenenter"",""5"",""39040""
""blur"",""6"",""51361""
""fullscreenexit"",""6"",""51367""
""focus"",""6"",""51370""
","""event"",""trial"",""time""
""blur"",""6"",""51361""
","""event"",""trial"",""time""
""focus"",""6"",""51370""
","""event"",""trial"",""time""
""fullscreenenter"",""5"",""39040""
","""event"",""trial"",""time""
""fullscreenexit"",""6"",""51367""
","849.0999999642372","","49","","","3000","1","","","images/tutyellowplanet.jpg","images/tutalien4","images/tutalien3","images/tutrocket1","images/tutalien3","images/nothing.png","2","practice","true","1","common","0","2022-11-11 00:50:09.519"
"two-step-fixation","72","598072","0.0-61.0-2.3","1456","3556","9","Female","true","false","false","true","""event"",""trial"",""time""
""fullscreenenter"",""5"",""39040""
""blur"",""6"",""51361""
""fullscreenexit"",""6"",""51367""
""focus"",""6"",""51370""
","""event"",""trial"",""time""
""blur"",""6"",""51361""
","""event"",""trial"",""time""
""focus"",""6"",""51370""
","""event"",""trial"",""time""
""fullscreenenter"",""5"",""39040""
","""event"",""trial"",""time""
""fullscreenexit"",""6"",""51367""
","","images/earth.jpg","","","","","","","","","","","","","","fixation","","","","","",""
"d3-animate-choice","73","600582","0.0-61.0-0.4","1456","3556","9","Female","true","false","false","true","""event"",""trial"",""time""
""fullscreenenter"",""5"",""39040""
""blur"",""6"",""51361""
""fullscreenexit"",""6"",""51367""
""focus"",""6"",""51370""
","""event"",""trial"",""time""
""blur"",""6"",""51361""
","""event"",""trial"",""time""
""focus"",""6"",""51370""
","""event"",""trial"",""time""
""fullscreenenter"",""5"",""39040""
","""event"",""trial"",""time""
""fullscreenexit"",""6"",""51367""
","504","","49","","","3000","1","","","images/earth.jpg","images/tutrocket1","images/tutrocket2","null","images/tutrocket2","","1","practice","null","1","","",""
"d3-animate-choice","74","603536","0.0-61.0-1.4","1456","3556","9","Female","true","false","false","true","""event"",""trial"",""time""
""fullscreenenter"",""5"",""39040""
""blur"",""6"",""51361""
""fullscreenexit"",""6"",""51367""
""focus"",""6"",""51370""
","""event"",""trial"",""time""
""blur"",""6"",""51361""
","""event"",""trial"",""time""
""focus"",""6"",""51370""
","""event"",""trial"",""time""
""fullscreenenter"",""5"",""39040""
","""event"",""trial"",""time""
""fullscreenexit"",""6"",""51367""
","948.5999999642372","","48","","","3000","1","","","images/tutgreenplanet.jpg","images/tutalien2","images/tutalien1","images/tutrocket2","images/tutalien2","images/t.png","2","practice","true","2","common","1","2022-11-11 00:50:15.987"
"two-step-fixation","75","604542","0.0-61.0-2.4","1456","3556","9","Female","true","false","false","true","""event"",""trial"",""time""
""fullscreenenter"",""5"",""39040""
""blur"",""6"",""51361""
""fullscreenexit"",""6"",""51367""
""focus"",""6"",""51370""
","""event"",""trial"",""time""
""blur"",""6"",""51361""
","""event"",""trial"",""time""
""focus"",""6"",""51370""
","""event"",""trial"",""time""
""fullscreenenter"",""5"",""39040""
","""event"",""trial"",""time""
""fullscreenexit"",""6"",""51367""
","","images/earth.jpg","","","","","","","","","","","","","","fixation","","","","","",""
"d3-animate-choice","76","607876","0.0-61.0-0.5","1456","3556","9","Female","true","false","false","true","""event"",""trial"",""time""
""fullscreenenter"",""5"",""39040""
""blur"",""6"",""51361""
""fullscreenexit"",""6"",""51367""
""focus"",""6"",""51370""
","""event"",""trial"",""time""
""blur"",""6"",""51361""
","""event"",""trial"",""time""
""focus"",""6"",""51370""
","""event"",""trial"",""time""
""fullscreenenter"",""5"",""39040""
","""event"",""trial"",""time""
""fullscreenexit"",""6"",""51367""
","1327.5","","48","","","3000","1","","","images/earth.jpg","images/tutrocket1","images/tutrocket2","null","images/tutrocket1","","1","practice","null","2","","",""
"d3-animate-choice","77","610856","0.0-61.0-1.5","1456","3556","9","Female","true","false","false","true","""event"",""trial"",""time""
""fullscreenenter"",""5"",""39040""
""blur"",""6"",""51361""
""fullscreenexit"",""6"",""51367""
""focus"",""6"",""51370""
","""event"",""trial"",""time""
""blur"",""6"",""51361""
","""event"",""trial"",""time""
""focus"",""6"",""51370""
","""event"",""trial"",""time""
""fullscreenenter"",""5"",""39040""
","""event"",""trial"",""time""
""fullscreenexit"",""6"",""51367""
","976.1000000238419","","48","","","3000","1","","","images/tutyellowplanet.jpg","images/tutalien4","images/tutalien3","images/tutrocket1","images/tutalien4","images/t.png","2","practice","true","2","common","1","2022-11-11 00:50:23.307"
"two-step-fixation","78","611863","0.0-61.0-2.5","1456","3556","9","Female","true","false","false","true","""event"",""trial"",""time""
""fullscreenenter"",""5"",""39040""
""blur"",""6"",""51361""
""fullscreenexit"",""6"",""51367""
""focus"",""6"",""51370""
","""event"",""trial"",""time""
""blur"",""6"",""51361""
","""event"",""trial"",""time""
""focus"",""6"",""51370""
","""event"",""trial"",""time""
""fullscreenenter"",""5"",""39040""
","""event"",""trial"",""time""
""fullscreenexit"",""6"",""51367""
","","images/earth.jpg","","","","","","","","","","","","","","fixation","","","","","",""
"d3-animate-choice","79","614264","0.0-61.0-0.6","1456","3556","9","Female","true","false","false","true","""event"",""trial"",""time""
""fullscreenenter"",""5"",""39040""
""blur"",""6"",""51361""
""fullscreenexit"",""6"",""51367""
""focus"",""6"",""51370""
","""event"",""trial"",""time""
""blur"",""6"",""51361""
","""event"",""trial"",""time""
""focus"",""6"",""51370""
","""event"",""trial"",""time""
""fullscreenenter"",""5"",""39040""
","""event"",""trial"",""time""
""fullscreenexit"",""6"",""51367""
","396.10000002384186","","48","","","3000","1","","","images/earth.jpg","images/tutrocket1","images/tutrocket2","null","images/tutrocket1","","1","practice","null","2","","",""
"d3-animate-choice","80","617238","0.0-61.0-1.6","1456","3556","9","Female","true","false","false","true","""event"",""trial"",""time""
""fullscreenenter"",""5"",""39040""
""blur"",""6"",""51361""
""fullscreenexit"",""6"",""51367""
""focus"",""6"",""51370""
","""event"",""trial"",""time""
""blur"",""6"",""51361""
","""event"",""trial"",""time""
""focus"",""6"",""51370""
","""event"",""trial"",""time""
""fullscreenenter"",""5"",""39040""
","""event"",""trial"",""time""
""fullscreenexit"",""6"",""51367""
","965.3000000119209","","49","","","3000","1","","","images/tutyellowplanet.jpg","images/tutalien4","images/tutalien3","images/tutrocket1","images/tutalien3","images/nothing.png","2","practice","true","1","common","0","2022-11-11 00:50:29.689"
"two-step-fixation","81","618240","0.0-61.0-2.6","1456","3556","9","Female","true","false","false","true","""event"",""trial"",""time""
""fullscreenenter"",""5"",""39040""
""blur"",""6"",""51361""
""fullscreenexit"",""6"",""51367""
""focus"",""6"",""51370""
","""event"",""trial"",""time""
""blur"",""6"",""51361""
","""event"",""trial"",""time""
""focus"",""6"",""51370""
","""event"",""trial"",""time""
""fullscreenenter"",""5"",""39040""
","""event"",""trial"",""time""
""fullscreenexit"",""6"",""51367""
","","images/earth.jpg","","","","","","","","","","","","","","fixation","","","","","",""
"d3-animate-choice","82","621117","0.0-61.0-0.7","1456","3556","9","Female","true","false","false","true","""event"",""trial"",""time""
""fullscreenenter"",""5"",""39040""
""blur"",""6"",""51361""
""fullscreenexit"",""6"",""51367""
""focus"",""6"",""51370""
","""event"",""trial"",""time""
""blur"",""6"",""51361""
","""event"",""trial"",""time""
""focus"",""6"",""51370""
","""event"",""trial"",""time""
""fullscreenenter"",""5"",""39040""
","""event"",""trial"",""time""
""fullscreenexit"",""6"",""51367""
","870.3000000119209","","49","","","3000","1","","","images/earth.jpg","images/tutrocket1","images/tutrocket2","null","images/tutrocket2","","1","practice","null","1","","",""
"d3-animate-choice","83","623135","0.0-61.0-1.7","1456","3556","9","Female","true","false","false","true","""event"",""trial"",""time""
""fullscreenenter"",""5"",""39040""
""blur"",""6"",""51361""
""fullscreenexit"",""6"",""51367""
""focus"",""6"",""51370""
","""event"",""trial"",""time""
""blur"",""6"",""51361""
","""event"",""trial"",""time""
""focus"",""6"",""51370""
","""event"",""trial"",""time""
""fullscreenenter"",""5"",""39040""
","""event"",""trial"",""time""
""fullscreenexit"",""6"",""51367""
","12.5","","48","","","3000","1","","","images/tutgreenplanet.jpg","images/tutalien2","images/tutalien1","images/tutrocket2","images/tutalien2","images/t.png","2","practice","true","2","common","1","2022-11-11 00:50:35.586"
"two-step-fixation","84","624141","0.0-61.0-2.7","1456","3556","9","Female","true","false","false","true","""event"",""trial"",""time""
""fullscreenenter"",""5"",""39040""
""blur"",""6"",""51361""
""fullscreenexit"",""6"",""51367""
""focus"",""6"",""51370""
","""event"",""trial"",""time""
""blur"",""6"",""51361""
","""event"",""trial"",""time""
""focus"",""6"",""51370""
","""event"",""trial"",""time""
""fullscreenenter"",""5"",""39040""
","""event"",""trial"",""time""
""fullscreenexit"",""6"",""51367""
","","images/earth.jpg","","","","","","","","","","","","","","fixation","","","","","",""
"d3-animate-choice","85","626564","0.0-61.0-0.8","1456","3556","9","Female","true","false","false","true","""event"",""trial"",""time""
""fullscreenenter"",""5"",""39040""
""blur"",""6"",""51361""
""fullscreenexit"",""6"",""51367""
""focus"",""6"",""51370""
","""event"",""trial"",""time""
""blur"",""6"",""51361""
","""event"",""trial"",""time""
""focus"",""6"",""51370""
","""event"",""trial"",""time""
""fullscreenenter"",""5"",""39040""
","""event"",""trial"",""time""
""fullscreenexit"",""6"",""51367""
","417.2000000476837","","49","","","3000","1","2061.100000023842","48","images/earth.jpg","images/tutrocket1","images/tutrocket2","null","images/tutrocket2","","1","practice","null","1","","",""
"d3-animate-choice","86","629345","0.0-61.0-1.8","1456","3556","9","Female","true","false","false","true","""event"",""trial"",""time""
""fullscreenenter"",""5"",""39040""
""blur"",""6"",""51361""
""fullscreenexit"",""6"",""51367""
""focus"",""6"",""51370""
","""event"",""trial"",""time""
""blur"",""6"",""51361""
","""event"",""trial"",""time""
""focus"",""6"",""51370""
","""event"",""trial"",""time""
""fullscreenenter"",""5"",""39040""
","""event"",""trial"",""time""
""fullscreenexit"",""6"",""51367""
","775.3999999761581","","48","","","3000","1","","","images/tutgreenplanet.jpg","images/tutalien2","images/tutalien1","images/tutrocket2","images/tutalien2","images/t.png","2","practice","true","2","common","1","2022-11-11 00:50:41.796"
"two-step-fixation","87","630351","0.0-61.0-2.8","1456","3556","9","Female","true","false","false","true","""event"",""trial"",""time""
""fullscreenenter"",""5"",""39040""
""blur"",""6"",""51361""
""fullscreenexit"",""6"",""51367""
""focus"",""6"",""51370""
","""event"",""trial"",""time""
""blur"",""6"",""51361""
","""event"",""trial"",""time""
""focus"",""6"",""51370""
","""event"",""trial"",""time""
""fullscreenenter"",""5"",""39040""
","""event"",""trial"",""time""
""fullscreenexit"",""6"",""51367""
","","images/earth.jpg","","","","","","","","","","","","","","fixation","","","","","",""
"d3-animate-choice","88","633355","0.0-61.0-0.9","1456","3556","9","Female","true","false","false","true","""event"",""trial"",""time""
""fullscreenenter"",""5"",""39040""
""blur"",""6"",""51361""
""fullscreenexit"",""6"",""51367""
""focus"",""6"",""51370""
","""event"",""trial"",""time""
""blur"",""6"",""51361""
","""event"",""trial"",""time""
""focus"",""6"",""51370""
","""event"",""trial"",""time""
""fullscreenenter"",""5"",""39040""
","""event"",""trial"",""time""
""fullscreenexit"",""6"",""51367""
","998.1000000238419","","48","","","3000","1","","","images/earth.jpg","images/tutrocket1","images/tutrocket2","null","images/tutrocket1","","1","practice","null","2","","",""
"d3-animate-choice","89","636022","0.0-61.0-1.9","1456","3556","9","Female","true","false","false","true","""event"",""trial"",""time""
""fullscreenenter"",""5"",""39040""
""blur"",""6"",""51361""
""fullscreenexit"",""6"",""51367""
""focus"",""6"",""51370""
","""event"",""trial"",""time""
""blur"",""6"",""51361""
","""event"",""trial"",""time""
""focus"",""6"",""51370""
","""event"",""trial"",""time""
""fullscreenenter"",""5"",""39040""
","""event"",""trial"",""time""
""fullscreenexit"",""6"",""51367""
","660.5","","49","","","3000","1","","","images/tutyellowplanet.jpg","images/tutalien4","images/tutalien3","images/tutrocket1","images/tutalien3","images/nothing.png","2","practice","true","1","common","0","2022-11-11 00:50:48.474"
"two-step-fixation","90","637028","0.0-61.0-2.9","1456","3556","9","Female","true","false","false","true","""event"",""trial"",""time""
""fullscreenenter"",""5"",""39040""
""blur"",""6"",""51361""
""fullscreenexit"",""6"",""51367""
""focus"",""6"",""51370""
","""event"",""trial"",""time""
""blur"",""6"",""51361""
","""event"",""trial"",""time""
""focus"",""6"",""51370""
","""event"",""trial"",""time""
""fullscreenenter"",""5"",""39040""
","""event"",""trial"",""time""
""fullscreenexit"",""6"",""51367""
","","images/earth.jpg","","","","","","","","","","","","","","fixation","","","","","",""
"d3-animate-choice","91","639693","0.0-61.0-0.10","1456","3556","9","Female","true","false","false","true","""event"",""trial"",""time""
""fullscreenenter"",""5"",""39040""
""blur"",""6"",""51361""
""fullscreenexit"",""6"",""51367""
""focus"",""6"",""51370""
","""event"",""trial"",""time""
""blur"",""6"",""51361""
","""event"",""trial"",""time""
""focus"",""6"",""51370""
","""event"",""trial"",""time""
""fullscreenenter"",""5"",""39040""
","""event"",""trial"",""time""
""fullscreenexit"",""6"",""51367""
","658.5","","48","","","3000","1","1262.699999988079","48","images/earth.jpg","images/tutrocket1","images/tutrocket2","null","images/tutrocket1","","1","practice","null","2","","",""
"d3-animate-choice","92","643296","0.0-61.0-1.10","1456","3556","9","Female","true","false","false","true","""event"",""trial"",""time""
""fullscreenenter"",""5"",""39040""
""blur"",""6"",""51361""
""fullscreenexit"",""6"",""51367""
""focus"",""6"",""51370""
","""event"",""trial"",""time""
""blur"",""6"",""51361""
","""event"",""trial"",""time""
""focus"",""6"",""51370""
","""event"",""trial"",""time""
""fullscreenenter"",""5"",""39040""
","""event"",""trial"",""time""
""fullscreenexit"",""6"",""51367""
","1598.4000000357628","","48","","","3000","1","","","images/tutgreenplanet.jpg","images/tutalien2","images/tutalien1","images/tutrocket1","images/tutalien2","images/t.png","2","practice","false","2","rare","1","2022-11-11 00:50:55.747"
"two-step-fixation","93","644298","0.0-61.0-2.10","1456","3556","9","Female","true","false","false","true","""event"",""trial"",""time""
""fullscreenenter"",""5"",""39040""
""blur"",""6"",""51361""
""fullscreenexit"",""6"",""51367""
""focus"",""6"",""51370""
","""event"",""trial"",""time""
""blur"",""6"",""51361""
","""event"",""trial"",""time""
""focus"",""6"",""51370""
","""event"",""trial"",""time""
""fullscreenenter"",""5"",""39040""
","""event"",""trial"",""time""
""fullscreenexit"",""6"",""51367""
","","images/earth.jpg","","","","","","","","","","","","","","fixation","","","","","",""
"d3-animate-choice","94","646843","0.0-61.0-0.11","1456","3556","9","Female","true","false","false","true","""event"",""trial"",""time""
""fullscreenenter"",""5"",""39040""
""blur"",""6"",""51361""
""fullscreenexit"",""6"",""51367""
""focus"",""6"",""51370""
","""event"",""trial"",""time""
""blur"",""6"",""51361""
","""event"",""trial"",""time""
""focus"",""6"",""51370""
","""event"",""trial"",""time""
""fullscreenenter"",""5"",""39040""
","""event"",""trial"",""time""
""fullscreenexit"",""6"",""51367""
","540.1999999880791","","48","","","3000","1","","","images/earth.jpg","images/tutrocket1","images/tutrocket2","null","images/tutrocket1","","1","practice","null","2","","",""
"d3-animate-choice","95","649472","0.0-61.0-1.11","1456","3556","9","Female","true","false","false","true","""event"",""trial"",""time""
""fullscreenenter"",""5"",""39040""
""blur"",""6"",""51361""
""fullscreenexit"",""6"",""51367""
""focus"",""6"",""51370""
","""event"",""trial"",""time""
""blur"",""6"",""51361""
","""event"",""trial"",""time""
""focus"",""6"",""51370""
","""event"",""trial"",""time""
""fullscreenenter"",""5"",""39040""
","""event"",""trial"",""time""
""fullscreenexit"",""6"",""51367""
","622.9000000357628","","48","","","3000","1","","","images/tutyellowplanet.jpg","images/tutalien4","images/tutalien3","images/tutrocket1","images/tutalien4","images/nothing.png","2","practice","true","2","common","0","2022-11-11 00:51:01.923"
"two-step-fixation","96","650478","0.0-61.0-2.11","1456","3556","9","Female","true","false","false","true","""event"",""trial"",""time""
""fullscreenenter"",""5"",""39040""
""blur"",""6"",""51361""
""fullscreenexit"",""6"",""51367""
""focus"",""6"",""51370""
","""event"",""trial"",""time""
""blur"",""6"",""51361""
","""event"",""trial"",""time""
""focus"",""6"",""51370""
","""event"",""trial"",""time""
""fullscreenenter"",""5"",""39040""
","""event"",""trial"",""time""
""fullscreenexit"",""6"",""51367""
","","images/earth.jpg","","","","","","","","","","","","","","fixation","","","","","",""
"d3-animate-choice","97","652942","0.0-61.0-0.12","1456","3556","9","Female","true","false","false","true","""event"",""trial"",""time""
""fullscreenenter"",""5"",""39040""
""blur"",""6"",""51361""
""fullscreenexit"",""6"",""51367""
""focus"",""6"",""51370""
","""event"",""trial"",""time""
""blur"",""6"",""51361""
","""event"",""trial"",""time""
""focus"",""6"",""51370""
","""event"",""trial"",""time""
""fullscreenenter"",""5"",""39040""
","""event"",""trial"",""time""
""fullscreenexit"",""6"",""51367""
","461","","49","","","3000","1","","","images/earth.jpg","images/tutrocket1","images/tutrocket2","null","images/tutrocket2","","1","practice","null","1","","",""
"d3-animate-choice","98","655426","0.0-61.0-1.12","1456","3556","9","Female","true","false","false","true","""event"",""trial"",""time""
""fullscreenenter"",""5"",""39040""
""blur"",""6"",""51361""
""fullscreenexit"",""6"",""51367""
""focus"",""6"",""51370""
","""event"",""trial"",""time""
""blur"",""6"",""51361""
","""event"",""trial"",""time""
""focus"",""6"",""51370""
","""event"",""trial"",""time""
""fullscreenenter"",""5"",""39040""
","""event"",""trial"",""time""
""fullscreenexit"",""6"",""51367""
","479","","49","","","3000","1","","","images/tutgreenplanet.jpg","images/tutalien2","images/tutalien1","images/tutrocket2","images/tutalien1","images/t.png","2","practice","true","1","common","1","2022-11-11 00:51:07.877"
"two-step-fixation","99","656429","0.0-61.0-2.12","1456","3556","9","Female","true","false","false","true","""event"",""trial"",""time""
""fullscreenenter"",""5"",""39040""
""blur"",""6"",""51361""
""fullscreenexit"",""6"",""51367""
""focus"",""6"",""51370""
","""event"",""trial"",""time""
""blur"",""6"",""51361""
","""event"",""trial"",""time""
""focus"",""6"",""51370""
","""event"",""trial"",""time""
""fullscreenenter"",""5"",""39040""
","""event"",""trial"",""time""
""fullscreenexit"",""6"",""51367""
","","images/earth.jpg","","","","","","","","","","","","","","fixation","","","","","",""
"d3-animate-choice","100","659024","0.0-61.0-0.13","1456","3556","9","Female","true","false","false","true","""event"",""trial"",""time""
""fullscreenenter"",""5"",""39040""
""blur"",""6"",""51361""
""fullscreenexit"",""6"",""51367""
""focus"",""6"",""51370""
","""event"",""trial"",""time""
""blur"",""6"",""51361""
","""event"",""trial"",""time""
""focus"",""6"",""51370""
","""event"",""trial"",""time""
""fullscreenenter"",""5"",""39040""
","""event"",""trial"",""time""
""fullscreenexit"",""6"",""51367""
","591.0999999642372","","49","","","3000","1","","","images/earth.jpg","images/tutrocket1","images/tutrocket2","null","images/tutrocket2","","1","practice","null","1","","",""
"d3-animate-choice","101","661051","0.0-61.0-1.13","1456","3556","9","Female","true","false","false","true","""event"",""trial"",""time""
""fullscreenenter"",""5"",""39040""
""blur"",""6"",""51361""
""fullscreenexit"",""6"",""51367""
""focus"",""6"",""51370""
","""event"",""trial"",""time""
""blur"",""6"",""51361""
","""event"",""trial"",""time""
""focus"",""6"",""51370""
","""event"",""trial"",""time""
""fullscreenenter"",""5"",""39040""
","""event"",""trial"",""time""
""fullscreenexit"",""6"",""51367""
","22.80000001192093","","49","","","3000","1","513.5999999642372","49","images/tutyellowplanet.jpg","images/tutalien4","images/tutalien3","images/tutrocket2","images/tutalien3","images/t.png","2","practice","false","1","rare","1","2022-11-11 00:51:13.502"
"two-step-fixation","102","662054","0.0-61.0-2.13","1456","3556","9","Female","true","false","false","true","""event"",""trial"",""time""
""fullscreenenter"",""5"",""39040""
""blur"",""6"",""51361""
""fullscreenexit"",""6"",""51367""
""focus"",""6"",""51370""
","""event"",""trial"",""time""
""blur"",""6"",""51361""
","""event"",""trial"",""time""
""focus"",""6"",""51370""
","""event"",""trial"",""time""
""fullscreenenter"",""5"",""39040""
","""event"",""trial"",""time""
""fullscreenexit"",""6"",""51367""
","","images/earth.jpg","","","","","","","","","","","","","","fixation","","","","","",""
"d3-animate-choice","103","664553","0.0-61.0-0.14","1456","3556","9","Female","true","false","false","true","""event"",""trial"",""time""
""fullscreenenter"",""5"",""39040""
""blur"",""6"",""51361""
""fullscreenexit"",""6"",""51367""
""focus"",""6"",""51370""
","""event"",""trial"",""time""
""blur"",""6"",""51361""
","""event"",""trial"",""time""
""focus"",""6"",""51370""
","""event"",""trial"",""time""
""fullscreenenter"",""5"",""39040""
","""event"",""trial"",""time""
""fullscreenexit"",""6"",""51367""
","495.10000002384186","","49","","","3000","1","","","images/earth.jpg","images/tutrocket1","images/tutrocket2","null","images/tutrocket2","","1","practice","null","1","","",""
"d3-animate-choice","104","666952","0.0-61.0-1.14","1456","3556","9","Female","true","false","false","true","""event"",""trial"",""time""
""fullscreenenter"",""5"",""39040""
""blur"",""6"",""51361""
""fullscreenexit"",""6"",""51367""
""focus"",""6"",""51370""
","""event"",""trial"",""time""
""blur"",""6"",""51361""
","""event"",""trial"",""time""
""focus"",""6"",""51370""
","""event"",""trial"",""time""
""fullscreenenter"",""5"",""39040""
","""event"",""trial"",""time""
""fullscreenexit"",""6"",""51367""
","393.89999997615814","","49","","","3000","1","","","images/tutyellowplanet.jpg","images/tutalien4","images/tutalien3","images/tutrocket2","images/tutalien3","images/t.png","2","practice","false","1","rare","1","2022-11-11 00:51:19.404"
"two-step-fixation","105","667957","0.0-61.0-2.14","1456","3556","9","Female","true","false","false","true","""event"",""trial"",""time""
""fullscreenenter"",""5"",""39040""
""blur"",""6"",""51361""
""fullscreenexit"",""6"",""51367""
""focus"",""6"",""51370""
","""event"",""trial"",""time""
""blur"",""6"",""51361""
","""event"",""trial"",""time""
""focus"",""6"",""51370""
","""event"",""trial"",""time""
""fullscreenenter"",""5"",""39040""
","""event"",""trial"",""time""
""fullscreenexit"",""6"",""51367""
","","images/earth.jpg","","","","","","","","","","","","","","fixation","","","","","",""
"d3-animate-choice","106","671529","0.0-61.0-0.15","1456","3556","9","Female","true","false","false","true","""event"",""trial"",""time""
""fullscreenenter"",""5"",""39040""
""blur"",""6"",""51361""
""fullscreenexit"",""6"",""51367""
""focus"",""6"",""51370""
","""event"",""trial"",""time""
""blur"",""6"",""51361""
","""event"",""trial"",""time""
""focus"",""6"",""51370""
","""event"",""trial"",""time""
""fullscreenenter"",""5"",""39040""
","""event"",""trial"",""time""
""fullscreenexit"",""6"",""51367""
","1567.7000000476837","","49","","","3000","1","","","images/earth.jpg","images/tutrocket1","images/tutrocket2","null","images/tutrocket2","","1","practice","null","1","","",""
"d3-animate-choice","107","674447","0.0-61.0-1.15","1456","3556","9","Female","true","false","false","true","""event"",""trial"",""time""
""fullscreenenter"",""5"",""39040""
""blur"",""6"",""51361""
""fullscreenexit"",""6"",""51367""
""focus"",""6"",""51370""
","""event"",""trial"",""time""
""blur"",""6"",""51361""
","""event"",""trial"",""time""
""focus"",""6"",""51370""
","""event"",""trial"",""time""
""fullscreenenter"",""5"",""39040""
","""event"",""trial"",""time""
""fullscreenexit"",""6"",""51367""
","914","","49","","","3000","1","","","images/tutyellowplanet.jpg","images/tutalien4","images/tutalien3","images/tutrocket2","images/tutalien3","images/nothing.png","2","practice","false","1","rare","0","2022-11-11 00:51:26.898"
"two-step-fixation","108","675453","0.0-61.0-2.15","1456","3556","9","Female","true","false","false","true","""event"",""trial"",""time""
""fullscreenenter"",""5"",""39040""
""blur"",""6"",""51361""
""fullscreenexit"",""6"",""51367""
""focus"",""6"",""51370""
","""event"",""trial"",""time""
""blur"",""6"",""51361""
","""event"",""trial"",""time""
""focus"",""6"",""51370""
","""event"",""trial"",""time""
""fullscreenenter"",""5"",""39040""
","""event"",""trial"",""time""
""fullscreenexit"",""6"",""51367""
","","images/earth.jpg","","","","","","","","","","","","","","fixation","","","","","",""
"d3-animate-choice","109","678497","0.0-61.0-0.16","1456","3556","9","Female","true","false","false","true","""event"",""trial"",""time""
""fullscreenenter"",""5"",""39040""
""blur"",""6"",""51361""
""fullscreenexit"",""6"",""51367""
""focus"",""6"",""51370""
","""event"",""trial"",""time""
""blur"",""6"",""51361""
","""event"",""trial"",""time""
""focus"",""6"",""51370""
","""event"",""trial"",""time""
""fullscreenenter"",""5"",""39040""
","""event"",""trial"",""time""
""fullscreenexit"",""6"",""51367""
","1038.5","","49","","","3000","1","","","images/earth.jpg","images/tutrocket1","images/tutrocket2","null","images/tutrocket2","","1","practice","null","1","","",""
"d3-animate-choice","110","681730","0.0-61.0-1.16","1456","3556","9","Female","true","false","false","true","""event"",""trial"",""time""
""fullscreenenter"",""5"",""39040""
""blur"",""6"",""51361""
""fullscreenexit"",""6"",""51367""
""focus"",""6"",""51370""
","""event"",""trial"",""time""
""blur"",""6"",""51361""
","""event"",""trial"",""time""
""focus"",""6"",""51370""
","""event"",""trial"",""time""
""fullscreenenter"",""5"",""39040""
","""event"",""trial"",""time""
""fullscreenexit"",""6"",""51367""
","1230.4000000357628","","48","","","3000","1","","","images/tutyellowplanet.jpg","images/tutalien4","images/tutalien3","images/tutrocket2","images/tutalien4","images/nothing.png","2","practice","false","2","rare","0","2022-11-11 00:51:34.182"
"two-step-fixation","111","682736","0.0-61.0-2.16","1456","3556","9","Female","true","false","false","true","""event"",""trial"",""time""
""fullscreenenter"",""5"",""39040""
""blur"",""6"",""51361""
""fullscreenexit"",""6"",""51367""
""focus"",""6"",""51370""
","""event"",""trial"",""time""
""blur"",""6"",""51361""
","""event"",""trial"",""time""
""focus"",""6"",""51370""
","""event"",""trial"",""time""
""fullscreenenter"",""5"",""39040""
","""event"",""trial"",""time""
""fullscreenexit"",""6"",""51367""
","","images/earth.jpg","","","","","","","","","","","","","","fixation","","","","","",""
"d3-animate-choice","112","685198","0.0-61.0-0.17","1456","3556","9","Female","true","false","false","true","""event"",""trial"",""time""
""fullscreenenter"",""5"",""39040""
""blur"",""6"",""51361""
""fullscreenexit"",""6"",""51367""
""focus"",""6"",""51370""
","""event"",""trial"",""time""
""blur"",""6"",""51361""
","""event"",""trial"",""time""
""focus"",""6"",""51370""
","""event"",""trial"",""time""
""fullscreenenter"",""5"",""39040""
","""event"",""trial"",""time""
""fullscreenexit"",""6"",""51367""
","456.69999998807907","","49","","","3000","1","","","images/earth.jpg","images/tutrocket1","images/tutrocket2","null","images/tutrocket2","","1","practice","null","1","","",""
"d3-animate-choice","113","688465","0.0-61.0-1.17","1456","3556","9","Female","true","false","false","true","""event"",""trial"",""time""
""fullscreenenter"",""5"",""39040""
""blur"",""6"",""51361""
""fullscreenexit"",""6"",""51367""
""focus"",""6"",""51370""
","""event"",""trial"",""time""
""blur"",""6"",""51361""
","""event"",""trial"",""time""
""focus"",""6"",""51370""
","""event"",""trial"",""time""
""fullscreenenter"",""5"",""39040""
","""event"",""trial"",""time""
""fullscreenexit"",""6"",""51367""
","1259.6000000238419","","49","","","3000","1","","","images/tutgreenplanet.jpg","images/tutalien2","images/tutalien1","images/tutrocket2","images/tutalien1","images/nothing.png","2","practice","true","1","common","0","2022-11-11 00:51:40.916"
"two-step-fixation","114","689471","0.0-61.0-2.17","1456","3556","9","Female","true","false","false","true","""event"",""trial"",""time""
""fullscreenenter"",""5"",""39040""
""blur"",""6"",""51361""
""fullscreenexit"",""6"",""51367""
""focus"",""6"",""51370""
","""event"",""trial"",""time""
""blur"",""6"",""51361""
","""event"",""trial"",""time""
""focus"",""6"",""51370""
","""event"",""trial"",""time""
""fullscreenenter"",""5"",""39040""
","""event"",""trial"",""time""
""fullscreenexit"",""6"",""51367""
","","images/earth.jpg","","","","","","","","","","","","","","fixation","","","","","",""
"d3-animate-choice","115","691890","0.0-61.0-0.18","1456","3556","9","Female","true","false","false","true","""event"",""trial"",""time""
""fullscreenenter"",""5"",""39040""
""blur"",""6"",""51361""
""fullscreenexit"",""6"",""51367""
""focus"",""6"",""51370""
","""event"",""trial"",""time""
""blur"",""6"",""51361""
","""event"",""trial"",""time""
""focus"",""6"",""51370""
","""event"",""trial"",""time""
""fullscreenenter"",""5"",""39040""
","""event"",""trial"",""time""
""fullscreenexit"",""6"",""51367""
","412.30000001192093","","49","","","3000","1","","","images/earth.jpg","images/tutrocket1","images/tutrocket2","null","images/tutrocket2","","1","practice","null","1","","",""
"d3-animate-choice","116","694773","0.0-61.0-1.18","1456","3556","9","Female","true","false","false","true","""event"",""trial"",""time""
""fullscreenenter"",""5"",""39040""
""blur"",""6"",""51361""
""fullscreenexit"",""6"",""51367""
""focus"",""6"",""51370""
","""event"",""trial"",""time""
""blur"",""6"",""51361""
","""event"",""trial"",""time""
""focus"",""6"",""51370""
","""event"",""trial"",""time""
""fullscreenenter"",""5"",""39040""
","""event"",""trial"",""time""
""fullscreenexit"",""6"",""51367""
","877.4000000357628","","49","","","3000","1","","","images/tutgreenplanet.jpg","images/tutalien2","images/tutalien1","images/tutrocket2","images/tutalien1","images/nothing.png","2","practice","true","1","common","0","2022-11-11 00:51:47.224"
"two-step-fixation","117","695779","0.0-61.0-2.18","1456","3556","9","Female","true","false","false","true","""event"",""trial"",""time""
""fullscreenenter"",""5"",""39040""
""blur"",""6"",""51361""
""fullscreenexit"",""6"",""51367""
""focus"",""6"",""51370""
","""event"",""trial"",""time""
""blur"",""6"",""51361""
","""event"",""trial"",""time""
""focus"",""6"",""51370""
","""event"",""trial"",""time""
""fullscreenenter"",""5"",""39040""
","""event"",""trial"",""time""
""fullscreenexit"",""6"",""51367""
","","images/earth.jpg","","","","","","","","","","","","","","fixation","","","","","",""
"d3-animate-choice","118","698556","0.0-61.0-0.19","1456","3556","9","Female","true","false","false","true","""event"",""trial"",""time""
""fullscreenenter"",""5"",""39040""
""blur"",""6"",""51361""
""fullscreenexit"",""6"",""51367""
""focus"",""6"",""51370""
","""event"",""trial"",""time""
""blur"",""6"",""51361""
","""event"",""trial"",""time""
""focus"",""6"",""51370""
","""event"",""trial"",""time""
""fullscreenenter"",""5"",""39040""
","""event"",""trial"",""time""
""fullscreenexit"",""6"",""51367""
","770.5","","49","","","3000","1","","","images/earth.jpg","images/tutrocket1","images/tutrocket2","null","images/tutrocket2","","1","practice","null","1","","",""
"d3-animate-choice","119","701386","0.0-61.0-1.19","1456","3556","9","Female","true","false","false","true","""event"",""trial"",""time""
""fullscreenenter"",""5"",""39040""
""blur"",""6"",""51361""
""fullscreenexit"",""6"",""51367""
""focus"",""6"",""51370""
","""event"",""trial"",""time""
""blur"",""6"",""51361""
","""event"",""trial"",""time""
""focus"",""6"",""51370""
","""event"",""trial"",""time""
""fullscreenenter"",""5"",""39040""
","""event"",""trial"",""time""
""fullscreenexit"",""6"",""51367""
","824.5999999642372","","49","","","3000","1","","","images/tutyellowplanet.jpg","images/tutalien4","images/tutalien3","images/tutrocket2","images/tutalien3","images/t.png","2","practice","false","1","rare","1","2022-11-11 00:51:53.837"
"two-step-fixation","120","702392","0.0-61.0-2.19","1456","3556","9","Female","true","false","false","true","""event"",""trial"",""time""
""fullscreenenter"",""5"",""39040""
""blur"",""6"",""51361""
""fullscreenexit"",""6"",""51367""
""focus"",""6"",""51370""
","""event"",""trial"",""time""
""blur"",""6"",""51361""
","""event"",""trial"",""time""
""focus"",""6"",""51370""
","""event"",""trial"",""time""
""fullscreenenter"",""5"",""39040""
","""event"",""trial"",""time""
""fullscreenexit"",""6"",""51367""
","","images/earth.jpg","","","","","","","","","","","","","","fixation","","","","","",""
"d3-instructions","121","710761","0.0-62.0","1456","3556","9","Female","true","false","false","true","""event"",""trial"",""time""
""fullscreenenter"",""5"",""39040""
""blur"",""6"",""51361""
""fullscreenexit"",""6"",""51367""
""focus"",""6"",""51370""
","""event"",""trial"",""time""
""blur"",""6"",""51361""
","""event"",""trial"",""time""
""focus"",""6"",""51370""
","""event"",""trial"",""time""
""fullscreenenter"",""5"",""39040""
","""event"",""trial"",""time""
""fullscreenexit"",""6"",""51367""
","","","","","","","","","","","","","","","","","","","","","",""
"audio-keyboard-response","122","710820","0.0-63.0","1456","3556","9","Female","true","false","false","true","""event"",""trial"",""time""
""fullscreenenter"",""5"",""39040""
""blur"",""6"",""51361""
""fullscreenexit"",""6"",""51367""
""focus"",""6"",""51370""
","""event"",""trial"",""time""
""blur"",""6"",""51361""
","""event"",""trial"",""time""
""focus"",""6"",""51370""
","""event"",""trial"",""time""
""fullscreenenter"",""5"",""39040""
","""event"",""trial"",""time""
""fullscreenexit"",""6"",""51367""
","59","audio/instructions/treasure_feedback.wav","71","","","","","","","","","","","","","","","","","","",""
"d3-instructions","123","733160","0.0-64.0","1456","3556","9","Female","true","false","false","true","""event"",""trial"",""time""
""fullscreenenter"",""5"",""39040""
""blur"",""6"",""51361""
""fullscreenexit"",""6"",""51367""
""focus"",""6"",""51370""
","""event"",""trial"",""time""
""blur"",""6"",""51361""
","""event"",""trial"",""time""
""focus"",""6"",""51370""
","""event"",""trial"",""time""
""fullscreenenter"",""5"",""39040""
","""event"",""trial"",""time""
""fullscreenexit"",""6"",""51367""
","","","","","","","","","","","","","","","","","","","","","",""
"d3-instructions","124","751529","0.0-65.0","1456","3556","9","Female","true","false","false","true","""event"",""trial"",""time""
""fullscreenenter"",""5"",""39040""
""blur"",""6"",""51361""
""fullscreenexit"",""6"",""51367""
""focus"",""6"",""51370""
","""event"",""trial"",""time""
""blur"",""6"",""51361""
","""event"",""trial"",""time""
""focus"",""6"",""51370""
","""event"",""trial"",""time""
""fullscreenenter"",""5"",""39040""
","""event"",""trial"",""time""
""fullscreenexit"",""6"",""51367""
","","","","","","","","","","","","","","","","","","","","","",""
"d3-instructions","125","778797","0.0-66.0","1456","3556","9","Female","true","false","false","true","""event"",""trial"",""time""
""fullscreenenter"",""5"",""39040""
""blur"",""6"",""51361""
""fullscreenexit"",""6"",""51367""
""focus"",""6"",""51370""
","""event"",""trial"",""time""
""blur"",""6"",""51361""
","""event"",""trial"",""time""
""focus"",""6"",""51370""
","""event"",""trial"",""time""
""fullscreenenter"",""5"",""39040""
","""event"",""trial"",""time""
""fullscreenexit"",""6"",""51367""
","","","","","","","","","","","","","","","","","","","","","",""
"d3-instructions","126","800055","0.0-67.0","1456","3556","9","Female","true","false","false","true","""event"",""trial"",""time""
""fullscreenenter"",""5"",""39040""
""blur"",""6"",""51361""
""fullscreenexit"",""6"",""51367""
""focus"",""6"",""51370""
","""event"",""trial"",""time""
""blur"",""6"",""51361""
","""event"",""trial"",""time""
""focus"",""6"",""51370""
","""event"",""trial"",""time""
""fullscreenenter"",""5"",""39040""
","""event"",""trial"",""time""
""fullscreenexit"",""6"",""51367""
","","","","","","","","","","","","","","","","","","","","","",""
"d3-instructions","127","812818","0.0-68.0","1456","3556","9","Female","true","false","false","true","""event"",""trial"",""time""
""fullscreenenter"",""5"",""39040""
""blur"",""6"",""51361""
""fullscreenexit"",""6"",""51367""
""focus"",""6"",""51370""
","""event"",""trial"",""time""
""blur"",""6"",""51361""
","""event"",""trial"",""time""
""focus"",""6"",""51370""
","""event"",""trial"",""time""
""fullscreenenter"",""5"",""39040""
","""event"",""trial"",""time""
""fullscreenexit"",""6"",""51367""
","","","","","","","","","","","","","","","","","","","","","",""
"instructions-quiz","128","822808","0.0-69.0","1456","3556","9","Female","true","false","false","true","""event"",""trial"",""time""
""fullscreenenter"",""5"",""39040""
""blur"",""6"",""51361""
""fullscreenexit"",""6"",""51367""
""focus"",""6"",""51370""
","""event"",""trial"",""time""
""blur"",""6"",""51361""
","""event"",""trial"",""time""
""focus"",""6"",""51370""
","""event"",""trial"",""time""
""fullscreenenter"",""5"",""39040""
","""event"",""trial"",""time""
""fullscreenexit"",""6"",""51367""
","9984.400000035763","audio/quiz/Q1_Prompt.wav","","1","","","","","","","","","","","","","","","","","",""
"audio-keyboard-response","129","831976","0.0-70.0","1456","3556","9","Female","true","false","false","true","""event"",""trial"",""time""
""fullscreenenter"",""5"",""39040""
""blur"",""6"",""51361""
""fullscreenexit"",""6"",""51367""
""focus"",""6"",""51370""
","""event"",""trial"",""time""
""blur"",""6"",""51361""
","""event"",""trial"",""time""
""focus"",""6"",""51370""
","""event"",""trial"",""time""
""fullscreenenter"",""5"",""39040""
","""event"",""trial"",""time""
""fullscreenexit"",""6"",""51367""
","null","audio/quiz/Q1_Correct.wav","null","","","","","","","","","","","","","","","","","","",""
"instructions-quiz","130","842030","0.0-71.0","1456","3556","9","Female","true","false","false","true","""event"",""trial"",""time""
""fullscreenenter"",""5"",""39040""
""blur"",""6"",""51361""
""fullscreenexit"",""6"",""51367""
""focus"",""6"",""51370""
","""event"",""trial"",""time""
""blur"",""6"",""51361""
","""event"",""trial"",""time""
""focus"",""6"",""51370""
","""event"",""trial"",""time""
""fullscreenenter"",""5"",""39040""
","""event"",""trial"",""time""
""fullscreenexit"",""6"",""51367""
","10049.300000011921","audio/quiz/Q2_Prompt.wav","","0","","","","","","","","","","","","","","","","","",""
"audio-keyboard-response","131","854896","0.0-72.0","1456","3556","9","Female","true","false","false","true","""event"",""trial"",""time""
""fullscreenenter"",""5"",""39040""
""blur"",""6"",""51361""
""fullscreenexit"",""6"",""51367""
""focus"",""6"",""51370""
","""event"",""trial"",""time""
""blur"",""6"",""51361""
","""event"",""trial"",""time""
""focus"",""6"",""51370""
","""event"",""trial"",""time""
""fullscreenenter"",""5"",""39040""
","""event"",""trial"",""time""
""fullscreenexit"",""6"",""51367""
","null","audio/quiz/Q2_Correct.wav","null","","","","","","","","","","","","","","","","","","",""
"instructions-quiz","132","860409","0.0-73.0","1456","3556","9","Female","true","false","false","true","""event"",""trial"",""time""
""fullscreenenter"",""5"",""39040""
""blur"",""6"",""51361""
""fullscreenexit"",""6"",""51367""
""focus"",""6"",""51370""
","""event"",""trial"",""time""
""blur"",""6"",""51361""
","""event"",""trial"",""time""
""focus"",""6"",""51370""
","""event"",""trial"",""time""
""fullscreenenter"",""5"",""39040""
","""event"",""trial"",""time""
""fullscreenexit"",""6"",""51367""
","5509.700000047684","audio/quiz/Q3_Prompt.wav","","1","","","","","","","","","","","","","","","","","",""
"audio-keyboard-response","133","866205","0.0-74.0","1456","3556","9","Female","true","false","false","true","""event"",""trial"",""time""
""fullscreenenter"",""5"",""39040""
""blur"",""6"",""51361""
""fullscreenexit"",""6"",""51367""
""focus"",""6"",""51370""
","""event"",""trial"",""time""
""blur"",""6"",""51361""
","""event"",""trial"",""time""
""focus"",""6"",""51370""
","""event"",""trial"",""time""
""fullscreenenter"",""5"",""39040""
","""event"",""trial"",""time""
""fullscreenexit"",""6"",""51367""
","null","audio/quiz/Q3_Correct.wav","null","","","","","","","","","","","","","","","","","","",""
"d3-instructions","134","888103","0.0-75.0","1456","3556","9","Female","true","false","false","true","""event"",""trial"",""time""
""fullscreenenter"",""5"",""39040""
""blur"",""6"",""51361""
""fullscreenexit"",""6"",""51367""
""focus"",""6"",""51370""
","""event"",""trial"",""time""
""blur"",""6"",""51361""
","""event"",""trial"",""time""
""focus"",""6"",""51370""
","""event"",""trial"",""time""
""fullscreenenter"",""5"",""39040""
","""event"",""trial"",""time""
""fullscreenexit"",""6"",""51367""
","","","","","","","","","","","","","","","","","","","","","",""
"d3-animate-choice","135","891840","0.0-76.0-0.0","1456","3556","9","Female","true","false","false","true","""event"",""trial"",""time""
""fullscreenenter"",""5"",""39040""
""blur"",""6"",""51361""
""fullscreenexit"",""6"",""51367""
""focus"",""6"",""51370""
","""event"",""trial"",""time""
""blur"",""6"",""51361""
","""event"",""trial"",""time""
""focus"",""6"",""51370""
","""event"",""trial"",""time""
""fullscreenenter"",""5"",""39040""
","""event"",""trial"",""time""
""fullscreenexit"",""6"",""51367""
","1732.800000011921","","48","","","3000","1","","","images/earth.jpg","images/rocket2","images/rocket1","null","images/rocket2","","1","real","null","2","","",""
"d3-animate-choice","136","895414","0.0-76.0-1.0","1456","3556","9","Female","true","false","false","true","""event"",""trial"",""time""
""fullscreenenter"",""5"",""39040""
""blur"",""6"",""51361""
""fullscreenexit"",""6"",""51367""
""focus"",""6"",""51370""
","""event"",""trial"",""time""
""blur"",""6"",""51361""
","""event"",""trial"",""time""
""focus"",""6"",""51370""
","""event"",""trial"",""time""
""fullscreenenter"",""5"",""39040""
","""event"",""trial"",""time""
""fullscreenexit"",""6"",""51367""
","1568.300000011921","","48","","","3000","1","","","images/purpleplanet.jpg","images/alien4","images/alien3","images/rocket2","images/alien4","images/t.png","2","real","false","2","rare","1","2022-11-11 00:55:07.865"
"two-step-fixation","137","896420","0.0-76.0-2.0","1456","3556","9","Female","true","false","false","true","""event"",""trial"",""time""
""fullscreenenter"",""5"",""39040""
""blur"",""6"",""51361""
""fullscreenexit"",""6"",""51367""
""focus"",""6"",""51370""
","""event"",""trial"",""time""
""blur"",""6"",""51361""
","""event"",""trial"",""time""
""focus"",""6"",""51370""
","""event"",""trial"",""time""
""fullscreenenter"",""5"",""39040""
","""event"",""trial"",""time""
""fullscreenexit"",""6"",""51367""
","","images/earth.jpg","","","","","","","","","","","","","","fixation","","","","","",""
"d3-animate-choice","138","898875","0.0-76.0-0.1","1456","3556","9","Female","true","false","false","true","""event"",""trial"",""time""
""fullscreenenter"",""5"",""39040""
""blur"",""6"",""51361""
""fullscreenexit"",""6"",""51367""
""focus"",""6"",""51370""
","""event"",""trial"",""time""
""blur"",""6"",""51361""
","""event"",""trial"",""time""
""focus"",""6"",""51370""
","""event"",""trial"",""time""
""fullscreenenter"",""5"",""39040""
","""event"",""trial"",""time""
""fullscreenexit"",""6"",""51367""
","448.69999998807907","","48","","","3000","1","","","images/earth.jpg","images/rocket2","images/rocket1","null","images/rocket2","","1","real","null","2","","",""
"d3-animate-choice","139","902295","0.0-76.0-1.1","1456","3556","9","Female","true","false","false","true","""event"",""trial"",""time""
""fullscreenenter"",""5"",""39040""
""blur"",""6"",""51361""
""fullscreenexit"",""6"",""51367""
""focus"",""6"",""51370""
","""event"",""trial"",""time""
""blur"",""6"",""51361""
","""event"",""trial"",""time""
""focus"",""6"",""51370""
","""event"",""trial"",""time""
""fullscreenenter"",""5"",""39040""
","""event"",""trial"",""time""
""fullscreenexit"",""6"",""51367""
","1397.7000000476837","","48","","","3000","1","","","images/redplanet1.jpg","images/alien2","images/alien1","images/rocket2","images/alien2","images/t.png","2","real","true","2","common","1","2022-11-11 00:55:14.746"
"two-step-fixation","140","903316","0.0-76.0-2.1","1456","3556","9","Female","true","false","false","true","""event"",""trial"",""time""
""fullscreenenter"",""5"",""39040""
""blur"",""6"",""51361""
""fullscreenexit"",""6"",""51367""
""focus"",""6"",""51370""
","""event"",""trial"",""time""
""blur"",""6"",""51361""
","""event"",""trial"",""time""
""focus"",""6"",""51370""
","""event"",""trial"",""time""
""fullscreenenter"",""5"",""39040""
","""event"",""trial"",""time""
""fullscreenexit"",""6"",""51367""
","","images/earth.jpg","","","","","","","","","","","","","","fixation","","","","","",""
"d3-animate-choice","141","905938","0.0-76.0-0.2","1456","3556","9","Female","true","false","false","true","""event"",""trial"",""time""
""fullscreenenter"",""5"",""39040""
""blur"",""6"",""51361""
""fullscreenexit"",""6"",""51367""
""focus"",""6"",""51370""
","""event"",""trial"",""time""
""blur"",""6"",""51361""
","""event"",""trial"",""time""
""focus"",""6"",""51370""
","""event"",""trial"",""time""
""fullscreenenter"",""5"",""39040""
","""event"",""trial"",""time""
""fullscreenexit"",""6"",""51367""
","616.5999999642372","","49","","","3000","1","","","images/earth.jpg","images/rocket2","images/rocket1","null","images/rocket1","","1","real","null","1","","",""
"d3-animate-choice","142","908682","0.0-76.0-1.2","1456","3556","9","Female","true","false","false","true","""event"",""trial"",""time""
""fullscreenenter"",""5"",""39040""
""blur"",""6"",""51361""
""fullscreenexit"",""6"",""51367""
""focus"",""6"",""51370""
","""event"",""trial"",""time""
""blur"",""6"",""51361""
","""event"",""trial"",""time""
""focus"",""6"",""51370""
","""event"",""trial"",""time""
""fullscreenenter"",""5"",""39040""
","""event"",""trial"",""time""
""fullscreenexit"",""6"",""51367""
","739.3000000119209","","49","","","3000","1","","","images/purpleplanet.jpg","images/alien4","images/alien3","images/rocket1","images/alien3","images/nothing.png","2","real","true","1","common","0","2022-11-11 00:55:21.134"
"two-step-fixation","143","909688","0.0-76.0-2.2","1456","3556","9","Female","true","false","false","true","""event"",""trial"",""time""
""fullscreenenter"",""5"",""39040""
""blur"",""6"",""51361""
""fullscreenexit"",""6"",""51367""
""focus"",""6"",""51370""
","""event"",""trial"",""time""
""blur"",""6"",""51361""
","""event"",""trial"",""time""
""focus"",""6"",""51370""
","""event"",""trial"",""time""
""fullscreenenter"",""5"",""39040""
","""event"",""trial"",""time""
""fullscreenexit"",""6"",""51367""
","","images/earth.jpg","","","","","","","","","","","","","","fixation","","","","","",""
"d3-animate-choice","144","912205","0.0-76.0-0.3","1456","3556","9","Female","true","false","false","true","""event"",""trial"",""time""
""fullscreenenter"",""5"",""39040""
""blur"",""6"",""51361""
""fullscreenexit"",""6"",""51367""
""focus"",""6"",""51370""
","""event"",""trial"",""time""
""blur"",""6"",""51361""
","""event"",""trial"",""time""
""focus"",""6"",""51370""
","""event"",""trial"",""time""
""fullscreenenter"",""5"",""39040""
","""event"",""trial"",""time""
""fullscreenexit"",""6"",""51367""
","511.7999999523163","","48","","","3000","1","","","images/earth.jpg","images/rocket2","images/rocket1","null","images/rocket2","","1","real","null","2","","",""
"d3-animate-choice","145","915570","0.0-76.0-1.3","1456","3556","9","Female","true","false","false","true","""event"",""trial"",""time""
""fullscreenenter"",""5"",""39040""
""blur"",""6"",""51361""
""fullscreenexit"",""6"",""51367""
""focus"",""6"",""51370""
","""event"",""trial"",""time""
""blur"",""6"",""51361""
","""event"",""trial"",""time""
""focus"",""6"",""51370""
","""event"",""trial"",""time""
""fullscreenenter"",""5"",""39040""
","""event"",""trial"",""time""
""fullscreenexit"",""6"",""51367""
","1358.4000000357628","","48","","","3000","1","","","images/redplanet1.jpg","images/alien2","images/alien1","images/rocket2","images/alien2","images/t.png","2","real","true","2","common","1","2022-11-11 00:55:28.021"
"two-step-fixation","146","916574","0.0-76.0-2.3","1456","3556","9","Female","true","false","false","true","""event"",""trial"",""time""
""fullscreenenter"",""5"",""39040""
""blur"",""6"",""51361""
""fullscreenexit"",""6"",""51367""
""focus"",""6"",""51370""
","""event"",""trial"",""time""
""blur"",""6"",""51361""
","""event"",""trial"",""time""
""focus"",""6"",""51370""
","""event"",""trial"",""time""
""fullscreenenter"",""5"",""39040""
","""event"",""trial"",""time""
""fullscreenexit"",""6"",""51367""
","","images/earth.jpg","","","","","","","","","","","","","","fixation","","","","","",""
"d3-animate-choice","147","919498","0.0-76.0-0.4","1456","3556","9","Female","true","false","false","true","""event"",""trial"",""time""
""fullscreenenter"",""5"",""39040""
""blur"",""6"",""51361""
""fullscreenexit"",""6"",""51367""
""focus"",""6"",""51370""
","""event"",""trial"",""time""
""blur"",""6"",""51361""
","""event"",""trial"",""time""
""focus"",""6"",""51370""
","""event"",""trial"",""time""
""fullscreenenter"",""5"",""39040""
","""event"",""trial"",""time""
""fullscreenexit"",""6"",""51367""
","920.5999999642372","","48","","","3000","1","","","images/earth.jpg","images/rocket2","images/rocket1","null","images/rocket2","","1","real","null","2","","",""
"d3-animate-choice","148","922476","0.0-76.0-1.4","1456","3556","9","Female","true","false","false","true","""event"",""trial"",""time""
""fullscreenenter"",""5"",""39040""
""blur"",""6"",""51361""
""fullscreenexit"",""6"",""51367""
""focus"",""6"",""51370""
","""event"",""trial"",""time""
""blur"",""6"",""51361""
","""event"",""trial"",""time""
""focus"",""6"",""51370""
","""event"",""trial"",""time""
""fullscreenenter"",""5"",""39040""
","""event"",""trial"",""time""
""fullscreenexit"",""6"",""51367""
","972.7999999523163","","49","","","3000","1","","","images/purpleplanet.jpg","images/alien4","images/alien3","images/rocket2","images/alien3","images/t.png","2","real","false","1","rare","1","2022-11-11 00:55:34.928"
"two-step-fixation","149","923483","0.0-76.0-2.4","1456","3556","9","Female","true","false","false","true","""event"",""trial"",""time""
""fullscreenenter"",""5"",""39040""
""blur"",""6"",""51361""
""fullscreenexit"",""6"",""51367""
""focus"",""6"",""51370""
","""event"",""trial"",""time""
""blur"",""6"",""51361""
","""event"",""trial"",""time""
""focus"",""6"",""51370""
","""event"",""trial"",""time""
""fullscreenenter"",""5"",""39040""
","""event"",""trial"",""time""
""fullscreenexit"",""6"",""51367""
","","images/earth.jpg","","","","","","","","","","","","","","fixation","","","","","",""
"d3-animate-choice","150","926189","0.0-76.0-0.5","1456","3556","9","Female","true","false","false","true","""event"",""trial"",""time""
""fullscreenenter"",""5"",""39040""
""blur"",""6"",""51361""
""fullscreenexit"",""6"",""51367""
""focus"",""6"",""51370""
","""event"",""trial"",""time""
""blur"",""6"",""51361""
","""event"",""trial"",""time""
""focus"",""6"",""51370""
","""event"",""trial"",""time""
""fullscreenenter"",""5"",""39040""
","""event"",""trial"",""time""
""fullscreenexit"",""6"",""51367""
","700.4000000357628","","48","","","3000","1","748.2000000476837,786.7000000476837","13,222","images/earth.jpg","images/rocket2","images/rocket1","null","images/rocket2","","1","real","null","2","","",""
"d3-animate-choice","151","930197","0.0-76.0-1.5","1456","3556","9","Female","true","false","false","true","""event"",""trial"",""time""
""fullscreenenter"",""5"",""39040""
""blur"",""6"",""51361""
""fullscreenexit"",""6"",""51367""
""focus"",""6"",""51370""
","""event"",""trial"",""time""
""blur"",""6"",""51361""
","""event"",""trial"",""time""
""focus"",""6"",""51370""
","""event"",""trial"",""time""
""fullscreenenter"",""5"",""39040""
","""event"",""trial"",""time""
""fullscreenexit"",""6"",""51367""
","2732.199999988079","","48","","","3000","1","","","images/redplanet1.jpg","images/alien2","images/alien1","images/rocket2","images/alien2","","2","real","true","2","common","0","2022-11-11 00:55:42.648"
"two-step-fixation","152","931202","0.0-76.0-2.5","1456","3556","9","Female","true","false","false","true","""event"",""trial"",""time""
""fullscreenenter"",""5"",""39040""
""blur"",""6"",""51361""
""fullscreenexit"",""6"",""51367""
""focus"",""6"",""51370""
","""event"",""trial"",""time""
""blur"",""6"",""51361""
","""event"",""trial"",""time""
""focus"",""6"",""51370""
","""event"",""trial"",""time""
""fullscreenenter"",""5"",""39040""
","""event"",""trial"",""time""
""fullscreenexit"",""6"",""51367""
","","images/earth.jpg","","","","","","","","","","","","","","fixation","","","","","",""
"d3-animate-choice","153","934038","0.0-76.0-0.6","1456","3556","9","Female","true","false","false","true","""event"",""trial"",""time""
""fullscreenenter"",""5"",""39040""
""blur"",""6"",""51361""
""fullscreenexit"",""6"",""51367""
""focus"",""6"",""51370""
","""event"",""trial"",""time""
""blur"",""6"",""51361""
","""event"",""trial"",""time""
