"trial_type","trial_index","time_elapsed","internal_node_id","participant_id","subject_id","age","gender","rocket_sides","red_planet_first_rocket","red_display_order","purple_display_order","interactions","blur_events","focus_events","fullscreenenter_events","fullscreenexit_events","rt","stimulus","key_press","button_pressed","success","duration","valid_pressed","rts","keys","planet_text","right_text","left_text","center_text","chosen_text","reward_text","trial_stage","practice_trial","transition_type","choice","transition","reward","timestamp"
"pavlovia","0","3","0.0-0.0","478","696","21","Female","true","true","false","false","
","
","
","
","
","","","","","","","","","","","","","","","","","","","","","",""
"html-keyboard-response","1","1120","0.0-1.0","478","696","21","Female","true","true","false","false","
","
","
","
","
","1116.3999999761581","Welcome! Press the space bar to begin.","32","","","","","","","","","","","","","","","","","","",""
"audio-keyboard-response","2","4167","0.0-2.0","478","696","21","Female","true","true","false","false","
","
","
","
","
","2976","audio/beep_loop.wav","32","","","","","","","","","","","","","","","","","","",""
"audio-button-response","3","7088","0.0-3.0","478","696","21","Female","true","true","false","false","
","
","
","
","
","NaN","audio/fish.mp3","","1","","","","","","","","","","","","","","","","","",""
"audio-button-response","4","9858","0.0-4.0","478","696","21","Female","true","true","false","false","""event"",""trial"",""time""
""fullscreenenter"",""5"",""13073""
","
","
","""event"",""trial"",""time""
""fullscreenenter"",""5"",""13073""
","
","NaN","audio/tiger.mp3","","4","","","","","","","","","","","","","","","","","",""
"fullscreen","5","14036","0.0-5.0","478","696","21","Female","true","true","false","false","""event"",""trial"",""time""
""fullscreenenter"",""5"",""13073""
","
","
","""event"",""trial"",""time""
""fullscreenenter"",""5"",""13073""
","
","","","","","true","","","","","","","","","","","","","","","","",""
"d3-instructions","6","28592","0.0-6.0","478","696","21","Female","true","true","false","false","""event"",""trial"",""time""
""fullscreenenter"",""5"",""13073""
","
","
","""event"",""trial"",""time""
""fullscreenenter"",""5"",""13073""
","
","","","","","","","","","","","","","","","","","","","","","",""
"d3-instructions","7","40074","0.0-7.0","478","696","21","Female","true","true","false","false","""event"",""trial"",""time""
""fullscreenenter"",""5"",""13073""
","
","
","""event"",""trial"",""time""
""fullscreenenter"",""5"",""13073""
","
","","","","","","","","","","","","","","","","","","","","","",""
"d3-instructions","8","47609","0.0-8.0","478","696","21","Female","true","true","false","false","""event"",""trial"",""time""
""fullscreenenter"",""5"",""13073""
","
","
","""event"",""trial"",""time""
""fullscreenenter"",""5"",""13073""
","
","","","","","","","","","","","","","","","","","","","","","",""
"d3-instructions","9","58157","0.0-9.0","478","696","21","Female","true","true","false","false","""event"",""trial"",""time""
""fullscreenenter"",""5"",""13073""
","
","
","""event"",""trial"",""time""
""fullscreenenter"",""5"",""13073""
","
","","","","","","","","","","","","","","","","","","","","","",""
"d3-instructions","10","79926","0.0-10.0","478","696","21","Female","true","true","false","false","""event"",""trial"",""time""
""fullscreenenter"",""5"",""13073""
","
","
","""event"",""trial"",""time""
""fullscreenenter"",""5"",""13073""
","
","","","","","","","","","","","","","","","","","","","","","",""
"d3-animate-choice","11","82441","0.0-11.0","478","696","21","Female","true","true","false","false","""event"",""trial"",""time""
""fullscreenenter"",""5"",""13073""
","
","
","""event"",""trial"",""time""
""fullscreenenter"",""5"",""13073""
","
","505.2999999523163","","49","","","3000","1","1934.5","48","images/tutgreenplanet.jpg","images/tutalien1","images/tutalien2","null","images/tutalien2","","NA","practice","null","","","",""
"d3-animate-choice","12","85187","0.0-12.0","478","696","21","Female","true","true","false","false","""event"",""trial"",""time""
""fullscreenenter"",""5"",""13073""
","
","
","""event"",""trial"",""time""
""fullscreenenter"",""5"",""13073""
","
","738.3999999761581","","48","","","3000","1","","","images/tutgreenplanet.jpg","images/tutalien1","images/tutalien2","null","images/tutalien1","","NA","practice","null","","","",""
"d3-animate-choice","13","89154","0.0-13.0","478","696","21","Female","true","true","false","false","""event"",""trial"",""time""
""fullscreenenter"",""5"",""13073""
","
","
","""event"",""trial"",""time""
""fullscreenenter"",""5"",""13073""
","
","1963.7000000476837","","49","","","3000","1","","","images/tutgreenplanet.jpg","images/tutalien1","images/tutalien2","null","images/tutalien2","","NA","practice","null","","","",""
"d3-animate-choice","14","92297","0.0-14.0","478","696","21","Female","true","true","false","false","""event"",""trial"",""time""
""fullscreenenter"",""5"",""13073""
","
","
","""event"",""trial"",""time""
""fullscreenenter"",""5"",""13073""
","
","1138.8000000715256","","49","","","3000","1","","","images/tutgreenplanet.jpg","images/tutalien1","images/tutalien2","null","images/tutalien2","","NA","practice","null","","","",""
"d3-instructions","15","127000","0.0-15.0","478","696","21","Female","true","true","false","false","""event"",""trial"",""time""
""fullscreenenter"",""5"",""13073""
","
","
","""event"",""trial"",""time""
""fullscreenenter"",""5"",""13073""
","
","","","","","","","","","","","","","","","","","","","","","",""
"d3-instructions","16","134931","0.0-16.0","478","696","21","Female","true","true","false","false","""event"",""trial"",""time""
""fullscreenenter"",""5"",""13073""
","
","
","""event"",""trial"",""time""
""fullscreenenter"",""5"",""13073""
","
","","","","","","","","","","","","","","","","","","","","","",""
"d3-instructions","17","144558","0.0-17.0","478","696","21","Female","true","true","false","false","""event"",""trial"",""time""
""fullscreenenter"",""5"",""13073""
","
","
","""event"",""trial"",""time""
""fullscreenenter"",""5"",""13073""
","
","","","","","","","","","","","","","","","","","","","","","",""
"d3-instructions","18","158462","0.0-18.0","478","696","21","Female","true","true","false","false","""event"",""trial"",""time""
""fullscreenenter"",""5"",""13073""
","
","
","""event"",""trial"",""time""
""fullscreenenter"",""5"",""13073""
","
","","","","","","","","","","","","","","","","","","","","","",""
"d3-instructions","19","172237","0.0-19.0","478","696","21","Female","true","true","false","false","""event"",""trial"",""time""
""fullscreenenter"",""5"",""13073""
","
","
","""event"",""trial"",""time""
""fullscreenenter"",""5"",""13073""
","
","","","","","","","","","","","","","","","","","","","","","",""
"d3-animate-choice","20","174929","0.0-20.0","478","696","21","Female","true","true","false","false","""event"",""trial"",""time""
""fullscreenenter"",""5"",""13073""
","
","
","""event"",""trial"",""time""
""fullscreenenter"",""5"",""13073""
","
","686.1999999284744","","49","","","3000","1","","","images/tutyellowplanet.jpg","null","images/tutalien3","null","images/tutalien3","images/t.png","NA","practice","null","","","",""
"d3-animate-choice","21","177309","0.0-21.0","478","696","21","Female","true","true","false","false","""event"",""trial"",""time""
""fullscreenenter"",""5"",""13073""
","
","
","""event"",""trial"",""time""
""fullscreenenter"",""5"",""13073""
","
","374.90000009536743","","49","","","3000","1","","","images/tutyellowplanet.jpg","null","images/tutalien3","null","images/tutalien3","images/nothing.png","NA","practice","null","","","",""
"d3-animate-choice","22","179735","0.0-22.0","478","696","21","Female","true","true","false","false","""event"",""trial"",""time""
""fullscreenenter"",""5"",""13073""
","
","
","""event"",""trial"",""time""
""fullscreenenter"",""5"",""13073""
","
","420.7000000476837","","49","","","3000","1","1988.9000000953674","49","images/tutyellowplanet.jpg","null","images/tutalien3","null","images/tutalien3","images/t.png","NA","practice","null","","","",""
"d3-animate-choice","23","182252","0.0-23.0","478","696","21","Female","true","true","false","false","""event"",""trial"",""time""
""fullscreenenter"",""5"",""13073""
","
","
","""event"",""trial"",""time""
""fullscreenenter"",""5"",""13073""
","
","514","","49","","","3000","1","","","images/tutyellowplanet.jpg","null","images/tutalien3","null","images/tutalien3","images/nothing.png","NA","practice","null","","","",""
"d3-animate-choice","24","184765","0.0-24.0","478","696","21","Female","true","true","false","false","""event"",""trial"",""time""
""fullscreenenter"",""5"",""13073""
","
","
","""event"",""trial"",""time""
""fullscreenenter"",""5"",""13073""
","
","508","","49","","","3000","1","","","images/tutyellowplanet.jpg","null","images/tutalien3","null","images/tutalien3","images/t.png","NA","practice","null","","","",""
"d3-animate-choice","25","188145","0.0-25.0","478","696","21","Female","true","true","false","false","""event"",""trial"",""time""
""fullscreenenter"",""5"",""13073""
","
","
","""event"",""trial"",""time""
""fullscreenenter"",""5"",""13073""
","
","1373","","49","","","3000","1","","","images/tutyellowplanet.jpg","null","images/tutalien3","null","images/tutalien3","images/t.png","NA","practice","null","","","",""
"d3-animate-choice","26","191115","0.0-26.0","478","696","21","Female","true","true","false","false","""event"",""trial"",""time""
""fullscreenenter"",""5"",""13073""
","
","
","""event"",""trial"",""time""
""fullscreenenter"",""5"",""13073""
","
","963.5","","49","","","3000","1","","","images/tutyellowplanet.jpg","null","images/tutalien3","null","images/tutalien3","images/nothing.png","NA","practice","null","","","",""
"d3-animate-choice","27","193776","0.0-27.0","478","696","21","Female","true","true","false","false","""event"",""trial"",""time""
""fullscreenenter"",""5"",""13073""
","
","
","""event"",""trial"",""time""
""fullscreenenter"",""5"",""13073""
","
","658.3999999761581","","49","","","3000","1","","","images/tutyellowplanet.jpg","null","images/tutalien3","null","images/tutalien3","images/t.png","NA","practice","null","","","",""
"d3-animate-choice","28","196850","0.0-28.0","478","696","21","Female","true","true","false","false","""event"",""trial"",""time""
""fullscreenenter"",""5"",""13073""
","
","
","""event"",""trial"",""time""
""fullscreenenter"",""5"",""13073""
","
","1070","","49","","","3000","1","","","images/tutyellowplanet.jpg","null","images/tutalien3","null","images/tutalien3","images/t.png","NA","practice","null","","","",""
"d3-animate-choice","29","199704","0.0-29.0","478","696","21","Female","true","true","false","false","""event"",""trial"",""time""
""fullscreenenter"",""5"",""13073""
","
","
","""event"",""trial"",""time""
""fullscreenenter"",""5"",""13073""
","
","850.4000000953674","","49","","","3000","1","","","images/tutyellowplanet.jpg","null","images/tutalien3","null","images/tutalien3","images/t.png","NA","practice","null","","","",""
"d3-instructions","30","206483","0.0-30.0","478","696","21","Female","true","true","false","false","""event"",""trial"",""time""
""fullscreenenter"",""5"",""13073""
","
","
","""event"",""trial"",""time""
""fullscreenenter"",""5"",""13073""
","
","","","","","","","","","","","","","","","","","","","","","",""
"d3-instructions","31","216502","0.0-31.0","478","696","21","Female","true","true","false","false","""event"",""trial"",""time""
""fullscreenenter"",""5"",""13073""
","
","
","""event"",""trial"",""time""
""fullscreenenter"",""5"",""13073""
","
","","","","","","","","","","","","","","","","","","","","","",""
"d3-instructions","32","224341","0.0-32.0","478","696","21","Female","true","true","false","false","""event"",""trial"",""time""
""fullscreenenter"",""5"",""13073""
","
","
","""event"",""trial"",""time""
""fullscreenenter"",""5"",""13073""
","
","","","","","","","","","","","","","","","","","","","","","",""
"d3-instructions","33","235558","0.0-33.0","478","696","21","Female","true","true","false","false","""event"",""trial"",""time""
""fullscreenenter"",""5"",""13073""
","
","
","""event"",""trial"",""time""
""fullscreenenter"",""5"",""13073""
","
","","","","","","","","","","","","","","","","","","","","","",""
"d3-animate-choice","34","239251","0.0-34.0","478","696","21","Female","true","true","false","false","""event"",""trial"",""time""
""fullscreenenter"",""5"",""13073""
","
","
","""event"",""trial"",""time""
""fullscreenenter"",""5"",""13073""
","
","1689.6000000238419","","49","","","3000","1","","","images/tutgreenplanet.jpg","images/tutalien1","images/tutalien2","null","images/tutalien2","images/t.png","NA","practice","null","","","",""
"d3-animate-choice","35","242181","0.0-35.0","478","696","21","Female","true","true","false","false","""event"",""trial"",""time""
""fullscreenenter"",""5"",""13073""
","
","
","""event"",""trial"",""time""
""fullscreenenter"",""5"",""13073""
","
","923.1000000238419","","49","","","3000","1","","","images/tutgreenplanet.jpg","images/tutalien1","images/tutalien2","null","images/tutalien2","images/t.png","NA","practice","null","","","",""
"d3-animate-choice","36","245032","0.0-36.0","478","696","21","Female","true","true","false","false","""event"",""trial"",""time""
""fullscreenenter"",""5"",""13073""
","
","
","""event"",""trial"",""time""
""fullscreenenter"",""5"",""13073""
","
","847.1999999284744","","49","","","3000","1","","","images/tutgreenplanet.jpg","images/tutalien1","images/tutalien2","null","images/tutalien2","images/t.png","NA","practice","null","","","",""
"d3-animate-choice","37","247464","0.0-37.0","478","696","21","Female","true","true","false","false","""event"",""trial"",""time""
""fullscreenenter"",""5"",""13073""
","
","
","""event"",""trial"",""time""
""fullscreenenter"",""5"",""13073""
","
","426.39999997615814","","49","","","3000","1","","","images/tutgreenplanet.jpg","images/tutalien1","images/tutalien2","null","images/tutalien2","images/t.png","NA","practice","null","","","",""
"d3-animate-choice","38","249962","0.0-38.0","478","696","21","Female","true","true","false","false","""event"",""trial"",""time""
""fullscreenenter"",""5"",""13073""
","
","
","""event"",""trial"",""time""
""fullscreenenter"",""5"",""13073""
","
","495.2000000476837","","49","","","3000","1","","","images/tutgreenplanet.jpg","images/tutalien1","images/tutalien2","null","images/tutalien2","images/t.png","NA","practice","null","","","",""
"d3-animate-choice","39","252547","0.0-39.0","478","696","21","Female","true","true","false","false","""event"",""trial"",""time""
""fullscreenenter"",""5"",""13073""
","
","
","""event"",""trial"",""time""
""fullscreenenter"",""5"",""13073""
","
","581","","49","","","3000","1","","","images/tutgreenplanet.jpg","images/tutalien1","images/tutalien2","null","images/tutalien2","images/t.png","NA","practice","null","","","",""
"d3-animate-choice","40","255028","0.0-40.0","478","696","21","Female","true","true","false","false","""event"",""trial"",""time""
""fullscreenenter"",""5"",""13073""
","
","
","""event"",""trial"",""time""
""fullscreenenter"",""5"",""13073""
","
","473.6999999284744","","49","","","3000","1","","","images/tutgreenplanet.jpg","images/tutalien1","images/tutalien2","null","images/tutalien2","images/t.png","NA","practice","null","","","",""
"d3-animate-choice","41","257442","0.0-41.0","478","696","21","Female","true","true","false","false","""event"",""trial"",""time""
""fullscreenenter"",""5"",""13073""
","
","
","""event"",""trial"",""time""
""fullscreenenter"",""5"",""13073""
","
","408.10000002384186","","49","","","3000","1","","","images/tutgreenplanet.jpg","images/tutalien1","images/tutalien2","null","images/tutalien2","images/t.png","NA","practice","null","","","",""
"d3-animate-choice","42","259951","0.0-42.0","478","696","21","Female","true","true","false","false","""event"",""trial"",""time""
""fullscreenenter"",""5"",""13073""
","
","
","""event"",""trial"",""time""
""fullscreenenter"",""5"",""13073""
","
","502.60000002384186","","49","","","3000","1","","","images/tutgreenplanet.jpg","images/tutalien1","images/tutalien2","null","images/tutalien2","images/nothing.png","NA","practice","null","","","",""
"d3-animate-choice","43","262424","0.0-43.0","478","696","21","Female","true","true","false","false","""event"",""trial"",""time""
""fullscreenenter"",""5"",""13073""
","
","
","""event"",""trial"",""time""
""fullscreenenter"",""5"",""13073""
","
","466.89999997615814","","49","","","3000","1","","","images/tutgreenplanet.jpg","images/tutalien1","images/tutalien2","null","images/tutalien2","images/t.png","NA","practice","null","","","",""
"d3-instructions","44","275781","0.0-44.0","478","696","21","Female","true","true","false","false","""event"",""trial"",""time""
""fullscreenenter"",""5"",""13073""
","
","
","""event"",""trial"",""time""
""fullscreenenter"",""5"",""13073""
","
","","","","","","","","","","","","","","","","","","","","","",""
"d3-instructions","45","282841","0.0-45.0","478","696","21","Female","true","true","false","false","""event"",""trial"",""time""
""fullscreenenter"",""5"",""13073""
","
","
","""event"",""trial"",""time""
""fullscreenenter"",""5"",""13073""
","
","","","","","","","","","","","","","","","","","","","","","",""
"d3-instructions","46","288683","0.0-46.0","478","696","21","Female","true","true","false","false","""event"",""trial"",""time""
""fullscreenenter"",""5"",""13073""
","
","
","""event"",""trial"",""time""
""fullscreenenter"",""5"",""13073""
","
","","","","","","","","","","","","","","","","","","","","","",""
"d3-instructions","47","308062","0.0-47.0","478","696","21","Female","true","true","false","false","""event"",""trial"",""time""
""fullscreenenter"",""5"",""13073""
","
","
","""event"",""trial"",""time""
""fullscreenenter"",""5"",""13073""
","
","","","","","","","","","","","","","","","","","","","","","",""
"d3-instructions","48","317560","0.0-48.0","478","696","21","Female","true","true","false","false","""event"",""trial"",""time""
""fullscreenenter"",""5"",""13073""
","
","
","""event"",""trial"",""time""
""fullscreenenter"",""5"",""13073""
","
","","","","","","","","","","","","","","","","","","","","","",""
"d3-instructions","49","328743","0.0-49.0","478","696","21","Female","true","true","false","false","""event"",""trial"",""time""
""fullscreenenter"",""5"",""13073""
","
","
","""event"",""trial"",""time""
""fullscreenenter"",""5"",""13073""
","
","","","","","","","","","","","","","","","","","","","","","",""
"d3-instructions","50","338797","0.0-50.0","478","696","21","Female","true","true","false","false","""event"",""trial"",""time""
""fullscreenenter"",""5"",""13073""
","
","
","""event"",""trial"",""time""
""fullscreenenter"",""5"",""13073""
","
","","","","","","","","","","","","","","","","","","","","","",""
"d3-instructions","51","342443","0.0-51.0","478","696","21","Female","true","true","false","false","""event"",""trial"",""time""
""fullscreenenter"",""5"",""13073""
","
","
","""event"",""trial"",""time""
""fullscreenenter"",""5"",""13073""
","
","","","","","","","","","","","","","","","","","","","","","",""
"d3-instructions","52","345522","0.0-52.0","478","696","21","Female","true","true","false","false","""event"",""trial"",""time""
""fullscreenenter"",""5"",""13073""
","
","
","""event"",""trial"",""time""
""fullscreenenter"",""5"",""13073""
","
","","","","","","","","","","","","","","","","","","","","","",""
"d3-instructions","53","357650","0.0-53.0","478","696","21","Female","true","true","false","false","""event"",""trial"",""time""
""fullscreenenter"",""5"",""13073""
","
","
","""event"",""trial"",""time""
""fullscreenenter"",""5"",""13073""
","
","","","","","","","","","","","","","","","","","","","","","",""
"d3-instructions","54","370525","0.0-54.0","478","696","21","Female","true","true","false","false","""event"",""trial"",""time""
""fullscreenenter"",""5"",""13073""
","
","
","""event"",""trial"",""time""
""fullscreenenter"",""5"",""13073""
","
","","","","","","","","","","","","","","","","","","","","","",""
"d3-instructions","55","380992","0.0-55.0","478","696","21","Female","true","true","false","false","""event"",""trial"",""time""
""fullscreenenter"",""5"",""13073""
","
","
","""event"",""trial"",""time""
""fullscreenenter"",""5"",""13073""
","
","","","","","","","","","","","","","","","","","","","","","",""
"d3-instructions","56","389369","0.0-56.0","478","696","21","Female","true","true","false","false","""event"",""trial"",""time""
""fullscreenenter"",""5"",""13073""
","
","
","""event"",""trial"",""time""
""fullscreenenter"",""5"",""13073""
","
","","","","","","","","","","","","","","","","","","","","","",""
"d3-instructions","57","400135","0.0-57.0","478","696","21","Female","true","true","false","false","""event"",""trial"",""time""
""fullscreenenter"",""5"",""13073""
","
","
","""event"",""trial"",""time""
""fullscreenenter"",""5"",""13073""
","
","","","","","","","","","","","","","","","","","","","","","",""
"d3-instructions","58","412381","0.0-58.0","478","696","21","Female","true","true","false","false","""event"",""trial"",""time""
""fullscreenenter"",""5"",""13073""
","
","
","""event"",""trial"",""time""
""fullscreenenter"",""5"",""13073""
","
","","","","","","","","","","","","","","","","","","","","","",""
"d3-instructions","59","428669","0.0-59.0","478","696","21","Female","true","true","false","false","""event"",""trial"",""time""
""fullscreenenter"",""5"",""13073""
","
","
","""event"",""trial"",""time""
""fullscreenenter"",""5"",""13073""
","
","","","","","","","","","","","","","","","","","","","","","",""
"d3-instructions","60","436416","0.0-60.0","478","696","21","Female","true","true","false","false","""event"",""trial"",""time""
""fullscreenenter"",""5"",""13073""
","
","
","""event"",""trial"",""time""
""fullscreenenter"",""5"",""13073""
","
","","","","","","","","","","","","","","","","","","","","","",""
"d3-animate-choice","61","439634","0.0-61.0-0.0","478","696","21","Female","true","true","false","false","""event"",""trial"",""time""
""fullscreenenter"",""5"",""13073""
","
","
","""event"",""trial"",""time""
""fullscreenenter"",""5"",""13073""
","
","1211.5","","49","","","3000","1","","","images/earth.jpg","images/tutrocket2","images/tutrocket1","null","images/tutrocket1","","1","practice","null","1","","",""
"d3-animate-choice","62","443158","0.0-61.0-1.0","478","696","21","Female","true","true","false","false","""event"",""trial"",""time""
""fullscreenenter"",""5"",""13073""
","
","
","""event"",""trial"",""time""
""fullscreenenter"",""5"",""13073""
","
","1518.8999999761581","","49","","","3000","1","","","images/tutyellowplanet.jpg","images/tutalien4","images/tutalien3","images/tutrocket1","images/tutalien3","images/t.png","2","practice","false","1","rare","1","2022-02-17 02:47:12.871"
"two-step-fixation","63","444163","0.0-61.0-2.0","478","696","21","Female","true","true","false","false","""event"",""trial"",""time""
""fullscreenenter"",""5"",""13073""
","
","
","""event"",""trial"",""time""
""fullscreenenter"",""5"",""13073""
","
","","images/earth.jpg","","","","","","","","","","","","","","fixation","","","","","",""
"d3-animate-choice","64","446494","0.0-61.0-0.1","478","696","21","Female","true","true","false","false","""event"",""trial"",""time""
""fullscreenenter"",""5"",""13073""
","
","
","""event"",""trial"",""time""
""fullscreenenter"",""5"",""13073""
","
","324.40000009536743","","49","","","3000","1","","","images/earth.jpg","images/tutrocket2","images/tutrocket1","null","images/tutrocket1","","1","practice","null","1","","",""
"d3-animate-choice","65","448876","0.0-61.0-1.1","478","696","21","Female","true","true","false","false","""event"",""trial"",""time""
""fullscreenenter"",""5"",""13073""
","
","
","""event"",""trial"",""time""
""fullscreenenter"",""5"",""13073""
","
","378.5","","49","","","3000","1","","","images/tutyellowplanet.jpg","images/tutalien4","images/tutalien3","images/tutrocket1","images/tutalien3","images/nothing.png","2","practice","false","1","rare","0","2022-02-17 02:47:18.588"
"two-step-fixation","66","449879","0.0-61.0-2.1","478","696","21","Female","true","true","false","false","""event"",""trial"",""time""
""fullscreenenter"",""5"",""13073""
","
","
","""event"",""trial"",""time""
""fullscreenenter"",""5"",""13073""
","
","","images/earth.jpg","","","","","","","","","","","","","","fixation","","","","","",""
"d3-animate-choice","67","452206","0.0-61.0-0.2","478","696","21","Female","true","true","false","false","""event"",""trial"",""time""
""fullscreenenter"",""5"",""13073""
","
","
","""event"",""trial"",""time""
""fullscreenenter"",""5"",""13073""
","
","324.8000000715256","","49","","","3000","1","","","images/earth.jpg","images/tutrocket2","images/tutrocket1","null","images/tutrocket1","","1","practice","null","1","","",""
"d3-animate-choice","68","454538","0.0-61.0-1.2","478","696","21","Female","true","true","false","false","""event"",""trial"",""time""
""fullscreenenter"",""5"",""13073""
","
","
","""event"",""trial"",""time""
""fullscreenenter"",""5"",""13073""
","
","328.60000002384186","","49","","","3000","1","","","images/tutgreenplanet.jpg","images/tutalien2","images/tutalien1","images/tutrocket1","images/tutalien1","images/nothing.png","2","practice","true","1","common","0","2022-02-17 02:47:24.250"
"two-step-fixation","69","455544","0.0-61.0-2.2","478","696","21","Female","true","true","false","false","""event"",""trial"",""time""
""fullscreenenter"",""5"",""13073""
","
","
","""event"",""trial"",""time""
""fullscreenenter"",""5"",""13073""
","
","","images/earth.jpg","","","","","","","","","","","","","","fixation","","","","","",""
"d3-animate-choice","70","457869","0.0-61.0-0.3","478","696","21","Female","true","true","false","false","""event"",""trial"",""time""
""fullscreenenter"",""5"",""13073""
","
","
","""event"",""trial"",""time""
""fullscreenenter"",""5"",""13073""
","
","318.5","","49","","","3000","1","","","images/earth.jpg","images/tutrocket2","images/tutrocket1","null","images/tutrocket1","","1","practice","null","1","","",""
"d3-animate-choice","71","460319","0.0-61.0-1.3","478","696","21","Female","true","true","false","false","""event"",""trial"",""time""
""fullscreenenter"",""5"",""13073""
","
","
","""event"",""trial"",""time""
""fullscreenenter"",""5"",""13073""
","
","447.10000002384186","","49","","","3000","1","","","images/tutgreenplanet.jpg","images/tutalien2","images/tutalien1","images/tutrocket1","images/tutalien1","images/nothing.png","2","practice","true","1","common","0","2022-02-17 02:47:30.032"
"two-step-fixation","72","461325","0.0-61.0-2.3","478","696","21","Female","true","true","false","false","""event"",""trial"",""time""
""fullscreenenter"",""5"",""13073""
","
","
","""event"",""trial"",""time""
""fullscreenenter"",""5"",""13073""
","
","","images/earth.jpg","","","","","","","","","","","","","","fixation","","","","","",""
"d3-animate-choice","73","463642","0.0-61.0-0.4","478","696","21","Female","true","true","false","false","""event"",""trial"",""time""
""fullscreenenter"",""5"",""13073""
","
","
","""event"",""trial"",""time""
""fullscreenenter"",""5"",""13073""
","
","312.2999999523163","","49","","","3000","1","","","images/earth.jpg","images/tutrocket2","images/tutrocket1","null","images/tutrocket1","","1","practice","null","1","","",""
"d3-animate-choice","74","466215","0.0-61.0-1.4","478","696","21","Female","true","true","false","false","""event"",""trial"",""time""
""fullscreenenter"",""5"",""13073""
","
","
","""event"",""trial"",""time""
""fullscreenenter"",""5"",""13073""
","
","569.2999999523163","","48","","","3000","1","","","images/tutyellowplanet.jpg","images/tutalien4","images/tutalien3","images/tutrocket1","images/tutalien4","images/t.png","2","practice","false","2","rare","1","2022-02-17 02:47:35.927"
"two-step-fixation","75","467218","0.0-61.0-2.4","478","696","21","Female","true","true","false","false","""event"",""trial"",""time""
""fullscreenenter"",""5"",""13073""
","
","
","""event"",""trial"",""time""
""fullscreenenter"",""5"",""13073""
","
","","images/earth.jpg","","","","","","","","","","","","","","fixation","","","","","",""
"d3-animate-choice","76","469567","0.0-61.0-0.5","478","696","21","Female","true","true","false","false","""event"",""trial"",""time""
""fullscreenenter"",""5"",""13073""
","
","
","""event"",""trial"",""time""
""fullscreenenter"",""5"",""13073""
","
","344.90000009536743","","49","","","3000","1","","","images/earth.jpg","images/tutrocket2","images/tutrocket1","null","images/tutrocket1","","1","practice","null","1","","",""
"d3-animate-choice","77","472143","0.0-61.0-1.5","478","696","21","Female","true","true","false","false","""event"",""trial"",""time""
""fullscreenenter"",""5"",""13073""
","
","
","""event"",""trial"",""time""
""fullscreenenter"",""5"",""13073""
","
","571.2999999523163","","48","","","3000","1","","","images/tutgreenplanet.jpg","images/tutalien2","images/tutalien1","images/tutrocket1","images/tutalien2","images/nothing.png","2","practice","true","2","common","0","2022-02-17 02:47:41.855"
"two-step-fixation","78","473146","0.0-61.0-2.5","478","696","21","Female","true","true","false","false","""event"",""trial"",""time""
""fullscreenenter"",""5"",""13073""
","
","
","""event"",""trial"",""time""
""fullscreenenter"",""5"",""13073""
","
","","images/earth.jpg","","","","","","","","","","","","","","fixation","","","","","",""
"d3-animate-choice","79","475236","0.0-61.0-0.6","478","696","21","Female","true","true","false","false","""event"",""trial"",""time""
""fullscreenenter"",""5"",""13073""
","
","
","""event"",""trial"",""time""
""fullscreenenter"",""5"",""13073""
","
","86.69999992847443","","49","","","3000","1","","","images/earth.jpg","images/tutrocket2","images/tutrocket1","null","images/tutrocket1","","1","practice","null","1","","",""
"d3-animate-choice","80","477636","0.0-61.0-1.6","478","696","21","Female","true","true","false","false","""event"",""trial"",""time""
""fullscreenenter"",""5"",""13073""
","
","
","""event"",""trial"",""time""
""fullscreenenter"",""5"",""13073""
","
","395.7000000476837","","48","","","3000","1","","","images/tutgreenplanet.jpg","images/tutalien2","images/tutalien1","images/tutrocket1","images/tutalien2","images/t.png","2","practice","true","2","common","1","2022-02-17 02:47:47.348"
"two-step-fixation","81","478639","0.0-61.0-2.6","478","696","21","Female","true","true","false","false","""event"",""trial"",""time""
""fullscreenenter"",""5"",""13073""
","
","
","""event"",""trial"",""time""
""fullscreenenter"",""5"",""13073""
","
","","images/earth.jpg","","","","","","","","","","","","","","fixation","","","","","",""
"d3-animate-choice","82","480977","0.0-61.0-0.7","478","696","21","Female","true","true","false","false","""event"",""trial"",""time""
""fullscreenenter"",""5"",""13073""
","
","
","""event"",""trial"",""time""
""fullscreenenter"",""5"",""13073""
","
","332.39999997615814","","49","","","3000","1","","","images/earth.jpg","images/tutrocket2","images/tutrocket1","null","images/tutrocket1","","1","practice","null","1","","",""
"d3-animate-choice","83","483482","0.0-61.0-1.7","478","696","21","Female","true","true","false","false","""event"",""trial"",""time""
""fullscreenenter"",""5"",""13073""
","
","
","""event"",""trial"",""time""
""fullscreenenter"",""5"",""13073""
","
","500.39999997615814","","48","","","3000","1","","","images/tutgreenplanet.jpg","images/tutalien2","images/tutalien1","images/tutrocket1","images/tutalien2","images/nothing.png","2","practice","true","2","common","0","2022-02-17 02:47:53.194"
"two-step-fixation","84","484489","0.0-61.0-2.7","478","696","21","Female","true","true","false","false","""event"",""trial"",""time""
""fullscreenenter"",""5"",""13073""
","
","
","""event"",""trial"",""time""
""fullscreenenter"",""5"",""13073""
","
","","images/earth.jpg","","","","","","","","","","","","","","fixation","","","","","",""
"d3-animate-choice","85","486824","0.0-61.0-0.8","478","696","21","Female","true","true","false","false","""event"",""trial"",""time""
""fullscreenenter"",""5"",""13073""
","
","
","""event"",""trial"",""time""
""fullscreenenter"",""5"",""13073""
","
","330.10000002384186","","49","","","3000","1","","","images/earth.jpg","images/tutrocket2","images/tutrocket1","null","images/tutrocket1","","1","practice","null","1","","",""
"d3-animate-choice","86","489539","0.0-61.0-1.8","478","696","21","Female","true","true","false","false","""event"",""trial"",""time""
""fullscreenenter"",""5"",""13073""
","
","
","""event"",""trial"",""time""
""fullscreenenter"",""5"",""13073""
","
","712","","48","","","3000","1","","","images/tutgreenplanet.jpg","images/tutalien2","images/tutalien1","images/tutrocket1","images/tutalien2","images/t.png","2","practice","true","2","common","1","2022-02-17 02:47:59.251"
"two-step-fixation","87","490544","0.0-61.0-2.8","478","696","21","Female","true","true","false","false","""event"",""trial"",""time""
""fullscreenenter"",""5"",""13073""
","
","
","""event"",""trial"",""time""
""fullscreenenter"",""5"",""13073""
","
","","images/earth.jpg","","","","","","","","","","","","","","fixation","","","","","",""
"d3-animate-choice","88","492995","0.0-61.0-0.9","478","696","21","Female","true","true","false","false","""event"",""trial"",""time""
""fullscreenenter"",""5"",""13073""
","
","
","""event"",""trial"",""time""
""fullscreenenter"",""5"",""13073""
","
","443.90000009536743","","48","","","3000","1","","","images/earth.jpg","images/tutrocket2","images/tutrocket1","null","images/tutrocket2","","1","practice","null","2","","",""
"d3-animate-choice","89","495341","0.0-61.0-1.9","478","696","21","Female","true","true","false","false","""event"",""trial"",""time""
""fullscreenenter"",""5"",""13073""
","
","
","""event"",""trial"",""time""
""fullscreenenter"",""5"",""13073""
","
","341.10000002384186","","48","","","3000","1","","","images/tutyellowplanet.jpg","images/tutalien4","images/tutalien3","images/tutrocket2","images/tutalien4","images/t.png","2","practice","true","2","common","1","2022-02-17 02:48:05.053"
"two-step-fixation","90","496344","0.0-61.0-2.9","478","696","21","Female","true","true","false","false","""event"",""trial"",""time""
""fullscreenenter"",""5"",""13073""
","
","
","""event"",""trial"",""time""
""fullscreenenter"",""5"",""13073""
","
","","images/earth.jpg","","","","","","","","","","","","","","fixation","","","","","",""
"d3-animate-choice","91","498641","0.0-61.0-0.10","478","696","21","Female","true","true","false","false","""event"",""trial"",""time""
""fullscreenenter"",""5"",""13073""
","
","
","""event"",""trial"",""time""
""fullscreenenter"",""5"",""13073""
","
","293.2000000476837","","48","","","3000","1","","","images/earth.jpg","images/tutrocket2","images/tutrocket1","null","images/tutrocket2","","1","practice","null","2","","",""
"d3-animate-choice","92","501357","0.0-61.0-1.10","478","696","21","Female","true","true","false","false","""event"",""trial"",""time""
""fullscreenenter"",""5"",""13073""
","
","
","""event"",""trial"",""time""
""fullscreenenter"",""5"",""13073""
","
","709.7000000476837","","48","","","3000","1","","","images/tutgreenplanet.jpg","images/tutalien2","images/tutalien1","images/tutrocket2","images/tutalien2","images/nothing.png","2","practice","false","2","rare","0","2022-02-17 02:48:11.069"
"two-step-fixation","93","502359","0.0-61.0-2.10","478","696","21","Female","true","true","false","false","""event"",""trial"",""time""
""fullscreenenter"",""5"",""13073""
","
","
","""event"",""trial"",""time""
""fullscreenenter"",""5"",""13073""
","
","","images/earth.jpg","","","","","","","","","","","","","","fixation","","","","","",""
"d3-animate-choice","94","504704","0.0-61.0-0.11","478","696","21","Female","true","true","false","false","""event"",""trial"",""time""
""fullscreenenter"",""5"",""13073""
","
","
","""event"",""trial"",""time""
""fullscreenenter"",""5"",""13073""
","
","340.6999999284744","","48","","","3000","1","","","images/earth.jpg","images/tutrocket2","images/tutrocket1","null","images/tutrocket2","","1","practice","null","2","","",""
"d3-animate-choice","95","507035","0.0-61.0-1.11","478","696","21","Female","true","true","false","false","""event"",""trial"",""time""
""fullscreenenter"",""5"",""13073""
","
","
","""event"",""trial"",""time""
""fullscreenenter"",""5"",""13073""
","
","326.89999997615814","","48","","","3000","1","","","images/tutgreenplanet.jpg","images/tutalien2","images/tutalien1","images/tutrocket2","images/tutalien2","images/t.png","2","practice","false","2","rare","1","2022-02-17 02:48:16.747"
"two-step-fixation","96","508039","0.0-61.0-2.11","478","696","21","Female","true","true","false","false","""event"",""trial"",""time""
""fullscreenenter"",""5"",""13073""
","
","
","""event"",""trial"",""time""
""fullscreenenter"",""5"",""13073""
","
","","images/earth.jpg","","","","","","","","","","","","","","fixation","","","","","",""
"d3-animate-choice","97","510349","0.0-61.0-0.12","478","696","21","Female","true","true","false","false","""event"",""trial"",""time""
""fullscreenenter"",""5"",""13073""
","
","
","""event"",""trial"",""time""
""fullscreenenter"",""5"",""13073""
","
","305.90000009536743","","48","","","3000","1","","","images/earth.jpg","images/tutrocket2","images/tutrocket1","null","images/tutrocket2","","1","practice","null","2","","",""
"d3-animate-choice","98","512738","0.0-61.0-1.12","478","696","21","Female","true","true","false","false","""event"",""trial"",""time""
""fullscreenenter"",""5"",""13073""
","
","
","""event"",""trial"",""time""
""fullscreenenter"",""5"",""13073""
","
","384.09999990463257","","48","","","3000","1","","","images/tutyellowplanet.jpg","images/tutalien4","images/tutalien3","images/tutrocket2","images/tutalien4","images/nothing.png","2","practice","true","2","common","0","2022-02-17 02:48:22.450"
"two-step-fixation","99","513744","0.0-61.0-2.12","478","696","21","Female","true","true","false","false","""event"",""trial"",""time""
""fullscreenenter"",""5"",""13073""
","
","
","""event"",""trial"",""time""
""fullscreenenter"",""5"",""13073""
","
","","images/earth.jpg","","","","","","","","","","","","","","fixation","","","","","",""
"d3-animate-choice","100","516284","0.0-61.0-0.13","478","696","21","Female","true","true","false","false","""event"",""trial"",""time""
""fullscreenenter"",""5"",""13073""
","
","
","""event"",""trial"",""time""
""fullscreenenter"",""5"",""13073""
","
","537.3000000715256","","48","","","3000","1","","","images/earth.jpg","images/tutrocket2","images/tutrocket1","null","images/tutrocket2","","1","practice","null","2","","",""
"d3-animate-choice","101","518620","0.0-61.0-1.13","478","696","21","Female","true","true","false","false","""event"",""trial"",""time""
""fullscreenenter"",""5"",""13073""
","
","
","""event"",""trial"",""time""
""fullscreenenter"",""5"",""13073""
","
","331.60000002384186","","48","","","3000","1","","","images/tutgreenplanet.jpg","images/tutalien2","images/tutalien1","images/tutrocket2","images/tutalien2","images/nothing.png","2","practice","false","2","rare","0","2022-02-17 02:48:28.333"
"two-step-fixation","102","519628","0.0-61.0-2.13","478","696","21","Female","true","true","false","false","""event"",""trial"",""time""
""fullscreenenter"",""5"",""13073""
","
","
","""event"",""trial"",""time""
""fullscreenenter"",""5"",""13073""
","
","","images/earth.jpg","","","","","","","","","","","","","","fixation","","","","","",""
"d3-animate-choice","103","522300","0.0-61.0-0.14","478","696","21","Female","true","true","false","false","""event"",""trial"",""time""
""fullscreenenter"",""5"",""13073""
","
","
","""event"",""trial"",""time""
""fullscreenenter"",""5"",""13073""
","
","663.9000000953674","","48","","","3000","1","","","images/earth.jpg","images/tutrocket2","images/tutrocket1","null","images/tutrocket2","","1","practice","null","2","","",""
"d3-animate-choice","104","525127","0.0-61.0-1.14","478","696","21","Female","true","true","false","false","""event"",""trial"",""time""
""fullscreenenter"",""5"",""13073""
","
","
","""event"",""trial"",""time""
""fullscreenenter"",""5"",""13073""
","
","822.7999999523163","","48","","","3000","1","","","images/tutyellowplanet.jpg","images/tutalien4","images/tutalien3","images/tutrocket2","images/tutalien4","images/nothing.png","2","practice","true","2","common","0","2022-02-17 02:48:34.839"
"two-step-fixation","105","526130","0.0-61.0-2.14","478","696","21","Female","true","true","false","false","""event"",""trial"",""time""
""fullscreenenter"",""5"",""13073""
","
","
","""event"",""trial"",""time""
""fullscreenenter"",""5"",""13073""
","
","","images/earth.jpg","","","","","","","","","","","","","","fixation","","","","","",""
"d3-animate-choice","106","528679","0.0-61.0-0.15","478","696","21","Female","true","true","false","false","""event"",""trial"",""time""
""fullscreenenter"",""5"",""13073""
","
","
","""event"",""trial"",""time""
""fullscreenenter"",""5"",""13073""
","
","542.2999999523163","","48","","","3000","1","","","images/earth.jpg","images/tutrocket2","images/tutrocket1","null","images/tutrocket2","","1","practice","null","2","","",""
"d3-animate-choice","107","531213","0.0-61.0-1.15","478","696","21","Female","true","true","false","false","""event"",""trial"",""time""
""fullscreenenter"",""5"",""13073""
","
","
","""event"",""trial"",""time""
""fullscreenenter"",""5"",""13073""
","
","530.3999999761581","","49","","","3000","1","","","images/tutyellowplanet.jpg","images/tutalien4","images/tutalien3","images/tutrocket2","images/tutalien3","images/t.png","2","practice","true","1","common","1","2022-02-17 02:48:40.925"
"two-step-fixation","108","532216","0.0-61.0-2.15","478","696","21","Female","true","true","false","false","""event"",""trial"",""time""
""fullscreenenter"",""5"",""13073""
","
","
","""event"",""trial"",""time""
""fullscreenenter"",""5"",""13073""
","
","","images/earth.jpg","","","","","","","","","","","","","","fixation","","","","","",""
"d3-animate-choice","109","534574","0.0-61.0-0.16","478","696","21","Female","true","true","false","false","""event"",""trial"",""time""
""fullscreenenter"",""5"",""13073""
","
","
","""event"",""trial"",""time""
""fullscreenenter"",""5"",""13073""
","
","354.1999999284744","","48","","","3000","1","","","images/earth.jpg","images/tutrocket2","images/tutrocket1","null","images/tutrocket2","","1","practice","null","2","","",""
"d3-animate-choice","110","537004","0.0-61.0-1.16","478","696","21","Female","true","true","false","false","""event"",""trial"",""time""
""fullscreenenter"",""5"",""13073""
","
","
","""event"",""trial"",""time""
""fullscreenenter"",""5"",""13073""
","
","424.89999997615814","","49","","","3000","1","","","images/tutyellowplanet.jpg","images/tutalien4","images/tutalien3","images/tutrocket2","images/tutalien3","images/nothing.png","2","practice","true","1","common","0","2022-02-17 02:48:46.716"
"two-step-fixation","111","538007","0.0-61.0-2.16","478","696","21","Female","true","true","false","false","""event"",""trial"",""time""
""fullscreenenter"",""5"",""13073""
","
","
","""event"",""trial"",""time""
""fullscreenenter"",""5"",""13073""
","
","","images/earth.jpg","","","","","","","","","","","","","","fixation","","","","","",""
"d3-animate-choice","112","540434","0.0-61.0-0.17","478","696","21","Female","true","true","false","false","""event"",""trial"",""time""
""fullscreenenter"",""5"",""13073""
","
","
","""event"",""trial"",""time""
""fullscreenenter"",""5"",""13073""
","
","423.10000002384186","","49","","","3000","1","","","images/earth.jpg","images/tutrocket2","images/tutrocket1","null","images/tutrocket1","","1","practice","null","1","","",""
"d3-animate-choice","113","543266","0.0-61.0-1.17","478","696","21","Female","true","true","false","false","""event"",""trial"",""time""
""fullscreenenter"",""5"",""13073""
","
","
","""event"",""trial"",""time""
""fullscreenenter"",""5"",""13073""
","
","828.1999999284744","","49","","","3000","1","","","images/tutyellowplanet.jpg","images/tutalien4","images/tutalien3","images/tutrocket1","images/tutalien3","images/t.png","2","practice","false","1","rare","1","2022-02-17 02:48:52.978"
"two-step-fixation","114","544272","0.0-61.0-2.17","478","696","21","Female","true","true","false","false","""event"",""trial"",""time""
""fullscreenenter"",""5"",""13073""
","
","
","""event"",""trial"",""time""
""fullscreenenter"",""5"",""13073""
","
","","images/earth.jpg","","","","","","","","","","","","","","fixation","","","","","",""
"d3-animate-choice","115","546658","0.0-61.0-0.18","478","696","21","Female","true","true","false","false","""event"",""trial"",""time""
""fullscreenenter"",""5"",""13073""
","
","
","""event"",""trial"",""time""
""fullscreenenter"",""5"",""13073""
","
","383","","49","","","3000","1","","","images/earth.jpg","images/tutrocket2","images/tutrocket1","null","images/tutrocket1","","1","practice","null","1","","",""
"d3-animate-choice","116","549682","0.0-61.0-1.18","478","696","21","Female","true","true","false","false","""event"",""trial"",""time""
""fullscreenenter"",""5"",""13073""
","
","
","""event"",""trial"",""time""
""fullscreenenter"",""5"",""13073""
","
","1020.5","","48","","","3000","1","","","images/tutgreenplanet.jpg","images/tutalien2","images/tutalien1","images/tutrocket1","images/tutalien2","images/nothing.png","2","practice","true","2","common","0","2022-02-17 02:48:59.394"
"two-step-fixation","117","550686","0.0-61.0-2.18","478","696","21","Female","true","true","false","false","""event"",""trial"",""time""
""fullscreenenter"",""5"",""13073""
","
","
","""event"",""trial"",""time""
""fullscreenenter"",""5"",""13073""
","
","","images/earth.jpg","","","","","","","","","","","","","","fixation","","","","","",""
"d3-animate-choice","118","553303","0.0-61.0-0.19","478","696","21","Female","true","true","false","false","""event"",""trial"",""time""
""fullscreenenter"",""5"",""13073""
","
","
","""event"",""trial"",""time""
""fullscreenenter"",""5"",""13073""
","
","614","","49","","","3000","1","","","images/earth.jpg","images/tutrocket2","images/tutrocket1","null","images/tutrocket1","","1","practice","null","1","","",""
"d3-animate-choice","119","556039","0.0-61.0-1.19","478","696","21","Female","true","true","false","false","""event"",""trial"",""time""
""fullscreenenter"",""5"",""13073""
","
","
","""event"",""trial"",""time""
""fullscreenenter"",""5"",""13073""
","
","731.9000000953674","","49","","","3000","1","840.5","48","images/tutyellowplanet.jpg","images/tutalien4","images/tutalien3","images/tutrocket1","images/tutalien3","images/nothing.png","2","practice","false","1","rare","0","2022-02-17 02:49:05.751"
"two-step-fixation","120","557043","0.0-61.0-2.19","478","696","21","Female","true","true","false","false","""event"",""trial"",""time""
""fullscreenenter"",""5"",""13073""
","
","
","""event"",""trial"",""time""
""fullscreenenter"",""5"",""13073""
","
","","images/earth.jpg","","","","","","","","","","","","","","fixation","","","","","",""
"d3-instructions","121","563639","0.0-62.0","478","696","21","Female","true","true","false","false","""event"",""trial"",""time""
""fullscreenenter"",""5"",""13073""
","
","
","""event"",""trial"",""time""
""fullscreenenter"",""5"",""13073""
","
","","","","","","","","","","","","","","","","","","","","","",""
"audio-keyboard-response","122","568607","0.0-63.0","478","696","21","Female","true","true","false","false","""event"",""trial"",""time""
""fullscreenenter"",""5"",""13073""
","
","
","""event"",""trial"",""time""
""fullscreenenter"",""5"",""13073""
","
","4965","audio/instructions/treasure_feedback.wav","32","","","","","","","","","","","","","","","","","","",""
"d3-instructions","123","590310","0.0-64.0","478","696","21","Female","true","true","false","false","""event"",""trial"",""time""
""fullscreenenter"",""5"",""13073""
","
","
","""event"",""trial"",""time""
""fullscreenenter"",""5"",""13073""
","
","","","","","","","","","","","","","","","","","","","","","",""
"d3-instructions","124","609210","0.0-65.0","478","696","21","Female","true","true","false","false","""event"",""trial"",""time""
""fullscreenenter"",""5"",""13073""
","
","
","""event"",""trial"",""time""
""fullscreenenter"",""5"",""13073""
","
","","","","","","","","","","","","","","","","","","","","","",""
"d3-instructions","125","642227","0.0-66.0","478","696","21","Female","true","true","false","false","""event"",""trial"",""time""
""fullscreenenter"",""5"",""13073""
","
","
","""event"",""trial"",""time""
""fullscreenenter"",""5"",""13073""
","
","","","","","","","","","","","","","","","","","","","","","",""
"d3-instructions","126","660302","0.0-67.0","478","696","21","Female","true","true","false","false","""event"",""trial"",""time""
""fullscreenenter"",""5"",""13073""
","
","
","""event"",""trial"",""time""
""fullscreenenter"",""5"",""13073""
","
","","","","","","","","","","","","","","","","","","","","","",""
"d3-instructions","127","669183","0.0-68.0","478","696","21","Female","true","true","false","false","""event"",""trial"",""time""
""fullscreenenter"",""5"",""13073""
","
","
","""event"",""trial"",""time""
""fullscreenenter"",""5"",""13073""
","
","","","","","","","","","","","","","","","","","","","","","",""
"instructions-quiz","128","673862","0.0-69.0","478","696","21","Female","true","true","false","false","""event"",""trial"",""time""
""fullscreenenter"",""5"",""13073""
","
","
","""event"",""trial"",""time""
""fullscreenenter"",""5"",""13073""
","
","4675.399999976158","audio/quiz/Q1_Prompt.wav","","1","","","","","","","","","","","","","","","","","",""
"audio-keyboard-response","129","683032","0.0-70.0","478","696","21","Female","true","true","false","false","""event"",""trial"",""time""
""fullscreenenter"",""5"",""13073""
","
","
","""event"",""trial"",""time""
""fullscreenenter"",""5"",""13073""
","
","null","audio/quiz/Q1_Correct.wav","null","","","","","","","","","","","","","","","","","","",""
"instructions-quiz","130","692100","0.0-71.0","478","696","21","Female","true","true","false","false","""event"",""trial"",""time""
""fullscreenenter"",""5"",""13073""
","
","
","""event"",""trial"",""time""
""fullscreenenter"",""5"",""13073""
","
","9065","audio/quiz/Q2_Prompt.wav","","0","","","","","","","","","","","","","","","","","",""
"audio-keyboard-response","131","704967","0.0-72.0","478","696","21","Female","true","true","false","false","""event"",""trial"",""time""
""fullscreenenter"",""5"",""13073""
","
","
","""event"",""trial"",""time""
""fullscreenenter"",""5"",""13073""
","
","null","audio/quiz/Q2_Correct.wav","null","","","","","","","","","","","","","","","","","","",""
"instructions-quiz","132","710012","0.0-73.0","478","696","21","Female","true","true","false","false","""event"",""trial"",""time""
""fullscreenenter"",""5"",""13073""
","
","
","""event"",""trial"",""time""
""fullscreenenter"",""5"",""13073""
","
","5042","audio/quiz/Q3_Prompt.wav","","1","","","","","","","","","","","","","","","","","",""
"audio-keyboard-response","133","715816","0.0-74.0","478","696","21","Female","true","true","false","false","""event"",""trial"",""time""
""fullscreenenter"",""5"",""13073""
","
","
","""event"",""trial"",""time""
""fullscreenenter"",""5"",""13073""
","
","null","audio/quiz/Q3_Correct.wav","null","","","","","","","","","","","","","","","","","","",""
"d3-instructions","134","731252","0.0-75.0","478","696","21","Female","true","true","false","false","""event"",""trial"",""time""
""fullscreenenter"",""5"",""13073""
","
","
","""event"",""trial"",""time""
""fullscreenenter"",""5"",""13073""
","
","","","","","","","","","","","","","","","","","","","","","",""
"d3-animate-choice","135","733811","0.0-76.0-0.0","478","696","21","Female","true","true","false","false","""event"",""trial"",""time""
""fullscreenenter"",""5"",""13073""
","
","
","""event"",""trial"",""time""
""fullscreenenter"",""5"",""13073""
","
","554.1000000238419","","49","","","3000","1","","","images/earth.jpg","images/rocket2","images/rocket1","null","images/rocket1","","1","real","null","1","","",""
"d3-animate-choice","136","736403","0.0-76.0-1.0","478","696","21","Female","true","true","false","false","""event"",""trial"",""time""
""fullscreenenter"",""5"",""13073""
","
","
","""event"",""trial"",""time""
""fullscreenenter"",""5"",""13073""
","
","585.7999999523163","","49","","","3000","1","","","images/redplanet1.jpg","images/alien2","images/alien1","images/rocket1","images/alien1","images/nothing.png","2","real","true","1","common","0","2022-02-17 02:52:06.115"
"two-step-fixation","137","737408","0.0-76.0-2.0","478","696","21","Female","true","true","false","false","""event"",""trial"",""time""
""fullscreenenter"",""5"",""13073""
","
","
","""event"",""trial"",""time""
""fullscreenenter"",""5"",""13073""
","
","","images/earth.jpg","","","","","","","","","","","","","","fixation","","","","","",""
"d3-animate-choice","138","739796","0.0-76.0-0.1","478","696","21","Female","true","true","false","false","""event"",""trial"",""time""
""fullscreenenter"",""5"",""13073""
","
","
","""event"",""trial"",""time""
""fullscreenenter"",""5"",""13073""
","
","380.8000000715256","","49","","","3000","1","","","images/earth.jpg","images/rocket2","images/rocket1","null","images/rocket1","","1","real","null","1","","",""
"d3-animate-choice","139","742149","0.0-76.0-1.1","478","696","21","Female","true","true","false","false","""event"",""trial"",""time""
""fullscreenenter"",""5"",""13073""
","
","
","""event"",""trial"",""time""
""fullscreenenter"",""5"",""13073""
","
","347.40000009536743","","49","","","3000","1","","","images/purpleplanet.jpg","images/alien4","images/alien3","images/rocket1","images/alien3","images/nothing.png","2","real","false","1","rare","0","2022-02-17 02:52:11.861"
"two-step-fixation","140","743154","0.0-76.0-2.1","478","696","21","Female","true","true","false","false","""event"",""trial"",""time""
""fullscreenenter"",""5"",""13073""
","
","
","""event"",""trial"",""time""
""fullscreenenter"",""5"",""13073""
","
","","images/earth.jpg","","","","","","","","","","","","","","fixation","","","","","",""
"d3-animate-choice","141","745521","0.0-76.0-0.2","478","696","21","Female","true","true","false","false","""event"",""trial"",""time""
""fullscreenenter"",""5"",""13073""
","
","
","""event"",""trial"",""time""
""fullscreenenter"",""5"",""13073""
","
","363.2000000476837","","49","","","3000","1","","","images/earth.jpg","images/rocket2","images/rocket1","null","images/rocket1","","1","real","null","1","","",""
"d3-animate-choice","142","747998","0.0-76.0-1.2","478","696","21","Female","true","true","false","false","""event"",""trial"",""time""
""fullscreenenter"",""5"",""13073""
","
","
","""event"",""trial"",""time""
""fullscreenenter"",""5"",""13073""
","
","472.2999999523163","","49","","","3000","1","","","images/redplanet1.jpg","images/alien2","images/alien1","images/rocket1","images/alien1","images/t.png","2","real","true","1","common","1","2022-02-17 02:52:17.710"
"two-step-fixation","143","749003","0.0-76.0-2.2","478","696","21","Female","true","true","false","false","""event"",""trial"",""time""
""fullscreenenter"",""5"",""13073""
","
","
","""event"",""trial"",""time""
""fullscreenenter"",""5"",""13073""
","
","","images/earth.jpg","","","","","","","","","","","","","","fixation","","","","","",""
"d3-animate-choice","144","751357","0.0-76.0-0.3","478","696","21","Female","true","true","false","false","""event"",""trial"",""time""
""fullscreenenter"",""5"",""13073""
","
","
","""event"",""trial"",""time""
""fullscreenenter"",""5"",""13073""
","
","348.1999999284744","","49","","","3000","1","","","images/earth.jpg","images/rocket2","images/rocket1","null","images/rocket1","","1","real","null","1","","",""
"d3-animate-choice","145","753810","0.0-76.0-1.3","478","696","21","Female","true","true","false","false","""event"",""trial"",""time""
""fullscreenenter"",""5"",""13073""
","
","
","""event"",""trial"",""time""
""fullscreenenter"",""5"",""13073""
","
","451.09999990463257","","49","","","3000","1","","","images/redplanet1.jpg","images/alien2","images/alien1","images/rocket1","images/alien1","images/nothing.png","2","real","true","1","common","0","2022-02-17 02:52:23.522"
"two-step-fixation","146","754813","0.0-76.0-2.3","478","696","21","Female","true","true","false","false","""event"",""trial"",""time""
""fullscreenenter"",""5"",""13073""
","
","
","""event"",""trial"",""time""
""fullscreenenter"",""5"",""13073""
","
","","images/earth.jpg","","","","","","","","","","","","","","fixation","","","","","",""
"d3-animate-choice","147","757214","0.0-76.0-0.4","478","696","21","Female","true","true","false","false","""event"",""trial"",""time""
""fullscreenenter"",""5"",""13073""
","
","
","""event"",""trial"",""time""
""fullscreenenter"",""5"",""13073""
","
","396.6999999284744","","49","","","3000","1","","","images/earth.jpg","images/rocket2","images/rocket1","null","images/rocket1","","1","real","null","1","","",""
"d3-animate-choice","148","759828","0.0-76.0-1.4","478","696","21","Female","true","true","false","false","""event"",""trial"",""time""
""fullscreenenter"",""5"",""13073""
","
","
","""event"",""trial"",""time""
""fullscreenenter"",""5"",""13073""
","
","610.3000000715256","","49","","","3000","1","","","images/redplanet1.jpg","images/alien2","images/alien1","images/rocket1","images/alien1","images/t.png","2","real","true","1","common","1","2022-02-17 02:52:29.540"
"two-step-fixation","149","760835","0.0-76.0-2.4","478","696","21","Female","true","true","false","false","""event"",""trial"",""time""
""fullscreenenter"",""5"",""13073""
","
","
","""event"",""trial"",""time""
""fullscreenenter"",""5"",""13073""
","
","","images/earth.jpg","","","","","","","","","","","","","","fixation","","","","","",""
"d3-animate-choice","150","763177","0.0-76.0-0.5","478","696","21","Female","true","true","false","false","""event"",""trial"",""time""
""fullscreenenter"",""5"",""13073""
","
","
","""event"",""trial"",""time""
""fullscreenenter"",""5"",""13073""
","
","336.60000002384186","","49","","","3000","1","","","images/earth.jpg","images/rocket2","images/rocket1","null","images/rocket1","","1","real","null","1","","",""
"d3-animate-choice","151","765620","0.0-76.0-1.5","478","696","21","Female","true","true","false","false","""event"",""trial"",""time""
""fullscreenenter"",""5"",""13073""
","
","
","""event"",""trial"",""time""
""fullscreenenter"",""5"",""13073""
","
","440.1999999284744","","49","","","3000","1","","","images/redplanet1.jpg","images/alien2","images/alien1","images/rocket1","images/alien1","images/t.png","2","real","true","1","common","1","2022-02-17 02:52:35.332"
"two-step-fixation","152","766627","0.0-76.0-2.5","478","696","21","Female","true","true","false","false","""event"",""trial"",""time""
""fullscreenenter"",""5"",""13073""
","
","
","""event"",""trial"",""time""
""fullscreenenter"",""5"",""13073""
","
","","images/earth.jpg","","","","","","","","","","","","","","fixation","","","","","",""
"d3-animate-choice","153","769064","0.0-76.0-0.6","478","696","21","Female","true","true","false","false","""event"",""trial"",""time""
""fullscreenenter"",""5"",""13073""
","
","
","""event"",""trial"",""time""
""fullscreenenter"",""5"",""13073""
","
","433.09999990463257","","49","","","3000","1","","","images/earth.jpg","images/rocket2","images/rocket1","null","images/rocket1","","1","real","null","1","","",""
"d3-animate-choice","154","771550","0.0-76.0-1.6","478","696","21","Female","true","true","false","false","""event"",""trial"",""time""
""fullscreenenter"",""5"",""13073""
","
","
","""event"",""trial"",""time""
""fullscreenenter"",""5"",""13073""
","
","481.09999990463257","","49","","","3000","1","","","images/redplanet1.jpg","images/alien2","images/alien1","images/rocket1","images/alien1","images/t.png","2","real","true","1","common","1","2022-02-17 02:52:41.262"
"two-step-fixation","155","772553","0.0-76.0-2.6","478","696","21","Female","true","true","false","false","""event"",""trial"",""time""
""fullscreenenter"",""5"",""13073""
","
","
","""event"",""trial"",""time""
""fullscreenenter"",""5"",""13073""
","
","","images/earth.jpg","","","","","","","","","","","","","","fixation","","","","","",""
"d3-animate-choice","156","774584","0.0-76.0-0.7","478","696","21","Female","true","true","false","false","""event"",""trial"",""time""
""fullscreenenter"",""5"",""13073""
","
","
","""event"",""trial"",""time""
""fullscreenenter"",""5"",""13073""
","
","26","","49","","","3000","1","","","images/earth.jpg","images/rocket2","images/rocket1","null","images/rocket1","","1","real","null","1","","",""
"d3-animate-choice","157","777068","0.0-76.0-1.7","478","696","21","Female","true","true","false","false","""event"",""trial"",""time""
""fullscreenenter"",""5"",""13073""
","
","
","""event"",""trial"",""time""
""fullscreenenter"",""5"",""13073""
","
","481.1999999284744","","48","","","3000","1","","","images/purpleplanet.jpg","images/alien4","images/alien3","images/rocket1","images/alien4","images/nothing.png","2","real","false","2","rare","0","2022-02-17 02:52:46.781"
"two-step-fixation","158","778071","0.0-76.0-2.7","478","696","21","Female","true","true","false","false","""event"",""trial"",""time""
""fullscreenenter"",""5"",""13073""
","
","
","""event"",""trial"",""time""
""fullscreenenter"",""5"",""13073""
","
","","images/earth.jpg","","","","","","","","","","","","","","fixation","","","","","",""
"d3-animate-choice","159","780501","0.0-76.0-0.8","478","696","21","Female","true","true","false","false","""event"",""trial"",""time""
""fullscreenenter"",""5"",""13073""
","
","
","""event"",""trial"",""time""
""fullscreenenter"",""5"",""13073""
","
","426.6999999284744","","49","","","3000","1","","","images/earth.jpg","images/rocket2","images/rocket1","null","images/rocket1","","1","real","null","1","","",""
"d3-animate-choice","160","782981","0.0-76.0-1.8","478","696","21","Female","true","true","false","false","""event"",""trial"",""time""
""fullscreenenter"",""5"",""13073""
","
","
","""event"",""trial"",""time""
""fullscreenenter"",""5"",""13073""
","
","476.1999999284744","","49","","","3000","1","","","images/redplanet1.jpg","images/alien2","images/alien1","images/rocket1","images/alien1","images/t.png","2","real","true","1","common","1","2022-02-17 02:52:52.693"
"two-step-fixation","161","783985","0.0-76.0-2.8","478","696","21","Female","true","true","false","false","""event"",""trial"",""time""
""fullscreenenter"",""5"",""13073""
","
","
","""event"",""trial"",""time""
""fullscreenenter"",""5"",""13073""
","
","","images/earth.jpg","","","","","","","","","","","","","","fixation","","","","","",""
"d3-animate-choice","162","786370","0.0-76.0-0.9","478","696","21","Female","true","true","false","false","""event"",""trial"",""time""
""fullscreenenter"",""5"",""13073""
","
","
","""event"",""trial"",""time""
""fullscreenenter"",""5"",""13073""
","
","382.60000002384186","","49","","","3000","1","","","images/earth.jpg","images/rocket2","images/rocket1","null","images/rocket1","","1","real","null","1","","",""
"d3-animate-choice","163","788755","0.0-76.0-1.9","478","696","21","Female","true","true","false","false","""event"",""trial"",""time""
""fullscreenenter"",""5"",""13073""
","
","
","""event"",""trial"",""time""
""fullscreenenter"",""5"",""13073""
","
","381.1999999284744","","49","","","3000","1","","","images/redplanet1.jpg","images/alien2","images/alien1","images/rocket1","images/alien1","images/t.png","2","real","true","1","common","1","2022-02-17 02:52:58.467"
"two-step-fixation","164","789759","0.0-76.0-2.9","478","696","21","Female","true","true","false","false","""event"",""trial"",""time""
""fullscreenenter"",""5"",""13073""
","
","
","""event"",""trial"",""time""
""fullscreenenter"",""5"",""13073""
","
","","images/earth.jpg","","","","","","","","","","","","","","fixation","","","","","",""
"d3-animate-choice","165","792115","0.0-76.0-0.10","478","696","21","Female","true","true","false","false","""event"",""trial"",""time""
""fullscreenenter"",""5"",""13073""
","
","
","""event"",""trial"",""time""
""fullscreenenter"",""5"",""13073""
","
","351.6999999284744","","49","","","3000","1","","","images/earth.jpg","images/rocket2","images/rocket1","null","images/rocket1","","1","real","null","1","","",""
"d3-animate-choice","166","794710","0.0-76.0-1.10","478","696","21","Female","true","true","false","false","""event"",""trial"",""time""
""fullscreenenter"",""5"",""13073""
","
","
","""event"",""trial"",""time""
""fullscreenenter"",""5"",""13073""
","
","590.1000000238419","","48","","","3000","1","","","images/purpleplanet.jpg","images/alien4","images/alien3","images/rocket1","images/alien4","images/t.png","2","real","false","2","rare","1","2022-02-17 02:53:04.422"
"two-step-fixation","167","795716","0.0-76.0-2.10","478","696","21","Female","true","true","false","false","""event"",""trial"",""time""
""fullscreenenter"",""5"",""13073""
","
","
","""event"",""trial"",""time""
""fullscreenenter"",""5"",""13073""
","
","","images/earth.jpg","","","","","","","","","","","","","","fixation","","","","","",""
"d3-animate-choice","168","798060","0.0-76.0-0.11","478","696","21","Female","true","true","false","false","""event"",""trial"",""time""
""fullscreenenter"",""5"",""13073""
","
","
","""event"",""trial"",""time""
""fullscreenenter"",""5"",""13073""
","
","339.2999999523163","","49","","","3000","1","","","images/earth.jpg","images/rocket2","images/rocket1","null","images/rocket1","","1","real","null","1","","",""
"d3-animate-choice","169","800396","0.0-76.0-1.11","478","696","21","Female","true","true","false","false","""event"",""trial"",""time""
""fullscreenenter"",""5"",""13073""
","
","
","""event"",""trial"",""time""
""fullscreenenter"",""5"",""13073""
","
","332.10000002384186","","49","","","3000","1","","","images/purpleplanet.jpg","images/alien4","images/alien3","images/rocket1","images/alien3","images/nothing.png","2","real","false","1","rare","0","2022-02-17 02:53:10.108"
"two-step-fixation","170","801401","0.0-76.0-2.11","478","696","21","Female","true","true","false","false","""event"",""trial"",""time""
""fullscreenenter"",""5"",""13073""
","
","
","""event"",""trial"",""time""
""fullscreenenter"",""5"",""13073""
","
","","images/earth.jpg","","","","","","","","","","","","","","fixation","","","","","",""
"d3-animate-choice","171","803785","0.0-76.0-0.12","478","696","21","Female","true","true","false","false","""event"",""trial"",""time""
""fullscreenenter"",""5"",""13073""
","
","
","""event"",""trial"",""time""
""fullscreenenter"",""5"",""13073""
","
","380.90000009536743","","49","","","3000","1","","","images/earth.jpg","images/rocket2","images/rocket1","null","images/rocket1","","1","real","null","1","","",""
"d3-animate-choice","172","806366","0.0-76.0-1.12","478","696","21","Female","true","true","false","false","""event"",""trial"",""time""
""fullscreenenter"",""5"",""13073""
","
","
","""event"",""trial"",""time""
""fullscreenenter"",""5"",""13073""
","
","576","","49","","","3000","1","","","images/redplanet1.jpg","images/alien2","images/alien1","images/rocket1","images/alien1","images/t.png","2","real","true","1","common","1","2022-02-17 02:53:16.078"
"two-step-fixation","173","807369","0.0-76.0-2.12","478","696","21","Female","true","true","false","false","""event"",""trial"",""time""
""fullscreenenter"",""5"",""13073""
","
","
","""event"",""trial"",""time""
""fullscreenenter"",""5"",""13073""
","
","","images/earth.jpg","","","","","","","","","","","","","","fixation","","","","","",""
"d3-animate-choice","174","809748","0.0-76.0-0.13","478","696","21","Female","true","true","false","false","""event"",""trial"",""time""
""fullscreenenter"",""5"",""13073""
","
","
","""event"",""trial"",""time""
""fullscreenenter"",""5"",""13073""
","
","373","","49","","","3000","1","","","images/earth.jpg","images/rocket2","images/rocket1","null","images/rocket1","","1","real","null","1","","",""
"d3-animate-choice","175","812211","0.0-76.0-1.13","478","696","21","Female","true","true","false","false","""event"",""trial"",""time""
""fullscreenenter"",""5"",""13073""
","
","
","""event"",""trial"",""time""
""fullscreenenter"",""5"",""13073""
","
","458.3000000715256","","49","","","3000","1","","","images/redplanet1.jpg","images/alien2","images/alien1","images/rocket1","images/alien1","images/t.png","2","real","true","1","common","1","2022-02-17 02:53:21.923"
"two-step-fixation","176","813218","0.0-76.0-2.13","478","696","21","Female","true","true","false","false","""event"",""trial"",""time""
""fullscreenenter"",""5"",""13073""
","
","
","""event"",""trial"",""time""
""fullscreenenter"",""5"",""13073""
","
","","images/earth.jpg","","","","","","","","","","","","","","fixation","","","","","",""
"d3-animate-choice","177","815641","0.0-76.0-0.14","478","696","21","Female","true","true","false","false","""event"",""trial"",""time""
""fullscreenenter"",""5"",""13073""
","
","
","""event"",""trial"",""time""
""fullscreenenter"",""5"",""13073""
","
","420","","49","","","3000","1","","","images/earth.jpg","images/rocket2","images/rocket1","null","images/rocket1","","1","real","null","1","","",""
"d3-animate-choice","178","818078","0.0-76.0-1.14","478","696","21","Female","true","true","false","false","""event"",""trial"",""time""
""fullscreenenter"",""5"",""13073""
","
","
","""event"",""trial"",""time""
""fullscreenenter"",""5"",""13073""
","
","434.2000000476837","","49","","","3000","1","","","images/redplanet1.jpg","images/alien2","images/alien1","images/rocket1","images/alien1","images/t.png","2","real","true","1","common","1","2022-02-17 02:53:27.791"
"two-step-fixation","179","819083","0.0-76.0-2.14","478","696","21","Female","true","true","false","false","""event"",""trial"",""time""
""fullscreenenter"",""5"",""13073""
","
","
","""event"",""trial"",""time""
""fullscreenenter"",""5"",""13073""
","
","","images/earth.jpg","","","","","","","","","","","","","","fixation","","","","","",""
"d3-animate-choice","180","821417","0.0-76.0-0.15","478","696","21","Female","true","true","false","false","""event"",""trial"",""time""
""fullscreenenter"",""5"",""13073""
","
","
","""event"",""trial"",""time""
""fullscreenenter"",""5"",""13073""
","
","330.5","","49","","","3000","1","","","images/earth.jpg","images/rocket2","images/rocket1","null","images/rocket1","","1","real","null","1","","",""
"d3-animate-choice","181","823854","0.0-76.0-1.15","478","696","21","Female","true","true","false","false","""event"",""trial"",""time""
""fullscreenenter"",""5"",""13073""
","
","
","""event"",""trial"",""time""
""fullscreenenter"",""5"",""13073""
","
","433.60000002384186","","48","","","3000","1","","","images/purpleplanet.jpg","images/alien4","images/alien3","images/rocket1","images/alien4","images/t.png","2","real","false","2","rare","1","2022-02-17 02:53:33.566"
"two-step-fixation","182","824857","0.0-76.0-2.15","478","696","21","Female","true","true","false","false","""event"",""trial"",""time""
""fullscreenenter"",""5"",""13073""
","
","
","""event"",""trial"",""time""
""fullscreenenter"",""5"",""13073""
","
","","images/earth.jpg","","","","","","","","","","","","","","fixation","","","","","",""
"d3-animate-choice","183","827218","0.0-76.0-0.16","478","696","21","Female","true","true","false","false","""event"",""trial"",""time""
""fullscreenenter"",""5"",""13073""
","
","
","""event"",""trial"",""time""
""fullscreenenter"",""5"",""13073""
","
","357.6999999284744","","49","","","3000","1","","","images/earth.jpg","images/rocket2","images/rocket1","null","images/rocket1","","1","real","null","1","","",""
"d3-animate-choice","184","829696","0.0-76.0-1.16","478","696","21","Female","true","true","false","false","""event"",""trial"",""time""
""fullscreenenter"",""5"",""13073""
","
","
","""event"",""trial"",""time""
""fullscreenenter"",""5"",""13073""
","
","474.5","","49","","","3000","1","","","images/purpleplanet.jpg","images/alien4","images/alien3","images/rocket1","images/alien3","images/nothing.png","2","real","false","1","rare","0","2022-02-17 02:53:39.408"
"two-step-fixation","185","830699","0.0-76.0-2.16","478","696","21","Female","true","true","false","false","""event"",""trial"",""time""
""fullscreenenter"",""5"",""13073""
","
","
","""event"",""trial"",""time""
""fullscreenenter"",""5"",""13073""
","
","","images/earth.jpg","","","","","","","","","","","","","","fixation","","","","","",""
"d3-animate-choice","186","833143","0.0-76.0-0.17","478","696","21","Female","true","true","false","false","""event"",""trial"",""time""
""fullscreenenter"",""5"",""13073""
","
","
","""event"",""trial"",""time""
""fullscreenenter"",""5"",""13073""
","
","440.2999999523163","","49","","","3000","1","","","images/earth.jpg","images/rocket2","images/rocket1","null","images/rocket1","","1","real","null","1","","",""
"d3-animate-choice","187","835725","0.0-76.0-1.17","478","696","21","Female","true","true","false","false","""event"",""trial"",""time""
""fullscreenenter"",""5"",""13073""
","
","
","""event"",""trial"",""time""
""fullscreenenter"",""5"",""13073""
","
","579.3000000715256","","48","","","3000","1","","","images/purpleplanet.jpg","images/alien4","images/alien3","images/rocket1","images/alien4","images/t.png","2","real","false","2","rare","1","2022-02-17 02:53:45.437"
"two-step-fixation","188","836729","0.0-76.0-2.17","478","696","21","Female","true","true","false","false","""event"",""trial"",""time""
""fullscreenenter"",""5"",""13073""
","
","
","""event"",""trial"",""time""
""fullscreenenter"",""5"",""13073""
","
","","images/earth.jpg","","","","","","","","","","","","","","fixation","","","","","",""
"d3-animate-choice","189","839033","0.0-76.0-0.18","478","696","21","Female","true","true","false","false","""event"",""trial"",""time""
""fullscreenenter"",""5"",""13073""
","
","
","""event"",""trial"",""time""
""fullscreenenter"",""5"",""13073""
","
","299.60000002384186","","49","","","3000","1","","","images/earth.jpg","images/rocket2","images/rocket1","null","images/rocket1","","1","real","null","1","","",""
"d3-animate-choice","190","841620","0.0-76.0-1.18","478","696","21","Female","true","true","false","false","""event"",""trial"",""time""
""fullscreenenter"",""5"",""13073""
","
","
","""event"",""trial"",""time""
""fullscreenenter"",""5"",""13073""
","
","581.3999999761581","","48","","","3000","1","","","images/purpleplanet.jpg","images/alien4","images/alien3","images/rocket1","images/alien4","images/t.png","2","real","false","2","rare","1","2022-02-17 02:53:51.332"
"two-step-fixation","191","842623","0.0-76.0-2.18","478","696","21","Female","true","true","false","false","""event"",""trial"",""time""
""fullscreenenter"",""5"",""13073""
","
","
","""event"",""trial"",""time""
""fullscreenenter"",""5"",""13073""
","
","","images/earth.jpg","","","","","","","","","","","","","","fixation","","","","","",""
"d3-animate-choice","192","844971","0.0-76.0-0.19","478","696","21","Female","true","true","false","false","""event"",""trial"",""time""
""fullscreenenter"",""5"",""13073""
","
","
","""event"",""trial"",""time""
""fullscreenenter"",""5"",""13073""
","
","344.39999997615814","","49","","","3000","1","","","images/earth.jpg","images/rocket2","images/rocket1","null","images/rocket1","","1","real","null","1","","",""
"d3-animate-choice","193","847428","0.0-76.0-1.19","478","696","21","Female","true","true","false","false","""event"",""trial"",""time""
""fullscreenenter"",""5"",""13073""
","
","
","""event"",""trial"",""time""
""fullscreenenter"",""5"",""13073""
","
","452","","48","","","3000","1","","","images/purpleplanet.jpg","images/alien4","images/alien3","images/rocket1","images/alien4","images/t.png","2","real","false","2","rare","1","2022-02-17 02:53:57.140"
"two-step-fixation","194","848431","0.0-76.0-2.19","478","696","21","Female","true","true","false","false","""event"",""trial"",""time""
""fullscreenenter"",""5"",""13073""
","
","
","""event"",""trial"",""time""
""fullscreenenter"",""5"",""13073""
","
","","images/earth.jpg","","","","","","","","","","","","","","fixation","","","","","",""
"d3-animate-choice","195","850820","0.0-76.0-0.20","478","696","21","Female","true","true","false","false","""event"",""trial"",""time""
""fullscreenenter"",""5"",""13073""
","
","
","""event"",""trial"",""time""
""fullscreenenter"",""5"",""13073""
","
","386.10000002384186","","49","","","3000","1","","","images/earth.jpg","images/rocket2","images/rocket1","null","images/rocket1","","1","real","null","1","","",""
"d3-animate-choice","196","853546","0.0-76.0-1.20","478","696","21","Female","true","true","false","false","""event"",""trial"",""time""
""fullscreenenter"",""5"",""13073""
","
","
","""event"",""trial"",""time""
""fullscreenenter"",""5"",""13073""
","
","721.7999999523163","","49","","","3000","1","","","images/redplanet1.jpg","images/alien2","images/alien1","images/rocket1","images/alien1","images/nothing.png","2","real","true","1","common","0","2022-02-17 02:54:03.258"
"two-step-fixation","197","854549","0.0-76.0-2.20","478","696","21","Female","true","true","false","false","""event"",""trial"",""time""
""fullscreenenter"",""5"",""13073""
","
","
","""event"",""trial"",""time""
""fullscreenenter"",""5"",""13073""
","
","","images/earth.jpg","","","","","","","","","","","","","","fixation","","","","","",""
"d3-animate-choice","198","856906","0.0-76.0-0.21","478","696","21","Female","true","true","false","false","""event"",""trial"",""time""
""fullscreenenter"",""5"",""13073""
","
","
","""event"",""trial"",""time""
""fullscreenenter"",""5"",""13073""
","
","354","","49","","","3000","1","","","images/earth.jpg","images/rocket2","images/rocket1","null","images/rocket1","","1","real","null","1","","",""
"d3-animate-choice","199","859381","0.0-76.0-1.21","478","696","21","Female","true","true","false","false","""event"",""trial"",""time""
""fullscreenenter"",""5"",""13073""
","
","
","""event"",""trial"",""time""
""fullscreenenter"",""5"",""13073""
","
","471.10000002384186","","49","","","3000","1","","","images/redplanet1.jpg","images/alien2","images/alien1","images/rocket1","images/alien1","images/t.png","2","real","true","1","common","1","2022-02-17 02:54:09.093"
"two-step-fixation","200","860384","0.0-76.0-2.21","478","696","21","Female","true","true","false","false","""event"",""trial"",""time""
""fullscreenenter"",""5"",""13073""
","
","
","""event"",""trial"",""time""
""fullscreenenter"",""5"",""13073""
","
","","images/earth.jpg","","","","","","","","","","","","","","fixation","","","","","",""
"d3-animate-choice","201","862799","0.0-76.0-0.22","478","696","21","Female","true","true","false","false","""event"",""trial"",""time""
""fullscreenenter"",""5"",""13073""
","
","
","""event"",""trial"",""time""
""fullscreenenter"",""5"",""13073""
","
","408.2999999523163","","49","","","3000","1","","","images/earth.jpg","images/rocket2","images/rocket1","null","images/rocket1","","1","real","null","1","","",""
"d3-animate-choice","202","865274","0.0-76.0-1.22","478","696","21","Female","true","true","false","false","""event"",""trial"",""time""
""fullscreenenter"",""5"",""13073""
","
","
","""event"",""trial"",""time""
""fullscreenenter"",""5"",""13073""
","
","471.90000009536743","","48","","","3000","1","","","images/purpleplanet.jpg","images/alien4","images/alien3","images/rocket1","images/alien4","images/t.png","2","real","false","2","rare","1","2022-02-17 02:54:14.986"
"two-step-fixation","203","866277","0.0-76.0-2.22","478","696","21","Female","true","true","false","false","""event"",""trial"",""time""
""fullscreenenter"",""5"",""13073""
","
","
","""event"",""trial"",""time""
""fullscreenenter"",""5"",""13073""
","
","","images/earth.jpg","","","","","","","","","","","","","","fixation","","","","","",""
"d3-animate-choice","204","868783","0.0-76.0-0.23","478","696","21","Female","true","true","false","false","""event"",""trial"",""time""
""fullscreenenter"",""5"",""13073""
","
","
","""event"",""trial"",""time""
""fullscreenenter"",""5"",""13073""
","
","499.2999999523163","","49","","","3000","1","","","images/earth.jpg","images/rocket2","images/rocket1","null","images/rocket1","","1","real","null","1","","",""
"d3-animate-choice","205","871301","0.0-76.0-1.23","478","696","21","Female","true","true","false","false","""event"",""trial"",""time""
""fullscreenenter"",""5"",""13073""
","
","
","""event"",""trial"",""time""
""fullscreenenter"",""5"",""13073""
","
","513.2000000476837","","49","","","3000","1","","","images/redplanet1.jpg","images/alien2","images/alien1","images/rocket1","images/alien1","images/t.png","2","real","true","1","common","1","2022-02-17 02:54:21.013"
"two-step-fixation","206","872307","0.0-76.0-2.23","478","696","21","Female","true","true","false","false","""event"",""trial"",""time""
""fullscreenenter"",""5"",""13073""
","
","
","""event"",""trial"",""time""
""fullscreenenter"",""5"",""13073""
","
","","images/earth.jpg","","","","","","","","","","","","","","fixation","","","","","",""
"d3-animate-choice","207","874665","0.0-76.0-0.24","478","696","21","Female","true","true","false","false","""event"",""trial"",""time""
""fullscreenenter"",""5"",""13073""
","
","
","""event"",""trial"",""time""
""fullscreenenter"",""5"",""13073""
","
","352.59999990463257","","49","","","3000","1","","","images/earth.jpg","images/rocket2","images/rocket1","null","images/rocket1","","1","real","null","1","","",""
"d3-animate-choice","208","877242","0.0-76.0-1.24","478","696","21","Female","true","true","false","false","""event"",""trial"",""time""
""fullscreenenter"",""5"",""13073""
","
","
","""event"",""trial"",""time""
""fullscreenenter"",""5"",""13073""
","
","573","","48","","","3000","1","","","images/purpleplanet.jpg","images/alien4","images/alien3","images/rocket1","images/alien4","images/t.png","2","real","false","2","rare","1","2022-02-17 02:54:26.954"
"two-step-fixation","209","878248","0.0-76.0-2.24","478","696","21","Female","true","true","false","false","""event"",""trial"",""time""
""fullscreenenter"",""5"",""13073""
","
","
","""event"",""trial"",""time""
""fullscreenenter"",""5"",""13073""
","
","","images/earth.jpg","","","","","","","","","","","","","","fixation","","","","","",""
"d3-animate-choice","210","880618","0.0-76.0-0.25","478","696","21","Female","true","true","false","false","""event"",""trial"",""time""
""fullscreenenter"",""5"",""13073""
","
","
","""event"",""trial"",""time""
""fullscreenenter"",""5"",""13073""
","
","366.7000000476837","","49","","","3000","1","","","images/earth.jpg","images/rocket2","images/rocket1","null","images/rocket1","","1","real","null","1","","",""
"d3-animate-choice","211","883173","0.0-76.0-1.25","478","696","21","Female","true","true","false","false","""event"",""trial"",""time""
""fullscreenenter"",""5"",""13073""
","
","
","""event"",""trial"",""time""
""fullscreenenter"",""5"",""13073""
","
","548.6000000238419","","49","","","3000","1","","","images/redplanet1.jpg","images/alien2","images/alien1","images/rocket1","images/alien1","images/nothing.png","2","real","true","1","common","0","2022-02-17 02:54:32.885"
"two-step-fixation","212","884177","0.0-76.0-2.25","478","696","21","Female","true","true","false","false","""event"",""trial"",""time""
""fullscreenenter"",""5"",""13073""
","
","
","""event"",""trial"",""time""
""fullscreenenter"",""5"",""13073""
","
","","images/earth.jpg","","","","","","","","","","","","","","fixation","","","","","",""
"d3-animate-choice","213","886645","0.0-76.0-0.26","478","696","21","Female","true","true","false","false","""event"",""trial"",""time""
""fullscreenenter"",""5"",""13073""
","
","
","""event"",""trial"",""time""
""fullscreenenter"",""5"",""13073""
","
","464.7000000476837","","49","","","3000","1","","","images/earth.jpg","images/rocket2","images/rocket1","null","images/rocket1","","1","real","null","1","","",""
"d3-animate-choice","214","889144","0.0-76.0-1.26","478","696","21","Female","true","true","false","false","""event"",""trial"",""time""
""fullscreenenter"",""5"",""13073""
","
","
","""event"",""trial"",""time""
""fullscreenenter"",""5"",""13073""
","
","494","","48","","","3000","1","","","images/purpleplanet.jpg","images/alien4","images/alien3","images/rocket1","images/alien4","images/t.png","2","real","false","2","rare","1","2022-02-17 02:54:38.856"
"two-step-fixation","215","890149","0.0-76.0-2.26","478","696","21","Female","true","true","false","false","""event"",""trial"",""time""
""fullscreenenter"",""5"",""13073""
","
","
","""event"",""trial"",""time""
""fullscreenenter"",""5"",""13073""
","
","","images/earth.jpg","","","","","","","","","","","","","","fixation","","","","","",""
"d3-animate-choice","216","892564","0.0-76.0-0.27","478","696","21","Female","true","true","false","false","""event"",""trial"",""time""
""fullscreenenter"",""5"",""13073""
","
","
","""event"",""trial"",""time""
""fullscreenenter"",""5"",""13073""
","
","408.8000000715256","","49","","","3000","1","","","images/earth.jpg","images/rocket2","images/rocket1","null","images/rocket1","","1","real","null","1","","",""
"d3-animate-choice","217","894932","0.0-76.0-1.27","478","696","21","Female","true","true","false","false","""event"",""trial"",""time""
""fullscreenenter"",""5"",""13073""
","
","
","""event"",""trial"",""time""
""fullscreenenter"",""5"",""13073""
","
","365.2000000476837","","49","","","3000","1","","","images/redplanet1.jpg","images/alien2","images/alien1","images/rocket1","images/alien1","images/t.png","2","real","true","1","common","1","2022-02-17 02:54:44.644"
"two-step-fixation","218","895936","0.0-76.0-2.27","478","696","21","Female","true","true","false","false","""event"",""trial"",""time""
""fullscreenenter"",""5"",""13073""
","
","
","""event"",""trial"",""time""
""fullscreenenter"",""5"",""13073""
","
","","images/earth.jpg","","","","","","","","","","","","","","fixation","","","","","",""
"d3-animate-choice","219","898314","0.0-76.0-0.28","478","696","21","Female","true","true","false","false","""event"",""trial"",""time""
""fullscreenenter"",""5"",""13073""
","
","
","""event"",""trial"",""time""
""fullscreenenter"",""5"",""13073""
","
","375.3000000715256","","49","","","3000","1","","","images/earth.jpg","images/rocket2","images/rocket1","null","images/rocket1","","1","real","null","1","","",""
"d3-animate-choice","220","900811","0.0-76.0-1.28","478","696","21","Female","true","true","false","false","""event"",""trial"",""time""
""fullscreenenter"",""5"",""13073""
","
","
","""event"",""trial"",""time""
""fullscreenenter"",""5"",""13073""
","
","492.3000000715256","","49","","","3000","1","","","images/redplanet1.jpg","images/alien2","images/alien1","images/rocket1","images/alien1","images/nothing.png","2","real","true","1","common","0","2022-02-17 02:54:50.523"
"two-step-fixation","221","901814","0.0-76.0-2.28","478","696","21","Female","true","true","false","false","""event"",""trial"",""time""
""fullscreenenter"",""5"",""13073""
","
","
","""event"",""trial"",""time""
""fullscreenenter"",""5"",""13073""
","
","","images/earth.jpg","","","","","","","","","","","","","","fixation","","","","","",""
"d3-animate-choice","222","904199","0.0-76.0-0.29","478","696","21","Female","true","true","false","false","""event"",""trial"",""time""
""fullscreenenter"",""5"",""13073""
","
","
","""event"",""trial"",""time""
""fullscreenenter"",""5"",""13073""
","
","381.89999997615814","","49","","","3000","1","","","images/earth.jpg","images/rocket2","images/rocket1","null","images/rocket1","","1","real","null","1","","",""
"d3-animate-choice","223","906738","0.0-76.0-1.29","478","696","21","Female","true","true","false","false","""event"",""trial"",""time""
""fullscreenenter"",""5"",""13073""
","
","
","""event"",""trial"",""time""
""fullscreenenter"",""5"",""13073""
","
","535.2999999523163","","49","","","3000","1","","","images/redplanet1.jpg","images/alien2","images/alien1","images/rocket1","images/alien1","images/t.png","2","real","true","1","common","1","2022-02-17 02:54:56.450"
"two-step-fixation","224","907743","0.0-76.0-2.29","478","696","21","Female","true","true","false","false","""event"",""trial"",""time""
""fullscreenenter"",""5"",""13073""
","
","
","""event"",""trial"",""time""
""fullscreenenter"",""5"",""13073""
","
","","images/earth.jpg","","","","","","","","","","","","","","fixation","","","","","",""
"d3-animate-choice","225","910204","0.0-76.0-0.30","478","696","21","Female","true","true","false","false","""event"",""trial"",""time""
""fullscreenenter"",""5"",""13073""
","
","
","""event"",""trial"",""time""
""fullscreenenter"",""5"",""13073""
","
","456.3000000715256","","49","","","3000","1","","","images/earth.jpg","images/rocket2","images/rocket1","null","images/rocket1","","1","real","null","1","","",""
"d3-animate-choice","226","912602","0.0-76.0-1.30","478","696","21","Female","true","true","false","false","""event"",""trial"",""time""
""fullscreenenter"",""5"",""13073""
","
","
","""event"",""trial"",""time""
""fullscreenenter"",""5"",""13073""
","
","394.2000000476837","","49","","","3000","1","","","images/redplanet1.jpg","images/alien2","images/alien1","images/rocket1","images/alien1","images/t.png","2","real","true","1","common","1","2022-02-17 02:55:02.314"
"two-step-fixation","227","913606","0.0-76.0-2.30","478","696","21","Female","true","true","false","false","""event"",""trial"",""time""
""fullscreenenter"",""5"",""13073""
","
","
","""event"",""trial"",""time""
""fullscreenenter"",""5"",""13073""
","
","","images/earth.jpg","","","","","","","","","","","","","","fixation","","","","","",""
"d3-animate-choice","228","916016","0.0-76.0-0.31","478","696","21","Female","true","true","false","false","""event"",""trial"",""time""
""fullscreenenter"",""5"",""13073""
","
","
","""event"",""trial"",""time""
""fullscreenenter"",""5"",""13073""
","
","406.89999997615814","","49","","","3000","1","","","images/earth.jpg","images/rocket2","images/rocket1","null","images/rocket1","","1","real","null","1","","",""
"d3-animate-choice","229","918544","0.0-76.0-1.31","478","696","21","Female","true","true","false","false","""event"",""trial"",""time""
""fullscreenenter"",""5"",""13073""
","
","
","""event"",""trial"",""time""
""fullscreenenter"",""5"",""13073""
","
","523.3000000715256","","49","","","3000","1","","","images/purpleplanet.jpg","images/alien4","images/alien3","images/rocket1","images/alien3","images/nothing.png","2","real","false","1","rare","0","2022-02-17 02:55:08.256"
"two-step-fixation","230","919547","0.0-76.0-2.31","478","696","21","Female","true","true","false","false","""event"",""trial"",""time""
""fullscreenenter"",""5"",""13073""
","
","
","""event"",""trial"",""time""
""fullscreenenter"",""5"",""13073""
","
","","images/earth.jpg","","","","","","","","","","","","","","fixation","","","","","",""
"d3-animate-choice","231","921926","0.0-76.0-0.32","478","696","21","Female","true","true","false","false","""event"",""trial"",""time""
""fullscreenenter"",""5"",""13073""
","
","
","""event"",""trial"",""time""
""fullscreenenter"",""5"",""13073""
","
","375.40000009536743","","49","","","3000","1","","","images/earth.jpg","images/rocket2","images/rocket1","null","images/rocket1","","1","real","null","1","","",""
"d3-animate-choice","232","924502","0.0-76.0-1.32","478","696","21","Female","true","true","false","false","""event"",""trial"",""time""
""fullscreenenter"",""5"",""13073""
","
","
","""event"",""trial"",""time""
""fullscreenenter"",""5"",""13073""
","
","570.2999999523163","","49","","","3000","1","","","images/redplanet1.jpg","images/alien2","images/alien1","images/rocket1","images/alien1","images/t.png","2","real","true","1","common","1","2022-02-17 02:55:14.214"
"two-step-fixation","233","925504","0.0-76.0-2.32","478","696","21","Female","true","true","false","false","""event"",""trial"",""time""
""fullscreenenter"",""5"",""13073""
","
","
","""event"",""trial"",""time""
""fullscreenenter"",""5"",""13073""
","
","","images/earth.jpg","","","","","","","","","","","","","","fixation","","","","","",""
"d3-animate-choice","234","927862","0.0-76.0-0.33","478","696","21","Female","true","true","false","false","""event"",""trial"",""time""
""fullscreenenter"",""5"",""13073""
","
","
","""event"",""trial"",""time""
""fullscreenenter"",""5"",""13073""
","
","353.5","","49","","","3000","1","","","images/earth.jpg","images/rocket2","images/rocket1","null","images/rocket1","","1","real","null","1","","",""
"d3-animate-choice","235","930275","0.0-76.0-1.33","478","696","21","Female","true","true","false","false","""event"",""trial"",""time""
""fullscreenenter"",""5"",""13073""
","
","
","""event"",""trial"",""time""
""fullscreenenter"",""5"",""13073""
","
","407.2999999523163","","48","","","3000","1","","","images/purpleplanet.jpg","images/alien4","images/alien3","images/rocket1","images/alien4","images/nothing.png","2","real","false","2","rare","0","2022-02-17 02:55:19.988"
"two-step-fixation","236","931280","0.0-76.0-2.33","478","696","21","Female","true","true","false","false","""event"",""trial"",""time""
""fullscreenenter"",""5"",""13073""
","
","
","""event"",""trial"",""time""
""fullscreenenter"",""5"",""13073""
","
","","images/earth.jpg","","","","","","","","","","","","","","fixation","","","","","",""
"d3-animate-choice","237","933638","0.0-76.0-0.34","478","696","21","Female","true","true","false","false","""event"",""trial"",""time""
""fullscreenenter"",""5"",""13073""
","
","
","""event"",""trial"",""time""
""fullscreenenter"",""5"",""13073""
","
","352.8000000715256","","49","","","3000","1","","","images/earth.jpg","images/rocket2","images/rocket1","null","images/rocket1","","1","real","null","1","","",""
"d3-animate-choice","238","936286","0.0-76.0-1.34","478","696","21","Female","true","true","false","false","""event"",""trial"",""time""
""fullscreenenter"",""5"",""13073""
","
","
","""event"",""trial"",""time""
""fullscreenenter"",""5"",""13073""
","
","644.1000000238419","","49","","","3000","1","","","images/redplanet1.jpg","images/alien2","images/alien1","images/rocket1","images/alien1","images/t.png","2","real","true","1","common","1","2022-02-17 02:55:25.998"
"two-step-fixation","239","937290","0.0-76.0-2.34","478","696","21","Female","true","true","false","false","""event"",""trial"",""time""
""fullscreenenter"",""5"",""13073""
","
","
","""event"",""trial"",""time""
""fullscreenenter"",""5"",""13073""
","
","","images/earth.jpg","","","","","","","","","","","","","","fixation","","","","","",""
"d3-animate-choice","240","939883","0.0-76.0-0.35","478","696","21","Female","true","true","false","false","""event"",""trial"",""time""
""fullscreenenter"",""5"",""13073""
","
","
","""event"",""trial"",""time""
""fullscreenenter"",""5"",""13073""
","
","589.2999999523163","","49","","","3000","1","","","images/earth.jpg","images/rocket2","images/rocket1","null","images/rocket1","","1","real","null","1","","",""
"d3-animate-choice","241","942358","0.0-76.0-1.35","478","696","21","Female","true","true","false","false","""event"",""trial"",""time""
""fullscreenenter"",""5"",""13073""
","
","
","""event"",""trial"",""time""
""fullscreenenter"",""5"",""13073""
","
","471.5","","48","","","3000","1","","","images/purpleplanet.jpg","images/alien4","images/alien3","images/rocket1","images/alien4","images/t.png","2","real","false","2","rare","1","2022-02-17 02:55:32.070"
"two-step-fixation","242","943364","0.0-76.0-2.35","478","696","21","Female","true","true","false","false","""event"",""trial"",""time""
""fullscreenenter"",""5"",""13073""
","
","
","""event"",""trial"",""time""
""fullscreenenter"",""5"",""13073""
","
","","images/earth.jpg","","","","","","","","","","","","","","fixation","","","","","",""
"d3-animate-choice","243","945771","0.0-76.0-0.36","478","696","21","Female","true","true","false","false","""event"",""trial"",""time""
""fullscreenenter"",""5"",""13073""
","
","
","""event"",""trial"",""time""
""fullscreenenter"",""5"",""13073""
","
","404.1999999284744","","49","","","3000","1","","","images/earth.jpg","images/rocket2","images/rocket1","null","images/rocket1","","1","real","null","1","","",""
"d3-animate-choice","244","948225","0.0-76.0-1.36","478","696","21","Female","true","true","false","false","""event"",""trial"",""time""
""fullscreenenter"",""5"",""13073""
","
","
","""event"",""trial"",""time""
""fullscreenenter"",""5"",""13073""
","
","449.89999997615814","","49","","","3000","1","","","images/purpleplanet.jpg","images/alien4","images/alien3","images/rocket1","images/alien3","images/nothing.png","2","real","false","1","rare","0","2022-02-17 02:55:37.937"
"two-step-fixation","245","949230","0.0-76.0-2.36","478","696","21","Female","true","true","false","false","""event"",""trial"",""time""
""fullscreenenter"",""5"",""13073""
","
","
","""event"",""trial"",""time""
""fullscreenenter"",""5"",""13073""
","
","","images/earth.jpg","","","","","","","","","","","","","","fixation","","","","","",""
"d3-animate-choice","246","951620","0.0-76.0-0.37","478","696","21","Female","true","true","false","false","""event"",""trial"",""time""
""fullscreenenter"",""5"",""13073""
","
","
","""event"",""trial"",""time""
""fullscreenenter"",""5"",""13073""
","
