"trial_type","trial_index","time_elapsed","internal_node_id","participant_id","subject_id","age","gender","rocket_sides","red_planet_first_rocket","red_display_order","purple_display_order","interactions","blur_events","focus_events","fullscreenenter_events","fullscreenexit_events","rt","stimulus","key_press","button_pressed","success","duration","valid_pressed","rts","keys","planet_text","right_text","left_text","center_text","chosen_text","reward_text","trial_stage","practice_trial","transition_type","choice","transition","reward","timestamp"
"pavlovia","0","2","0.0-0.0","0","0","0","female","true","true","true","true","
","
","
","
","
","","","","","","","","","","","","","","","","","","","","","",""
"html-keyboard-response","1","946","0.0-1.0","0","0","0","female","true","true","true","true","
","
","
","
","
","943.2999999988824","Welcome! Press the space bar to begin.","32","","","","","","","","","","","","","","","","","","",""
"audio-keyboard-response","2","5536","0.0-2.0","0","0","0","female","true","true","true","true","
","
","
","
","
","4569","audio/beep_loop.wav","32","","","","","","","","","","","","","","","","","","",""
"audio-button-response","3","7005","0.0-3.0","0","0","0","female","true","true","true","true","
","
","
","
","
","NaN","audio/fish.mp3","","1","","","","","","","","","","","","","","","","","",""
"audio-button-response","4","9207","0.0-4.0","0","0","0","female","true","true","true","true","""event"",""trial"",""time""
""fullscreenenter"",""5"",""12261""
","
","
","""event"",""trial"",""time""
""fullscreenenter"",""5"",""12261""
","
","NaN","audio/tiger.mp3","","4","","","","","","","","","","","","","","","","","",""
"fullscreen","5","13218","0.0-5.0","0","0","0","female","true","true","true","true","""event"",""trial"",""time""
""fullscreenenter"",""5"",""12261""
""fullscreenexit"",""6"",""14370""
","
","
","""event"",""trial"",""time""
""fullscreenenter"",""5"",""12261""
","""event"",""trial"",""time""
""fullscreenexit"",""6"",""14370""
","","","","","true","","","","","","","","","","","","","","","","",""
"d3-instructions","6","19480","0.0-6.0","0","0","0","female","true","true","true","true","""event"",""trial"",""time""
""fullscreenenter"",""5"",""12261""
""fullscreenexit"",""6"",""14370""
","
","
","""event"",""trial"",""time""
""fullscreenenter"",""5"",""12261""
","""event"",""trial"",""time""
""fullscreenexit"",""6"",""14370""
","","","","","","","","","","","","","","","","","","","","","",""
"d3-instructions","7","20814","0.0-7.0","0","0","0","female","true","true","true","true","""event"",""trial"",""time""
""fullscreenenter"",""5"",""12261""
""fullscreenexit"",""6"",""14370""
","
","
","""event"",""trial"",""time""
""fullscreenenter"",""5"",""12261""
","""event"",""trial"",""time""
""fullscreenexit"",""6"",""14370""
","","","","","","","","","","","","","","","","","","","","","",""
"d3-instructions","8","21618","0.0-8.0","0","0","0","female","true","true","true","true","""event"",""trial"",""time""
""fullscreenenter"",""5"",""12261""
""fullscreenexit"",""6"",""14370""
","
","
","""event"",""trial"",""time""
""fullscreenenter"",""5"",""12261""
","""event"",""trial"",""time""
""fullscreenexit"",""6"",""14370""
","","","","","","","","","","","","","","","","","","","","","",""
"d3-instructions","9","22535","0.0-9.0","0","0","0","female","true","true","true","true","""event"",""trial"",""time""
""fullscreenenter"",""5"",""12261""
""fullscreenexit"",""6"",""14370""
","
","
","""event"",""trial"",""time""
""fullscreenenter"",""5"",""12261""
","""event"",""trial"",""time""
""fullscreenexit"",""6"",""14370""
","","","","","","","","","","","","","","","","","","","","","",""
"d3-instructions","10","23373","0.0-10.0","0","0","0","female","true","true","true","true","""event"",""trial"",""time""
""fullscreenenter"",""5"",""12261""
""fullscreenexit"",""6"",""14370""
","
","
","""event"",""trial"",""time""
""fullscreenenter"",""5"",""12261""
","""event"",""trial"",""time""
""fullscreenexit"",""6"",""14370""
","","","","","","","","","","","","","","","","","","","","","",""
"d3-animate-choice","11","28047","0.0-11.0","0","0","0","female","true","true","true","true","""event"",""trial"",""time""
""fullscreenenter"",""5"",""12261""
""fullscreenexit"",""6"",""14370""
","
","
","""event"",""trial"",""time""
""fullscreenenter"",""5"",""12261""
","""event"",""trial"",""time""
""fullscreenexit"",""6"",""14370""
","2667.300000000745","","49","","","3000","1","","","images/tutgreenplanet.jpg","images/tutalien1","images/tutalien2","null","images/tutalien2","","NA","practice","null","","","",""
"d3-animate-choice","12","30992","0.0-12.0","0","0","0","female","true","true","true","true","""event"",""trial"",""time""
""fullscreenenter"",""5"",""12261""
""fullscreenexit"",""6"",""14370""
","
","
","""event"",""trial"",""time""
""fullscreenenter"",""5"",""12261""
","""event"",""trial"",""time""
""fullscreenexit"",""6"",""14370""
","939.8000000007451","","49","","","3000","1","","","images/tutgreenplanet.jpg","images/tutalien1","images/tutalien2","null","images/tutalien2","","NA","practice","null","","","",""
"d3-animate-choice","13","34039","0.0-13.0","0","0","0","female","true","true","true","true","""event"",""trial"",""time""
""fullscreenenter"",""5"",""12261""
""fullscreenexit"",""6"",""14370""
","
","
","""event"",""trial"",""time""
""fullscreenenter"",""5"",""12261""
","""event"",""trial"",""time""
""fullscreenexit"",""6"",""14370""
","1041.300000000745","","49","","","3000","1","","","images/tutgreenplanet.jpg","images/tutalien1","images/tutalien2","null","images/tutalien2","","NA","practice","null","","","",""
"d3-animate-choice","14","36843","0.0-14.0","0","0","0","female","true","true","true","true","""event"",""trial"",""time""
""fullscreenenter"",""5"",""12261""
""fullscreenexit"",""6"",""14370""
","
","
","""event"",""trial"",""time""
""fullscreenenter"",""5"",""12261""
","""event"",""trial"",""time""
""fullscreenexit"",""6"",""14370""
","801.4000000003725","","49","","","3000","1","","","images/tutgreenplanet.jpg","images/tutalien1","images/tutalien2","null","images/tutalien2","","NA","practice","null","","","",""
"d3-instructions","15","38912","0.0-15.0","0","0","0","female","true","true","true","true","""event"",""trial"",""time""
""fullscreenenter"",""5"",""12261""
""fullscreenexit"",""6"",""14370""
","
","
","""event"",""trial"",""time""
""fullscreenenter"",""5"",""12261""
","""event"",""trial"",""time""
""fullscreenexit"",""6"",""14370""
","","","","","","","","","","","","","","","","","","","","","",""
"d3-instructions","16","39716","0.0-16.0","0","0","0","female","true","true","true","true","""event"",""trial"",""time""
""fullscreenenter"",""5"",""12261""
""fullscreenexit"",""6"",""14370""
","
","
","""event"",""trial"",""time""
""fullscreenenter"",""5"",""12261""
","""event"",""trial"",""time""
""fullscreenexit"",""6"",""14370""
","","","","","","","","","","","","","","","","","","","","","",""
"d3-instructions","17","40407","0.0-17.0","0","0","0","female","true","true","true","true","""event"",""trial"",""time""
""fullscreenenter"",""5"",""12261""
""fullscreenexit"",""6"",""14370""
","
","
","""event"",""trial"",""time""
""fullscreenenter"",""5"",""12261""
","""event"",""trial"",""time""
""fullscreenexit"",""6"",""14370""
","","","","","","","","","","","","","","","","","","","","","",""
"d3-instructions","18","41102","0.0-18.0","0","0","0","female","true","true","true","true","""event"",""trial"",""time""
""fullscreenenter"",""5"",""12261""
""fullscreenexit"",""6"",""14370""
","
","
","""event"",""trial"",""time""
""fullscreenenter"",""5"",""12261""
","""event"",""trial"",""time""
""fullscreenexit"",""6"",""14370""
","","","","","","","","","","","","","","","","","","","","","",""
"d3-instructions","19","41785","0.0-19.0","0","0","0","female","true","true","true","true","""event"",""trial"",""time""
""fullscreenenter"",""5"",""12261""
""fullscreenexit"",""6"",""14370""
","
","
","""event"",""trial"",""time""
""fullscreenenter"",""5"",""12261""
","""event"",""trial"",""time""
""fullscreenexit"",""6"",""14370""
","","","","","","","","","","","","","","","","","","","","","",""
"d3-animate-choice","20","45060","0.0-20.0","0","0","0","female","true","true","true","true","""event"",""trial"",""time""
""fullscreenenter"",""5"",""12261""
""fullscreenexit"",""6"",""14370""
","
","
","""event"",""trial"",""time""
""fullscreenenter"",""5"",""12261""
","""event"",""trial"",""time""
""fullscreenexit"",""6"",""14370""
","1273.5","","49","","","3000","1","","","images/tutyellowplanet.jpg","null","images/tutalien3","null","images/tutalien3","images/t.png","NA","practice","null","","","",""
"d3-animate-choice","21","47286","0.0-21.0","0","0","0","female","true","true","true","true","""event"",""trial"",""time""
""fullscreenenter"",""5"",""12261""
""fullscreenexit"",""6"",""14370""
","
","
","""event"",""trial"",""time""
""fullscreenenter"",""5"",""12261""
","""event"",""trial"",""time""
""fullscreenexit"",""6"",""14370""
","220.09999999962747","","49","","","3000","1","1651.9000000003725","49","images/tutyellowplanet.jpg","null","images/tutalien3","null","images/tutalien3","images/t.png","NA","practice","null","","","",""
"d3-animate-choice","22","49440","0.0-22.0","0","0","0","female","true","true","true","true","""event"",""trial"",""time""
""fullscreenenter"",""5"",""12261""
""fullscreenexit"",""6"",""14370""
","
","
","""event"",""trial"",""time""
""fullscreenenter"",""5"",""12261""
","""event"",""trial"",""time""
""fullscreenexit"",""6"",""14370""
","151.80000000074506","","49","","","3000","1","1683.800000000745","49","images/tutyellowplanet.jpg","null","images/tutalien3","null","images/tutalien3","images/t.png","NA","practice","null","","","",""
"d3-animate-choice","23","51687","0.0-23.0","0","0","0","female","true","true","true","true","""event"",""trial"",""time""
""fullscreenenter"",""5"",""12261""
""fullscreenexit"",""6"",""14370""
","
","
","""event"",""trial"",""time""
""fullscreenenter"",""5"",""12261""
","""event"",""trial"",""time""
""fullscreenexit"",""6"",""14370""
","243.90000000037253","","49","","","3000","1","","","images/tutyellowplanet.jpg","null","images/tutalien3","null","images/tutalien3","images/nothing.png","NA","practice","null","","","",""
"d3-animate-choice","24","53917","0.0-24.0","0","0","0","female","true","true","true","true","""event"",""trial"",""time""
""fullscreenenter"",""5"",""12261""
""fullscreenexit"",""6"",""14370""
","
","
","""event"",""trial"",""time""
""fullscreenenter"",""5"",""12261""
","""event"",""trial"",""time""
""fullscreenexit"",""6"",""14370""
","228","","49","","","3000","1","","","images/tutyellowplanet.jpg","null","images/tutalien3","null","images/tutalien3","images/t.png","NA","practice","null","","","",""
"d3-animate-choice","25","56190","0.0-25.0","0","0","0","female","true","true","true","true","""event"",""trial"",""time""
""fullscreenenter"",""5"",""12261""
""fullscreenexit"",""6"",""14370""
","
","
","""event"",""trial"",""time""
""fullscreenenter"",""5"",""12261""
","""event"",""trial"",""time""
""fullscreenexit"",""6"",""14370""
","271","","49","","","3000","1","","","images/tutyellowplanet.jpg","null","images/tutalien3","null","images/tutalien3","images/t.png","NA","practice","null","","","",""
"d3-animate-choice","26","58431","0.0-26.0","0","0","0","female","true","true","true","true","""event"",""trial"",""time""
""fullscreenenter"",""5"",""12261""
""fullscreenexit"",""6"",""14370""
","
","
","""event"",""trial"",""time""
""fullscreenenter"",""5"",""12261""
","""event"",""trial"",""time""
""fullscreenexit"",""6"",""14370""
","238.30000000074506","","49","","","3000","1","","","images/tutyellowplanet.jpg","null","images/tutalien3","null","images/tutalien3","images/t.png","NA","practice","null","","","",""
"d3-animate-choice","27","60707","0.0-27.0","0","0","0","female","true","true","true","true","""event"",""trial"",""time""
""fullscreenenter"",""5"",""12261""
""fullscreenexit"",""6"",""14370""
","
","
","""event"",""trial"",""time""
""fullscreenenter"",""5"",""12261""
","""event"",""trial"",""time""
""fullscreenexit"",""6"",""14370""
","270.09999999962747","","49","","","3000","1","","","images/tutyellowplanet.jpg","null","images/tutalien3","null","images/tutalien3","images/t.png","NA","practice","null","","","",""
"d3-animate-choice","28","62971","0.0-28.0","0","0","0","female","true","true","true","true","""event"",""trial"",""time""
""fullscreenenter"",""5"",""12261""
""fullscreenexit"",""6"",""14370""
","
","
","""event"",""trial"",""time""
""fullscreenenter"",""5"",""12261""
","""event"",""trial"",""time""
""fullscreenexit"",""6"",""14370""
","261.69999999925494","","49","","","3000","1","","","images/tutyellowplanet.jpg","null","images/tutalien3","null","images/tutalien3","images/t.png","NA","practice","null","","","",""
"d3-animate-choice","29","65231","0.0-29.0","0","0","0","female","true","true","true","true","""event"",""trial"",""time""
""fullscreenenter"",""5"",""12261""
""fullscreenexit"",""6"",""14370""
","
","
","""event"",""trial"",""time""
""fullscreenenter"",""5"",""12261""
","""event"",""trial"",""time""
""fullscreenexit"",""6"",""14370""
","256.30000000074506","","49","","","3000","1","","","images/tutyellowplanet.jpg","null","images/tutalien3","null","images/tutalien3","images/t.png","NA","practice","null","","","",""
"d3-instructions","30","69031","0.0-30.0","0","0","0","female","true","true","true","true","""event"",""trial"",""time""
""fullscreenenter"",""5"",""12261""
""fullscreenexit"",""6"",""14370""
","
","
","""event"",""trial"",""time""
""fullscreenenter"",""5"",""12261""
","""event"",""trial"",""time""
""fullscreenexit"",""6"",""14370""
","","","","","","","","","","","","","","","","","","","","","",""
"d3-instructions","31","70683","0.0-31.0","0","0","0","female","true","true","true","true","""event"",""trial"",""time""
""fullscreenenter"",""5"",""12261""
""fullscreenexit"",""6"",""14370""
","
","
","""event"",""trial"",""time""
""fullscreenenter"",""5"",""12261""
","""event"",""trial"",""time""
""fullscreenexit"",""6"",""14370""
","","","","","","","","","","","","","","","","","","","","","",""
"d3-instructions","32","72521","0.0-32.0","0","0","0","female","true","true","true","true","""event"",""trial"",""time""
""fullscreenenter"",""5"",""12261""
""fullscreenexit"",""6"",""14370""
","
","
","""event"",""trial"",""time""
""fullscreenenter"",""5"",""12261""
","""event"",""trial"",""time""
""fullscreenexit"",""6"",""14370""
","","","","","","","","","","","","","","","","","","","","","",""
"d3-instructions","33","73574","0.0-33.0","0","0","0","female","true","true","true","true","""event"",""trial"",""time""
""fullscreenenter"",""5"",""12261""
""fullscreenexit"",""6"",""14370""
","
","
","""event"",""trial"",""time""
""fullscreenenter"",""5"",""12261""
","""event"",""trial"",""time""
""fullscreenexit"",""6"",""14370""
","","","","","","","","","","","","","","","","","","","","","",""
"d3-animate-choice","34","81994","0.0-34.0","0","0","0","female","true","true","true","true","""event"",""trial"",""time""
""fullscreenenter"",""5"",""12261""
""fullscreenexit"",""6"",""14370""
","
","
","""event"",""trial"",""time""
""fullscreenenter"",""5"",""12261""
","""event"",""trial"",""time""
""fullscreenexit"",""6"",""14370""
","5718","","32","","","3000","1","6413.4000000003725","49","images/tutgreenplanet.jpg","images/tutalien1","images/tutalien2","null","images/tutalien2","images/t.png","NA","practice","null","","","",""
"d3-animate-choice","35","84601","0.0-35.0","0","0","0","female","true","true","true","true","""event"",""trial"",""time""
""fullscreenenter"",""5"",""12261""
""fullscreenexit"",""6"",""14370""
","
","
","""event"",""trial"",""time""
""fullscreenenter"",""5"",""12261""
","""event"",""trial"",""time""
""fullscreenexit"",""6"",""14370""
","601.9000000003725","","49","","","3000","1","","","images/tutgreenplanet.jpg","images/tutalien1","images/tutalien2","null","images/tutalien2","images/nothing.png","NA","practice","null","","","",""
"d3-animate-choice","36","87096","0.0-36.0","0","0","0","female","true","true","true","true","""event"",""trial"",""time""
""fullscreenenter"",""5"",""12261""
""fullscreenexit"",""6"",""14370""
","
","
","""event"",""trial"",""time""
""fullscreenenter"",""5"",""12261""
","""event"",""trial"",""time""
""fullscreenexit"",""6"",""14370""
","493","","49","","","3000","1","","","images/tutgreenplanet.jpg","images/tutalien1","images/tutalien2","null","images/tutalien2","images/t.png","NA","practice","null","","","",""
"d3-animate-choice","37","89698","0.0-37.0","0","0","0","female","true","true","true","true","""event"",""trial"",""time""
""fullscreenenter"",""5"",""12261""
""fullscreenexit"",""6"",""14370""
","
","
","""event"",""trial"",""time""
""fullscreenenter"",""5"",""12261""
","""event"",""trial"",""time""
""fullscreenexit"",""6"",""14370""
","600.3000000007451","","49","","","3000","1","","","images/tutgreenplanet.jpg","images/tutalien1","images/tutalien2","null","images/tutalien2","images/t.png","NA","practice","null","","","",""
"d3-animate-choice","38","92334","0.0-38.0","0","0","0","female","true","true","true","true","""event"",""trial"",""time""
""fullscreenenter"",""5"",""12261""
""fullscreenexit"",""6"",""14370""
","
","
","""event"",""trial"",""time""
""fullscreenenter"",""5"",""12261""
","""event"",""trial"",""time""
""fullscreenexit"",""6"",""14370""
","629.5","","49","","","3000","1","","","images/tutgreenplanet.jpg","images/tutalien1","images/tutalien2","null","images/tutalien2","images/t.png","NA","practice","null","","","",""
"d3-animate-choice","39","94633","0.0-39.0","0","0","0","female","true","true","true","true","""event"",""trial"",""time""
""fullscreenenter"",""5"",""12261""
""fullscreenexit"",""6"",""14370""
","
","
","""event"",""trial"",""time""
""fullscreenenter"",""5"",""12261""
","""event"",""trial"",""time""
""fullscreenexit"",""6"",""14370""
","296.8999999985099","","49","","","3000","1","","","images/tutgreenplanet.jpg","images/tutalien1","images/tutalien2","null","images/tutalien2","images/t.png","NA","practice","null","","","",""
"d3-animate-choice","40","96885","0.0-40.0","0","0","0","female","true","true","true","true","""event"",""trial"",""time""
""fullscreenenter"",""5"",""12261""
""fullscreenexit"",""6"",""14370""
","
","
","""event"",""trial"",""time""
""fullscreenenter"",""5"",""12261""
","""event"",""trial"",""time""
""fullscreenexit"",""6"",""14370""
","247.30000000074506","","48","","","3000","1","1985.6000000014901","48","images/tutgreenplanet.jpg","images/tutalien1","images/tutalien2","null","images/tutalien1","images/nothing.png","NA","practice","null","","","",""
"d3-animate-choice","41","99105","0.0-41.0","0","0","0","female","true","true","true","true","""event"",""trial"",""time""
""fullscreenenter"",""5"",""12261""
""fullscreenexit"",""6"",""14370""
","
","
","""event"",""trial"",""time""
""fullscreenenter"",""5"",""12261""
","""event"",""trial"",""time""
""fullscreenexit"",""6"",""14370""
","218.09999999962747","","48","","","3000","1","","","images/tutgreenplanet.jpg","images/tutalien1","images/tutalien2","null","images/tutalien1","images/nothing.png","NA","practice","null","","","",""
"d3-animate-choice","42","101127","0.0-42.0","0","0","0","female","true","true","true","true","""event"",""trial"",""time""
""fullscreenenter"",""5"",""12261""
""fullscreenexit"",""6"",""14370""
","
","
","""event"",""trial"",""time""
""fullscreenenter"",""5"",""12261""
","""event"",""trial"",""time""
""fullscreenexit"",""6"",""14370""
","16.59999999962747","","48","","","3000","1","","","images/tutgreenplanet.jpg","images/tutalien1","images/tutalien2","null","images/tutalien1","images/nothing.png","NA","practice","null","","","",""
"d3-animate-choice","43","103227","0.0-43.0","0","0","0","female","true","true","true","true","""event"",""trial"",""time""
""fullscreenenter"",""5"",""12261""
""fullscreenexit"",""6"",""14370""
","
","
","""event"",""trial"",""time""
""fullscreenenter"",""5"",""12261""
","""event"",""trial"",""time""
""fullscreenexit"",""6"",""14370""
","95.30000000074506","","48","","","3000","1","","","images/tutgreenplanet.jpg","images/tutalien1","images/tutalien2","null","images/tutalien1","images/nothing.png","NA","practice","null","","","",""
"d3-instructions","44","106040","0.0-44.0","0","0","0","female","true","true","true","true","""event"",""trial"",""time""
""fullscreenenter"",""5"",""12261""
""fullscreenexit"",""6"",""14370""
","
","
","""event"",""trial"",""time""
""fullscreenenter"",""5"",""12261""
","""event"",""trial"",""time""
""fullscreenexit"",""6"",""14370""
","","","","","","","","","","","","","","","","","","","","","",""
"d3-instructions","45","106939","0.0-45.0","0","0","0","female","true","true","true","true","""event"",""trial"",""time""
""fullscreenenter"",""5"",""12261""
""fullscreenexit"",""6"",""14370""
","
","
","""event"",""trial"",""time""
""fullscreenenter"",""5"",""12261""
","""event"",""trial"",""time""
""fullscreenexit"",""6"",""14370""
","","","","","","","","","","","","","","","","","","","","","",""
"d3-instructions","46","107640","0.0-46.0","0","0","0","female","true","true","true","true","""event"",""trial"",""time""
""fullscreenenter"",""5"",""12261""
""fullscreenexit"",""6"",""14370""
","
","
","""event"",""trial"",""time""
""fullscreenenter"",""5"",""12261""
","""event"",""trial"",""time""
""fullscreenexit"",""6"",""14370""
","","","","","","","","","","","","","","","","","","","","","",""
"d3-instructions","47","108405","0.0-47.0","0","0","0","female","true","true","true","true","""event"",""trial"",""time""
""fullscreenenter"",""5"",""12261""
""fullscreenexit"",""6"",""14370""
","
","
","""event"",""trial"",""time""
""fullscreenenter"",""5"",""12261""
","""event"",""trial"",""time""
""fullscreenexit"",""6"",""14370""
","","","","","","","","","","","","","","","","","","","","","",""
"d3-instructions","48","109114","0.0-48.0","0","0","0","female","true","true","true","true","""event"",""trial"",""time""
""fullscreenenter"",""5"",""12261""
""fullscreenexit"",""6"",""14370""
","
","
","""event"",""trial"",""time""
""fullscreenenter"",""5"",""12261""
","""event"",""trial"",""time""
""fullscreenexit"",""6"",""14370""
","","","","","","","","","","","","","","","","","","","","","",""
"d3-instructions","49","109819","0.0-49.0","0","0","0","female","true","true","true","true","""event"",""trial"",""time""
""fullscreenenter"",""5"",""12261""
""fullscreenexit"",""6"",""14370""
","
","
","""event"",""trial"",""time""
""fullscreenenter"",""5"",""12261""
","""event"",""trial"",""time""
""fullscreenexit"",""6"",""14370""
","","","","","","","","","","","","","","","","","","","","","",""
"d3-instructions","50","110487","0.0-50.0","0","0","0","female","true","true","true","true","""event"",""trial"",""time""
""fullscreenenter"",""5"",""12261""
""fullscreenexit"",""6"",""14370""
","
","
","""event"",""trial"",""time""
""fullscreenenter"",""5"",""12261""
","""event"",""trial"",""time""
""fullscreenexit"",""6"",""14370""
","","","","","","","","","","","","","","","","","","","","","",""
"d3-instructions","51","111325","0.0-51.0","0","0","0","female","true","true","true","true","""event"",""trial"",""time""
""fullscreenenter"",""5"",""12261""
""fullscreenexit"",""6"",""14370""
","
","
","""event"",""trial"",""time""
""fullscreenenter"",""5"",""12261""
","""event"",""trial"",""time""
""fullscreenexit"",""6"",""14370""
","","","","","","","","","","","","","","","","","","","","","",""
"d3-instructions","52","112049","0.0-52.0","0","0","0","female","true","true","true","true","""event"",""trial"",""time""
""fullscreenenter"",""5"",""12261""
""fullscreenexit"",""6"",""14370""
","
","
","""event"",""trial"",""time""
""fullscreenenter"",""5"",""12261""
","""event"",""trial"",""time""
""fullscreenexit"",""6"",""14370""
","","","","","","","","","","","","","","","","","","","","","",""
"d3-instructions","53","112912","0.0-53.0","0","0","0","female","true","true","true","true","""event"",""trial"",""time""
""fullscreenenter"",""5"",""12261""
""fullscreenexit"",""6"",""14370""
","
","
","""event"",""trial"",""time""
""fullscreenenter"",""5"",""12261""
","""event"",""trial"",""time""
""fullscreenexit"",""6"",""14370""
","","","","","","","","","","","","","","","","","","","","","",""
"d3-instructions","54","113933","0.0-54.0","0","0","0","female","true","true","true","true","""event"",""trial"",""time""
""fullscreenenter"",""5"",""12261""
""fullscreenexit"",""6"",""14370""
","
","
","""event"",""trial"",""time""
""fullscreenenter"",""5"",""12261""
","""event"",""trial"",""time""
""fullscreenexit"",""6"",""14370""
","","","","","","","","","","","","","","","","","","","","","",""
"d3-instructions","55","114826","0.0-55.0","0","0","0","female","true","true","true","true","""event"",""trial"",""time""
""fullscreenenter"",""5"",""12261""
""fullscreenexit"",""6"",""14370""
","
","
","""event"",""trial"",""time""
""fullscreenenter"",""5"",""12261""
","""event"",""trial"",""time""
""fullscreenexit"",""6"",""14370""
","","","","","","","","","","","","","","","","","","","","","",""
"d3-instructions","56","115752","0.0-56.0","0","0","0","female","true","true","true","true","""event"",""trial"",""time""
""fullscreenenter"",""5"",""12261""
""fullscreenexit"",""6"",""14370""
","
","
","""event"",""trial"",""time""
""fullscreenenter"",""5"",""12261""
","""event"",""trial"",""time""
""fullscreenexit"",""6"",""14370""
","","","","","","","","","","","","","","","","","","","","","",""
"d3-instructions","57","116877","0.0-57.0","0","0","0","female","true","true","true","true","""event"",""trial"",""time""
""fullscreenenter"",""5"",""12261""
""fullscreenexit"",""6"",""14370""
","
","
","""event"",""trial"",""time""
""fullscreenenter"",""5"",""12261""
","""event"",""trial"",""time""
""fullscreenexit"",""6"",""14370""
","","","","","","","","","","","","","","","","","","","","","",""
"d3-instructions","58","117904","0.0-58.0","0","0","0","female","true","true","true","true","""event"",""trial"",""time""
""fullscreenenter"",""5"",""12261""
""fullscreenexit"",""6"",""14370""
","
","
","""event"",""trial"",""time""
""fullscreenenter"",""5"",""12261""
","""event"",""trial"",""time""
""fullscreenexit"",""6"",""14370""
","","","","","","","","","","","","","","","","","","","","","",""
"d3-instructions","59","118917","0.0-59.0","0","0","0","female","true","true","true","true","""event"",""trial"",""time""
""fullscreenenter"",""5"",""12261""
""fullscreenexit"",""6"",""14370""
","
","
","""event"",""trial"",""time""
""fullscreenenter"",""5"",""12261""
","""event"",""trial"",""time""
""fullscreenexit"",""6"",""14370""
","","","","","","","","","","","","","","","","","","","","","",""
"d3-instructions","60","120423","0.0-60.0","0","0","0","female","true","true","true","true","""event"",""trial"",""time""
""fullscreenenter"",""5"",""12261""
""fullscreenexit"",""6"",""14370""
","
","
","""event"",""trial"",""time""
""fullscreenenter"",""5"",""12261""
","""event"",""trial"",""time""
""fullscreenexit"",""6"",""14370""
","","","","","","","","","","","","","","","","","","","","","",""
"d3-animate-choice","61","123144","0.0-61.0-0.0","0","0","0","female","true","true","true","true","""event"",""trial"",""time""
""fullscreenenter"",""5"",""12261""
""fullscreenexit"",""6"",""14370""
","
","
","""event"",""trial"",""time""
""fullscreenenter"",""5"",""12261""
","""event"",""trial"",""time""
""fullscreenexit"",""6"",""14370""
","716","","49","","","3000","1","","","images/earth.jpg","images/tutrocket1","images/tutrocket2","null","images/tutrocket2","","1","practice","null","1","","",""
"d3-animate-choice","62","125592","0.0-61.0-1.0","0","0","0","female","true","true","true","true","""event"",""trial"",""time""
""fullscreenenter"",""5"",""12261""
""fullscreenexit"",""6"",""14370""
","
","
","""event"",""trial"",""time""
""fullscreenenter"",""5"",""12261""
","""event"",""trial"",""time""
""fullscreenexit"",""6"",""14370""
","444.6000000014901","","48","","","3000","1","","","images/tutyellowplanet.jpg","images/tutalien4","images/tutalien3","images/tutrocket2","images/tutalien4","images/nothing.png","2","practice","true","2","common","0","2023-01-12 06:30:31.822"
"two-step-fixation","63","126595","0.0-61.0-2.0","0","0","0","female","true","true","true","true","""event"",""trial"",""time""
""fullscreenenter"",""5"",""12261""
""fullscreenexit"",""6"",""14370""
","
","
","""event"",""trial"",""time""
""fullscreenenter"",""5"",""12261""
","""event"",""trial"",""time""
""fullscreenexit"",""6"",""14370""
","","images/earth.jpg","","","","","","","","","","","","","","fixation","","","","","",""
"d3-animate-choice","64","128840","0.0-61.0-0.1","0","0","0","female","true","true","true","true","""event"",""trial"",""time""
""fullscreenenter"",""5"",""12261""
""fullscreenexit"",""6"",""14370""
","
","
","""event"",""trial"",""time""
""fullscreenenter"",""5"",""12261""
","""event"",""trial"",""time""
""fullscreenexit"",""6"",""14370""
","241.09999999962747","","49","","","3000","1","","","images/earth.jpg","images/tutrocket1","images/tutrocket2","null","images/tutrocket2","","1","practice","null","1","","",""
"d3-animate-choice","65","131289","0.0-61.0-1.1","0","0","0","female","true","true","true","true","""event"",""trial"",""time""
""fullscreenenter"",""5"",""12261""
""fullscreenexit"",""6"",""14370""
","
","
","""event"",""trial"",""time""
""fullscreenenter"",""5"",""12261""
","""event"",""trial"",""time""
""fullscreenexit"",""6"",""14370""
","441.90000000037253","","48","","","3000","1","","","images/tutgreenplanet.jpg","images/tutalien2","images/tutalien1","images/tutrocket2","images/tutalien2","images/nothing.png","2","practice","false","2","rare","0","2023-01-12 06:30:37.519"
"two-step-fixation","66","132294","0.0-61.0-2.1","0","0","0","female","true","true","true","true","""event"",""trial"",""time""
""fullscreenenter"",""5"",""12261""
""fullscreenexit"",""6"",""14370""
","
","
","""event"",""trial"",""time""
""fullscreenenter"",""5"",""12261""
","""event"",""trial"",""time""
""fullscreenexit"",""6"",""14370""
","","images/earth.jpg","","","","","","","","","","","","","","fixation","","","","","",""
"d3-animate-choice","67","134430","0.0-61.0-0.2","0","0","0","female","true","true","true","true","""event"",""trial"",""time""
""fullscreenenter"",""5"",""12261""
""fullscreenexit"",""6"",""14370""
","
","
","""event"",""trial"",""time""
""fullscreenenter"",""5"",""12261""
","""event"",""trial"",""time""
""fullscreenexit"",""6"",""14370""
","131.40000000037253","","49","","","3000","1","","","images/earth.jpg","images/tutrocket1","images/tutrocket2","null","images/tutrocket2","","1","practice","null","1","","",""
"d3-animate-choice","68","136973","0.0-61.0-1.2","0","0","0","female","true","true","true","true","""event"",""trial"",""time""
""fullscreenenter"",""5"",""12261""
""fullscreenexit"",""6"",""14370""
","
","
","""event"",""trial"",""time""
""fullscreenenter"",""5"",""12261""
","""event"",""trial"",""time""
""fullscreenexit"",""6"",""14370""
","537.2000000011176","","49","","","3000","1","2047.6000000014901","49","images/tutyellowplanet.jpg","images/tutalien4","images/tutalien3","images/tutrocket2","images/tutalien3","images/nothing.png","2","practice","true","1","common","0","2023-01-12 06:30:43.203"
"two-step-fixation","69","137979","0.0-61.0-2.2","0","0","0","female","true","true","true","true","""event"",""trial"",""time""
""fullscreenenter"",""5"",""12261""
""fullscreenexit"",""6"",""14370""
","
","
","""event"",""trial"",""time""
""fullscreenenter"",""5"",""12261""
","""event"",""trial"",""time""
""fullscreenexit"",""6"",""14370""
","","images/earth.jpg","","","","","","","","","","","","","","fixation","","","","","",""
"d3-animate-choice","70","140665","0.0-61.0-0.3","0","0","0","female","true","true","true","true","""event"",""trial"",""time""
""fullscreenenter"",""5"",""12261""
""fullscreenexit"",""6"",""14370""
","
","
","""event"",""trial"",""time""
""fullscreenenter"",""5"",""12261""
","""event"",""trial"",""time""
""fullscreenexit"",""6"",""14370""
","681.6999999992549","","49","","","3000","1","","","images/earth.jpg","images/tutrocket1","images/tutrocket2","null","images/tutrocket2","","1","practice","null","1","","",""
"d3-animate-choice","71","144677","0.0-61.0-1.3","0","0","0","female","true","true","true","true","""event"",""trial"",""time""
""fullscreenenter"",""5"",""12261""
""fullscreenexit"",""6"",""14370""
","
","
","""event"",""trial"",""time""
""fullscreenenter"",""5"",""12261""
","""event"",""trial"",""time""
""fullscreenexit"",""6"",""14370""
","2508.9000000003725","","49","","","3000","1","","","images/tutyellowplanet.jpg","images/tutalien4","images/tutalien3","images/tutrocket2","images/tutalien3","images/nothing.png","2","practice","true","1","common","0","2023-01-12 06:30:50.907"
"two-step-fixation","72","145681","0.0-61.0-2.3","0","0","0","female","true","true","true","true","""event"",""trial"",""time""
""fullscreenenter"",""5"",""12261""
""fullscreenexit"",""6"",""14370""
","
","
","""event"",""trial"",""time""
""fullscreenenter"",""5"",""12261""
","""event"",""trial"",""time""
""fullscreenexit"",""6"",""14370""
","","images/earth.jpg","","","","","","","","","","","","","","fixation","","","","","",""
"d3-animate-choice","73","149565","0.0-61.0-0.4","0","0","0","female","true","true","true","true","""event"",""trial"",""time""
""fullscreenenter"",""5"",""12261""
""fullscreenexit"",""6"",""14370""
","
","
","""event"",""trial"",""time""
""fullscreenenter"",""5"",""12261""
","""event"",""trial"",""time""
""fullscreenexit"",""6"",""14370""
","1881","","49","","","3000","1","","","images/earth.jpg","images/tutrocket1","images/tutrocket2","null","images/tutrocket2","","1","practice","null","1","","",""
"d3-animate-choice","74","152351","0.0-61.0-1.4","0","0","0","female","true","true","true","true","""event"",""trial"",""time""
""fullscreenenter"",""5"",""12261""
""fullscreenexit"",""6"",""14370""
","
","
","""event"",""trial"",""time""
""fullscreenenter"",""5"",""12261""
","""event"",""trial"",""time""
""fullscreenexit"",""6"",""14370""
","783.3000000007451","","49","","","3000","1","2489.699999999255","49","images/tutgreenplanet.jpg","images/tutalien2","images/tutalien1","images/tutrocket2","images/tutalien1","images/nothing.png","2","practice","false","1","rare","0","2023-01-12 06:30:58.581"
"two-step-fixation","75","153356","0.0-61.0-2.4","0","0","0","female","true","true","true","true","""event"",""trial"",""time""
""fullscreenenter"",""5"",""12261""
""fullscreenexit"",""6"",""14370""
","
","
","""event"",""trial"",""time""
""fullscreenenter"",""5"",""12261""
","""event"",""trial"",""time""
""fullscreenexit"",""6"",""14370""
","","images/earth.jpg","","","","","","","","","","","","","","fixation","","","","","",""
"d3-animate-choice","76","155718","0.0-61.0-0.5","0","0","0","female","true","true","true","true","""event"",""trial"",""time""
""fullscreenenter"",""5"",""12261""
""fullscreenexit"",""6"",""14370""
","
","
","""event"",""trial"",""time""
""fullscreenenter"",""5"",""12261""
","""event"",""trial"",""time""
""fullscreenexit"",""6"",""14370""
","356.19999999925494","","49","","","3000","1","","","images/earth.jpg","images/tutrocket1","images/tutrocket2","null","images/tutrocket2","","1","practice","null","1","","",""
"d3-animate-choice","77","158246","0.0-61.0-1.5","0","0","0","female","true","true","true","true","""event"",""trial"",""time""
""fullscreenenter"",""5"",""12261""
""fullscreenexit"",""6"",""14370""
","
","
","""event"",""trial"",""time""
""fullscreenenter"",""5"",""12261""
","""event"",""trial"",""time""
""fullscreenexit"",""6"",""14370""
","525.5","","49","","","3000","1","","","images/tutyellowplanet.jpg","images/tutalien4","images/tutalien3","images/tutrocket2","images/tutalien3","images/nothing.png","2","practice","true","1","common","0","2023-01-12 06:31:04.476"
"two-step-fixation","78","159251","0.0-61.0-2.5","0","0","0","female","true","true","true","true","""event"",""trial"",""time""
""fullscreenenter"",""5"",""12261""
""fullscreenexit"",""6"",""14370""
","
","
","""event"",""trial"",""time""
""fullscreenenter"",""5"",""12261""
","""event"",""trial"",""time""
""fullscreenexit"",""6"",""14370""
","","images/earth.jpg","","","","","","","","","","","","","","fixation","","","","","",""
"d3-animate-choice","79","161751","0.0-61.0-0.6","0","0","0","female","true","true","true","true","""event"",""trial"",""time""
""fullscreenenter"",""5"",""12261""
""fullscreenexit"",""6"",""14370""
","
","
","""event"",""trial"",""time""
""fullscreenenter"",""5"",""12261""
","""event"",""trial"",""time""
""fullscreenexit"",""6"",""14370""
","497.69999999925494","","49","","","3000","1","2339.5999999996275","49","images/earth.jpg","images/tutrocket1","images/tutrocket2","null","images/tutrocket2","","1","practice","null","1","","",""
"d3-animate-choice","80","165071","0.0-61.0-1.6","0","0","0","female","true","true","true","true","""event"",""trial"",""time""
""fullscreenenter"",""5"",""12261""
""fullscreenexit"",""6"",""14370""
","
","
","""event"",""trial"",""time""
""fullscreenenter"",""5"",""12261""
","""event"",""trial"",""time""
""fullscreenexit"",""6"",""14370""
","1315.7999999988824","","49","","","3000","1","","","images/tutgreenplanet.jpg","images/tutalien2","images/tutalien1","images/tutrocket2","images/tutalien1","images/t.png","2","practice","false","1","rare","1","2023-01-12 06:31:11.301"
"two-step-fixation","81","166075","0.0-61.0-2.6","0","0","0","female","true","true","true","true","""event"",""trial"",""time""
""fullscreenenter"",""5"",""12261""
""fullscreenexit"",""6"",""14370""
","
","
","""event"",""trial"",""time""
""fullscreenenter"",""5"",""12261""
","""event"",""trial"",""time""
""fullscreenexit"",""6"",""14370""
","","images/earth.jpg","","","","","","","","","","","","","","fixation","","","","","",""
"d3-animate-choice","82","169301","0.0-61.0-0.7","0","0","0","female","true","true","true","true","""event"",""trial"",""time""
""fullscreenenter"",""5"",""12261""
""fullscreenexit"",""6"",""14370""
","
","
","""event"",""trial"",""time""
""fullscreenenter"",""5"",""12261""
","""event"",""trial"",""time""
""fullscreenexit"",""6"",""14370""
","1221.7999999988824","","49","","","3000","1","2496.5","49","images/earth.jpg","images/tutrocket1","images/tutrocket2","null","images/tutrocket2","","1","practice","null","1","","",""
"d3-animate-choice","83","171822","0.0-61.0-1.7","0","0","0","female","true","true","true","true","""event"",""trial"",""time""
""fullscreenenter"",""5"",""12261""
""fullscreenexit"",""6"",""14370""
","
","
","""event"",""trial"",""time""
""fullscreenenter"",""5"",""12261""
","""event"",""trial"",""time""
""fullscreenexit"",""6"",""14370""
","517.5999999996275","","49","","","3000","1","2497.5999999996275","49","images/tutyellowplanet.jpg","images/tutalien4","images/tutalien3","images/tutrocket2","images/tutalien3","images/nothing.png","2","practice","true","1","common","0","2023-01-12 06:31:18.052"
"two-step-fixation","84","172826","0.0-61.0-2.7","0","0","0","female","true","true","true","true","""event"",""trial"",""time""
""fullscreenenter"",""5"",""12261""
""fullscreenexit"",""6"",""14370""
","
","
","""event"",""trial"",""time""
""fullscreenenter"",""5"",""12261""
","""event"",""trial"",""time""
""fullscreenexit"",""6"",""14370""
","","images/earth.jpg","","","","","","","","","","","","","","fixation","","","","","",""
"d3-animate-choice","85","176349","0.0-61.0-0.8","0","0","0","female","true","true","true","true","""event"",""trial"",""time""
""fullscreenenter"",""5"",""12261""
""fullscreenexit"",""6"",""14370""
","
","
","""event"",""trial"",""time""
""fullscreenenter"",""5"",""12261""
","""event"",""trial"",""time""
""fullscreenexit"",""6"",""14370""
","1520.300000000745","","49","","","3000","1","3205.9000000003725","49","images/earth.jpg","images/tutrocket1","images/tutrocket2","null","images/tutrocket2","","1","practice","null","1","","",""
"d3-animate-choice","86","179931","0.0-61.0-1.8","0","0","0","female","true","true","true","true","""event"",""trial"",""time""
""fullscreenenter"",""5"",""12261""
""fullscreenexit"",""6"",""14370""
","
","
","""event"",""trial"",""time""
""fullscreenenter"",""5"",""12261""
","""event"",""trial"",""time""
""fullscreenexit"",""6"",""14370""
","1578.800000000745","","49","","","3000","1","","","images/tutyellowplanet.jpg","images/tutalien4","images/tutalien3","images/tutrocket2","images/tutalien3","images/t.png","2","practice","true","1","common","1","2023-01-12 06:31:26.162"
"two-step-fixation","87","180936","0.0-61.0-2.8","0","0","0","female","true","true","true","true","""event"",""trial"",""time""
""fullscreenenter"",""5"",""12261""
""fullscreenexit"",""6"",""14370""
","
","
","""event"",""trial"",""time""
""fullscreenenter"",""5"",""12261""
","""event"",""trial"",""time""
""fullscreenexit"",""6"",""14370""
","","images/earth.jpg","","","","","","","","","","","","","","fixation","","","","","",""
"d3-animate-choice","88","183885","0.0-61.0-0.9","0","0","0","female","true","true","true","true","""event"",""trial"",""time""
""fullscreenenter"",""5"",""12261""
""fullscreenexit"",""6"",""14370""
","
","
","""event"",""trial"",""time""
""fullscreenenter"",""5"",""12261""
","""event"",""trial"",""time""
""fullscreenexit"",""6"",""14370""
","947","","49","","","3000","1","","","images/earth.jpg","images/tutrocket1","images/tutrocket2","null","images/tutrocket2","","1","practice","null","1","","",""
"d3-animate-choice","89","186558","0.0-61.0-1.9","0","0","0","female","true","true","true","true","""event"",""trial"",""time""
""fullscreenenter"",""5"",""12261""
""fullscreenexit"",""6"",""14370""
","
","
","""event"",""trial"",""time""
""fullscreenenter"",""5"",""12261""
","""event"",""trial"",""time""
""fullscreenexit"",""6"",""14370""
","671.8000000007451","","49","","","3000","1","","","images/tutyellowplanet.jpg","images/tutalien4","images/tutalien3","images/tutrocket2","images/tutalien3","images/nothing.png","2","practice","true","1","common","0","2023-01-12 06:31:32.788"
"two-step-fixation","90","187561","0.0-61.0-2.9","0","0","0","female","true","true","true","true","""event"",""trial"",""time""
""fullscreenenter"",""5"",""12261""
""fullscreenexit"",""6"",""14370""
","
","
","""event"",""trial"",""time""
""fullscreenenter"",""5"",""12261""
","""event"",""trial"",""time""
""fullscreenexit"",""6"",""14370""
","","images/earth.jpg","","","","","","","","","","","","","","fixation","","","","","",""
"d3-animate-choice","91","190195","0.0-61.0-0.10","0","0","0","female","true","true","true","true","""event"",""trial"",""time""
""fullscreenenter"",""5"",""12261""
""fullscreenexit"",""6"",""14370""
","
","
","""event"",""trial"",""time""
""fullscreenenter"",""5"",""12261""
","""event"",""trial"",""time""
""fullscreenexit"",""6"",""14370""
","627.8000000007451","","49","","","3000","1","","","images/earth.jpg","images/tutrocket1","images/tutrocket2","null","images/tutrocket2","","1","practice","null","1","","",""
"d3-animate-choice","92","193114","0.0-61.0-1.10","0","0","0","female","true","true","true","true","""event"",""trial"",""time""
""fullscreenenter"",""5"",""12261""
""fullscreenexit"",""6"",""14370""
","
","
","""event"",""trial"",""time""
""fullscreenenter"",""5"",""12261""
","""event"",""trial"",""time""
""fullscreenexit"",""6"",""14370""
","916.9000000003725","","49","","","3000","1","","","images/tutyellowplanet.jpg","images/tutalien4","images/tutalien3","images/tutrocket2","images/tutalien3","images/nothing.png","2","practice","true","1","common","0","2023-01-12 06:31:39.344"
"two-step-fixation","93","194118","0.0-61.0-2.10","0","0","0","female","true","true","true","true","""event"",""trial"",""time""
""fullscreenenter"",""5"",""12261""
""fullscreenexit"",""6"",""14370""
","
","
","""event"",""trial"",""time""
""fullscreenenter"",""5"",""12261""
","""event"",""trial"",""time""
""fullscreenexit"",""6"",""14370""
","","images/earth.jpg","","","","","","","","","","","","","","fixation","","","","","",""
"d3-animate-choice","94","198130","0.0-61.0-0.11","0","0","0","female","true","true","true","true","""event"",""trial"",""time""
""fullscreenenter"",""5"",""12261""
""fullscreenexit"",""6"",""14370""
","
","
","""event"",""trial"",""time""
""fullscreenenter"",""5"",""12261""
","""event"",""trial"",""time""
""fullscreenexit"",""6"",""14370""
","2043.4000000003725","","49","","","3000","1","3686.9000000003725","49","images/earth.jpg","images/tutrocket1","images/tutrocket2","null","images/tutrocket2","","1","practice","null","1","","",""
"d3-animate-choice","95","201319","0.0-61.0-1.11","0","0","0","female","true","true","true","true","""event"",""trial"",""time""
""fullscreenenter"",""5"",""12261""
""fullscreenexit"",""6"",""14370""
","
","
","""event"",""trial"",""time""
""fullscreenenter"",""5"",""12261""
","""event"",""trial"",""time""
""fullscreenexit"",""6"",""14370""
","1184.199999999255","","49","","","3000","1","2924.4000000003725","49","images/tutyellowplanet.jpg","images/tutalien4","images/tutalien3","images/tutrocket2","images/tutalien3","images/t.png","2","practice","true","1","common","1","2023-01-12 06:31:47.549"
"two-step-fixation","96","202321","0.0-61.0-2.11","0","0","0","female","true","true","true","true","""event"",""trial"",""time""
""fullscreenenter"",""5"",""12261""
""fullscreenexit"",""6"",""14370""
","
","
","""event"",""trial"",""time""
""fullscreenenter"",""5"",""12261""
","""event"",""trial"",""time""
""fullscreenexit"",""6"",""14370""
","","images/earth.jpg","","","","","","","","","","","","","","fixation","","","","","",""
"d3-animate-choice","97","205462","0.0-61.0-0.12","0","0","0","female","true","true","true","true","""event"",""trial"",""time""
""fullscreenenter"",""5"",""12261""
""fullscreenexit"",""6"",""14370""
","
","
","""event"",""trial"",""time""
""fullscreenenter"",""5"",""12261""
","""event"",""trial"",""time""
""fullscreenexit"",""6"",""14370""
","1137.800000000745","","49","","","3000","1","","","images/earth.jpg","images/tutrocket1","images/tutrocket2","null","images/tutrocket2","","1","practice","null","1","","",""
"d3-animate-choice","98","207993","0.0-61.0-1.12","0","0","0","female","true","true","true","true","""event"",""trial"",""time""
""fullscreenenter"",""5"",""12261""
""fullscreenexit"",""6"",""14370""
","
","
","""event"",""trial"",""time""
""fullscreenenter"",""5"",""12261""
","""event"",""trial"",""time""
""fullscreenexit"",""6"",""14370""
","527.5","","49","","","3000","1","2089.699999999255","49","images/tutyellowplanet.jpg","images/tutalien4","images/tutalien3","images/tutrocket2","images/tutalien3","images/nothing.png","2","practice","true","1","common","0","2023-01-12 06:31:54.223"
"two-step-fixation","99","208996","0.0-61.0-2.12","0","0","0","female","true","true","true","true","""event"",""trial"",""time""
""fullscreenenter"",""5"",""12261""
""fullscreenexit"",""6"",""14370""
","
","
","""event"",""trial"",""time""
""fullscreenenter"",""5"",""12261""
","""event"",""trial"",""time""
""fullscreenexit"",""6"",""14370""
","","images/earth.jpg","","","","","","","","","","","","","","fixation","","","","","",""
"d3-animate-choice","100","211384","0.0-61.0-0.13","0","0","0","female","true","true","true","true","""event"",""trial"",""time""
""fullscreenenter"",""5"",""12261""
""fullscreenexit"",""6"",""14370""
","
","
","""event"",""trial"",""time""
""fullscreenenter"",""5"",""12261""
","""event"",""trial"",""time""
""fullscreenexit"",""6"",""14370""
","384.90000000037253","","49","","","3000","1","1824.4000000003725","49","images/earth.jpg","images/tutrocket1","images/tutrocket2","null","images/tutrocket2","","1","practice","null","1","","",""
"d3-animate-choice","101","215387","0.0-61.0-1.13","0","0","0","female","true","true","true","true","""event"",""trial"",""time""
""fullscreenenter"",""5"",""12261""
""fullscreenexit"",""6"",""14370""
","
","
","""event"",""trial"",""time""
""fullscreenenter"",""5"",""12261""
","""event"",""trial"",""time""
""fullscreenexit"",""6"",""14370""
","2340.4000000003725","","49","","","3000","1","","","images/tutgreenplanet.jpg","images/tutalien2","images/tutalien1","images/tutrocket2","images/tutalien1","images/nothing.png","2","practice","false","1","rare","0","2023-01-12 06:32:01.618"
"two-step-fixation","102","216390","0.0-61.0-2.13","0","0","0","female","true","true","true","true","""event"",""trial"",""time""
""fullscreenenter"",""5"",""12261""
""fullscreenexit"",""6"",""14370""
","
","
","""event"",""trial"",""time""
""fullscreenenter"",""5"",""12261""
","""event"",""trial"",""time""
""fullscreenexit"",""6"",""14370""
","","images/earth.jpg","","","","","","","","","","","","","","fixation","","","","","",""
"d3-animate-choice","103","218689","0.0-61.0-0.14","0","0","0","female","true","true","true","true","""event"",""trial"",""time""
""fullscreenenter"",""5"",""12261""
""fullscreenexit"",""6"",""14370""
","
","
","""event"",""trial"",""time""
""fullscreenenter"",""5"",""12261""
","""event"",""trial"",""time""
""fullscreenexit"",""6"",""14370""
","296.19999999925494","","49","","","3000","1","","","images/earth.jpg","images/tutrocket1","images/tutrocket2","null","images/tutrocket2","","1","practice","null","1","","",""
"d3-animate-choice","104","220770","0.0-61.0-1.14","0","0","0","female","true","true","true","true","""event"",""trial"",""time""
""fullscreenenter"",""5"",""12261""
""fullscreenexit"",""6"",""14370""
","
","
","""event"",""trial"",""time""
""fullscreenenter"",""5"",""12261""
","""event"",""trial"",""time""
""fullscreenexit"",""6"",""14370""
","75.09999999962747","","49","","","3000","1","825.1999999992549","49","images/tutyellowplanet.jpg","images/tutalien4","images/tutalien3","images/tutrocket2","images/tutalien3","images/nothing.png","2","practice","true","1","common","0","2023-01-12 06:32:07.000"
"two-step-fixation","105","221774","0.0-61.0-2.14","0","0","0","female","true","true","true","true","""event"",""trial"",""time""
""fullscreenenter"",""5"",""12261""
""fullscreenexit"",""6"",""14370""
","
","
","""event"",""trial"",""time""
""fullscreenenter"",""5"",""12261""
","""event"",""trial"",""time""
""fullscreenexit"",""6"",""14370""
","","images/earth.jpg","","","","","","","","","","","","","","fixation","","","","","",""
"d3-animate-choice","106","224609","0.0-61.0-0.15","0","0","0","female","true","true","true","true","""event"",""trial"",""time""
""fullscreenenter"",""5"",""12261""
""fullscreenexit"",""6"",""14370""
","
","
","""event"",""trial"",""time""
""fullscreenenter"",""5"",""12261""
","""event"",""trial"",""time""
""fullscreenexit"",""6"",""14370""
","831.9000000003725","","49","","","3000","1","","","images/earth.jpg","images/tutrocket1","images/tutrocket2","null","images/tutrocket2","","1","practice","null","1","","",""
"d3-animate-choice","107","226667","0.0-61.0-1.15","0","0","0","female","true","true","true","true","""event"",""trial"",""time""
""fullscreenenter"",""5"",""12261""
""fullscreenexit"",""6"",""14370""
","
","
","""event"",""trial"",""time""
""fullscreenenter"",""5"",""12261""
","""event"",""trial"",""time""
""fullscreenexit"",""6"",""14370""
","53.09999999962747","","49","","","3000","1","","","images/tutyellowplanet.jpg","images/tutalien4","images/tutalien3","images/tutrocket2","images/tutalien3","images/nothing.png","2","practice","true","1","common","0","2023-01-12 06:32:12.897"
"two-step-fixation","108","227672","0.0-61.0-2.15","0","0","0","female","true","true","true","true","""event"",""trial"",""time""
""fullscreenenter"",""5"",""12261""
""fullscreenexit"",""6"",""14370""
","
","
","""event"",""trial"",""time""
""fullscreenenter"",""5"",""12261""
","""event"",""trial"",""time""
""fullscreenexit"",""6"",""14370""
","","images/earth.jpg","","","","","","","","","","","","","","fixation","","","","","",""
"d3-animate-choice","109","231017","0.0-61.0-0.16","0","0","0","female","true","true","true","true","""event"",""trial"",""time""
""fullscreenenter"",""5"",""12261""
""fullscreenexit"",""6"",""14370""
","
","
","""event"",""trial"",""time""
""fullscreenenter"",""5"",""12261""
","""event"",""trial"",""time""
""fullscreenexit"",""6"",""14370""
","1332","","49","","","3000","1","","","images/earth.jpg","images/tutrocket1","images/tutrocket2","null","images/tutrocket2","","1","practice","null","1","","",""
"d3-animate-choice","110","233377","0.0-61.0-1.16","0","0","0","female","true","true","true","true","""event"",""trial"",""time""
""fullscreenenter"",""5"",""12261""
""fullscreenexit"",""6"",""14370""
","
","
","""event"",""trial"",""time""
""fullscreenenter"",""5"",""12261""
","""event"",""trial"",""time""
""fullscreenexit"",""6"",""14370""
","352.19999999925494","","49","","","3000","1","","","images/tutyellowplanet.jpg","images/tutalien4","images/tutalien3","images/tutrocket2","images/tutalien3","images/t.png","2","practice","true","1","common","1","2023-01-12 06:32:19.608"
"two-step-fixation","111","234383","0.0-61.0-2.16","0","0","0","female","true","true","true","true","""event"",""trial"",""time""
""fullscreenenter"",""5"",""12261""
""fullscreenexit"",""6"",""14370""
","
","
","""event"",""trial"",""time""
""fullscreenenter"",""5"",""12261""
","""event"",""trial"",""time""
""fullscreenexit"",""6"",""14370""
","","images/earth.jpg","","","","","","","","","","","","","","fixation","","","","","",""
"d3-animate-choice","112","236845","0.0-61.0-0.17","0","0","0","female","true","true","true","true","""event"",""trial"",""time""
""fullscreenenter"",""5"",""12261""
""fullscreenexit"",""6"",""14370""
","
","
","""event"",""trial"",""time""
""fullscreenenter"",""5"",""12261""
","""event"",""trial"",""time""
""fullscreenexit"",""6"",""14370""
","454","","49","","","3000","1","","","images/earth.jpg","images/tutrocket1","images/tutrocket2","null","images/tutrocket2","","1","practice","null","1","","",""
"d3-animate-choice","113","239022","0.0-61.0-1.17","0","0","0","female","true","true","true","true","""event"",""trial"",""time""
""fullscreenenter"",""5"",""12261""
""fullscreenexit"",""6"",""14370""
","
","
","""event"",""trial"",""time""
""fullscreenenter"",""5"",""12261""
","""event"",""trial"",""time""
""fullscreenexit"",""6"",""14370""
","170.5","","49","","","3000","1","","","images/tutyellowplanet.jpg","images/tutalien4","images/tutalien3","images/tutrocket2","images/tutalien3","images/t.png","2","practice","true","1","common","1","2023-01-12 06:32:25.252"
"two-step-fixation","114","240027","0.0-61.0-2.17","0","0","0","female","true","true","true","true","""event"",""trial"",""time""
""fullscreenenter"",""5"",""12261""
""fullscreenexit"",""6"",""14370""
","
","
","""event"",""trial"",""time""
""fullscreenenter"",""5"",""12261""
","""event"",""trial"",""time""
""fullscreenexit"",""6"",""14370""
","","images/earth.jpg","","","","","","","","","","","","","","fixation","","","","","",""
"d3-animate-choice","115","242531","0.0-61.0-0.18","0","0","0","female","true","true","true","true","""event"",""trial"",""time""
""fullscreenenter"",""5"",""12261""
""fullscreenexit"",""6"",""14370""
","
","
","""event"",""trial"",""time""
""fullscreenenter"",""5"",""12261""
","""event"",""trial"",""time""
""fullscreenexit"",""6"",""14370""
","498.30000000074506","","49","","","3000","1","2062.0999999996275","49","images/earth.jpg","images/tutrocket1","images/tutrocket2","null","images/tutrocket2","","1","practice","null","1","","",""
"d3-animate-choice","116","244983","0.0-61.0-1.18","0","0","0","female","true","true","true","true","""event"",""trial"",""time""
""fullscreenenter"",""5"",""12261""
""fullscreenexit"",""6"",""14370""
","
","
","""event"",""trial"",""time""
""fullscreenenter"",""5"",""12261""
","""event"",""trial"",""time""
""fullscreenexit"",""6"",""14370""
","447","","49","","","3000","1","","","images/tutgreenplanet.jpg","images/tutalien2","images/tutalien1","images/tutrocket2","images/tutalien1","images/t.png","2","practice","false","1","rare","1","2023-01-12 06:32:31.213"
"two-step-fixation","117","245987","0.0-61.0-2.18","0","0","0","female","true","true","true","true","""event"",""trial"",""time""
""fullscreenenter"",""5"",""12261""
""fullscreenexit"",""6"",""14370""
","
","
","""event"",""trial"",""time""
""fullscreenenter"",""5"",""12261""
","""event"",""trial"",""time""
""fullscreenexit"",""6"",""14370""
","","images/earth.jpg","","","","","","","","","","","","","","fixation","","","","","",""
"d3-animate-choice","118","248921","0.0-61.0-0.19","0","0","0","female","true","true","true","true","""event"",""trial"",""time""
""fullscreenenter"",""5"",""12261""
""fullscreenexit"",""6"",""14370""
","
","
","""event"",""trial"",""time""
""fullscreenenter"",""5"",""12261""
","""event"",""trial"",""time""
""fullscreenexit"",""6"",""14370""
","928","","49","","","3000","1","2387","49","images/earth.jpg","images/tutrocket1","images/tutrocket2","null","images/tutrocket2","","1","practice","null","1","","",""
"d3-animate-choice","119","251918","0.0-61.0-1.19","0","0","0","female","true","true","true","true","""event"",""trial"",""time""
""fullscreenenter"",""5"",""12261""
""fullscreenexit"",""6"",""14370""
","
","
","""event"",""trial"",""time""
""fullscreenenter"",""5"",""12261""
","""event"",""trial"",""time""
""fullscreenexit"",""6"",""14370""
","991.5999999996275","","49","","","3000","1","","","images/tutgreenplanet.jpg","images/tutalien2","images/tutalien1","images/tutrocket2","images/tutalien1","images/t.png","2","practice","false","1","rare","1","2023-01-12 06:32:38.148"
"two-step-fixation","120","252923","0.0-61.0-2.19","0","0","0","female","true","true","true","true","""event"",""trial"",""time""
""fullscreenenter"",""5"",""12261""
""fullscreenexit"",""6"",""14370""
","
","
","""event"",""trial"",""time""
""fullscreenenter"",""5"",""12261""
","""event"",""trial"",""time""
""fullscreenexit"",""6"",""14370""
","","images/earth.jpg","","","","","","","","","","","","","","fixation","","","","","",""
"d3-instructions","121","254946","0.0-62.0","0","0","0","female","true","true","true","true","""event"",""trial"",""time""
""fullscreenenter"",""5"",""12261""
""fullscreenexit"",""6"",""14370""
","
","
","""event"",""trial"",""time""
""fullscreenenter"",""5"",""12261""
","""event"",""trial"",""time""
""fullscreenexit"",""6"",""14370""
","","","","","","","","","","","","","","","","","","","","","",""
"audio-keyboard-response","122","256159","0.0-63.0","0","0","0","female","true","true","true","true","""event"",""trial"",""time""
""fullscreenenter"",""5"",""12261""
""fullscreenexit"",""6"",""14370""
","
","
","""event"",""trial"",""time""
""fullscreenenter"",""5"",""12261""
","""event"",""trial"",""time""
""fullscreenexit"",""6"",""14370""
","1213","audio/instructions/treasure_feedback.wav","32","","","","","","","","","","","","","","","","","","",""
"d3-instructions","123","257670","0.0-64.0","0","0","0","female","true","true","true","true","""event"",""trial"",""time""
""fullscreenenter"",""5"",""12261""
""fullscreenexit"",""6"",""14370""
","
","
","""event"",""trial"",""time""
""fullscreenenter"",""5"",""12261""
","""event"",""trial"",""time""
""fullscreenexit"",""6"",""14370""
","","","","","","","","","","","","","","","","","","","","","",""
"d3-instructions","124","258907","0.0-65.0","0","0","0","female","true","true","true","true","""event"",""trial"",""time""
""fullscreenenter"",""5"",""12261""
""fullscreenexit"",""6"",""14370""
","
","
","""event"",""trial"",""time""
""fullscreenenter"",""5"",""12261""
","""event"",""trial"",""time""
""fullscreenexit"",""6"",""14370""
","","","","","","","","","","","","","","","","","","","","","",""
"d3-instructions","125","260100","0.0-66.0","0","0","0","female","true","true","true","true","""event"",""trial"",""time""
""fullscreenenter"",""5"",""12261""
""fullscreenexit"",""6"",""14370""
","
","
","""event"",""trial"",""time""
""fullscreenenter"",""5"",""12261""
","""event"",""trial"",""time""
""fullscreenexit"",""6"",""14370""
","","","","","","","","","","","","","","","","","","","","","",""
"d3-instructions","126","261240","0.0-67.0","0","0","0","female","true","true","true","true","""event"",""trial"",""time""
""fullscreenenter"",""5"",""12261""
""fullscreenexit"",""6"",""14370""
","
","
","""event"",""trial"",""time""
""fullscreenenter"",""5"",""12261""
","""event"",""trial"",""time""
""fullscreenexit"",""6"",""14370""
","","","","","","","","","","","","","","","","","","","","","",""
"d3-instructions","127","262533","0.0-68.0","0","0","0","female","true","true","true","true","""event"",""trial"",""time""
""fullscreenenter"",""5"",""12261""
""fullscreenexit"",""6"",""14370""
","
","
","""event"",""trial"",""time""
""fullscreenenter"",""5"",""12261""
","""event"",""trial"",""time""
""fullscreenexit"",""6"",""14370""
","","","","","","","","","","","","","","","","","","","","","",""
"instructions-quiz","128","265495","0.0-69.0","0","0","0","female","true","true","true","true","""event"",""trial"",""time""
""fullscreenenter"",""5"",""12261""
""fullscreenexit"",""6"",""14370""
","
","
","""event"",""trial"",""time""
""fullscreenenter"",""5"",""12261""
","""event"",""trial"",""time""
""fullscreenexit"",""6"",""14370""
","2960.199999999255","audio/quiz/Q1_Prompt.wav","","0","","","","","","","","","","","","","","","","","",""
"audio-keyboard-response","129","275761","0.0-70.0","0","0","0","female","true","true","true","true","""event"",""trial"",""time""
""fullscreenenter"",""5"",""12261""
""fullscreenexit"",""6"",""14370""
","
","
","""event"",""trial"",""time""
""fullscreenenter"",""5"",""12261""
","""event"",""trial"",""time""
""fullscreenexit"",""6"",""14370""
","null","audio/quiz/Q1_Incorrect.wav","null","","","","","","","","","","","","","","","","","","",""
"instructions-quiz","130","279295","0.0-71.0","0","0","0","female","true","true","true","true","""event"",""trial"",""time""
""fullscreenenter"",""5"",""12261""
""fullscreenexit"",""6"",""14370""
","
","
","""event"",""trial"",""time""
""fullscreenenter"",""5"",""12261""
","""event"",""trial"",""time""
""fullscreenexit"",""6"",""14370""
","3533","audio/quiz/Q2_Prompt.wav","","0","","","","","","","","","","","","","","","","","",""
"audio-keyboard-response","131","292168","0.0-72.0","0","0","0","female","true","true","true","true","""event"",""trial"",""time""
""fullscreenenter"",""5"",""12261""
""fullscreenexit"",""6"",""14370""
","
","
","""event"",""trial"",""time""
""fullscreenenter"",""5"",""12261""
","""event"",""trial"",""time""
""fullscreenexit"",""6"",""14370""
","null","audio/quiz/Q2_Correct.wav","null","","","","","","","","","","","","","","","","","","",""
"instructions-quiz","132","312342","0.0-73.0","0","0","0","female","true","true","true","true","""event"",""trial"",""time""
""fullscreenenter"",""5"",""12261""
""fullscreenexit"",""6"",""14370""
","
","
","""event"",""trial"",""time""
""fullscreenenter"",""5"",""12261""
","""event"",""trial"",""time""
""fullscreenexit"",""6"",""14370""
","20171.599999999627","audio/quiz/Q3_Prompt.wav","","1","","","","","","","","","","","","","","","","","",""
"audio-keyboard-response","133","318141","0.0-74.0","0","0","0","female","true","true","true","true","""event"",""trial"",""time""
""fullscreenenter"",""5"",""12261""
""fullscreenexit"",""6"",""14370""
","
","
","""event"",""trial"",""time""
""fullscreenenter"",""5"",""12261""
","""event"",""trial"",""time""
""fullscreenexit"",""6"",""14370""
","null","audio/quiz/Q3_Correct.wav","null","","","","","","","","","","","","","","","","","","",""
"d3-instructions","134","322362","0.0-75.0","0","0","0","female","true","true","true","true","""event"",""trial"",""time""
""fullscreenenter"",""5"",""12261""
""fullscreenexit"",""6"",""14370""
","
","
","""event"",""trial"",""time""
""fullscreenenter"",""5"",""12261""
","""event"",""trial"",""time""
""fullscreenexit"",""6"",""14370""
","","","","","","","","","","","","","","","","","","","","","",""
"pavlovia","135","322363","0.0-76.0","0","0","0","female","true","true","true","true","""event"",""trial"",""time""
""fullscreenenter"",""5"",""12261""
""fullscreenexit"",""6"",""14370""
","
","
","""event"",""trial"",""time""
""fullscreenenter"",""5"",""12261""
","""event"",""trial"",""time""
""fullscreenexit"",""6"",""14370""
","","","","","","","","","","","","","","","","","","","","","",""
"d3-animate-choice","136","325656","0.0-77.0-0.0","0","0","0","female","true","true","true","true","""event"",""trial"",""time""
""fullscreenenter"",""5"",""12261""
""fullscreenexit"",""6"",""14370""
","
","
","""event"",""trial"",""time""
""fullscreenenter"",""5"",""12261""
","""event"",""trial"",""time""
""fullscreenexit"",""6"",""14370""
","1289.699999999255","","49","","","3000","1","","","images/earth.jpg","images/rocket2","images/rocket1","null","images/rocket1","","1","real","null","1","","",""
"d3-animate-choice","137","328192","0.0-77.0-1.0","0","0","0","female","true","true","true","true","""event"",""trial"",""time""
""fullscreenenter"",""5"",""12261""
""fullscreenexit"",""6"",""14370""
","
","
","""event"",""trial"",""time""
""fullscreenenter"",""5"",""12261""
","""event"",""trial"",""time""
""fullscreenexit"",""6"",""14370""
","532.9000000003725","","49","","","3000","1","","","images/redplanet1.jpg","images/alien2","images/alien1","images/rocket1","images/alien1","images/t.png","2","real","true","1","common","1","2023-01-12 06:33:54.422"
"two-step-fixation","138","329196","0.0-77.0-2.0","0","0","0","female","true","true","true","true","""event"",""trial"",""time""
""fullscreenenter"",""5"",""12261""
""fullscreenexit"",""6"",""14370""
","
","
","""event"",""trial"",""time""
""fullscreenenter"",""5"",""12261""
","""event"",""trial"",""time""
""fullscreenexit"",""6"",""14370""
","","images/earth.jpg","","","","","","","","","","","","","","fixation","","","","","",""
"d3-animate-choice","139","331747","0.0-77.0-0.1","0","0","0","female","true","true","true","true","""event"",""trial"",""time""
""fullscreenenter"",""5"",""12261""
""fullscreenexit"",""6"",""14370""
","
","
","""event"",""trial"",""time""
""fullscreenenter"",""5"",""12261""
","""event"",""trial"",""time""
""fullscreenexit"",""6"",""14370""
","548.7000000011176","","49","","","3000","1","1574.7000000011176","49","images/earth.jpg","images/rocket2","images/rocket1","null","images/rocket1","","1","real","null","1","","",""
"d3-animate-choice","140","335201","0.0-77.0-1.1","0","0","0","female","true","true","true","true","""event"",""trial"",""time""
""fullscreenenter"",""5"",""12261""
""fullscreenexit"",""6"",""14370""
","
","
","""event"",""trial"",""time""
""fullscreenenter"",""5"",""12261""
","""event"",""trial"",""time""
""fullscreenexit"",""6"",""14370""
","1451.300000000745","","49","","","3000","1","","","images/redplanet1.jpg","images/alien2","images/alien1","images/rocket1","images/alien1","images/nothing.png","2","real","true","1","common","0","2023-01-12 06:34:01.431"
"two-step-fixation","141","336204","0.0-77.0-2.1","0","0","0","female","true","true","true","true","""event"",""trial"",""time""
""fullscreenenter"",""5"",""12261""
""fullscreenexit"",""6"",""14370""
","
","
","""event"",""trial"",""time""
""fullscreenenter"",""5"",""12261""
","""event"",""trial"",""time""
""fullscreenexit"",""6"",""14370""
","","images/earth.jpg","","","","","","","","","","","","","","fixation","","","","","",""
"d3-animate-choice","142","338974","0.0-77.0-0.2","0","0","0","female","true","true","true","true","""event"",""trial"",""time""
""fullscreenenter"",""5"",""12261""
""fullscreenexit"",""6"",""14370""
","
","
","""event"",""trial"",""time""
""fullscreenenter"",""5"",""12261""
","""event"",""trial"",""time""
""fullscreenexit"",""6"",""14370""
","765.1999999992549","","49","","","3000","1","2633.199999999255","49","images/earth.jpg","images/rocket2","images/rocket1","null","images/rocket1","","1","real","null","1","","",""
"d3-animate-choice","143","341604","0.0-77.0-1.2","0","0","0","female","true","true","true","true","""event"",""trial"",""time""
""fullscreenenter"",""5"",""12261""
""fullscreenexit"",""6"",""14370""
","
","
","""event"",""trial"",""time""
""fullscreenenter"",""5"",""12261""
","""event"",""trial"",""time""
""fullscreenexit"",""6"",""14370""
","628.0999999996275","","49","","","3000","1","","","images/redplanet1.jpg","images/alien2","images/alien1","images/rocket1","images/alien1","images/t.png","2","real","true","1","common","1","2023-01-12 06:34:07.835"
"two-step-fixation","144","342608","0.0-77.0-2.2","0","0","0","female","true","true","true","true","""event"",""trial"",""time""
""fullscreenenter"",""5"",""12261""
""fullscreenexit"",""6"",""14370""
","
","
","""event"",""trial"",""time""
""fullscreenenter"",""5"",""12261""
","""event"",""trial"",""time""
""fullscreenexit"",""6"",""14370""
","","images/earth.jpg","","","","","","","","","","","","","","fixation","","","","","",""
"d3-animate-choice","145","345234","0.0-77.0-0.3","0","0","0","female","true","true","true","true","""event"",""trial"",""time""
""fullscreenenter"",""5"",""12261""
""fullscreenexit"",""6"",""14370""
","
","
","""event"",""trial"",""time""
""fullscreenenter"",""5"",""12261""
","""event"",""trial"",""time""
""fullscreenexit"",""6"",""14370""
","623.9000000003725","","49","","","3000","1","","","images/earth.jpg","images/rocket2","images/rocket1","null","images/rocket1","","1","real","null","1","","",""
"d3-animate-choice","146","347985","0.0-77.0-1.3","0","0","0","female","true","true","true","true","""event"",""trial"",""time""
""fullscreenenter"",""5"",""12261""
""fullscreenexit"",""6"",""14370""
","
","
","""event"",""trial"",""time""
""fullscreenenter"",""5"",""12261""
","""event"",""trial"",""time""
""fullscreenexit"",""6"",""14370""
","747.6999999992549","","49","","","3000","1","2519.199999999255","49","images/purpleplanet.jpg","images/alien4","images/alien3","images/rocket1","images/alien3","images/t.png","2","real","false","1","rare","1","2023-01-12 06:34:14.215"
"two-step-fixation","147","348988","0.0-77.0-2.3","0","0","0","female","true","true","true","true","""event"",""trial"",""time""
""fullscreenenter"",""5"",""12261""
""fullscreenexit"",""6"",""14370""
","
","
","""event"",""trial"",""time""
""fullscreenenter"",""5"",""12261""
","""event"",""trial"",""time""
""fullscreenexit"",""6"",""14370""
","","images/earth.jpg","","","","","","","","","","","","","","fixation","","","","","",""
"d3-animate-choice","148","351424","0.0-77.0-0.4","0","0","0","female","true","true","true","true","""event"",""trial"",""time""
""fullscreenenter"",""5"",""12261""
""fullscreenexit"",""6"",""14370""
","
","
","""event"",""trial"",""time""
""fullscreenenter"",""5"",""12261""
","""event"",""trial"",""time""
""fullscreenexit"",""6"",""14370""
","432.80000000074506","","49","","","3000","1","1758.800000000745","49","images/earth.jpg","images/rocket2","images/rocket1","null","images/rocket1","","1","real","null","1","","",""
"d3-animate-choice","149","354140","0.0-77.0-1.4","0","0","0","female","true","true","true","true","""event"",""trial"",""time""
""fullscreenenter"",""5"",""12261""
""fullscreenexit"",""6"",""14370""
","
","
","""event"",""trial"",""time""
""fullscreenenter"",""5"",""12261""
","""event"",""trial"",""time""
""fullscreenexit"",""6"",""14370""
","712.8000000007451","","49","","","3000","1","2596","49","images/purpleplanet.jpg","images/alien4","images/alien3","images/rocket1","images/alien3","images/t.png","2","real","false","1","rare","1","2023-01-12 06:34:20.370"
"two-step-fixation","150","355144","0.0-77.0-2.4","0","0","0","female","true","true","true","true","""event"",""trial"",""time""
""fullscreenenter"",""5"",""12261""
""fullscreenexit"",""6"",""14370""
","
","
","""event"",""trial"",""time""
""fullscreenenter"",""5"",""12261""
","""event"",""trial"",""time""
""fullscreenexit"",""6"",""14370""
","","images/earth.jpg","","","","","","","","","","","","","","fixation","","","","","",""
"d3-animate-choice","151","358497","0.0-77.0-0.5","0","0","0","female","true","true","true","true","""event"",""trial"",""time""
""fullscreenenter"",""5"",""12261""
""fullscreenexit"",""6"",""14370""
","
","
","""event"",""trial"",""time""
""fullscreenenter"",""5"",""12261""
","""event"",""trial"",""time""
""fullscreenexit"",""6"",""14370""
","1349.6000000014901","","49","","","3000","1","","","images/earth.jpg","images/rocket2","images/rocket1","null","images/rocket1","","1","real","null","1","","",""
"d3-animate-choice","152","361280","0.0-77.0-1.5","0","0","0","female","true","true","true","true","""event"",""trial"",""time""
""fullscreenenter"",""5"",""12261""
""fullscreenexit"",""6"",""14370""
","
","
","""event"",""trial"",""time""
""fullscreenenter"",""5"",""12261""
","""event"",""trial"",""time""
""fullscreenexit"",""6"",""14370""
","779.4000000003725","","49","","","3000","1","1875.300000000745","49","images/redplanet1.jpg","images/alien2","images/alien1","images/rocket1","images/alien1","images/nothing.png","2","real","true","1","common","0","2023-01-12 06:34:27.510"
"two-step-fixation","153","362284","0.0-77.0-2.5","0","0","0","female","true","true","true","true","""event"",""trial"",""time""
""fullscreenenter"",""5"",""12261""
""fullscreenexit"",""6"",""14370""
","
","
","""event"",""trial"",""time""
""fullscreenenter"",""5"",""12261""
","""event"",""trial"",""time""
""fullscreenexit"",""6"",""14370""
","","images/earth.jpg","","","","","","","","","","","","","","fixation","","","","","",""
"d3-animate-choice","154","365895","0.0-77.0-0.6","0","0","0","female","true","true","true","true","""event"",""trial"",""time""
""fullscreenenter"",""5"",""12261""
""fullscreenexit"",""6"",""14370""
","
","
","""event"",""trial"",""time""
""fullscreenenter"",""5"",""12261""
","""event"",""trial"",""time""
""fullscreenexit"",""6"",""14370""
","1604","","49","","","3000","1","","","images/earth.jpg","images/rocket2","images/rocket1","null","images/rocket1","","1","real","null","1","","",""
"d3-animate-choice","155","368103","0.0-77.0-1.6","0","0","0","female","true","true","true","true","""event"",""trial"",""time""
""fullscreenenter"",""5"",""12261""
""fullscreenexit"",""6"",""14370""
","
","
","""event"",""trial"",""time""
""fullscreenenter"",""5"",""12261""
","""event"",""trial"",""time""
""fullscreenexit"",""6"",""14370""
","204.90000000037253","","49","","","3000","1","","","images/redplanet1.jpg","images/alien2","images/alien1","images/rocket1","images/alien1","images/t.png","2","real","true","1","common","1","2023-01-12 06:34:34.333"
"two-step-fixation","156","369105","0.0-77.0-2.6","0","0","0","female","true","true","true","true","""event"",""trial"",""time""
""fullscreenenter"",""5"",""12261""
""fullscreenexit"",""6"",""14370""
","
","
","""event"",""trial"",""time""
""fullscreenenter"",""5"",""12261""
","""event"",""trial"",""time""
""fullscreenexit"",""6"",""14370""
","","images/earth.jpg","","","","","","","","","","","","","","fixation","","","","","",""
"d3-animate-choice","157","371497","0.0-77.0-0.7","0","0","0","female","true","true","true","true","""event"",""trial"",""time""
""fullscreenenter"",""5"",""12261""
""fullscreenexit"",""6"",""14370""
","
","
","""event"",""trial"",""time""
""fullscreenenter"",""5"",""12261""
","""event"",""trial"",""time""
""fullscreenexit"",""6"",""14370""
","388","","49","","","3000","1","","","images/earth.jpg","images/rocket2","images/rocket1","null","images/rocket1","","1","real","null","1","","",""
"d3-animate-choice","158","373668","0.0-77.0-1.7","0","0","0","female","true","true","true","true","""event"",""trial"",""time""
""fullscreenenter"",""5"",""12261""
""fullscreenexit"",""6"",""14370""
","
","
","""event"",""trial"",""time""
""fullscreenenter"",""5"",""12261""
","""event"",""trial"",""time""
""fullscreenexit"",""6"",""14370""
","168.5","","49","","","3000","1","1139.5","49","images/redplanet1.jpg","images/alien2","images/alien1","images/rocket1","images/alien1","images/t.png","2","real","true","1","common","1","2023-01-12 06:34:39.898"
"two-step-fixation","159","374672","0.0-77.0-2.7","0","0","0","female","true","true","true","true","""event"",""trial"",""time""
""fullscreenenter"",""5"",""12261""
""fullscreenexit"",""6"",""14370""
","
","
","""event"",""trial"",""time""
""fullscreenenter"",""5"",""12261""
","""event"",""trial"",""time""
""fullscreenexit"",""6"",""14370""
","","images/earth.jpg","","","","","","","","","","","","","","fixation","","","","","",""
"d3-animate-choice","160","377145","0.0-77.0-0.8","0","0","0","female","true","true","true","true","""event"",""trial"",""time""
""fullscreenenter"",""5"",""12261""
""fullscreenexit"",""6"",""14370""
","
","
","""event"",""trial"",""time""
""fullscreenenter"",""5"",""12261""
","""event"",""trial"",""time""
""fullscreenexit"",""6"",""14370""
","469.90000000037253","","49","","","3000","1","","","images/earth.jpg","images/rocket2","images/rocket1","null","images/rocket1","","1","real","null","1","","",""
"d3-animate-choice","161","379801","0.0-77.0-1.8","0","0","0","female","true","true","true","true","""event"",""trial"",""time""
""fullscreenenter"",""5"",""12261""
""fullscreenexit"",""6"",""14370""
","
","
","""event"",""trial"",""time""
""fullscreenenter"",""5"",""12261""
","""event"",""trial"",""time""
""fullscreenexit"",""6"",""14370""
","651.5","","49","","","3000","1","","","images/purpleplanet.jpg","images/alien4","images/alien3","images/rocket1","images/alien3","images/nothing.png","2","real","false","1","rare","0","2023-01-12 06:34:46.032"
"two-step-fixation","162","380808","0.0-77.0-2.8","0","0","0","female","true","true","true","true","""event"",""trial"",""time""
""fullscreenenter"",""5"",""12261""
""fullscreenexit"",""6"",""14370""
","
","
","""event"",""trial"",""time""
""fullscreenenter"",""5"",""12261""
","""event"",""trial"",""time""
""fullscreenexit"",""6"",""14370""
","","images/earth.jpg","","","","","","","","","","","","","","fixation","","","","","",""
"d3-animate-choice","163","383385","0.0-77.0-0.9","0","0","0","female","true","true","true","true","""event"",""trial"",""time""
""fullscreenenter"",""5"",""12261""
""fullscreenexit"",""6"",""14370""
","
","
","""event"",""trial"",""time""
""fullscreenenter"",""5"",""12261""
","""event"",""trial"",""time""
""fullscreenexit"",""6"",""14370""
","573.5999999996275","","49","","","3000","1","","","images/earth.jpg","images/rocket2","images/rocket1","null","images/rocket1","","1","real","null","1","","",""
"d3-animate-choice","164","385748","0.0-77.0-1.9","0","0","0","female","true","true","true","true","""event"",""trial"",""time""
""fullscreenenter"",""5"",""12261""
""fullscreenexit"",""6"",""14370""
","
","
","""event"",""trial"",""time""
""fullscreenenter"",""5"",""12261""
","""event"",""trial"",""time""
""fullscreenexit"",""6"",""14370""
","361.19999999925494","","49","","","3000","1","1733.5","49","images/redplanet1.jpg","images/alien2","images/alien1","images/rocket1","images/alien1","images/nothing.png","2","real","true","1","common","0","2023-01-12 06:34:51.978"
"two-step-fixation","165","386752","0.0-77.0-2.9","0","0","0","female","true","true","true","true","""event"",""trial"",""time""
""fullscreenenter"",""5"",""12261""
""fullscreenexit"",""6"",""14370""
","
","
","""event"",""trial"",""time""
""fullscreenenter"",""5"",""12261""
","""event"",""trial"",""time""
""fullscreenexit"",""6"",""14370""
","","images/earth.jpg","","","","","","","","","","","","","","fixation","","","","","",""
"d3-animate-choice","166","390409","0.0-77.0-0.10","0","0","0","female","true","true","true","true","""event"",""trial"",""time""
""fullscreenenter"",""5"",""12261""
""fullscreenexit"",""6"",""14370""
","
","
","""event"",""trial"",""time""
""fullscreenenter"",""5"",""12261""
","""event"",""trial"",""time""
""fullscreenexit"",""6"",""14370""
","1654.0999999996275","","49","","","3000","1","","","images/earth.jpg","images/rocket2","images/rocket1","null","images/rocket1","","1","real","null","1","","",""
"d3-animate-choice","167","392691","0.0-77.0-1.10","0","0","0","female","true","true","true","true","""event"",""trial"",""time""
""fullscreenenter"",""5"",""12261""
""fullscreenexit"",""6"",""14370""
","
","
","""event"",""trial"",""time""
""fullscreenenter"",""5"",""12261""
","""event"",""trial"",""time""
""fullscreenexit"",""6"",""14370""
","279.7999999988824","","49","","","3000","1","","","images/redplanet1.jpg","images/alien2","images/alien1","images/rocket1","images/alien1","images/t.png","2","real","true","1","common","1","2023-01-12 06:34:58.922"
"two-step-fixation","168","393696","0.0-77.0-2.10","0","0","0","female","true","true","true","true","""event"",""trial"",""time""
""fullscreenenter"",""5"",""12261""
""fullscreenexit"",""6"",""14370""
","
","
","""event"",""trial"",""time""
""fullscreenenter"",""5"",""12261""
","""event"",""trial"",""time""
""fullscreenexit"",""6"",""14370""
","","images/earth.jpg","","","","","","","","","","","","","","fixation","","","","","",""
"d3-animate-choice","169","397703","0.0-77.0-0.11","0","0","0","female","true","true","true","true","""event"",""trial"",""time""
""fullscreenenter"",""5"",""12261""
""fullscreenexit"",""6"",""14370""
","
","
","""event"",""trial"",""time""
""fullscreenenter"",""5"",""12261""
","""event"",""trial"",""time""
""fullscreenexit"",""6"",""14370""
","3927.800000000745","","49","","","3000","0","","","images/earth.jpg","images/rocket2","images/rocket1","null","","","1","real","null","1","","",""
"d3-animate-choice","170","398710","0.0-77.0-1.11","0","0","0","female","true","true","true","true","""event"",""trial"",""time""
""fullscreenenter"",""5"",""12261""
""fullscreenexit"",""6"",""14370""
","
","
","""event"",""trial"",""time""
""fullscreenenter"",""5"",""12261""
","""event"",""trial"",""time""
""fullscreenexit"",""6"",""14370""
","null","","null","","","0","0","","","images/earth.jpg","images/rocket2","images/rocket1","null","","","2","real","null","","","0","2023-01-12 06:35:04.940"
"two-step-fixation","171","399711","0.0-77.0-2.11","0","0","0","female","true","true","true","true","""event"",""trial"",""time""
""fullscreenenter"",""5"",""12261""
""fullscreenexit"",""6"",""14370""
","
","
","""event"",""trial"",""time""
""fullscreenenter"",""5"",""12261""
","""event"",""trial"",""time""
""fullscreenexit"",""6"",""14370""
","","images/earth.jpg","","","","","","","","","","","","","","fixation","","","","","",""
"d3-animate-choice","172","403068","0.0-77.0-0.12","0","0","0","female","true","true","true","true","""event"",""trial"",""time""
""fullscreenenter"",""5"",""12261""
""fullscreenexit"",""6"",""14370""
","
","
","""event"",""trial"",""time""
""fullscreenenter"",""5"",""12261""
","""event"",""trial"",""time""
""fullscreenexit"",""6"",""14370""
","1354.800000000745","","49","","","3000","1","","","images/earth.jpg","images/rocket2","images/rocket1","null","images/rocket1","","1","real","null","1","","",""
"d3-animate-choice","173","405730","0.0-77.0-1.12","0","0","0","female","true","true","true","true","""event"",""trial"",""time""
""fullscreenenter"",""5"",""12261""
""fullscreenexit"",""6"",""14370""
","
","
","""event"",""trial"",""time""
""fullscreenenter"",""5"",""12261""
","""event"",""trial"",""time""
""fullscreenexit"",""6"",""14370""
","658.9000000003725","","49","","","3000","1","","","images/redplanet1.jpg","images/alien2","images/alien1","images/rocket1","images/alien1","images/t.png","2","real","true","1","common","1","2023-01-12 06:35:11.960"
"two-step-fixation","174","406732","0.0-77.0-2.12","0","0","0","female","true","true","true","true","""event"",""trial"",""time""
""fullscreenenter"",""5"",""12261""
""fullscreenexit"",""6"",""14370""
","
","
","""event"",""trial"",""time""
""fullscreenenter"",""5"",""12261""
","""event"",""trial"",""time""
""fullscreenexit"",""6"",""14370""
","","images/earth.jpg","","","","","","","","","","","","","","fixation","","","","","",""
"d3-animate-choice","175","410200","0.0-77.0-0.13","0","0","0","female","true","true","true","true","""event"",""trial"",""time""
""fullscreenenter"",""5"",""12261""
""fullscreenexit"",""6"",""14370""
","
","
","""event"",""trial"",""time""
""fullscreenenter"",""5"",""12261""
","""event"",""trial"",""time""
""fullscreenexit"",""6"",""14370""
","1463.5999999996275","","49","","","3000","1","","","images/earth.jpg","images/rocket2","images/rocket1","null","images/rocket1","","1","real","null","1","","",""
"d3-animate-choice","176","413352","0.0-77.0-1.13","0","0","0","female","true","true","true","true","""event"",""trial"",""time""
""fullscreenenter"",""5"",""12261""
""fullscreenexit"",""6"",""14370""
","
","
","""event"",""trial"",""time""
""fullscreenenter"",""5"",""12261""
","""event"",""trial"",""time""
""fullscreenexit"",""6"",""14370""
","1148.4000000003725","","49","","","3000","1","","","images/redplanet1.jpg","images/alien2","images/alien1","images/rocket1","images/alien1","images/nothing.png","2","real","true","1","common","0","2023-01-12 06:35:19.582"
"two-step-fixation","177","414356","0.0-77.0-2.13","0","0","0","female","true","true","true","true","""event"",""trial"",""time""
""fullscreenenter"",""5"",""12261""
""fullscreenexit"",""6"",""14370""
","
","
","""event"",""trial"",""time""
""fullscreenenter"",""5"",""12261""
","""event"",""trial"",""time""
""fullscreenexit"",""6"",""14370""
","","images/earth.jpg","","","","","","","","","","","","","","fixation","","","","","",""
"d3-animate-choice","178","416626","0.0-77.0-0.14","0","0","0","female","true","true","true","true","""event"",""trial"",""time""
""fullscreenenter"",""5"",""12261""
""fullscreenexit"",""6"",""14370""
","
","
","""event"",""trial"",""time""
""fullscreenenter"",""5"",""12261""
","""event"",""trial"",""time""
""fullscreenexit"",""6"",""14370""
","264.7000000011176","","49","","","3000","1","","","images/earth.jpg","images/rocket2","images/rocket1","null","images/rocket1","","1","real","null","1","","",""
"d3-animate-choice","179","420631","0.0-77.0-1.14","0","0","0","female","true","true","true","true","""event"",""trial"",""time""
""fullscreenenter"",""5"",""12261""
""fullscreenexit"",""6"",""14370""
","
","
","""event"",""trial"",""time""
""fullscreenenter"",""5"",""12261""
","""event"",""trial"",""time""
""fullscreenexit"",""6"",""14370""
","2648","","49","","","3000","1","","","images/redplanet1.jpg","images/alien2","images/alien1","images/rocket1","images/alien1","","2","real","true","1","common","0","2023-01-12 06:35:26.861"
"two-step-fixation","180","421636","0.0-77.0-2.14","0","0","0","female","true","true","true","true","""event"",""trial"",""time""
""fullscreenenter"",""5"",""12261""
""fullscreenexit"",""6"",""14370""
","
","
","""event"",""trial"",""time""
""fullscreenenter"",""5"",""12261""
","""event"",""trial"",""time""
""fullscreenexit"",""6"",""14370""
","","images/earth.jpg","","","","","","","","","","","","","","fixation","","","","","",""
"d3-animate-choice","181","424857","0.0-77.0-0.15","0","0","0","female","true","true","true","true","""event"",""trial"",""time""
""fullscreenenter"",""5"",""12261""
""fullscreenexit"",""6"",""14370""
","
","
","""event"",""trial"",""time""
""fullscreenenter"",""5"",""12261""
","""event"",""trial"",""time""
""fullscreenexit"",""6"",""14370""
","1214.2999999988824","","49","","","3000","1","","","images/earth.jpg","images/rocket2","images/rocket1","null","images/rocket1","","1","real","null","1","","",""
"d3-animate-choice","182","427031","0.0-77.0-1.15","0","0","0","female","true","true","true","true","""event"",""trial"",""time""
""fullscreenenter"",""5"",""12261""
""fullscreenexit"",""6"",""14370""
","
","
","""event"",""trial"",""time""
""fullscreenenter"",""5"",""12261""
","""event"",""trial"",""time""
""fullscreenexit"",""6"",""14370""
","172.09999999962747","","49","","","3000","1","2063.4000000003725","49","images/redplanet1.jpg","images/alien2","images/alien1","images/rocket1","images/alien1","images/nothing.png","2","real","true","1","common","0","2023-01-12 06:35:33.261"
"two-step-fixation","183","428034","0.0-77.0-2.15","0","0","0","female","true","true","true","true","""event"",""trial"",""time""
""fullscreenenter"",""5"",""12261""
""fullscreenexit"",""6"",""14370""
","
","
","""event"",""trial"",""time""
""fullscreenenter"",""5"",""12261""
","""event"",""trial"",""time""
""fullscreenexit"",""6"",""14370""
","","images/earth.jpg","","","","","","","","","","","","","","fixation","","","","","",""
"d3-animate-choice","184","430527","0.0-77.0-0.16","0","0","0","female","true","true","true","true","""event"",""trial"",""time""
""fullscreenenter"",""5"",""12261""
""fullscreenexit"",""6"",""14370""
","
","
","""event"",""trial"",""time""
""fullscreenenter"",""5"",""12261""
","""event"",""trial"",""time""
""fullscreenexit"",""6"",""14370""
","489.80000000074506","","49","","","3000","1","1824.9000000003725","49","images/earth.jpg","images/rocket2","images/rocket1","null","images/rocket1","","1","real","null","1","","",""
"d3-animate-choice","185","433209","0.0-77.0-1.16","0","0","0","female","true","true","true","true","""event"",""trial"",""time""
""fullscreenenter"",""5"",""12261""
""fullscreenexit"",""6"",""14370""
","
","
","""event"",""trial"",""time""
""fullscreenenter"",""5"",""12261""
","""event"",""trial"",""time""
""fullscreenexit"",""6"",""14370""
","678.4000000003725","","49","","","3000","1","","","images/redplanet1.jpg","images/alien2","images/alien1","images/rocket1","images/alien1","images/t.png","2","real","true","1","common","1","2023-01-12 06:35:39.439"
"two-step-fixation","186","434212","0.0-77.0-2.16","0","0","0","female","true","true","true","true","""event"",""trial"",""time""
""fullscreenenter"",""5"",""12261""
""fullscreenexit"",""6"",""14370""
","
","
","""event"",""trial"",""time""
""fullscreenenter"",""5"",""12261""
","""event"",""trial"",""time""
""fullscreenexit"",""6"",""14370""
","","images/earth.jpg","","","","","","","","","","","","","","fixation","","","","","",""
"d3-animate-choice","187","437310","0.0-77.0-0.17","0","0","0","female","true","true","true","true","""event"",""trial"",""time""
""fullscreenenter"",""5"",""12261""
""fullscreenexit"",""6"",""14370""
","
","
","""event"",""trial"",""time""
""fullscreenenter"",""5"",""12261""
","""event"",""trial"",""time""
""fullscreenexit"",""6"",""14370""
","1093.9000000003725","","49","","","3000","1","","","images/earth.jpg","images/rocket2","images/rocket1","null","images/rocket1","","1","real","null","1","","",""
"d3-animate-choice","188","439867","0.0-77.0-1.17","0","0","0","female","true","true","true","true","""event"",""trial"",""time""
""fullscreenenter"",""5"",""12261""
""fullscreenexit"",""6"",""14370""
","
","
","""event"",""trial"",""time""
""fullscreenenter"",""5"",""12261""
","""event"",""trial"",""time""
""fullscreenexit"",""6"",""14370""
","553.7000000011176","","49","","","3000","1","","","images/purpleplanet.jpg","images/alien4","images/alien3","images/rocket1","images/alien3","images/t.png","2","real","false","1","rare","1","2023-01-12 06:35:46.098"
"two-step-fixation","189","440871","0.0-77.0-2.17","0","0","0","female","true","true","true","true","""event"",""trial"",""time""
""fullscreenenter"",""5"",""12261""
""fullscreenexit"",""6"",""14370""
","
","
","""event"",""trial"",""time""
""fullscreenenter"",""5"",""12261""
","""event"",""trial"",""time""
""fullscreenexit"",""6"",""14370""
","","images/earth.jpg","","","","","","","","","","","","","","fixation","","","","","",""
"d3-animate-choice","190","443594","0.0-77.0-0.18","0","0","0","female","true","true","true","true","""event"",""trial"",""time""
""fullscreenenter"",""5"",""12261""
""fullscreenexit"",""6"",""14370""
","
","
","""event"",""trial"",""time""
""fullscreenenter"",""5"",""12261""
","""event"",""trial"",""time""
""fullscreenexit"",""6"",""14370""
","719","","49","","","3000","1","2525.5","49","images/earth.jpg","images/rocket2","images/rocket1","null","images/rocket1","","1","real","null","1","","",""
"d3-animate-choice","191","446148","0.0-77.0-1.18","0","0","0","female","true","true","true","true","""event"",""trial"",""time""
""fullscreenenter"",""5"",""12261""
""fullscreenexit"",""6"",""14370""
","
","
","""event"",""trial"",""time""
""fullscreenenter"",""5"",""12261""
","""event"",""trial"",""time""
""fullscreenexit"",""6"",""14370""
","548.8000000007451","","49","","","3000","1","2188.0999999996275","49","images/redplanet1.jpg","images/alien2","images/alien1","images/rocket1","images/alien1","images/nothing.png","2","real","true","1","common","0","2023-01-12 06:35:52.378"
"two-step-fixation","192","447152","0.0-77.0-2.18","0","0","0","female","true","true","true","true","""event"",""trial"",""time""
""fullscreenenter"",""5"",""12261""
""fullscreenexit"",""6"",""14370""
","
","
","""event"",""trial"",""time""
""fullscreenenter"",""5"",""12261""
","""event"",""trial"",""time""
""fullscreenexit"",""6"",""14370""
","","images/earth.jpg","","","","","","","","","","","","","","fixation","","","","","",""
"d3-animate-choice","193","451114","0.0-77.0-0.19","0","0","0","female","true","true","true","true","""event"",""trial"",""time""
""fullscreenenter"",""5"",""12261""
""fullscreenexit"",""6"",""14370""
","
","
","""event"",""trial"",""time""
""fullscreenenter"",""5"",""12261""
","""event"",""trial"",""time""
""fullscreenexit"",""6"",""14370""
","1959.199999999255","","49","","","3000","1","3796.699999999255","49","images/earth.jpg","images/rocket2","images/rocket1","null","images/rocket1","","1","real","null","1","","",""
"d3-animate-choice","194","454371","0.0-77.0-1.19","0","0","0","female","true","true","true","true","""event"",""trial"",""time""
""fullscreenenter"",""5"",""12261""
""fullscreenexit"",""6"",""14370""
","
","
","""event"",""trial"",""time""
""fullscreenenter"",""5"",""12261""
","""event"",""trial"",""time""
""fullscreenexit"",""6"",""14370""
","1254","","49","","","3000","1","2423.39999999851","49","images/redplanet1.jpg","images/alien2","images/alien1","images/rocket1","images/alien1","images/t.png","2","real","true","1","common","1","2023-01-12 06:36:00.601"
"two-step-fixation","195","455374","0.0-77.0-2.19","0","0","0","female","true","true","true","true","""event"",""trial"",""time""
""fullscreenenter"",""5"",""12261""
""fullscreenexit"",""6"",""14370""
","
","
","""event"",""trial"",""time""
""fullscreenenter"",""5"",""12261""
","""event"",""trial"",""time""
""fullscreenexit"",""6"",""14370""
","","images/earth.jpg","","","","","","","","","","","","","","fixation","","","","","",""
"d3-animate-choice","196","458963","0.0-77.0-0.20","0","0","0","female","true","true","true","true","""event"",""trial"",""time""
""fullscreenenter"",""5"",""12261""
""fullscreenexit"",""6"",""14370""
","
","
","""event"",""trial"",""time""
""fullscreenenter"",""5"",""12261""
","""event"",""trial"",""time""
""fullscreenexit"",""6"",""14370""
","1582.2000000011176","","49","","","3000","1","3448.10000000149","49","images/earth.jpg","images/rocket2","images/rocket1","null","images/rocket1","","1","real","null","1","","",""
"d3-animate-choice","197","461912","0.0-77.0-1.20","0","0","0","female","true","true","true","true","""event"",""trial"",""time""
""fullscreenenter"",""5"",""12261""
""fullscreenexit"",""6"",""14370""
","
","
","""event"",""trial"",""time""
""fullscreenenter"",""5"",""12261""
","""event"",""trial"",""time""
""fullscreenexit"",""6"",""14370""
","943.5","","49","","","3000","1","2296.2999999988824","49","images/purpleplanet.jpg","images/alien4","images/alien3","images/rocket1","images/alien3","images/nothing.png","2","real","false","1","rare","0","2023-01-12 06:36:08.142"
"two-step-fixation","198","462916","0.0-77.0-2.20","0","0","0","female","true","true","true","true","""event"",""trial"",""time""
""fullscreenenter"",""5"",""12261""
""fullscreenexit"",""6"",""14370""
","
","
","""event"",""trial"",""time""
""fullscreenenter"",""5"",""12261""
","""event"",""trial"",""time""
""fullscreenexit"",""6"",""14370""
","","images/earth.jpg","","","","","","","","","","","","","","fixation","","","","","",""
"d3-animate-choice","199","466176","0.0-77.0-0.21","0","0","0","female","true","true","true","true","""event"",""trial"",""time""
""fullscreenenter"",""5"",""12261""
""fullscreenexit"",""6"",""14370""
","
","
","""event"",""trial"",""time""
""fullscreenenter"",""5"",""12261""
","""event"",""trial"",""time""
""fullscreenexit"",""6"",""14370""
","1255.5","","49","","","3000","1","2998.199999999255","49","images/earth.jpg","images/rocket2","images/rocket1","null","images/rocket1","","1","real","null","1","","",""
"d3-animate-choice","200","469493","0.0-77.0-1.21","0","0","0","female","true","true","true","true","""event"",""trial"",""time""
""fullscreenenter"",""5"",""12261""
""fullscreenexit"",""6"",""14370""
","
","
","""event"",""trial"",""time""
""fullscreenenter"",""5"",""12261""
","""event"",""trial"",""time""
""fullscreenexit"",""6"",""14370""
","1313","","49","","","3000","1","3082.89999999851","49","images/redplanet1.jpg","images/alien2","images/alien1","images/rocket1","images/alien1","images/nothing.png","2","real","true","1","common","0","2023-01-12 06:36:15.723"
"two-step-fixation","201","470498","0.0-77.0-2.21","0","0","0","female","true","true","true","true","""event"",""trial"",""time""
""fullscreenenter"",""5"",""12261""
""fullscreenexit"",""6"",""14370""
","
","
","""event"",""trial"",""time""
""fullscreenenter"",""5"",""12261""
","""event"",""trial"",""time""
""fullscreenexit"",""6"",""14370""
","","images/earth.jpg","","","","","","","","","","","","","","fixation","","","","","",""
"d3-animate-choice","202","473978","0.0-77.0-0.22","0","0","0","female","true","true","true","true","""event"",""trial"",""time""
""fullscreenenter"",""5"",""12261""
""fullscreenexit"",""6"",""14370""
","
","
