"trial_type","trial_index","time_elapsed","internal_node_id","participant_id","subject_id","age","gender","rocket_sides","red_planet_first_rocket","red_display_order","purple_display_order","interactions","blur_events","focus_events","fullscreenenter_events","fullscreenexit_events","rt","stimulus","key_press","button_pressed","success","duration","valid_pressed","rts","keys","planet_text","right_text","left_text","center_text","chosen_text","reward_text","trial_stage","practice_trial","transition_type","choice","transition","reward","timestamp"
"pavlovia","0","4","0.0-0.0","386","839","25","Female","true","false","true","false","
","
","
","
","
","","","","","","","","","","","","","","","","","","","","","",""
"html-keyboard-response","1","12324","0.0-1.0","386","839","25","Female","true","false","true","false","
","
","
","
","
","12319.59999999404","Welcome! Press the space bar to begin.","32","","","","","","","","","","","","","","","","","","",""
"audio-keyboard-response","2","15691","0.0-2.0","386","839","25","Female","true","false","true","false","""event"",""trial"",""time""
""blur"",""3"",""20496""
""focus"",""3"",""20671""
","""event"",""trial"",""time""
""blur"",""3"",""20496""
","""event"",""trial"",""time""
""focus"",""3"",""20671""
","
","
","3251","audio/beep_loop.wav","32","","","","","","","","","","","","","","","","","","",""
"audio-button-response","3","21143","0.0-3.0","386","839","25","Female","true","false","true","false","""event"",""trial"",""time""
""blur"",""3"",""20496""
""focus"",""3"",""20671""
","""event"",""trial"",""time""
""blur"",""3"",""20496""
","""event"",""trial"",""time""
""focus"",""3"",""20671""
","
","
","NaN","audio/fish.mp3","","1","","","","","","","","","","","","","","","","","",""
"audio-button-response","4","23664","0.0-4.0","386","839","25","Female","true","false","true","false","""event"",""trial"",""time""
""blur"",""3"",""20496""
""focus"",""3"",""20671""
""fullscreenenter"",""5"",""27423""
","""event"",""trial"",""time""
""blur"",""3"",""20496""
","""event"",""trial"",""time""
""focus"",""3"",""20671""
","""event"",""trial"",""time""
""fullscreenenter"",""5"",""27423""
","
","NaN","audio/tiger.mp3","","4","","","","","","","","","","","","","","","","","",""
"fullscreen","5","28369","0.0-5.0","386","839","25","Female","true","false","true","false","""event"",""trial"",""time""
""blur"",""3"",""20496""
""focus"",""3"",""20671""
""fullscreenenter"",""5"",""27423""
","""event"",""trial"",""time""
""blur"",""3"",""20496""
","""event"",""trial"",""time""
""focus"",""3"",""20671""
","""event"",""trial"",""time""
""fullscreenenter"",""5"",""27423""
","
","","","","","true","","","","","","","","","","","","","","","","",""
"d3-instructions","6","42696","0.0-6.0","386","839","25","Female","true","false","true","false","""event"",""trial"",""time""
""blur"",""3"",""20496""
""focus"",""3"",""20671""
""fullscreenenter"",""5"",""27423""
","""event"",""trial"",""time""
""blur"",""3"",""20496""
","""event"",""trial"",""time""
""focus"",""3"",""20671""
","""event"",""trial"",""time""
""fullscreenenter"",""5"",""27423""
","
","","","","","","","","","","","","","","","","","","","","","",""
"d3-instructions","7","51322","0.0-7.0","386","839","25","Female","true","false","true","false","""event"",""trial"",""time""
""blur"",""3"",""20496""
""focus"",""3"",""20671""
""fullscreenenter"",""5"",""27423""
","""event"",""trial"",""time""
""blur"",""3"",""20496""
","""event"",""trial"",""time""
""focus"",""3"",""20671""
","""event"",""trial"",""time""
""fullscreenenter"",""5"",""27423""
","
","","","","","","","","","","","","","","","","","","","","","",""
"d3-instructions","8","58661","0.0-8.0","386","839","25","Female","true","false","true","false","""event"",""trial"",""time""
""blur"",""3"",""20496""
""focus"",""3"",""20671""
""fullscreenenter"",""5"",""27423""
","""event"",""trial"",""time""
""blur"",""3"",""20496""
","""event"",""trial"",""time""
""focus"",""3"",""20671""
","""event"",""trial"",""time""
""fullscreenenter"",""5"",""27423""
","
","","","","","","","","","","","","","","","","","","","","","",""
"d3-instructions","9","69929","0.0-9.0","386","839","25","Female","true","false","true","false","""event"",""trial"",""time""
""blur"",""3"",""20496""
""focus"",""3"",""20671""
""fullscreenenter"",""5"",""27423""
","""event"",""trial"",""time""
""blur"",""3"",""20496""
","""event"",""trial"",""time""
""focus"",""3"",""20671""
","""event"",""trial"",""time""
""fullscreenenter"",""5"",""27423""
","
","","","","","","","","","","","","","","","","","","","","","",""
"d3-instructions","10","89677","0.0-10.0","386","839","25","Female","true","false","true","false","""event"",""trial"",""time""
""blur"",""3"",""20496""
""focus"",""3"",""20671""
""fullscreenenter"",""5"",""27423""
","""event"",""trial"",""time""
""blur"",""3"",""20496""
","""event"",""trial"",""time""
""focus"",""3"",""20671""
","""event"",""trial"",""time""
""fullscreenenter"",""5"",""27423""
","
","","","","","","","","","","","","","","","","","","","","","",""
"d3-animate-choice","11","92769","0.0-11.0","386","839","25","Female","true","false","true","false","""event"",""trial"",""time""
""blur"",""3"",""20496""
""focus"",""3"",""20671""
""fullscreenenter"",""5"",""27423""
","""event"",""trial"",""time""
""blur"",""3"",""20496""
","""event"",""trial"",""time""
""focus"",""3"",""20671""
","""event"",""trial"",""time""
""fullscreenenter"",""5"",""27423""
","
","1084","","49","","","3000","1","2244,2823.4000000059605","48,48","images/tutgreenplanet.jpg","images/tutalien1","images/tutalien2","null","images/tutalien2","","NA","practice","null","","","",""
"d3-animate-choice","12","95720","0.0-12.0","386","839","25","Female","true","false","true","false","""event"",""trial"",""time""
""blur"",""3"",""20496""
""focus"",""3"",""20671""
""fullscreenenter"",""5"",""27423""
","""event"",""trial"",""time""
""blur"",""3"",""20496""
","""event"",""trial"",""time""
""focus"",""3"",""20671""
","""event"",""trial"",""time""
""fullscreenenter"",""5"",""27423""
","
","945.5999999940395","","48","","","3000","1","","","images/tutgreenplanet.jpg","images/tutalien1","images/tutalien2","null","images/tutalien1","","NA","practice","null","","","",""
"d3-animate-choice","13","98849","0.0-13.0","386","839","25","Female","true","false","true","false","""event"",""trial"",""time""
""blur"",""3"",""20496""
""focus"",""3"",""20671""
""fullscreenenter"",""5"",""27423""
","""event"",""trial"",""time""
""blur"",""3"",""20496""
","""event"",""trial"",""time""
""focus"",""3"",""20671""
","""event"",""trial"",""time""
""fullscreenenter"",""5"",""27423""
","
","1123","","49","","","3000","1","","","images/tutgreenplanet.jpg","images/tutalien1","images/tutalien2","null","images/tutalien2","","NA","practice","null","","","",""
"d3-animate-choice","14","101379","0.0-14.0","386","839","25","Female","true","false","true","false","""event"",""trial"",""time""
""blur"",""3"",""20496""
""focus"",""3"",""20671""
""fullscreenenter"",""5"",""27423""
","""event"",""trial"",""time""
""blur"",""3"",""20496""
","""event"",""trial"",""time""
""focus"",""3"",""20671""
","""event"",""trial"",""time""
""fullscreenenter"",""5"",""27423""
","
","523","","48","","","3000","1","","","images/tutgreenplanet.jpg","images/tutalien1","images/tutalien2","null","images/tutalien1","","NA","practice","null","","","",""
"d3-instructions","15","110236","0.0-15.0","386","839","25","Female","true","false","true","false","""event"",""trial"",""time""
""blur"",""3"",""20496""
""focus"",""3"",""20671""
""fullscreenenter"",""5"",""27423""
","""event"",""trial"",""time""
""blur"",""3"",""20496""
","""event"",""trial"",""time""
""focus"",""3"",""20671""
","""event"",""trial"",""time""
""fullscreenenter"",""5"",""27423""
","
","","","","","","","","","","","","","","","","","","","","","",""
"d3-instructions","16","117495","0.0-16.0","386","839","25","Female","true","false","true","false","""event"",""trial"",""time""
""blur"",""3"",""20496""
""focus"",""3"",""20671""
""fullscreenenter"",""5"",""27423""
","""event"",""trial"",""time""
""blur"",""3"",""20496""
","""event"",""trial"",""time""
""focus"",""3"",""20671""
","""event"",""trial"",""time""
""fullscreenenter"",""5"",""27423""
","
","","","","","","","","","","","","","","","","","","","","","",""
"d3-instructions","17","127044","0.0-17.0","386","839","25","Female","true","false","true","false","""event"",""trial"",""time""
""blur"",""3"",""20496""
""focus"",""3"",""20671""
""fullscreenenter"",""5"",""27423""
","""event"",""trial"",""time""
""blur"",""3"",""20496""
","""event"",""trial"",""time""
""focus"",""3"",""20671""
","""event"",""trial"",""time""
""fullscreenenter"",""5"",""27423""
","
","","","","","","","","","","","","","","","","","","","","","",""
"d3-instructions","18","140031","0.0-18.0","386","839","25","Female","true","false","true","false","""event"",""trial"",""time""
""blur"",""3"",""20496""
""focus"",""3"",""20671""
""fullscreenenter"",""5"",""27423""
","""event"",""trial"",""time""
""blur"",""3"",""20496""
","""event"",""trial"",""time""
""focus"",""3"",""20671""
","""event"",""trial"",""time""
""fullscreenenter"",""5"",""27423""
","
","","","","","","","","","","","","","","","","","","","","","",""
"d3-instructions","19","154283","0.0-19.0","386","839","25","Female","true","false","true","false","""event"",""trial"",""time""
""blur"",""3"",""20496""
""focus"",""3"",""20671""
""fullscreenenter"",""5"",""27423""
","""event"",""trial"",""time""
""blur"",""3"",""20496""
","""event"",""trial"",""time""
""focus"",""3"",""20671""
","""event"",""trial"",""time""
""fullscreenenter"",""5"",""27423""
","
","","","","","","","","","","","","","","","","","","","","","",""
"d3-animate-choice","20","157100","0.0-20.0","386","839","25","Female","true","false","true","false","""event"",""trial"",""time""
""blur"",""3"",""20496""
""focus"",""3"",""20671""
""fullscreenenter"",""5"",""27423""
","""event"",""trial"",""time""
""blur"",""3"",""20496""
","""event"",""trial"",""time""
""focus"",""3"",""20671""
","""event"",""trial"",""time""
""fullscreenenter"",""5"",""27423""
","
","814.2999999970198","","49","","","3000","1","","","images/tutyellowplanet.jpg","null","images/tutalien3","null","images/tutalien3","images/t.png","NA","practice","null","","","",""
"d3-animate-choice","21","159591","0.0-21.0","386","839","25","Female","true","false","true","false","""event"",""trial"",""time""
""blur"",""3"",""20496""
""focus"",""3"",""20671""
""fullscreenenter"",""5"",""27423""
","""event"",""trial"",""time""
""blur"",""3"",""20496""
","""event"",""trial"",""time""
""focus"",""3"",""20671""
","""event"",""trial"",""time""
""fullscreenenter"",""5"",""27423""
","
","488.79999999701977","","49","","","3000","1","","","images/tutyellowplanet.jpg","null","images/tutalien3","null","images/tutalien3","images/nothing.png","NA","practice","null","","","",""
"d3-animate-choice","22","161944","0.0-22.0","386","839","25","Female","true","false","true","false","""event"",""trial"",""time""
""blur"",""3"",""20496""
""focus"",""3"",""20671""
""fullscreenenter"",""5"",""27423""
","""event"",""trial"",""time""
""blur"",""3"",""20496""
","""event"",""trial"",""time""
""focus"",""3"",""20671""
","""event"",""trial"",""time""
""fullscreenenter"",""5"",""27423""
","
","346","","49","","","3000","1","","","images/tutyellowplanet.jpg","null","images/tutalien3","null","images/tutalien3","images/t.png","NA","practice","null","","","",""
"d3-animate-choice","23","164481","0.0-23.0","386","839","25","Female","true","false","true","false","""event"",""trial"",""time""
""blur"",""3"",""20496""
""focus"",""3"",""20671""
""fullscreenenter"",""5"",""27423""
","""event"",""trial"",""time""
""blur"",""3"",""20496""
","""event"",""trial"",""time""
""focus"",""3"",""20671""
","""event"",""trial"",""time""
""fullscreenenter"",""5"",""27423""
","
","532.7000000029802","","49","","","3000","1","","","images/tutyellowplanet.jpg","null","images/tutalien3","null","images/tutalien3","images/t.png","NA","practice","null","","","",""
"d3-animate-choice","24","166945","0.0-24.0","386","839","25","Female","true","false","true","false","""event"",""trial"",""time""
""blur"",""3"",""20496""
""focus"",""3"",""20671""
""fullscreenenter"",""5"",""27423""
","""event"",""trial"",""time""
""blur"",""3"",""20496""
","""event"",""trial"",""time""
""focus"",""3"",""20671""
","""event"",""trial"",""time""
""fullscreenenter"",""5"",""27423""
","
","456.09999999403954","","49","","","3000","1","","","images/tutyellowplanet.jpg","null","images/tutalien3","null","images/tutalien3","images/t.png","NA","practice","null","","","",""
"d3-animate-choice","25","169371","0.0-25.0","386","839","25","Female","true","false","true","false","""event"",""trial"",""time""
""blur"",""3"",""20496""
""focus"",""3"",""20671""
""fullscreenenter"",""5"",""27423""
","""event"",""trial"",""time""
""blur"",""3"",""20496""
","""event"",""trial"",""time""
""focus"",""3"",""20671""
","""event"",""trial"",""time""
""fullscreenenter"",""5"",""27423""
","
","419.5","","49","","","3000","1","","","images/tutyellowplanet.jpg","null","images/tutalien3","null","images/tutalien3","images/t.png","NA","practice","null","","","",""
"d3-animate-choice","26","171902","0.0-26.0","386","839","25","Female","true","false","true","false","""event"",""trial"",""time""
""blur"",""3"",""20496""
""focus"",""3"",""20671""
""fullscreenenter"",""5"",""27423""
","""event"",""trial"",""time""
""blur"",""3"",""20496""
","""event"",""trial"",""time""
""focus"",""3"",""20671""
","""event"",""trial"",""time""
""fullscreenenter"",""5"",""27423""
","
","525.5999999940395","","49","","","3000","1","","","images/tutyellowplanet.jpg","null","images/tutalien3","null","images/tutalien3","images/t.png","NA","practice","null","","","",""
"d3-animate-choice","27","174392","0.0-27.0","386","839","25","Female","true","false","true","false","""event"",""trial"",""time""
""blur"",""3"",""20496""
""focus"",""3"",""20671""
""fullscreenenter"",""5"",""27423""
","""event"",""trial"",""time""
""blur"",""3"",""20496""
","""event"",""trial"",""time""
""focus"",""3"",""20671""
","""event"",""trial"",""time""
""fullscreenenter"",""5"",""27423""
","
","486.20000000298023","","49","","","3000","1","","","images/tutyellowplanet.jpg","null","images/tutalien3","null","images/tutalien3","images/t.png","NA","practice","null","","","",""
"d3-animate-choice","28","176957","0.0-28.0","386","839","25","Female","true","false","true","false","""event"",""trial"",""time""
""blur"",""3"",""20496""
""focus"",""3"",""20671""
""fullscreenenter"",""5"",""27423""
","""event"",""trial"",""time""
""blur"",""3"",""20496""
","""event"",""trial"",""time""
""focus"",""3"",""20671""
","""event"",""trial"",""time""
""fullscreenenter"",""5"",""27423""
","
","561.5","","49","","","3000","1","","","images/tutyellowplanet.jpg","null","images/tutalien3","null","images/tutalien3","images/t.png","NA","practice","null","","","",""
"d3-animate-choice","29","179384","0.0-29.0","386","839","25","Female","true","false","true","false","""event"",""trial"",""time""
""blur"",""3"",""20496""
""focus"",""3"",""20671""
""fullscreenenter"",""5"",""27423""
","""event"",""trial"",""time""
""blur"",""3"",""20496""
","""event"",""trial"",""time""
""focus"",""3"",""20671""
","""event"",""trial"",""time""
""fullscreenenter"",""5"",""27423""
","
","422.40000000596046","","49","","","3000","1","","","images/tutyellowplanet.jpg","null","images/tutalien3","null","images/tutalien3","images/t.png","NA","practice","null","","","",""
"d3-instructions","30","185736","0.0-30.0","386","839","25","Female","true","false","true","false","""event"",""trial"",""time""
""blur"",""3"",""20496""
""focus"",""3"",""20671""
""fullscreenenter"",""5"",""27423""
","""event"",""trial"",""time""
""blur"",""3"",""20496""
","""event"",""trial"",""time""
""focus"",""3"",""20671""
","""event"",""trial"",""time""
""fullscreenenter"",""5"",""27423""
","
","","","","","","","","","","","","","","","","","","","","","",""
"d3-instructions","31","195549","0.0-31.0","386","839","25","Female","true","false","true","false","""event"",""trial"",""time""
""blur"",""3"",""20496""
""focus"",""3"",""20671""
""fullscreenenter"",""5"",""27423""
","""event"",""trial"",""time""
""blur"",""3"",""20496""
","""event"",""trial"",""time""
""focus"",""3"",""20671""
","""event"",""trial"",""time""
""fullscreenenter"",""5"",""27423""
","
","","","","","","","","","","","","","","","","","","","","","",""
"d3-instructions","32","205353","0.0-32.0","386","839","25","Female","true","false","true","false","""event"",""trial"",""time""
""blur"",""3"",""20496""
""focus"",""3"",""20671""
""fullscreenenter"",""5"",""27423""
","""event"",""trial"",""time""
""blur"",""3"",""20496""
","""event"",""trial"",""time""
""focus"",""3"",""20671""
","""event"",""trial"",""time""
""fullscreenenter"",""5"",""27423""
","
","","","","","","","","","","","","","","","","","","","","","",""
"d3-instructions","33","216684","0.0-33.0","386","839","25","Female","true","false","true","false","""event"",""trial"",""time""
""blur"",""3"",""20496""
""focus"",""3"",""20671""
""fullscreenenter"",""5"",""27423""
","""event"",""trial"",""time""
""blur"",""3"",""20496""
","""event"",""trial"",""time""
""focus"",""3"",""20671""
","""event"",""trial"",""time""
""fullscreenenter"",""5"",""27423""
","
","","","","","","","","","","","","","","","","","","","","","",""
"d3-animate-choice","34","219228","0.0-34.0","386","839","25","Female","true","false","true","false","""event"",""trial"",""time""
""blur"",""3"",""20496""
""focus"",""3"",""20671""
""fullscreenenter"",""5"",""27423""
","""event"",""trial"",""time""
""blur"",""3"",""20496""
","""event"",""trial"",""time""
""focus"",""3"",""20671""
","""event"",""trial"",""time""
""fullscreenenter"",""5"",""27423""
","
","537.8999999910593","","49","","","3000","1","","","images/tutgreenplanet.jpg","images/tutalien1","images/tutalien2","null","images/tutalien2","images/t.png","NA","practice","null","","","",""
"d3-animate-choice","35","221887","0.0-35.0","386","839","25","Female","true","false","true","false","""event"",""trial"",""time""
""blur"",""3"",""20496""
""focus"",""3"",""20671""
""fullscreenenter"",""5"",""27423""
","""event"",""trial"",""time""
""blur"",""3"",""20496""
","""event"",""trial"",""time""
""focus"",""3"",""20671""
","""event"",""trial"",""time""
""fullscreenenter"",""5"",""27423""
","
","653.8999999910593","","49","","","3000","1","","","images/tutgreenplanet.jpg","images/tutalien1","images/tutalien2","null","images/tutalien2","images/t.png","NA","practice","null","","","",""
"d3-animate-choice","36","224284","0.0-36.0","386","839","25","Female","true","false","true","false","""event"",""trial"",""time""
""blur"",""3"",""20496""
""focus"",""3"",""20671""
""fullscreenenter"",""5"",""27423""
","""event"",""trial"",""time""
""blur"",""3"",""20496""
","""event"",""trial"",""time""
""focus"",""3"",""20671""
","""event"",""trial"",""time""
""fullscreenenter"",""5"",""27423""
","
","391.59999999403954","","49","","","3000","1","","","images/tutgreenplanet.jpg","images/tutalien1","images/tutalien2","null","images/tutalien2","images/t.png","NA","practice","null","","","",""
"d3-animate-choice","37","226600","0.0-37.0","386","839","25","Female","true","false","true","false","""event"",""trial"",""time""
""blur"",""3"",""20496""
""focus"",""3"",""20671""
""fullscreenenter"",""5"",""27423""
","""event"",""trial"",""time""
""blur"",""3"",""20496""
","""event"",""trial"",""time""
""focus"",""3"",""20671""
","""event"",""trial"",""time""
""fullscreenenter"",""5"",""27423""
","
","309.80000001192093","","49","","","3000","1","","","images/tutgreenplanet.jpg","images/tutalien1","images/tutalien2","null","images/tutalien2","images/t.png","NA","practice","null","","","",""
"d3-animate-choice","38","228847","0.0-38.0","386","839","25","Female","true","false","true","false","""event"",""trial"",""time""
""blur"",""3"",""20496""
""focus"",""3"",""20671""
""fullscreenenter"",""5"",""27423""
","""event"",""trial"",""time""
""blur"",""3"",""20496""
","""event"",""trial"",""time""
""focus"",""3"",""20671""
","""event"",""trial"",""time""
""fullscreenenter"",""5"",""27423""
","
","239.1000000089407","","49","","","3000","1","","","images/tutgreenplanet.jpg","images/tutalien1","images/tutalien2","null","images/tutalien2","images/t.png","NA","practice","null","","","",""
"d3-animate-choice","39","231087","0.0-39.0","386","839","25","Female","true","false","true","false","""event"",""trial"",""time""
""blur"",""3"",""20496""
""focus"",""3"",""20671""
""fullscreenenter"",""5"",""27423""
","""event"",""trial"",""time""
""blur"",""3"",""20496""
","""event"",""trial"",""time""
""focus"",""3"",""20671""
","""event"",""trial"",""time""
""fullscreenenter"",""5"",""27423""
","
","234.6000000089407","","49","","","3000","1","","","images/tutgreenplanet.jpg","images/tutalien1","images/tutalien2","null","images/tutalien2","images/t.png","NA","practice","null","","","",""
"d3-animate-choice","40","233363","0.0-40.0","386","839","25","Female","true","false","true","false","""event"",""trial"",""time""
""blur"",""3"",""20496""
""focus"",""3"",""20671""
""fullscreenenter"",""5"",""27423""
","""event"",""trial"",""time""
""blur"",""3"",""20496""
","""event"",""trial"",""time""
""focus"",""3"",""20671""
","""event"",""trial"",""time""
""fullscreenenter"",""5"",""27423""
","
","271.29999999701977","","49","","","3000","1","1706.8999999910593","49","images/tutgreenplanet.jpg","images/tutalien1","images/tutalien2","null","images/tutalien2","images/t.png","NA","practice","null","","","",""
"d3-animate-choice","41","235721","0.0-41.0","386","839","25","Female","true","false","true","false","""event"",""trial"",""time""
""blur"",""3"",""20496""
""focus"",""3"",""20671""
""fullscreenenter"",""5"",""27423""
","""event"",""trial"",""time""
""blur"",""3"",""20496""
","""event"",""trial"",""time""
""focus"",""3"",""20671""
","""event"",""trial"",""time""
""fullscreenenter"",""5"",""27423""
","
","355.20000000298023","","49","","","3000","1","","","images/tutgreenplanet.jpg","images/tutalien1","images/tutalien2","null","images/tutalien2","images/nothing.png","NA","practice","null","","","",""
"d3-animate-choice","42","238063","0.0-42.0","386","839","25","Female","true","false","true","false","""event"",""trial"",""time""
""blur"",""3"",""20496""
""focus"",""3"",""20671""
""fullscreenenter"",""5"",""27423""
","""event"",""trial"",""time""
""blur"",""3"",""20496""
","""event"",""trial"",""time""
""focus"",""3"",""20671""
","""event"",""trial"",""time""
""fullscreenenter"",""5"",""27423""
","
","336.70000000298023","","49","","","3000","1","","","images/tutgreenplanet.jpg","images/tutalien1","images/tutalien2","null","images/tutalien2","images/t.png","NA","practice","null","","","",""
"d3-animate-choice","43","240369","0.0-43.0","386","839","25","Female","true","false","true","false","""event"",""trial"",""time""
""blur"",""3"",""20496""
""focus"",""3"",""20671""
""fullscreenenter"",""5"",""27423""
","""event"",""trial"",""time""
""blur"",""3"",""20496""
","""event"",""trial"",""time""
""focus"",""3"",""20671""
","""event"",""trial"",""time""
""fullscreenenter"",""5"",""27423""
","
","303.90000000596046","","49","","","3000","1","1834.7000000029802","49","images/tutgreenplanet.jpg","images/tutalien1","images/tutalien2","null","images/tutalien2","images/t.png","NA","practice","null","","","",""
"d3-instructions","44","296421","0.0-44.0","386","839","25","Female","true","false","true","false","""event"",""trial"",""time""
""blur"",""3"",""20496""
""focus"",""3"",""20671""
""fullscreenenter"",""5"",""27423""
","""event"",""trial"",""time""
""blur"",""3"",""20496""
","""event"",""trial"",""time""
""focus"",""3"",""20671""
","""event"",""trial"",""time""
""fullscreenenter"",""5"",""27423""
","
","","","","","","","","","","","","","","","","","","","","","",""
"d3-instructions","45","304129","0.0-45.0","386","839","25","Female","true","false","true","false","""event"",""trial"",""time""
""blur"",""3"",""20496""
""focus"",""3"",""20671""
""fullscreenenter"",""5"",""27423""
","""event"",""trial"",""time""
""blur"",""3"",""20496""
","""event"",""trial"",""time""
""focus"",""3"",""20671""
","""event"",""trial"",""time""
""fullscreenenter"",""5"",""27423""
","
","","","","","","","","","","","","","","","","","","","","","",""
"d3-instructions","46","317181","0.0-46.0","386","839","25","Female","true","false","true","false","""event"",""trial"",""time""
""blur"",""3"",""20496""
""focus"",""3"",""20671""
""fullscreenenter"",""5"",""27423""
","""event"",""trial"",""time""
""blur"",""3"",""20496""
","""event"",""trial"",""time""
""focus"",""3"",""20671""
","""event"",""trial"",""time""
""fullscreenenter"",""5"",""27423""
","
","","","","","","","","","","","","","","","","","","","","","",""
"d3-instructions","47","340999","0.0-47.0","386","839","25","Female","true","false","true","false","""event"",""trial"",""time""
""blur"",""3"",""20496""
""focus"",""3"",""20671""
""fullscreenenter"",""5"",""27423""
","""event"",""trial"",""time""
""blur"",""3"",""20496""
","""event"",""trial"",""time""
""focus"",""3"",""20671""
","""event"",""trial"",""time""
""fullscreenenter"",""5"",""27423""
","
","","","","","","","","","","","","","","","","","","","","","",""
"d3-instructions","48","348715","0.0-48.0","386","839","25","Female","true","false","true","false","""event"",""trial"",""time""
""blur"",""3"",""20496""
""focus"",""3"",""20671""
""fullscreenenter"",""5"",""27423""
","""event"",""trial"",""time""
""blur"",""3"",""20496""
","""event"",""trial"",""time""
""focus"",""3"",""20671""
","""event"",""trial"",""time""
""fullscreenenter"",""5"",""27423""
","
","","","","","","","","","","","","","","","","","","","","","",""
"d3-instructions","49","360191","0.0-49.0","386","839","25","Female","true","false","true","false","""event"",""trial"",""time""
""blur"",""3"",""20496""
""focus"",""3"",""20671""
""fullscreenenter"",""5"",""27423""
","""event"",""trial"",""time""
""blur"",""3"",""20496""
","""event"",""trial"",""time""
""focus"",""3"",""20671""
","""event"",""trial"",""time""
""fullscreenenter"",""5"",""27423""
","
","","","","","","","","","","","","","","","","","","","","","",""
"d3-instructions","50","369580","0.0-50.0","386","839","25","Female","true","false","true","false","""event"",""trial"",""time""
""blur"",""3"",""20496""
""focus"",""3"",""20671""
""fullscreenenter"",""5"",""27423""
","""event"",""trial"",""time""
""blur"",""3"",""20496""
","""event"",""trial"",""time""
""focus"",""3"",""20671""
","""event"",""trial"",""time""
""fullscreenenter"",""5"",""27423""
","
","","","","","","","","","","","","","","","","","","","","","",""
"d3-instructions","51","374422","0.0-51.0","386","839","25","Female","true","false","true","false","""event"",""trial"",""time""
""blur"",""3"",""20496""
""focus"",""3"",""20671""
""fullscreenenter"",""5"",""27423""
","""event"",""trial"",""time""
""blur"",""3"",""20496""
","""event"",""trial"",""time""
""focus"",""3"",""20671""
","""event"",""trial"",""time""
""fullscreenenter"",""5"",""27423""
","
","","","","","","","","","","","","","","","","","","","","","",""
"d3-instructions","52","377106","0.0-52.0","386","839","25","Female","true","false","true","false","""event"",""trial"",""time""
""blur"",""3"",""20496""
""focus"",""3"",""20671""
""fullscreenenter"",""5"",""27423""
","""event"",""trial"",""time""
""blur"",""3"",""20496""
","""event"",""trial"",""time""
""focus"",""3"",""20671""
","""event"",""trial"",""time""
""fullscreenenter"",""5"",""27423""
","
","","","","","","","","","","","","","","","","","","","","","",""
"d3-instructions","53","390829","0.0-53.0","386","839","25","Female","true","false","true","false","""event"",""trial"",""time""
""blur"",""3"",""20496""
""focus"",""3"",""20671""
""fullscreenenter"",""5"",""27423""
","""event"",""trial"",""time""
""blur"",""3"",""20496""
","""event"",""trial"",""time""
""focus"",""3"",""20671""
","""event"",""trial"",""time""
""fullscreenenter"",""5"",""27423""
","
","","","","","","","","","","","","","","","","","","","","","",""
"d3-instructions","54","403378","0.0-54.0","386","839","25","Female","true","false","true","false","""event"",""trial"",""time""
""blur"",""3"",""20496""
""focus"",""3"",""20671""
""fullscreenenter"",""5"",""27423""
","""event"",""trial"",""time""
""blur"",""3"",""20496""
","""event"",""trial"",""time""
""focus"",""3"",""20671""
","""event"",""trial"",""time""
""fullscreenenter"",""5"",""27423""
","
","","","","","","","","","","","","","","","","","","","","","",""
"d3-instructions","55","413357","0.0-55.0","386","839","25","Female","true","false","true","false","""event"",""trial"",""time""
""blur"",""3"",""20496""
""focus"",""3"",""20671""
""fullscreenenter"",""5"",""27423""
","""event"",""trial"",""time""
""blur"",""3"",""20496""
","""event"",""trial"",""time""
""focus"",""3"",""20671""
","""event"",""trial"",""time""
""fullscreenenter"",""5"",""27423""
","
","","","","","","","","","","","","","","","","","","","","","",""
"d3-instructions","56","421465","0.0-56.0","386","839","25","Female","true","false","true","false","""event"",""trial"",""time""
""blur"",""3"",""20496""
""focus"",""3"",""20671""
""fullscreenenter"",""5"",""27423""
","""event"",""trial"",""time""
""blur"",""3"",""20496""
","""event"",""trial"",""time""
""focus"",""3"",""20671""
","""event"",""trial"",""time""
""fullscreenenter"",""5"",""27423""
","
","","","","","","","","","","","","","","","","","","","","","",""
"d3-instructions","57","432124","0.0-57.0","386","839","25","Female","true","false","true","false","""event"",""trial"",""time""
""blur"",""3"",""20496""
""focus"",""3"",""20671""
""fullscreenenter"",""5"",""27423""
","""event"",""trial"",""time""
""blur"",""3"",""20496""
","""event"",""trial"",""time""
""focus"",""3"",""20671""
","""event"",""trial"",""time""
""fullscreenenter"",""5"",""27423""
","
","","","","","","","","","","","","","","","","","","","","","",""
"d3-instructions","58","442872","0.0-58.0","386","839","25","Female","true","false","true","false","""event"",""trial"",""time""
""blur"",""3"",""20496""
""focus"",""3"",""20671""
""fullscreenenter"",""5"",""27423""
","""event"",""trial"",""time""
""blur"",""3"",""20496""
","""event"",""trial"",""time""
""focus"",""3"",""20671""
","""event"",""trial"",""time""
""fullscreenenter"",""5"",""27423""
","
","","","","","","","","","","","","","","","","","","","","","",""
"d3-instructions","59","447595","0.0-59.0","386","839","25","Female","true","false","true","false","""event"",""trial"",""time""
""blur"",""3"",""20496""
""focus"",""3"",""20671""
""fullscreenenter"",""5"",""27423""
","""event"",""trial"",""time""
""blur"",""3"",""20496""
","""event"",""trial"",""time""
""focus"",""3"",""20671""
","""event"",""trial"",""time""
""fullscreenenter"",""5"",""27423""
","
","","","","","","","","","","","","","","","","","","","","","",""
"d3-instructions","60","454535","0.0-60.0","386","839","25","Female","true","false","true","false","""event"",""trial"",""time""
""blur"",""3"",""20496""
""focus"",""3"",""20671""
""fullscreenenter"",""5"",""27423""
","""event"",""trial"",""time""
""blur"",""3"",""20496""
","""event"",""trial"",""time""
""focus"",""3"",""20671""
","""event"",""trial"",""time""
""fullscreenenter"",""5"",""27423""
","
","","","","","","","","","","","","","","","","","","","","","",""
"d3-animate-choice","61","457026","0.0-61.0-0.0","386","839","25","Female","true","false","true","false","""event"",""trial"",""time""
""blur"",""3"",""20496""
""focus"",""3"",""20671""
""fullscreenenter"",""5"",""27423""
","""event"",""trial"",""time""
""blur"",""3"",""20496""
","""event"",""trial"",""time""
""focus"",""3"",""20671""
","""event"",""trial"",""time""
""fullscreenenter"",""5"",""27423""
","
","484.8999999910593","","49","","","3000","1","","","images/earth.jpg","images/tutrocket1","images/tutrocket2","null","images/tutrocket2","","1","practice","null","1","","",""
"d3-animate-choice","62","460157","0.0-61.0-1.0","386","839","25","Female","true","false","true","false","""event"",""trial"",""time""
""blur"",""3"",""20496""
""focus"",""3"",""20671""
""fullscreenenter"",""5"",""27423""
","""event"",""trial"",""time""
""blur"",""3"",""20496""
","""event"",""trial"",""time""
""focus"",""3"",""20671""
","""event"",""trial"",""time""
""fullscreenenter"",""5"",""27423""
","
","1125.7999999970198","","49","","","3000","1","","","images/tutgreenplanet.jpg","images/tutalien2","images/tutalien1","images/tutrocket2","images/tutalien1","images/t.png","2","practice","true","1","common","1","2022-02-22 19:27:18.566"
"two-step-fixation","63","461161","0.0-61.0-2.0","386","839","25","Female","true","false","true","false","""event"",""trial"",""time""
""blur"",""3"",""20496""
""focus"",""3"",""20671""
""fullscreenenter"",""5"",""27423""
","""event"",""trial"",""time""
""blur"",""3"",""20496""
","""event"",""trial"",""time""
""focus"",""3"",""20671""
","""event"",""trial"",""time""
""fullscreenenter"",""5"",""27423""
","
","","images/earth.jpg","","","","","","","","","","","","","","fixation","","","","","",""
"d3-animate-choice","64","464220","0.0-61.0-0.1","386","839","25","Female","true","false","true","false","""event"",""trial"",""time""
""blur"",""3"",""20496""
""focus"",""3"",""20671""
""fullscreenenter"",""5"",""27423""
","""event"",""trial"",""time""
""blur"",""3"",""20496""
","""event"",""trial"",""time""
""focus"",""3"",""20671""
","""event"",""trial"",""time""
""fullscreenenter"",""5"",""27423""
","
","1052.699999988079","","48","","","3000","1","","","images/earth.jpg","images/tutrocket1","images/tutrocket2","null","images/tutrocket1","","1","practice","null","2","","",""
"d3-animate-choice","65","467405","0.0-61.0-1.1","386","839","25","Female","true","false","true","false","""event"",""trial"",""time""
""blur"",""3"",""20496""
""focus"",""3"",""20671""
""fullscreenenter"",""5"",""27423""
","""event"",""trial"",""time""
""blur"",""3"",""20496""
","""event"",""trial"",""time""
""focus"",""3"",""20671""
","""event"",""trial"",""time""
""fullscreenenter"",""5"",""27423""
","
","1178.0999999940395","","49","","","3000","1","","","images/tutyellowplanet.jpg","images/tutalien4","images/tutalien3","images/tutrocket1","images/tutalien3","images/t.png","2","practice","true","1","common","1","2022-02-22 19:27:25.814"
"two-step-fixation","66","468411","0.0-61.0-2.1","386","839","25","Female","true","false","true","false","""event"",""trial"",""time""
""blur"",""3"",""20496""
""focus"",""3"",""20671""
""fullscreenenter"",""5"",""27423""
","""event"",""trial"",""time""
""blur"",""3"",""20496""
","""event"",""trial"",""time""
""focus"",""3"",""20671""
","""event"",""trial"",""time""
""fullscreenenter"",""5"",""27423""
","
","","images/earth.jpg","","","","","","","","","","","","","","fixation","","","","","",""
"d3-animate-choice","67","471603","0.0-61.0-0.2","386","839","25","Female","true","false","true","false","""event"",""trial"",""time""
""blur"",""3"",""20496""
""focus"",""3"",""20671""
""fullscreenenter"",""5"",""27423""
","""event"",""trial"",""time""
""blur"",""3"",""20496""
","""event"",""trial"",""time""
""focus"",""3"",""20671""
","""event"",""trial"",""time""
""fullscreenenter"",""5"",""27423""
","
","1188.7999999970198","","49","","","3000","1","","","images/earth.jpg","images/tutrocket1","images/tutrocket2","null","images/tutrocket2","","1","practice","null","1","","",""
"d3-animate-choice","68","474889","0.0-61.0-1.2","386","839","25","Female","true","false","true","false","""event"",""trial"",""time""
""blur"",""3"",""20496""
""focus"",""3"",""20671""
""fullscreenenter"",""5"",""27423""
","""event"",""trial"",""time""
""blur"",""3"",""20496""
","""event"",""trial"",""time""
""focus"",""3"",""20671""
","""event"",""trial"",""time""
""fullscreenenter"",""5"",""27423""
","
","1281.4000000059605","","49","","","3000","1","","","images/tutgreenplanet.jpg","images/tutalien2","images/tutalien1","images/tutrocket2","images/tutalien1","images/nothing.png","2","practice","true","1","common","0","2022-02-22 19:27:33.298"
"two-step-fixation","69","475893","0.0-61.0-2.2","386","839","25","Female","true","false","true","false","""event"",""trial"",""time""
""blur"",""3"",""20496""
""focus"",""3"",""20671""
""fullscreenenter"",""5"",""27423""
","""event"",""trial"",""time""
""blur"",""3"",""20496""
","""event"",""trial"",""time""
""focus"",""3"",""20671""
","""event"",""trial"",""time""
""fullscreenenter"",""5"",""27423""
","
","","images/earth.jpg","","","","","","","","","","","","","","fixation","","","","","",""
"d3-animate-choice","70","478836","0.0-61.0-0.3","386","839","25","Female","true","false","true","false","""event"",""trial"",""time""
""blur"",""3"",""20496""
""focus"",""3"",""20671""
""fullscreenenter"",""5"",""27423""
","""event"",""trial"",""time""
""blur"",""3"",""20496""
","""event"",""trial"",""time""
""focus"",""3"",""20671""
","""event"",""trial"",""time""
""fullscreenenter"",""5"",""27423""
","
","939.6000000089407","","49","","","3000","1","","","images/earth.jpg","images/tutrocket1","images/tutrocket2","null","images/tutrocket2","","1","practice","null","1","","",""
"d3-animate-choice","71","482688","0.0-61.0-1.3","386","839","25","Female","true","false","true","false","""event"",""trial"",""time""
""blur"",""3"",""20496""
""focus"",""3"",""20671""
""fullscreenenter"",""5"",""27423""
","""event"",""trial"",""time""
""blur"",""3"",""20496""
","""event"",""trial"",""time""
""focus"",""3"",""20671""
","""event"",""trial"",""time""
""fullscreenenter"",""5"",""27423""
","
","1848.0999999940395","","48","","","3000","1","","","images/tutyellowplanet.jpg","images/tutalien4","images/tutalien3","images/tutrocket2","images/tutalien4","images/nothing.png","2","practice","false","2","rare","0","2022-02-22 19:27:41.097"
"two-step-fixation","72","483692","0.0-61.0-2.3","386","839","25","Female","true","false","true","false","""event"",""trial"",""time""
""blur"",""3"",""20496""
""focus"",""3"",""20671""
""fullscreenenter"",""5"",""27423""
","""event"",""trial"",""time""
""blur"",""3"",""20496""
","""event"",""trial"",""time""
""focus"",""3"",""20671""
","""event"",""trial"",""time""
""fullscreenenter"",""5"",""27423""
","
","","images/earth.jpg","","","","","","","","","","","","","","fixation","","","","","",""
"d3-animate-choice","73","486316","0.0-61.0-0.4","386","839","25","Female","true","false","true","false","""event"",""trial"",""time""
""blur"",""3"",""20496""
""focus"",""3"",""20671""
""fullscreenenter"",""5"",""27423""
","""event"",""trial"",""time""
""blur"",""3"",""20496""
","""event"",""trial"",""time""
""focus"",""3"",""20671""
","""event"",""trial"",""time""
""fullscreenenter"",""5"",""27423""
","
","619.6999999880791","","48","","","3000","1","","","images/earth.jpg","images/tutrocket1","images/tutrocket2","null","images/tutrocket1","","1","practice","null","2","","",""
"d3-animate-choice","74","489907","0.0-61.0-1.4","386","839","25","Female","true","false","true","false","""event"",""trial"",""time""
""blur"",""3"",""20496""
""focus"",""3"",""20671""
""fullscreenenter"",""5"",""27423""
","""event"",""trial"",""time""
""blur"",""3"",""20496""
","""event"",""trial"",""time""
""focus"",""3"",""20671""
","""event"",""trial"",""time""
""fullscreenenter"",""5"",""27423""
","
","1585.2000000029802","","49","","","3000","1","","","images/tutyellowplanet.jpg","images/tutalien4","images/tutalien3","images/tutrocket1","images/tutalien3","images/nothing.png","2","practice","true","1","common","0","2022-02-22 19:27:48.316"
"two-step-fixation","75","490911","0.0-61.0-2.4","386","839","25","Female","true","false","true","false","""event"",""trial"",""time""
""blur"",""3"",""20496""
""focus"",""3"",""20671""
""fullscreenenter"",""5"",""27423""
","""event"",""trial"",""time""
""blur"",""3"",""20496""
","""event"",""trial"",""time""
""focus"",""3"",""20671""
","""event"",""trial"",""time""
""fullscreenenter"",""5"",""27423""
","
","","images/earth.jpg","","","","","","","","","","","","","","fixation","","","","","",""
"d3-animate-choice","76","494127","0.0-61.0-0.5","386","839","25","Female","true","false","true","false","""event"",""trial"",""time""
""blur"",""3"",""20496""
""focus"",""3"",""20671""
""fullscreenenter"",""5"",""27423""
","""event"",""trial"",""time""
""blur"",""3"",""20496""
","""event"",""trial"",""time""
""focus"",""3"",""20671""
","""event"",""trial"",""time""
""fullscreenenter"",""5"",""27423""
","
","1212.7999999970198","","48","","","3000","1","","","images/earth.jpg","images/tutrocket1","images/tutrocket2","null","images/tutrocket1","","1","practice","null","2","","",""
"d3-animate-choice","77","498132","0.0-61.0-1.5","386","839","25","Female","true","false","true","false","""event"",""trial"",""time""
""blur"",""3"",""20496""
""focus"",""3"",""20671""
""fullscreenenter"",""5"",""27423""
","""event"",""trial"",""time""
""blur"",""3"",""20496""
","""event"",""trial"",""time""
""focus"",""3"",""20671""
","""event"",""trial"",""time""
""fullscreenenter"",""5"",""27423""
","
","2876.6000000089407","","49","","","3000","1","","","images/tutgreenplanet.jpg","images/tutalien2","images/tutalien1","images/tutrocket1","images/tutalien1","","2","practice","false","1","rare","0","2022-02-22 19:27:56.541"
"two-step-fixation","78","499137","0.0-61.0-2.5","386","839","25","Female","true","false","true","false","""event"",""trial"",""time""
""blur"",""3"",""20496""
""focus"",""3"",""20671""
""fullscreenenter"",""5"",""27423""
","""event"",""trial"",""time""
""blur"",""3"",""20496""
","""event"",""trial"",""time""
""focus"",""3"",""20671""
","""event"",""trial"",""time""
""fullscreenenter"",""5"",""27423""
","
","","images/earth.jpg","","","","","","","","","","","","","","fixation","","","","","",""
"d3-animate-choice","79","502004","0.0-61.0-0.6","386","839","25","Female","true","false","true","false","""event"",""trial"",""time""
""blur"",""3"",""20496""
""focus"",""3"",""20671""
""fullscreenenter"",""5"",""27423""
","""event"",""trial"",""time""
""blur"",""3"",""20496""
","""event"",""trial"",""time""
""focus"",""3"",""20671""
","""event"",""trial"",""time""
""fullscreenenter"",""5"",""27423""
","
","862.8999999910593","","49","","","3000","1","","","images/earth.jpg","images/tutrocket1","images/tutrocket2","null","images/tutrocket2","","1","practice","null","1","","",""
"d3-animate-choice","80","505098","0.0-61.0-1.6","386","839","25","Female","true","false","true","false","""event"",""trial"",""time""
""blur"",""3"",""20496""
""focus"",""3"",""20671""
""fullscreenenter"",""5"",""27423""
","""event"",""trial"",""time""
""blur"",""3"",""20496""
","""event"",""trial"",""time""
""focus"",""3"",""20671""
","""event"",""trial"",""time""
""fullscreenenter"",""5"",""27423""
","
","1087.5","","48","","","3000","1","","","images/tutgreenplanet.jpg","images/tutalien2","images/tutalien1","images/tutrocket2","images/tutalien2","images/nothing.png","2","practice","true","2","common","0","2022-02-22 19:28:03.507"
"two-step-fixation","81","506102","0.0-61.0-2.6","386","839","25","Female","true","false","true","false","""event"",""trial"",""time""
""blur"",""3"",""20496""
""focus"",""3"",""20671""
""fullscreenenter"",""5"",""27423""
","""event"",""trial"",""time""
""blur"",""3"",""20496""
","""event"",""trial"",""time""
""focus"",""3"",""20671""
","""event"",""trial"",""time""
""fullscreenenter"",""5"",""27423""
","
","","images/earth.jpg","","","","","","","","","","","","","","fixation","","","","","",""
"d3-animate-choice","82","508674","0.0-61.0-0.7","386","839","25","Female","true","false","true","false","""event"",""trial"",""time""
""blur"",""3"",""20496""
""focus"",""3"",""20671""
""fullscreenenter"",""5"",""27423""
","""event"",""trial"",""time""
""blur"",""3"",""20496""
","""event"",""trial"",""time""
""focus"",""3"",""20671""
","""event"",""trial"",""time""
""fullscreenenter"",""5"",""27423""
","
","565.0999999940395","","49","","","3000","1","","","images/earth.jpg","images/tutrocket1","images/tutrocket2","null","images/tutrocket2","","1","practice","null","1","","",""
"d3-animate-choice","83","511356","0.0-61.0-1.7","386","839","25","Female","true","false","true","false","""event"",""trial"",""time""
""blur"",""3"",""20496""
""focus"",""3"",""20671""
""fullscreenenter"",""5"",""27423""
","""event"",""trial"",""time""
""blur"",""3"",""20496""
","""event"",""trial"",""time""
""focus"",""3"",""20671""
","""event"",""trial"",""time""
""fullscreenenter"",""5"",""27423""
","
","677","","49","","","3000","1","","","images/tutgreenplanet.jpg","images/tutalien2","images/tutalien1","images/tutrocket2","images/tutalien1","images/t.png","2","practice","true","1","common","1","2022-02-22 19:28:09.765"
"two-step-fixation","84","512360","0.0-61.0-2.7","386","839","25","Female","true","false","true","false","""event"",""trial"",""time""
""blur"",""3"",""20496""
""focus"",""3"",""20671""
""fullscreenenter"",""5"",""27423""
","""event"",""trial"",""time""
""blur"",""3"",""20496""
","""event"",""trial"",""time""
""focus"",""3"",""20671""
","""event"",""trial"",""time""
""fullscreenenter"",""5"",""27423""
","
","","images/earth.jpg","","","","","","","","","","","","","","fixation","","","","","",""
"d3-animate-choice","85","514696","0.0-61.0-0.8","386","839","25","Female","true","false","true","false","""event"",""trial"",""time""
""blur"",""3"",""20496""
""focus"",""3"",""20671""
""fullscreenenter"",""5"",""27423""
","""event"",""trial"",""time""
""blur"",""3"",""20496""
","""event"",""trial"",""time""
""focus"",""3"",""20671""
","""event"",""trial"",""time""
""fullscreenenter"",""5"",""27423""
","
","331.79999999701977","","49","","","3000","1","","","images/earth.jpg","images/tutrocket1","images/tutrocket2","null","images/tutrocket2","","1","practice","null","1","","",""
"d3-animate-choice","86","517358","0.0-61.0-1.8","386","839","25","Female","true","false","true","false","""event"",""trial"",""time""
""blur"",""3"",""20496""
""focus"",""3"",""20671""
""fullscreenenter"",""5"",""27423""
","""event"",""trial"",""time""
""blur"",""3"",""20496""
","""event"",""trial"",""time""
""focus"",""3"",""20671""
","""event"",""trial"",""time""
""fullscreenenter"",""5"",""27423""
","
","654.2999999970198","","49","","","3000","1","","","images/tutgreenplanet.jpg","images/tutalien2","images/tutalien1","images/tutrocket2","images/tutalien1","images/t.png","2","practice","true","1","common","1","2022-02-22 19:28:15.767"
"two-step-fixation","87","518362","0.0-61.0-2.8","386","839","25","Female","true","false","true","false","""event"",""trial"",""time""
""blur"",""3"",""20496""
""focus"",""3"",""20671""
""fullscreenenter"",""5"",""27423""
","""event"",""trial"",""time""
""blur"",""3"",""20496""
","""event"",""trial"",""time""
""focus"",""3"",""20671""
","""event"",""trial"",""time""
""fullscreenenter"",""5"",""27423""
","
","","images/earth.jpg","","","","","","","","","","","","","","fixation","","","","","",""
"d3-animate-choice","88","520800","0.0-61.0-0.9","386","839","25","Female","true","false","true","false","""event"",""trial"",""time""
""blur"",""3"",""20496""
""focus"",""3"",""20671""
""fullscreenenter"",""5"",""27423""
","""event"",""trial"",""time""
""blur"",""3"",""20496""
","""event"",""trial"",""time""
""focus"",""3"",""20671""
","""event"",""trial"",""time""
""fullscreenenter"",""5"",""27423""
","
","432.70000000298023","","49","","","3000","1","","","images/earth.jpg","images/tutrocket1","images/tutrocket2","null","images/tutrocket2","","1","practice","null","1","","",""
"d3-animate-choice","89","523348","0.0-61.0-1.9","386","839","25","Female","true","false","true","false","""event"",""trial"",""time""
""blur"",""3"",""20496""
""focus"",""3"",""20671""
""fullscreenenter"",""5"",""27423""
","""event"",""trial"",""time""
""blur"",""3"",""20496""
","""event"",""trial"",""time""
""focus"",""3"",""20671""
","""event"",""trial"",""time""
""fullscreenenter"",""5"",""27423""
","
","542.2999999970198","","49","","","3000","1","","","images/tutgreenplanet.jpg","images/tutalien2","images/tutalien1","images/tutrocket2","images/tutalien1","images/nothing.png","2","practice","true","1","common","0","2022-02-22 19:28:21.757"
"two-step-fixation","90","524353","0.0-61.0-2.9","386","839","25","Female","true","false","true","false","""event"",""trial"",""time""
""blur"",""3"",""20496""
""focus"",""3"",""20671""
""fullscreenenter"",""5"",""27423""
","""event"",""trial"",""time""
""blur"",""3"",""20496""
","""event"",""trial"",""time""
""focus"",""3"",""20671""
","""event"",""trial"",""time""
""fullscreenenter"",""5"",""27423""
","
","","images/earth.jpg","","","","","","","","","","","","","","fixation","","","","","",""
"d3-animate-choice","91","526808","0.0-61.0-0.10","386","839","25","Female","true","false","true","false","""event"",""trial"",""time""
""blur"",""3"",""20496""
""focus"",""3"",""20671""
""fullscreenenter"",""5"",""27423""
","""event"",""trial"",""time""
""blur"",""3"",""20496""
","""event"",""trial"",""time""
""focus"",""3"",""20671""
","""event"",""trial"",""time""
""fullscreenenter"",""5"",""27423""
","
","450.5","","49","","","3000","1","","","images/earth.jpg","images/tutrocket1","images/tutrocket2","null","images/tutrocket2","","1","practice","null","1","","",""
"d3-animate-choice","92","529873","0.0-61.0-1.10","386","839","25","Female","true","false","true","false","""event"",""trial"",""time""
""blur"",""3"",""20496""
""focus"",""3"",""20671""
""fullscreenenter"",""5"",""27423""
","""event"",""trial"",""time""
""blur"",""3"",""20496""
","""event"",""trial"",""time""
""focus"",""3"",""20671""
","""event"",""trial"",""time""
""fullscreenenter"",""5"",""27423""
","
","1058.7000000029802","","48","","","3000","1","","","images/tutyellowplanet.jpg","images/tutalien4","images/tutalien3","images/tutrocket2","images/tutalien4","images/t.png","2","practice","false","2","rare","1","2022-02-22 19:28:28.282"
"two-step-fixation","93","530877","0.0-61.0-2.10","386","839","25","Female","true","false","true","false","""event"",""trial"",""time""
""blur"",""3"",""20496""
""focus"",""3"",""20671""
""fullscreenenter"",""5"",""27423""
","""event"",""trial"",""time""
""blur"",""3"",""20496""
","""event"",""trial"",""time""
""focus"",""3"",""20671""
","""event"",""trial"",""time""
""fullscreenenter"",""5"",""27423""
","
","","images/earth.jpg","","","","","","","","","","","","","","fixation","","","","","",""
"d3-animate-choice","94","533542","0.0-61.0-0.11","386","839","25","Female","true","false","true","false","""event"",""trial"",""time""
""blur"",""3"",""20496""
""focus"",""3"",""20671""
""fullscreenenter"",""5"",""27423""
","""event"",""trial"",""time""
""blur"",""3"",""20496""
","""event"",""trial"",""time""
""focus"",""3"",""20671""
","""event"",""trial"",""time""
""fullscreenenter"",""5"",""27423""
","
","661.0999999940395","","49","","","3000","1","","","images/earth.jpg","images/tutrocket1","images/tutrocket2","null","images/tutrocket2","","1","practice","null","1","","",""
"d3-animate-choice","95","536113","0.0-61.0-1.11","386","839","25","Female","true","false","true","false","""event"",""trial"",""time""
""blur"",""3"",""20496""
""focus"",""3"",""20671""
""fullscreenenter"",""5"",""27423""
","""event"",""trial"",""time""
""blur"",""3"",""20496""
","""event"",""trial"",""time""
""focus"",""3"",""20671""
","""event"",""trial"",""time""
""fullscreenenter"",""5"",""27423""
","
","568.2999999970198","","49","","","3000","1","","","images/tutgreenplanet.jpg","images/tutalien2","images/tutalien1","images/tutrocket2","images/tutalien1","images/nothing.png","2","practice","true","1","common","0","2022-02-22 19:28:34.522"
"two-step-fixation","96","537117","0.0-61.0-2.11","386","839","25","Female","true","false","true","false","""event"",""trial"",""time""
""blur"",""3"",""20496""
""focus"",""3"",""20671""
""fullscreenenter"",""5"",""27423""
","""event"",""trial"",""time""
""blur"",""3"",""20496""
","""event"",""trial"",""time""
""focus"",""3"",""20671""
","""event"",""trial"",""time""
""fullscreenenter"",""5"",""27423""
","
","","images/earth.jpg","","","","","","","","","","","","","","fixation","","","","","",""
"d3-animate-choice","97","539446","0.0-61.0-0.12","386","839","25","Female","true","false","true","false","""event"",""trial"",""time""
""blur"",""3"",""20496""
""focus"",""3"",""20671""
""fullscreenenter"",""5"",""27423""
","""event"",""trial"",""time""
""blur"",""3"",""20496""
","""event"",""trial"",""time""
""focus"",""3"",""20671""
","""event"",""trial"",""time""
""fullscreenenter"",""5"",""27423""
","
","326.29999999701977","","49","","","3000","1","","","images/earth.jpg","images/tutrocket1","images/tutrocket2","null","images/tutrocket2","","1","practice","null","1","","",""
"d3-animate-choice","98","542011","0.0-61.0-1.12","386","839","25","Female","true","false","true","false","""event"",""trial"",""time""
""blur"",""3"",""20496""
""focus"",""3"",""20671""
""fullscreenenter"",""5"",""27423""
","""event"",""trial"",""time""
""blur"",""3"",""20496""
","""event"",""trial"",""time""
""focus"",""3"",""20671""
","""event"",""trial"",""time""
""fullscreenenter"",""5"",""27423""
","
","559","","49","","","3000","1","","","images/tutyellowplanet.jpg","images/tutalien4","images/tutalien3","images/tutrocket2","images/tutalien3","images/nothing.png","2","practice","false","1","rare","0","2022-02-22 19:28:40.420"
"two-step-fixation","99","543018","0.0-61.0-2.12","386","839","25","Female","true","false","true","false","""event"",""trial"",""time""
""blur"",""3"",""20496""
""focus"",""3"",""20671""
""fullscreenenter"",""5"",""27423""
","""event"",""trial"",""time""
""blur"",""3"",""20496""
","""event"",""trial"",""time""
""focus"",""3"",""20671""
","""event"",""trial"",""time""
""fullscreenenter"",""5"",""27423""
","
","","images/earth.jpg","","","","","","","","","","","","","","fixation","","","","","",""
"d3-animate-choice","100","545766","0.0-61.0-0.13","386","839","25","Female","true","false","true","false","""event"",""trial"",""time""
""blur"",""3"",""20496""
""focus"",""3"",""20671""
""fullscreenenter"",""5"",""27423""
","""event"",""trial"",""time""
""blur"",""3"",""20496""
","""event"",""trial"",""time""
""focus"",""3"",""20671""
","""event"",""trial"",""time""
""fullscreenenter"",""5"",""27423""
","
","743.9000000059605","","49","","","3000","1","","","images/earth.jpg","images/tutrocket1","images/tutrocket2","null","images/tutrocket2","","1","practice","null","1","","",""
"d3-animate-choice","101","548419","0.0-61.0-1.13","386","839","25","Female","true","false","true","false","""event"",""trial"",""time""
""blur"",""3"",""20496""
""focus"",""3"",""20671""
""fullscreenenter"",""5"",""27423""
","""event"",""trial"",""time""
""blur"",""3"",""20496""
","""event"",""trial"",""time""
""focus"",""3"",""20671""
","""event"",""trial"",""time""
""fullscreenenter"",""5"",""27423""
","
","647.1999999880791","","49","","","3000","1","","","images/tutgreenplanet.jpg","images/tutalien2","images/tutalien1","images/tutrocket2","images/tutalien1","images/nothing.png","2","practice","true","1","common","0","2022-02-22 19:28:46.828"
"two-step-fixation","102","549423","0.0-61.0-2.13","386","839","25","Female","true","false","true","false","""event"",""trial"",""time""
""blur"",""3"",""20496""
""focus"",""3"",""20671""
""fullscreenenter"",""5"",""27423""
","""event"",""trial"",""time""
""blur"",""3"",""20496""
","""event"",""trial"",""time""
""focus"",""3"",""20671""
","""event"",""trial"",""time""
""fullscreenenter"",""5"",""27423""
","
","","images/earth.jpg","","","","","","","","","","","","","","fixation","","","","","",""
"d3-animate-choice","103","552639","0.0-61.0-0.14","386","839","25","Female","true","false","true","false","""event"",""trial"",""time""
""blur"",""3"",""20496""
""focus"",""3"",""20671""
""fullscreenenter"",""5"",""27423""
","""event"",""trial"",""time""
""blur"",""3"",""20496""
","""event"",""trial"",""time""
""focus"",""3"",""20671""
","""event"",""trial"",""time""
""fullscreenenter"",""5"",""27423""
","
","1212","","48","","","3000","1","","","images/earth.jpg","images/tutrocket1","images/tutrocket2","null","images/tutrocket1","","1","practice","null","2","","",""
"d3-animate-choice","104","556168","0.0-61.0-1.14","386","839","25","Female","true","false","true","false","""event"",""trial"",""time""
""blur"",""3"",""20496""
""focus"",""3"",""20671""
""fullscreenenter"",""5"",""27423""
","""event"",""trial"",""time""
""blur"",""3"",""20496""
","""event"",""trial"",""time""
""focus"",""3"",""20671""
","""event"",""trial"",""time""
""fullscreenenter"",""5"",""27423""
","
","1521.4000000059605","","49","","","3000","1","","","images/tutgreenplanet.jpg","images/tutalien2","images/tutalien1","images/tutrocket1","images/tutalien1","images/t.png","2","practice","false","1","rare","1","2022-02-22 19:28:54.577"
"two-step-fixation","105","557173","0.0-61.0-2.14","386","839","25","Female","true","false","true","false","""event"",""trial"",""time""
""blur"",""3"",""20496""
""focus"",""3"",""20671""
""fullscreenenter"",""5"",""27423""
","""event"",""trial"",""time""
""blur"",""3"",""20496""
","""event"",""trial"",""time""
""focus"",""3"",""20671""
","""event"",""trial"",""time""
""fullscreenenter"",""5"",""27423""
","
","","images/earth.jpg","","","","","","","","","","","","","","fixation","","","","","",""
"d3-animate-choice","106","560093","0.0-61.0-0.15","386","839","25","Female","true","false","true","false","""event"",""trial"",""time""
""blur"",""3"",""20496""
""focus"",""3"",""20671""
""fullscreenenter"",""5"",""27423""
","""event"",""trial"",""time""
""blur"",""3"",""20496""
","""event"",""trial"",""time""
""focus"",""3"",""20671""
","""event"",""trial"",""time""
""fullscreenenter"",""5"",""27423""
","
","916.7999999970198","","48","","","3000","1","","","images/earth.jpg","images/tutrocket1","images/tutrocket2","null","images/tutrocket1","","1","practice","null","2","","",""
"d3-animate-choice","107","563375","0.0-61.0-1.15","386","839","25","Female","true","false","true","false","""event"",""trial"",""time""
""blur"",""3"",""20496""
""focus"",""3"",""20671""
""fullscreenenter"",""5"",""27423""
","""event"",""trial"",""time""
""blur"",""3"",""20496""
","""event"",""trial"",""time""
""focus"",""3"",""20671""
","""event"",""trial"",""time""
""fullscreenenter"",""5"",""27423""
","
","1276.5999999940395","","49","","","3000","1","","","images/tutgreenplanet.jpg","images/tutalien2","images/tutalien1","images/tutrocket1","images/tutalien1","images/nothing.png","2","practice","false","1","rare","0","2022-02-22 19:29:01.784"
"two-step-fixation","108","564380","0.0-61.0-2.15","386","839","25","Female","true","false","true","false","""event"",""trial"",""time""
""blur"",""3"",""20496""
""focus"",""3"",""20671""
""fullscreenenter"",""5"",""27423""
","""event"",""trial"",""time""
""blur"",""3"",""20496""
","""event"",""trial"",""time""
""focus"",""3"",""20671""
","""event"",""trial"",""time""
""fullscreenenter"",""5"",""27423""
","
","","images/earth.jpg","","","","","","","","","","","","","","fixation","","","","","",""
"d3-animate-choice","109","566767","0.0-61.0-0.16","386","839","25","Female","true","false","true","false","""event"",""trial"",""time""
""blur"",""3"",""20496""
""focus"",""3"",""20671""
""fullscreenenter"",""5"",""27423""
","""event"",""trial"",""time""
""blur"",""3"",""20496""
","""event"",""trial"",""time""
""focus"",""3"",""20671""
","""event"",""trial"",""time""
""fullscreenenter"",""5"",""27423""
","
","381.5","","48","","","3000","1","","","images/earth.jpg","images/tutrocket1","images/tutrocket2","null","images/tutrocket1","","1","practice","null","2","","",""
"d3-animate-choice","110","569482","0.0-61.0-1.16","386","839","25","Female","true","false","true","false","""event"",""trial"",""time""
""blur"",""3"",""20496""
""focus"",""3"",""20671""
""fullscreenenter"",""5"",""27423""
","""event"",""trial"",""time""
""blur"",""3"",""20496""
","""event"",""trial"",""time""
""focus"",""3"",""20671""
","""event"",""trial"",""time""
""fullscreenenter"",""5"",""27423""
","
","708.9000000059605","","48","","","3000","1","","","images/tutyellowplanet.jpg","images/tutalien4","images/tutalien3","images/tutrocket1","images/tutalien4","images/nothing.png","2","practice","true","2","common","0","2022-02-22 19:29:07.891"
"two-step-fixation","111","570485","0.0-61.0-2.16","386","839","25","Female","true","false","true","false","""event"",""trial"",""time""
""blur"",""3"",""20496""
""focus"",""3"",""20671""
""fullscreenenter"",""5"",""27423""
","""event"",""trial"",""time""
""blur"",""3"",""20496""
","""event"",""trial"",""time""
""focus"",""3"",""20671""
","""event"",""trial"",""time""
""fullscreenenter"",""5"",""27423""
","
","","images/earth.jpg","","","","","","","","","","","","","","fixation","","","","","",""
"d3-animate-choice","112","572892","0.0-61.0-0.17","386","839","25","Female","true","false","true","false","""event"",""trial"",""time""
""blur"",""3"",""20496""
""focus"",""3"",""20671""
""fullscreenenter"",""5"",""27423""
","""event"",""trial"",""time""
""blur"",""3"",""20496""
","""event"",""trial"",""time""
""focus"",""3"",""20671""
","""event"",""trial"",""time""
""fullscreenenter"",""5"",""27423""
","
","404.3999999910593","","49","","","3000","1","","","images/earth.jpg","images/tutrocket1","images/tutrocket2","null","images/tutrocket2","","1","practice","null","1","","",""
"d3-animate-choice","113","575731","0.0-61.0-1.17","386","839","25","Female","true","false","true","false","""event"",""trial"",""time""
""blur"",""3"",""20496""
""focus"",""3"",""20671""
""fullscreenenter"",""5"",""27423""
","""event"",""trial"",""time""
""blur"",""3"",""20496""
","""event"",""trial"",""time""
""focus"",""3"",""20671""
","""event"",""trial"",""time""
""fullscreenenter"",""5"",""27423""
","
","837.0999999940395","","48","","","3000","1","","","images/tutgreenplanet.jpg","images/tutalien2","images/tutalien1","images/tutrocket2","images/tutalien2","images/nothing.png","2","practice","true","2","common","0","2022-02-22 19:29:14.140"
"two-step-fixation","114","576734","0.0-61.0-2.17","386","839","25","Female","true","false","true","false","""event"",""trial"",""time""
""blur"",""3"",""20496""
""focus"",""3"",""20671""
""fullscreenenter"",""5"",""27423""
","""event"",""trial"",""time""
""blur"",""3"",""20496""
","""event"",""trial"",""time""
""focus"",""3"",""20671""
","""event"",""trial"",""time""
""fullscreenenter"",""5"",""27423""
","
","","images/earth.jpg","","","","","","","","","","","","","","fixation","","","","","",""
"d3-animate-choice","115","579143","0.0-61.0-0.18","386","839","25","Female","true","false","true","false","""event"",""trial"",""time""
""blur"",""3"",""20496""
""focus"",""3"",""20671""
""fullscreenenter"",""5"",""27423""
","""event"",""trial"",""time""
""blur"",""3"",""20496""
","""event"",""trial"",""time""
""focus"",""3"",""20671""
","""event"",""trial"",""time""
""fullscreenenter"",""5"",""27423""
","
","402.3999999910593","","49","","","3000","1","","","images/earth.jpg","images/tutrocket1","images/tutrocket2","null","images/tutrocket2","","1","practice","null","1","","",""
"d3-animate-choice","116","581757","0.0-61.0-1.18","386","839","25","Female","true","false","true","false","""event"",""trial"",""time""
""blur"",""3"",""20496""
""focus"",""3"",""20671""
""fullscreenenter"",""5"",""27423""
","""event"",""trial"",""time""
""blur"",""3"",""20496""
","""event"",""trial"",""time""
""focus"",""3"",""20671""
","""event"",""trial"",""time""
""fullscreenenter"",""5"",""27423""
","
","611.7000000029802","","49","","","3000","1","","","images/tutgreenplanet.jpg","images/tutalien2","images/tutalien1","images/tutrocket2","images/tutalien1","images/t.png","2","practice","true","1","common","1","2022-02-22 19:29:20.166"
"two-step-fixation","117","582760","0.0-61.0-2.18","386","839","25","Female","true","false","true","false","""event"",""trial"",""time""
""blur"",""3"",""20496""
""focus"",""3"",""20671""
""fullscreenenter"",""5"",""27423""
","""event"",""trial"",""time""
""blur"",""3"",""20496""
","""event"",""trial"",""time""
""focus"",""3"",""20671""
","""event"",""trial"",""time""
""fullscreenenter"",""5"",""27423""
","
","","images/earth.jpg","","","","","","","","","","","","","","fixation","","","","","",""
"d3-animate-choice","118","585134","0.0-61.0-0.19","386","839","25","Female","true","false","true","false","""event"",""trial"",""time""
""blur"",""3"",""20496""
""focus"",""3"",""20671""
""fullscreenenter"",""5"",""27423""
","""event"",""trial"",""time""
""blur"",""3"",""20496""
","""event"",""trial"",""time""
""focus"",""3"",""20671""
","""event"",""trial"",""time""
""fullscreenenter"",""5"",""27423""
","
","368.40000000596046","","49","","","3000","1","","","images/earth.jpg","images/tutrocket1","images/tutrocket2","null","images/tutrocket2","","1","practice","null","1","","",""
"d3-animate-choice","119","587705","0.0-61.0-1.19","386","839","25","Female","true","false","true","false","""event"",""trial"",""time""
""blur"",""3"",""20496""
""focus"",""3"",""20671""
""fullscreenenter"",""5"",""27423""
","""event"",""trial"",""time""
""blur"",""3"",""20496""
","""event"",""trial"",""time""
""focus"",""3"",""20671""
","""event"",""trial"",""time""
""fullscreenenter"",""5"",""27423""
","
","566.2999999970198","","49","","","3000","1","","","images/tutgreenplanet.jpg","images/tutalien2","images/tutalien1","images/tutrocket2","images/tutalien1","images/nothing.png","2","practice","true","1","common","0","2022-02-22 19:29:26.114"
"two-step-fixation","120","588709","0.0-61.0-2.19","386","839","25","Female","true","false","true","false","""event"",""trial"",""time""
""blur"",""3"",""20496""
""focus"",""3"",""20671""
""fullscreenenter"",""5"",""27423""
","""event"",""trial"",""time""
""blur"",""3"",""20496""
","""event"",""trial"",""time""
""focus"",""3"",""20671""
","""event"",""trial"",""time""
""fullscreenenter"",""5"",""27423""
","
","","images/earth.jpg","","","","","","","","","","","","","","fixation","","","","","",""
"d3-instructions","121","595106","0.0-62.0","386","839","25","Female","true","false","true","false","""event"",""trial"",""time""
""blur"",""3"",""20496""
""focus"",""3"",""20671""
""fullscreenenter"",""5"",""27423""
","""event"",""trial"",""time""
""blur"",""3"",""20496""
","""event"",""trial"",""time""
""focus"",""3"",""20671""
","""event"",""trial"",""time""
""fullscreenenter"",""5"",""27423""
","
","","","","","","","","","","","","","","","","","","","","","",""
"audio-keyboard-response","122","599062","0.0-63.0","386","839","25","Female","true","false","true","false","""event"",""trial"",""time""
""blur"",""3"",""20496""
""focus"",""3"",""20671""
""fullscreenenter"",""5"",""27423""
","""event"",""trial"",""time""
""blur"",""3"",""20496""
","""event"",""trial"",""time""
""focus"",""3"",""20671""
","""event"",""trial"",""time""
""fullscreenenter"",""5"",""27423""
","
","3959","audio/instructions/treasure_feedback.wav","32","","","","","","","","","","","","","","","","","","",""
"d3-instructions","123","1113792","0.0-64.0","386","839","25","Female","true","false","true","false","""event"",""trial"",""time""
""blur"",""3"",""20496""
""focus"",""3"",""20671""
""fullscreenenter"",""5"",""27423""
","""event"",""trial"",""time""
""blur"",""3"",""20496""
","""event"",""trial"",""time""
""focus"",""3"",""20671""
","""event"",""trial"",""time""
""fullscreenenter"",""5"",""27423""
","
","","","","","","","","","","","","","","","","","","","","","",""
"d3-instructions","124","1130186","0.0-65.0","386","839","25","Female","true","false","true","false","""event"",""trial"",""time""
""blur"",""3"",""20496""
""focus"",""3"",""20671""
""fullscreenenter"",""5"",""27423""
","""event"",""trial"",""time""
""blur"",""3"",""20496""
","""event"",""trial"",""time""
""focus"",""3"",""20671""
","""event"",""trial"",""time""
""fullscreenenter"",""5"",""27423""
","
","","","","","","","","","","","","","","","","","","","","","",""
"d3-instructions","125","1157390","0.0-66.0","386","839","25","Female","true","false","true","false","""event"",""trial"",""time""
""blur"",""3"",""20496""
""focus"",""3"",""20671""
""fullscreenenter"",""5"",""27423""
","""event"",""trial"",""time""
""blur"",""3"",""20496""
","""event"",""trial"",""time""
""focus"",""3"",""20671""
","""event"",""trial"",""time""
""fullscreenenter"",""5"",""27423""
","
","","","","","","","","","","","","","","","","","","","","","",""
"d3-instructions","126","1175505","0.0-67.0","386","839","25","Female","true","false","true","false","""event"",""trial"",""time""
""blur"",""3"",""20496""
""focus"",""3"",""20671""
""fullscreenenter"",""5"",""27423""
","""event"",""trial"",""time""
""blur"",""3"",""20496""
","""event"",""trial"",""time""
""focus"",""3"",""20671""
","""event"",""trial"",""time""
""fullscreenenter"",""5"",""27423""
","
","","","","","","","","","","","","","","","","","","","","","",""
"d3-instructions","127","1186197","0.0-68.0","386","839","25","Female","true","false","true","false","""event"",""trial"",""time""
""blur"",""3"",""20496""
""focus"",""3"",""20671""
""fullscreenenter"",""5"",""27423""
","""event"",""trial"",""time""
""blur"",""3"",""20496""
","""event"",""trial"",""time""
""focus"",""3"",""20671""
","""event"",""trial"",""time""
""fullscreenenter"",""5"",""27423""
","
","","","","","","","","","","","","","","","","","","","","","",""
"instructions-quiz","128","1189694","0.0-69.0","386","839","25","Female","true","false","true","false","""event"",""trial"",""time""
""blur"",""3"",""20496""
""focus"",""3"",""20671""
""fullscreenenter"",""5"",""27423""
","""event"",""trial"",""time""
""blur"",""3"",""20496""
","""event"",""trial"",""time""
""focus"",""3"",""20671""
","""event"",""trial"",""time""
""fullscreenenter"",""5"",""27423""
","
","3492.9000000059605","audio/quiz/Q1_Prompt.wav","","1","","","","","","","","","","","","","","","","","",""
"audio-keyboard-response","129","1198871","0.0-70.0","386","839","25","Female","true","false","true","false","""event"",""trial"",""time""
""blur"",""3"",""20496""
""focus"",""3"",""20671""
""fullscreenenter"",""5"",""27423""
","""event"",""trial"",""time""
""blur"",""3"",""20496""
","""event"",""trial"",""time""
""focus"",""3"",""20671""
","""event"",""trial"",""time""
""fullscreenenter"",""5"",""27423""
","
","null","audio/quiz/Q1_Correct.wav","null","","","","","","","","","","","","","","","","","","",""
"instructions-quiz","130","1208629","0.0-71.0","386","839","25","Female","true","false","true","false","""event"",""trial"",""time""
""blur"",""3"",""20496""
""focus"",""3"",""20671""
""fullscreenenter"",""5"",""27423""
","""event"",""trial"",""time""
""blur"",""3"",""20496""
","""event"",""trial"",""time""
""focus"",""3"",""20671""
","""event"",""trial"",""time""
""fullscreenenter"",""5"",""27423""
","
","9755.39999999106","audio/quiz/Q2_Prompt.wav","","0","","","","","","","","","","","","","","","","","",""
"audio-keyboard-response","131","1221498","0.0-72.0","386","839","25","Female","true","false","true","false","""event"",""trial"",""time""
""blur"",""3"",""20496""
""focus"",""3"",""20671""
""fullscreenenter"",""5"",""27423""
","""event"",""trial"",""time""
""blur"",""3"",""20496""
","""event"",""trial"",""time""
""focus"",""3"",""20671""
","""event"",""trial"",""time""
""fullscreenenter"",""5"",""27423""
","
","null","audio/quiz/Q2_Correct.wav","null","","","","","","","","","","","","","","","","","","",""
"instructions-quiz","132","1225869","0.0-73.0","386","839","25","Female","true","false","true","false","""event"",""trial"",""time""
""blur"",""3"",""20496""
""focus"",""3"",""20671""
""fullscreenenter"",""5"",""27423""
","""event"",""trial"",""time""
""blur"",""3"",""20496""
","""event"",""trial"",""time""
""focus"",""3"",""20671""
","""event"",""trial"",""time""
""fullscreenenter"",""5"",""27423""
","
","4367.4000000059605","audio/quiz/Q3_Prompt.wav","","1","","","","","","","","","","","","","","","","","",""
"audio-keyboard-response","133","1231668","0.0-74.0","386","839","25","Female","true","false","true","false","""event"",""trial"",""time""
""blur"",""3"",""20496""
""focus"",""3"",""20671""
""fullscreenenter"",""5"",""27423""
","""event"",""trial"",""time""
""blur"",""3"",""20496""
","""event"",""trial"",""time""
""focus"",""3"",""20671""
","""event"",""trial"",""time""
""fullscreenenter"",""5"",""27423""
","
","null","audio/quiz/Q3_Correct.wav","null","","","","","","","","","","","","","","","","","","",""
"d3-instructions","134","1247655","0.0-75.0","386","839","25","Female","true","false","true","false","""event"",""trial"",""time""
""blur"",""3"",""20496""
""focus"",""3"",""20671""
""fullscreenenter"",""5"",""27423""
","""event"",""trial"",""time""
""blur"",""3"",""20496""
","""event"",""trial"",""time""
""focus"",""3"",""20671""
","""event"",""trial"",""time""
""fullscreenenter"",""5"",""27423""
","
","","","","","","","","","","","","","","","","","","","","","",""
"d3-animate-choice","135","1250684","0.0-76.0-0.0","386","839","25","Female","true","false","true","false","""event"",""trial"",""time""
""blur"",""3"",""20496""
""focus"",""3"",""20671""
""fullscreenenter"",""5"",""27423""
","""event"",""trial"",""time""
""blur"",""3"",""20496""
","""event"",""trial"",""time""
""focus"",""3"",""20671""
","""event"",""trial"",""time""
""fullscreenenter"",""5"",""27423""
","
","1025","","49","","","3000","1","","","images/earth.jpg","images/rocket2","images/rocket1","null","images/rocket1","","1","real","null","1","","",""
"d3-animate-choice","136","1253888","0.0-76.0-1.0","386","839","25","Female","true","false","true","false","""event"",""trial"",""time""
""blur"",""3"",""20496""
""focus"",""3"",""20671""
""fullscreenenter"",""5"",""27423""
","""event"",""trial"",""time""
""blur"",""3"",""20496""
","""event"",""trial"",""time""
""focus"",""3"",""20671""
","""event"",""trial"",""time""
""fullscreenenter"",""5"",""27423""
","
","1199.5999999940395","","49","","","3000","1","","","images/purpleplanet.jpg","images/alien4","images/alien3","images/rocket1","images/alien3","images/nothing.png","2","real","true","1","common","0","2022-02-22 19:40:32.298"
"two-step-fixation","137","1254893","0.0-76.0-2.0","386","839","25","Female","true","false","true","false","""event"",""trial"",""time""
""blur"",""3"",""20496""
""focus"",""3"",""20671""
""fullscreenenter"",""5"",""27423""
","""event"",""trial"",""time""
""blur"",""3"",""20496""
","""event"",""trial"",""time""
""focus"",""3"",""20671""
","""event"",""trial"",""time""
""fullscreenenter"",""5"",""27423""
","
","","images/earth.jpg","","","","","","","","","","","","","","fixation","","","","","",""
"d3-animate-choice","138","1257568","0.0-76.0-0.1","386","839","25","Female","true","false","true","false","""event"",""trial"",""time""
""blur"",""3"",""20496""
""focus"",""3"",""20671""
""fullscreenenter"",""5"",""27423""
","""event"",""trial"",""time""
""blur"",""3"",""20496""
","""event"",""trial"",""time""
""focus"",""3"",""20671""
","""event"",""trial"",""time""
""fullscreenenter"",""5"",""27423""
","
","666.7000000029802","","49","","","3000","1","","","images/earth.jpg","images/rocket2","images/rocket1","null","images/rocket1","","1","real","null","1","","",""
"d3-animate-choice","139","1261394","0.0-76.0-1.1","386","839","25","Female","true","false","true","false","""event"",""trial"",""time""
""blur"",""3"",""20496""
""focus"",""3"",""20671""
""fullscreenenter"",""5"",""27423""
","""event"",""trial"",""time""
""blur"",""3"",""20496""
","""event"",""trial"",""time""
""focus"",""3"",""20671""
","""event"",""trial"",""time""
""fullscreenenter"",""5"",""27423""
","
","1819.300000011921","","49","","","3000","1","","","images/purpleplanet.jpg","images/alien4","images/alien3","images/rocket1","images/alien3","images/t.png","2","real","true","1","common","1","2022-02-22 19:40:39.803"
"two-step-fixation","140","1262398","0.0-76.0-2.1","386","839","25","Female","true","false","true","false","""event"",""trial"",""time""
""blur"",""3"",""20496""
""focus"",""3"",""20671""
""fullscreenenter"",""5"",""27423""
","""event"",""trial"",""time""
""blur"",""3"",""20496""
","""event"",""trial"",""time""
""focus"",""3"",""20671""
","""event"",""trial"",""time""
""fullscreenenter"",""5"",""27423""
","
","","images/earth.jpg","","","","","","","","","","","","","","fixation","","","","","",""
"d3-animate-choice","141","1265724","0.0-76.0-0.2","386","839","25","Female","true","false","true","false","""event"",""trial"",""time""
""blur"",""3"",""20496""
""focus"",""3"",""20671""
""fullscreenenter"",""5"",""27423""
","""event"",""trial"",""time""
""blur"",""3"",""20496""
","""event"",""trial"",""time""
""focus"",""3"",""20671""
","""event"",""trial"",""time""
""fullscreenenter"",""5"",""27423""
","
","1321","","48","","","3000","1","","","images/earth.jpg","images/rocket2","images/rocket1","null","images/rocket2","","1","real","null","2","","",""
"d3-animate-choice","142","1268614","0.0-76.0-1.2","386","839","25","Female","true","false","true","false","""event"",""trial"",""time""
""blur"",""3"",""20496""
""focus"",""3"",""20671""
""fullscreenenter"",""5"",""27423""
","""event"",""trial"",""time""
""blur"",""3"",""20496""
","""event"",""trial"",""time""
""focus"",""3"",""20671""
","""event"",""trial"",""time""
""fullscreenenter"",""5"",""27423""
","
","882.5999999940395","","49","","","3000","1","","","images/redplanet1.jpg","images/alien2","images/alien1","images/rocket2","images/alien1","images/nothing.png","2","real","true","1","common","0","2022-02-22 19:40:47.023"
"two-step-fixation","143","1269619","0.0-76.0-2.2","386","839","25","Female","true","false","true","false","""event"",""trial"",""time""
""blur"",""3"",""20496""
""focus"",""3"",""20671""
""fullscreenenter"",""5"",""27423""
","""event"",""trial"",""time""
""blur"",""3"",""20496""
","""event"",""trial"",""time""
""focus"",""3"",""20671""
","""event"",""trial"",""time""
""fullscreenenter"",""5"",""27423""
","
","","images/earth.jpg","","","","","","","","","","","","","","fixation","","","","","",""
"d3-animate-choice","144","1272086","0.0-76.0-0.3","386","839","25","Female","true","false","true","false","""event"",""trial"",""time""
""blur"",""3"",""20496""
""focus"",""3"",""20671""
""fullscreenenter"",""5"",""27423""
","""event"",""trial"",""time""
""blur"",""3"",""20496""
","""event"",""trial"",""time""
""focus"",""3"",""20671""
","""event"",""trial"",""time""
""fullscreenenter"",""5"",""27423""
","
","460.6000000089407","","48","","","3000","1","","","images/earth.jpg","images/rocket2","images/rocket1","null","images/rocket2","","1","real","null","2","","",""
"d3-animate-choice","145","1276093","0.0-76.0-1.3","386","839","25","Female","true","false","true","false","""event"",""trial"",""time""
""blur"",""3"",""20496""
""focus"",""3"",""20671""
""fullscreenenter"",""5"",""27423""
","""event"",""trial"",""time""
""blur"",""3"",""20496""
","""event"",""trial"",""time""
""focus"",""3"",""20671""
","""event"",""trial"",""time""
""fullscreenenter"",""5"",""27423""
","
","608.2999999970198","","50","","","3000","1","1691.5,2536.3999999910593","50,48","images/redplanet1.jpg","images/alien2","images/alien1","images/rocket2","images/alien2","images/t.png","2","real","true","","common","1","2022-02-22 19:40:54.502"
"two-step-fixation","146","1277098","0.0-76.0-2.3","386","839","25","Female","true","false","true","false","""event"",""trial"",""time""
""blur"",""3"",""20496""
""focus"",""3"",""20671""
""fullscreenenter"",""5"",""27423""
","""event"",""trial"",""time""
""blur"",""3"",""20496""
","""event"",""trial"",""time""
""focus"",""3"",""20671""
","""event"",""trial"",""time""
""fullscreenenter"",""5"",""27423""
","
","","images/earth.jpg","","","","","","","","","","","","","","fixation","","","","","",""
"d3-animate-choice","147","1280504","0.0-76.0-0.4","386","839","25","Female","true","false","true","false","""event"",""trial"",""time""
""blur"",""3"",""20496""
""focus"",""3"",""20671""
""fullscreenenter"",""5"",""27423""
","""event"",""trial"",""time""
""blur"",""3"",""20496""
","""event"",""trial"",""time""
""focus"",""3"",""20671""
","""event"",""trial"",""time""
""fullscreenenter"",""5"",""27423""
","
","1400","","48","","","3000","1","","","images/earth.jpg","images/rocket2","images/rocket1","null","images/rocket2","","1","real","null","2","","",""
"d3-animate-choice","148","1283401","0.0-76.0-1.4","386","839","25","Female","true","false","true","false","""event"",""trial"",""time""
""blur"",""3"",""20496""
""focus"",""3"",""20671""
""fullscreenenter"",""5"",""27423""
","""event"",""trial"",""time""
""blur"",""3"",""20496""
","""event"",""trial"",""time""
""focus"",""3"",""20671""
","""event"",""trial"",""time""
""fullscreenenter"",""5"",""27423""
","
","887.0999999940395","","48","","","3000","1","","","images/redplanet1.jpg","images/alien2","images/alien1","images/rocket2","images/alien2","images/t.png","2","real","true","2","common","1","2022-02-22 19:41:01.810"
"two-step-fixation","149","1284405","0.0-76.0-2.4","386","839","25","Female","true","false","true","false","""event"",""trial"",""time""
""blur"",""3"",""20496""
""focus"",""3"",""20671""
""fullscreenenter"",""5"",""27423""
","""event"",""trial"",""time""
""blur"",""3"",""20496""
","""event"",""trial"",""time""
""focus"",""3"",""20671""
","""event"",""trial"",""time""
""fullscreenenter"",""5"",""27423""
","
","","images/earth.jpg","","","","","","","","","","","","","","fixation","","","","","",""
"d3-animate-choice","150","1286849","0.0-76.0-0.5","386","839","25","Female","true","false","true","false","""event"",""trial"",""time""
""blur"",""3"",""20496""
""focus"",""3"",""20671""
""fullscreenenter"",""5"",""27423""
","""event"",""trial"",""time""
""blur"",""3"",""20496""
","""event"",""trial"",""time""
""focus"",""3"",""20671""
","""event"",""trial"",""time""
""fullscreenenter"",""5"",""27423""
","
","436.30000001192093","","48","","","3000","1","","","images/earth.jpg","images/rocket2","images/rocket1","null","images/rocket2","","1","real","null","2","","",""
"d3-animate-choice","151","1290854","0.0-76.0-1.5","386","839","25","Female","true","false","true","false","""event"",""trial"",""time""
""blur"",""3"",""20496""
""focus"",""3"",""20671""
""fullscreenenter"",""5"",""27423""
","""event"",""trial"",""time""
""blur"",""3"",""20496""
","""event"",""trial"",""time""
""focus"",""3"",""20671""
","""event"",""trial"",""time""
""fullscreenenter"",""5"",""27423""
","
","1998.0999999940395","","49","","","3000","1","","","images/purpleplanet.jpg","images/alien4","images/alien3","images/rocket2","images/alien3","images/t.png","2","real","false","1","rare","1","2022-02-22 19:41:09.263"
"two-step-fixation","152","1291859","0.0-76.0-2.5","386","839","25","Female","true","false","true","false","""event"",""trial"",""time""
""blur"",""3"",""20496""
""focus"",""3"",""20671""
""fullscreenenter"",""5"",""27423""
","""event"",""trial"",""time""
""blur"",""3"",""20496""
","""event"",""trial"",""time""
""focus"",""3"",""20671""
","""event"",""trial"",""time""
""fullscreenenter"",""5"",""27423""
","
","","images/earth.jpg","","","","","","","","","","","","","","fixation","","","","","",""
"d3-animate-choice","153","1294748","0.0-76.0-0.6","386","839","25","Female","true","false","true","false","""event"",""trial"",""time""
""blur"",""3"",""20496""
""focus"",""3"",""20671""
""fullscreenenter"",""5"",""27423""
","""event"",""trial"",""time""
""blur"",""3"",""20496""
","""event"",""trial"",""time""
""focus"",""3"",""20671""
","""event"",""trial"",""time""
""fullscreenenter"",""5"",""27423""
","
","883.8999999910593","","48","","","3000","1","","","images/earth.jpg","images/rocket2","images/rocket1","null","images/rocket2","","1","real","null","2","","",""
"d3-animate-choice","154","1297895","0.0-76.0-1.6","386","839","25","Female","true","false","true","false","""event"",""trial"",""time""
""blur"",""3"",""20496""
""focus"",""3"",""20671""
""fullscreenenter"",""5"",""27423""
","""event"",""trial"",""time""
""blur"",""3"",""20496""
","""event"",""trial"",""time""
""focus"",""3"",""20671""
","""event"",""trial"",""time""
""fullscreenenter"",""5"",""27423""
","
","1141.9000000059605","","48","","","3000","1","","","images/redplanet1.jpg","images/alien2","images/alien1","images/rocket2","images/alien2","images/t.png","2","real","true","2","common","1","2022-02-22 19:41:16.304"
"two-step-fixation","155","1298899","0.0-76.0-2.6","386","839","25","Female","true","false","true","false","""event"",""trial"",""time""
""blur"",""3"",""20496""
""focus"",""3"",""20671""
""fullscreenenter"",""5"",""27423""
","""event"",""trial"",""time""
""blur"",""3"",""20496""
","""event"",""trial"",""time""
""focus"",""3"",""20671""
","""event"",""trial"",""time""
""fullscreenenter"",""5"",""27423""
","
","","images/earth.jpg","","","","","","","","","","","","","","fixation","","","","","",""
"d3-animate-choice","156","1301785","0.0-76.0-0.7","386","839","25","Female","true","false","true","false","""event"",""trial"",""time""
""blur"",""3"",""20496""
""focus"",""3"",""20671""
""fullscreenenter"",""5"",""27423""
","""event"",""trial"",""time""
""blur"",""3"",""20496""
","""event"",""trial"",""time""
""focus"",""3"",""20671""
","""event"",""trial"",""time""
""fullscreenenter"",""5"",""27423""
","
","883.2999999970198","","48","","","3000","1","","","images/earth.jpg","images/rocket2","images/rocket1","null","images/rocket2","","1","real","null","2","","",""
"d3-animate-choice","157","1304692","0.0-76.0-1.7","386","839","25","Female","true","false","true","false","""event"",""trial"",""time""
""blur"",""3"",""20496""
""focus"",""3"",""20671""
""fullscreenenter"",""5"",""27423""
","""event"",""trial"",""time""
""blur"",""3"",""20496""
","""event"",""trial"",""time""
""focus"",""3"",""20671""
","""event"",""trial"",""time""
""fullscreenenter"",""5"",""27423""
","
","903.6000000089407","","48","","","3000","1","","","images/redplanet1.jpg","images/alien2","images/alien1","images/rocket2","images/alien2","images/nothing.png","2","real","true","2","common","0","2022-02-22 19:41:23.101"
"two-step-fixation","158","1305695","0.0-76.0-2.7","386","839","25","Female","true","false","true","false","""event"",""trial"",""time""
""blur"",""3"",""20496""
""focus"",""3"",""20671""
""fullscreenenter"",""5"",""27423""
","""event"",""trial"",""time""
""blur"",""3"",""20496""
","""event"",""trial"",""time""
""focus"",""3"",""20671""
","""event"",""trial"",""time""
""fullscreenenter"",""5"",""27423""
","
","","images/earth.jpg","","","","","","","","","","","","","","fixation","","","","","",""
"d3-animate-choice","159","1308459","0.0-76.0-0.8","386","839","25","Female","true","false","true","false","""event"",""trial"",""time""
""blur"",""3"",""20496""
""focus"",""3"",""20671""
""fullscreenenter"",""5"",""27423""
","""event"",""trial"",""time""
""blur"",""3"",""20496""
","""event"",""trial"",""time""
""focus"",""3"",""20671""
","""event"",""trial"",""time""
""fullscreenenter"",""5"",""27423""
","
","759.7000000029802","","48","","","3000","1","","","images/earth.jpg","images/rocket2","images/rocket1","null","images/rocket2","","1","real","null","2","","",""
"d3-animate-choice","160","1311391","0.0-76.0-1.8","386","839","25","Female","true","false","true","false","""event"",""trial"",""time""
""blur"",""3"",""20496""
""focus"",""3"",""20671""
""fullscreenenter"",""5"",""27423""
","""event"",""trial"",""time""
""blur"",""3"",""20496""
","""event"",""trial"",""time""
""focus"",""3"",""20671""
","""event"",""trial"",""time""
""fullscreenenter"",""5"",""27423""
","
","926.2999999970198","","48","","","3000","1","","","images/redplanet1.jpg","images/alien2","images/alien1","images/rocket2","images/alien2","images/t.png","2","real","true","2","common","1","2022-02-22 19:41:29.800"
"two-step-fixation","161","1312395","0.0-76.0-2.8","386","839","25","Female","true","false","true","false","""event"",""trial"",""time""
""blur"",""3"",""20496""
""focus"",""3"",""20671""
""fullscreenenter"",""5"",""27423""
","""event"",""trial"",""time""
""blur"",""3"",""20496""
","""event"",""trial"",""time""
""focus"",""3"",""20671""
","""event"",""trial"",""time""
""fullscreenenter"",""5"",""27423""
","
","","images/earth.jpg","","","","","","","","","","","","","","fixation","","","","","",""
"d3-animate-choice","162","1314978","0.0-76.0-0.9","386","839","25","Female","true","false","true","false","""event"",""trial"",""time""
""blur"",""3"",""20496""
""focus"",""3"",""20671""
""fullscreenenter"",""5"",""27423""
","""event"",""trial"",""time""
""blur"",""3"",""20496""
","""event"",""trial"",""time""
""focus"",""3"",""20671""
","""event"",""trial"",""time""
""fullscreenenter"",""5"",""27423""
","
","578.2000000029802","","48","","","3000","1","","","images/earth.jpg","images/rocket2","images/rocket1","null","images/rocket2","","1","real","null","2","","",""
"d3-animate-choice","163","1318304","0.0-76.0-1.9","386","839","25","Female","true","false","true","false","""event"",""trial"",""time""
""blur"",""3"",""20496""
""focus"",""3"",""20671""
""fullscreenenter"",""5"",""27423""
","""event"",""trial"",""time""
""blur"",""3"",""20496""
","""event"",""trial"",""time""
""focus"",""3"",""20671""
","""event"",""trial"",""time""
""fullscreenenter"",""5"",""27423""
","
","1323.0999999940395","","49","","","3000","1","","","images/purpleplanet.jpg","images/alien4","images/alien3","images/rocket2","images/alien3","images/t.png","2","real","false","1","rare","1","2022-02-22 19:41:36.713"
"two-step-fixation","164","1319308","0.0-76.0-2.9","386","839","25","Female","true","false","true","false","""event"",""trial"",""time""
""blur"",""3"",""20496""
""focus"",""3"",""20671""
""fullscreenenter"",""5"",""27423""
","""event"",""trial"",""time""
""blur"",""3"",""20496""
","""event"",""trial"",""time""
""focus"",""3"",""20671""
","""event"",""trial"",""time""
""fullscreenenter"",""5"",""27423""
","
","","images/earth.jpg","","","","","","","","","","","","","","fixation","","","","","",""
"d3-animate-choice","165","1321786","0.0-76.0-0.10","386","839","25","Female","true","false","true","false","""event"",""trial"",""time""
""blur"",""3"",""20496""
""focus"",""3"",""20671""
""fullscreenenter"",""5"",""27423""
","""event"",""trial"",""time""
""blur"",""3"",""20496""
","""event"",""trial"",""time""
""focus"",""3"",""20671""
","""event"",""trial"",""time""
""fullscreenenter"",""5"",""27423""
","
","473.90000000596046","","48","","","3000","1","","","images/earth.jpg","images/rocket2","images/rocket1","null","images/rocket2","","1","real","null","2","","",""
"d3-animate-choice","166","1325079","0.0-76.0-1.10","386","839","25","Female","true","false","true","false","""event"",""trial"",""time""
""blur"",""3"",""20496""
""focus"",""3"",""20671""
""fullscreenenter"",""5"",""27423""
","""event"",""trial"",""time""
""blur"",""3"",""20496""
","""event"",""trial"",""time""
""focus"",""3"",""20671""
","""event"",""trial"",""time""
""fullscreenenter"",""5"",""27423""
","
","1283.5","","49","","","3000","1","","","images/purpleplanet.jpg","images/alien4","images/alien3","images/rocket2","images/alien3","images/nothing.png","2","real","false","1","rare","0","2022-02-22 19:41:43.489"
"two-step-fixation","167","1326082","0.0-76.0-2.10","386","839","25","Female","true","false","true","false","""event"",""trial"",""time""
""blur"",""3"",""20496""
""focus"",""3"",""20671""
""fullscreenenter"",""5"",""27423""
","""event"",""trial"",""time""
""blur"",""3"",""20496""
","""event"",""trial"",""time""
""focus"",""3"",""20671""
","""event"",""trial"",""time""
""fullscreenenter"",""5"",""27423""
","
","","images/earth.jpg","","","","","","","","","","","","","","fixation","","","","","",""
"d3-animate-choice","168","1328490","0.0-76.0-0.11","386","839","25","Female","true","false","true","false","""event"",""trial"",""time""
""blur"",""3"",""20496""
""focus"",""3"",""20671""
""fullscreenenter"",""5"",""27423""
","""event"",""trial"",""time""
""blur"",""3"",""20496""
","""event"",""trial"",""time""
""focus"",""3"",""20671""
","""event"",""trial"",""time""
""fullscreenenter"",""5"",""27423""
","
","404.40000000596046","","48","","","3000","1","","","images/earth.jpg","images/rocket2","images/rocket1","null","images/rocket2","","1","real","null","2","","",""
"d3-animate-choice","169","1331575","0.0-76.0-1.11","386","839","25","Female","true","false","true","false","""event"",""trial"",""time""
""blur"",""3"",""20496""
""focus"",""3"",""20671""
""fullscreenenter"",""5"",""27423""
","""event"",""trial"",""time""
""blur"",""3"",""20496""
","""event"",""trial"",""time""
""focus"",""3"",""20671""
","""event"",""trial"",""time""
""fullscreenenter"",""5"",""27423""
","
","1079.7999999970198","","48","","","3000","1","","","images/redplanet1.jpg","images/alien2","images/alien1","images/rocket2","images/alien2","images/t.png","2","real","true","2","common","1","2022-02-22 19:41:49.984"
"two-step-fixation","170","1332579","0.0-76.0-2.11","386","839","25","Female","true","false","true","false","""event"",""trial"",""time""
""blur"",""3"",""20496""
""focus"",""3"",""20671""
""fullscreenenter"",""5"",""27423""
","""event"",""trial"",""time""
""blur"",""3"",""20496""
","""event"",""trial"",""time""
""focus"",""3"",""20671""
","""event"",""trial"",""time""
""fullscreenenter"",""5"",""27423""
","
","","images/earth.jpg","","","","","","","","","","","","","","fixation","","","","","",""
"d3-animate-choice","171","1335235","0.0-76.0-0.12","386","839","25","Female","true","false","true","false","""event"",""trial"",""time""
""blur"",""3"",""20496""
""focus"",""3"",""20671""
""fullscreenenter"",""5"",""27423""
","""event"",""trial"",""time""
""blur"",""3"",""20496""
","""event"",""trial"",""time""
""focus"",""3"",""20671""
","""event"",""trial"",""time""
""fullscreenenter"",""5"",""27423""
","
","651.6000000089407","","48","","","3000","1","","","images/earth.jpg","images/rocket2","images/rocket1","null","images/rocket2","","1","real","null","2","","",""
"d3-animate-choice","172","1338701","0.0-76.0-1.12","386","839","25","Female","true","false","true","false","""event"",""trial"",""time""
""blur"",""3"",""20496""
""focus"",""3"",""20671""
""fullscreenenter"",""5"",""27423""
","""event"",""trial"",""time""
""blur"",""3"",""20496""
","""event"",""trial"",""time""
""focus"",""3"",""20671""
","""event"",""trial"",""time""
""fullscreenenter"",""5"",""27423""
","
","1463.4000000059605","","48","","","3000","1","","","images/redplanet1.jpg","images/alien2","images/alien1","images/rocket2","images/alien2","images/t.png","2","real","true","2","common","1","2022-02-22 19:41:57.110"
"two-step-fixation","173","1339704","0.0-76.0-2.12","386","839","25","Female","true","false","true","false","""event"",""trial"",""time""
""blur"",""3"",""20496""
""focus"",""3"",""20671""
""fullscreenenter"",""5"",""27423""
","""event"",""trial"",""time""
""blur"",""3"",""20496""
","""event"",""trial"",""time""
""focus"",""3"",""20671""
","""event"",""trial"",""time""
""fullscreenenter"",""5"",""27423""
","
","","images/earth.jpg","","","","","","","","","","","","","","fixation","","","","","",""
"d3-animate-choice","174","1342274","0.0-76.0-0.13","386","839","25","Female","true","false","true","false","""event"",""trial"",""time""
""blur"",""3"",""20496""
""focus"",""3"",""20671""
""fullscreenenter"",""5"",""27423""
","""event"",""trial"",""time""
""blur"",""3"",""20496""
","""event"",""trial"",""time""
""focus"",""3"",""20671""
","""event"",""trial"",""time""
""fullscreenenter"",""5"",""27423""
","
","565.9000000059605","","48","","","3000","1","","","images/earth.jpg","images/rocket2","images/rocket1","null","images/rocket2","","1","real","null","2","","",""
"d3-animate-choice","175","1345623","0.0-76.0-1.13","386","839","25","Female","true","false","true","false","""event"",""trial"",""time""
""blur"",""3"",""20496""
""focus"",""3"",""20671""
""fullscreenenter"",""5"",""27423""
","""event"",""trial"",""time""
""blur"",""3"",""20496""
","""event"",""trial"",""time""
""focus"",""3"",""20671""
","""event"",""trial"",""time""
""fullscreenenter"",""5"",""27423""
","
","1344.5999999940395","","48","","","3000","1","","","images/redplanet1.jpg","images/alien2","images/alien1","images/rocket2","images/alien2","images/t.png","2","real","true","2","common","1","2022-02-22 19:42:04.032"
"two-step-fixation","176","1346628","0.0-76.0-2.13","386","839","25","Female","true","false","true","false","""event"",""trial"",""time""
""blur"",""3"",""20496""
""focus"",""3"",""20671""
""fullscreenenter"",""5"",""27423""
","""event"",""trial"",""time""
""blur"",""3"",""20496""
","""event"",""trial"",""time""
""focus"",""3"",""20671""
","""event"",""trial"",""time""
""fullscreenenter"",""5"",""27423""
","
","","images/earth.jpg","","","","","","","","","","","","","","fixation","","","","","",""
"d3-animate-choice","177","1349458","0.0-76.0-0.14","386","839","25","Female","true","false","true","false","""event"",""trial"",""time""
""blur"",""3"",""20496""
""focus"",""3"",""20671""
""fullscreenenter"",""5"",""27423""
","""event"",""trial"",""time""
""blur"",""3"",""20496""
","""event"",""trial"",""time""
""focus"",""3"",""20671""
","""event"",""trial"",""time""
""fullscreenenter"",""5"",""27423""
","
","826.2999999970198","","48","","","3000","1","","","images/earth.jpg","images/rocket2","images/rocket1","null","images/rocket2","","1","real","null","2","","",""
"d3-animate-choice","178","1352316","0.0-76.0-1.14","386","839","25","Female","true","false","true","false","""event"",""trial"",""time""
