"trial_type","trial_index","time_elapsed","internal_node_id","participant_id","subject_id","age","gender","rocket_sides","red_planet_first_rocket","red_display_order","purple_display_order","interactions","blur_events","focus_events","fullscreenenter_events","fullscreenexit_events","rt","stimulus","key_press","button_pressed","success","duration","valid_pressed","rts","keys","planet_text","right_text","left_text","center_text","chosen_text","reward_text","trial_stage","practice_trial","transition_type","choice","transition","reward","timestamp"
"pavlovia","0","8","0.0-0.0","3891","7249","24","Male","false","true","false","true","
","
","
","
","
","","","","","","","","","","","","","","","","","","","","","",""
"html-keyboard-response","1","4485","0.0-1.0","3891","7249","24","Male","false","true","false","true","
","
","
","
","
","4477","Welcome! Press the space bar to begin.","32","","","","","","","","","","","","","","","","","","",""
"audio-keyboard-response","2","9557","0.0-2.0","3891","7249","24","Male","false","true","false","true","
","
","
","
","
","5001","audio/beep_loop.wav","32","","","","","","","","","","","","","","","","","","",""
"audio-button-response","3","16416","0.0-3.0","3891","7249","24","Male","false","true","false","true","
","
","
","
","
","NaN","audio/fish.mp3","","1","","","","","","","","","","","","","","","","","",""
"audio-button-response","4","19632","0.0-4.0","3891","7249","24","Male","false","true","false","true","""event"",""trial"",""time""
""fullscreenenter"",""5"",""23213""
","
","
","""event"",""trial"",""time""
""fullscreenenter"",""5"",""23213""
","
","NaN","audio/tiger.mp3","","4","","","","","","","","","","","","","","","","","",""
"fullscreen","5","23935","0.0-5.0","3891","7249","24","Male","false","true","false","true","""event"",""trial"",""time""
""fullscreenenter"",""5"",""23213""
","
","
","""event"",""trial"",""time""
""fullscreenenter"",""5"",""23213""
","
","","","","","true","","","","","","","","","","","","","","","","",""
"d3-instructions","6","41025","0.0-6.0","3891","7249","24","Male","false","true","false","true","""event"",""trial"",""time""
""fullscreenenter"",""5"",""23213""
","
","
","""event"",""trial"",""time""
""fullscreenenter"",""5"",""23213""
","
","","","","","","","","","","","","","","","","","","","","","",""
"d3-instructions","7","52200","0.0-7.0","3891","7249","24","Male","false","true","false","true","""event"",""trial"",""time""
""fullscreenenter"",""5"",""23213""
","
","
","""event"",""trial"",""time""
""fullscreenenter"",""5"",""23213""
","
","","","","","","","","","","","","","","","","","","","","","",""
"d3-instructions","8","60469","0.0-8.0","3891","7249","24","Male","false","true","false","true","""event"",""trial"",""time""
""fullscreenenter"",""5"",""23213""
","
","
","""event"",""trial"",""time""
""fullscreenenter"",""5"",""23213""
","
","","","","","","","","","","","","","","","","","","","","","",""
"d3-instructions","9","71943","0.0-9.0","3891","7249","24","Male","false","true","false","true","""event"",""trial"",""time""
""fullscreenenter"",""5"",""23213""
","
","
","""event"",""trial"",""time""
""fullscreenenter"",""5"",""23213""
","
","","","","","","","","","","","","","","","","","","","","","",""
"d3-instructions","10","123360","0.0-10.0","3891","7249","24","Male","false","true","false","true","""event"",""trial"",""time""
""fullscreenenter"",""5"",""23213""
","
","
","""event"",""trial"",""time""
""fullscreenenter"",""5"",""23213""
","
","","","","","","","","","","","","","","","","","","","","","",""
"d3-animate-choice","11","129157","0.0-11.0","3891","7249","24","Male","false","true","false","true","""event"",""trial"",""time""
""fullscreenenter"",""5"",""23213""
","
","
","""event"",""trial"",""time""
""fullscreenenter"",""5"",""23213""
","
","3789","","49","","","3000","1","5018,5530","48,48","images/tutgreenplanet.jpg","images/tutalien1","images/tutalien2","null","images/tutalien2","","NA","practice","null","","","",""
"d3-animate-choice","12","132225","0.0-12.0","3891","7249","24","Male","false","true","false","true","""event"",""trial"",""time""
""fullscreenenter"",""5"",""23213""
","
","
","""event"",""trial"",""time""
""fullscreenenter"",""5"",""23213""
","
","1061","","48","","","3000","1","","","images/tutgreenplanet.jpg","images/tutalien1","images/tutalien2","null","images/tutalien1","","NA","practice","null","","","",""
"d3-animate-choice","13","135821","0.0-13.0","3891","7249","24","Male","false","true","false","true","""event"",""trial"",""time""
""fullscreenenter"",""5"",""23213""
","
","
","""event"",""trial"",""time""
""fullscreenenter"",""5"",""23213""
","
","1588","","49","","","3000","1","","","images/tutgreenplanet.jpg","images/tutalien1","images/tutalien2","null","images/tutalien2","","NA","practice","null","","","",""
"d3-animate-choice","14","138150","0.0-14.0","3891","7249","24","Male","false","true","false","true","""event"",""trial"",""time""
""fullscreenenter"",""5"",""23213""
","
","
","""event"",""trial"",""time""
""fullscreenenter"",""5"",""23213""
","
","322","","48","","","3000","1","","","images/tutgreenplanet.jpg","images/tutalien1","images/tutalien2","null","images/tutalien1","","NA","practice","null","","","",""
"d3-instructions","15","146773","0.0-15.0","3891","7249","24","Male","false","true","false","true","""event"",""trial"",""time""
""fullscreenenter"",""5"",""23213""
","
","
","""event"",""trial"",""time""
""fullscreenenter"",""5"",""23213""
","
","","","","","","","","","","","","","","","","","","","","","",""
"d3-instructions","16","149785","0.0-16.0","3891","7249","24","Male","false","true","false","true","""event"",""trial"",""time""
""fullscreenenter"",""5"",""23213""
","
","
","""event"",""trial"",""time""
""fullscreenenter"",""5"",""23213""
","
","","","","","","","","","","","","","","","","","","","","","",""
"d3-instructions","17","154434","0.0-17.0","3891","7249","24","Male","false","true","false","true","""event"",""trial"",""time""
""fullscreenenter"",""5"",""23213""
","
","
","""event"",""trial"",""time""
""fullscreenenter"",""5"",""23213""
","
","","","","","","","","","","","","","","","","","","","","","",""
"d3-instructions","18","167286","0.0-18.0","3891","7249","24","Male","false","true","false","true","""event"",""trial"",""time""
""fullscreenenter"",""5"",""23213""
","
","
","""event"",""trial"",""time""
""fullscreenenter"",""5"",""23213""
","
","","","","","","","","","","","","","","","","","","","","","",""
"d3-instructions","19","184764","0.0-19.0","3891","7249","24","Male","false","true","false","true","""event"",""trial"",""time""
""fullscreenenter"",""5"",""23213""
","
","
","""event"",""trial"",""time""
""fullscreenenter"",""5"",""23213""
","
","","","","","","","","","","","","","","","","","","","","","",""
"d3-animate-choice","20","187539","0.0-20.0","3891","7249","24","Male","false","true","false","true","""event"",""trial"",""time""
""fullscreenenter"",""5"",""23213""
","
","
","""event"",""trial"",""time""
""fullscreenenter"",""5"",""23213""
","
","767","","49","","","3000","1","1764","49","images/tutyellowplanet.jpg","null","images/tutalien3","null","images/tutalien3","images/t.png","NA","practice","null","","","",""
"d3-animate-choice","21","189921","0.0-21.0","3891","7249","24","Male","false","true","false","true","""event"",""trial"",""time""
""fullscreenenter"",""5"",""23213""
","
","
","""event"",""trial"",""time""
""fullscreenenter"",""5"",""23213""
","
","380","","49","","","3000","1","822,1882","49,49","images/tutyellowplanet.jpg","null","images/tutalien3","null","images/tutalien3","images/t.png","NA","practice","null","","","",""
"d3-animate-choice","22","192352","0.0-22.0","3891","7249","24","Male","false","true","false","true","""event"",""trial"",""time""
""fullscreenenter"",""5"",""23213""
","
","
","""event"",""trial"",""time""
""fullscreenenter"",""5"",""23213""
","
","424","","49","","","3000","1","","","images/tutyellowplanet.jpg","null","images/tutalien3","null","images/tutalien3","images/t.png","NA","practice","null","","","",""
"d3-animate-choice","23","194758","0.0-23.0","3891","7249","24","Male","false","true","false","true","""event"",""trial"",""time""
""fullscreenenter"",""5"",""23213""
","
","
","""event"",""trial"",""time""
""fullscreenenter"",""5"",""23213""
","
","398","","49","","","3000","1","","","images/tutyellowplanet.jpg","null","images/tutalien3","null","images/tutalien3","images/t.png","NA","practice","null","","","",""
"d3-animate-choice","24","197080","0.0-24.0","3891","7249","24","Male","false","true","false","true","""event"",""trial"",""time""
""fullscreenenter"",""5"",""23213""
","
","
","""event"",""trial"",""time""
""fullscreenenter"",""5"",""23213""
","
","315","","49","","","3000","1","","","images/tutyellowplanet.jpg","null","images/tutalien3","null","images/tutalien3","images/t.png","NA","practice","null","","","",""
"d3-animate-choice","25","199395","0.0-25.0","3891","7249","24","Male","false","true","false","true","""event"",""trial"",""time""
""fullscreenenter"",""5"",""23213""
","
","
","""event"",""trial"",""time""
""fullscreenenter"",""5"",""23213""
","
","311","","49","","","3000","1","","","images/tutyellowplanet.jpg","null","images/tutalien3","null","images/tutalien3","images/nothing.png","NA","practice","null","","","",""
"d3-animate-choice","26","201752","0.0-26.0","3891","7249","24","Male","false","true","false","true","""event"",""trial"",""time""
""fullscreenenter"",""5"",""23213""
","
","
","""event"",""trial"",""time""
""fullscreenenter"",""5"",""23213""
","
","349","","49","","","3000","1","2059","49","images/tutyellowplanet.jpg","null","images/tutalien3","null","images/tutalien3","images/t.png","NA","practice","null","","","",""
"d3-animate-choice","27","204048","0.0-27.0","3891","7249","24","Male","false","true","false","true","""event"",""trial"",""time""
""fullscreenenter"",""5"",""23213""
","
","
","""event"",""trial"",""time""
""fullscreenenter"",""5"",""23213""
","
","294","","49","","","3000","1","","","images/tutyellowplanet.jpg","null","images/tutalien3","null","images/tutalien3","images/t.png","NA","practice","null","","","",""
"d3-animate-choice","28","206405","0.0-28.0","3891","7249","24","Male","false","true","false","true","""event"",""trial"",""time""
""fullscreenenter"",""5"",""23213""
","
","
","""event"",""trial"",""time""
""fullscreenenter"",""5"",""23213""
","
","355","","49","","","3000","1","","","images/tutyellowplanet.jpg","null","images/tutalien3","null","images/tutalien3","images/t.png","NA","practice","null","","","",""
"d3-animate-choice","29","208926","0.0-29.0","3891","7249","24","Male","false","true","false","true","""event"",""trial"",""time""
""fullscreenenter"",""5"",""23213""
","
","
","""event"",""trial"",""time""
""fullscreenenter"",""5"",""23213""
","
","516","","49","","","3000","1","","","images/tutyellowplanet.jpg","null","images/tutalien3","null","images/tutalien3","images/t.png","NA","practice","null","","","",""
"d3-instructions","30","214888","0.0-30.0","3891","7249","24","Male","false","true","false","true","""event"",""trial"",""time""
""fullscreenenter"",""5"",""23213""
","
","
","""event"",""trial"",""time""
""fullscreenenter"",""5"",""23213""
","
","","","","","","","","","","","","","","","","","","","","","",""
"d3-instructions","31","220851","0.0-31.0","3891","7249","24","Male","false","true","false","true","""event"",""trial"",""time""
""fullscreenenter"",""5"",""23213""
","
","
","""event"",""trial"",""time""
""fullscreenenter"",""5"",""23213""
","
","","","","","","","","","","","","","","","","","","","","","",""
"d3-instructions","32","227150","0.0-32.0","3891","7249","24","Male","false","true","false","true","""event"",""trial"",""time""
""fullscreenenter"",""5"",""23213""
","
","
","""event"",""trial"",""time""
""fullscreenenter"",""5"",""23213""
","
","","","","","","","","","","","","","","","","","","","","","",""
"d3-instructions","33","231387","0.0-33.0","3891","7249","24","Male","false","true","false","true","""event"",""trial"",""time""
""fullscreenenter"",""5"",""23213""
","
","
","""event"",""trial"",""time""
""fullscreenenter"",""5"",""23213""
","
","","","","","","","","","","","","","","","","","","","","","",""
"d3-animate-choice","34","234098","0.0-34.0","3891","7249","24","Male","false","true","false","true","""event"",""trial"",""time""
""fullscreenenter"",""5"",""23213""
","
","
","""event"",""trial"",""time""
""fullscreenenter"",""5"",""23213""
","
","705","","48","","","3000","1","","","images/tutgreenplanet.jpg","images/tutalien1","images/tutalien2","null","images/tutalien1","images/nothing.png","NA","practice","null","","","",""
"d3-animate-choice","35","236496","0.0-35.0","3891","7249","24","Male","false","true","false","true","""event"",""trial"",""time""
""fullscreenenter"",""5"",""23213""
","
","
","""event"",""trial"",""time""
""fullscreenenter"",""5"",""23213""
","
","393","","48","","","3000","1","","","images/tutgreenplanet.jpg","images/tutalien1","images/tutalien2","null","images/tutalien1","images/nothing.png","NA","practice","null","","","",""
"d3-animate-choice","36","238997","0.0-36.0","3891","7249","24","Male","false","true","false","true","""event"",""trial"",""time""
""fullscreenenter"",""5"",""23213""
","
","
","""event"",""trial"",""time""
""fullscreenenter"",""5"",""23213""
","
","495","","48","","","3000","1","","","images/tutgreenplanet.jpg","images/tutalien1","images/tutalien2","null","images/tutalien1","images/nothing.png","NA","practice","null","","","",""
"d3-animate-choice","37","241355","0.0-37.0","3891","7249","24","Male","false","true","false","true","""event"",""trial"",""time""
""fullscreenenter"",""5"",""23213""
","
","
","""event"",""trial"",""time""
""fullscreenenter"",""5"",""23213""
","
","350","","49","","","3000","1","","","images/tutgreenplanet.jpg","images/tutalien1","images/tutalien2","null","images/tutalien2","images/t.png","NA","practice","null","","","",""
"d3-animate-choice","38","243681","0.0-38.0","3891","7249","24","Male","false","true","false","true","""event"",""trial"",""time""
""fullscreenenter"",""5"",""23213""
","
","
","""event"",""trial"",""time""
""fullscreenenter"",""5"",""23213""
","
","323","","49","","","3000","1","","","images/tutgreenplanet.jpg","images/tutalien1","images/tutalien2","null","images/tutalien2","images/t.png","NA","practice","null","","","",""
"d3-animate-choice","39","246006","0.0-39.0","3891","7249","24","Male","false","true","false","true","""event"",""trial"",""time""
""fullscreenenter"",""5"",""23213""
","
","
","""event"",""trial"",""time""
""fullscreenenter"",""5"",""23213""
","
","318","","49","","","3000","1","1808","49","images/tutgreenplanet.jpg","images/tutalien1","images/tutalien2","null","images/tutalien2","images/t.png","NA","practice","null","","","",""
"d3-animate-choice","40","248341","0.0-40.0","3891","7249","24","Male","false","true","false","true","""event"",""trial"",""time""
""fullscreenenter"",""5"",""23213""
","
","
","""event"",""trial"",""time""
""fullscreenenter"",""5"",""23213""
","
","331","","49","","","3000","1","","","images/tutgreenplanet.jpg","images/tutalien1","images/tutalien2","null","images/tutalien2","images/t.png","NA","practice","null","","","",""
"d3-animate-choice","41","250759","0.0-41.0","3891","7249","24","Male","false","true","false","true","""event"",""trial"",""time""
""fullscreenenter"",""5"",""23213""
","
","
","""event"",""trial"",""time""
""fullscreenenter"",""5"",""23213""
","
","412","","49","","","3000","1","","","images/tutgreenplanet.jpg","images/tutalien1","images/tutalien2","null","images/tutalien2","images/t.png","NA","practice","null","","","",""
"d3-animate-choice","42","253058","0.0-42.0","3891","7249","24","Male","false","true","false","true","""event"",""trial"",""time""
""fullscreenenter"",""5"",""23213""
","
","
","""event"",""trial"",""time""
""fullscreenenter"",""5"",""23213""
","
","293","","49","","","3000","1","","","images/tutgreenplanet.jpg","images/tutalien1","images/tutalien2","null","images/tutalien2","images/t.png","NA","practice","null","","","",""
"d3-animate-choice","43","255364","0.0-43.0","3891","7249","24","Male","false","true","false","true","""event"",""trial"",""time""
""fullscreenenter"",""5"",""23213""
","
","
","""event"",""trial"",""time""
""fullscreenenter"",""5"",""23213""
","
","303","","49","","","3000","1","","","images/tutgreenplanet.jpg","images/tutalien1","images/tutalien2","null","images/tutalien2","images/t.png","NA","practice","null","","","",""
"d3-instructions","44","263213","0.0-44.0","3891","7249","24","Male","false","true","false","true","""event"",""trial"",""time""
""fullscreenenter"",""5"",""23213""
","
","
","""event"",""trial"",""time""
""fullscreenenter"",""5"",""23213""
","
","","","","","","","","","","","","","","","","","","","","","",""
"d3-instructions","45","266233","0.0-45.0","3891","7249","24","Male","false","true","false","true","""event"",""trial"",""time""
""fullscreenenter"",""5"",""23213""
","
","
","""event"",""trial"",""time""
""fullscreenenter"",""5"",""23213""
","
","","","","","","","","","","","","","","","","","","","","","",""
"d3-instructions","46","270920","0.0-46.0","3891","7249","24","Male","false","true","false","true","""event"",""trial"",""time""
""fullscreenenter"",""5"",""23213""
","
","
","""event"",""trial"",""time""
""fullscreenenter"",""5"",""23213""
","
","","","","","","","","","","","","","","","","","","","","","",""
"d3-instructions","47","280431","0.0-47.0","3891","7249","24","Male","false","true","false","true","""event"",""trial"",""time""
""fullscreenenter"",""5"",""23213""
","
","
","""event"",""trial"",""time""
""fullscreenenter"",""5"",""23213""
","
","","","","","","","","","","","","","","","","","","","","","",""
"d3-instructions","48","283944","0.0-48.0","3891","7249","24","Male","false","true","false","true","""event"",""trial"",""time""
""fullscreenenter"",""5"",""23213""
","
","
","""event"",""trial"",""time""
""fullscreenenter"",""5"",""23213""
","
","","","","","","","","","","","","","","","","","","","","","",""
"d3-instructions","49","289840","0.0-49.0","3891","7249","24","Male","false","true","false","true","""event"",""trial"",""time""
""fullscreenenter"",""5"",""23213""
","
","
","""event"",""trial"",""time""
""fullscreenenter"",""5"",""23213""
","
","","","","","","","","","","","","","","","","","","","","","",""
"d3-instructions","50","295300","0.0-50.0","3891","7249","24","Male","false","true","false","true","""event"",""trial"",""time""
""fullscreenenter"",""5"",""23213""
","
","
","""event"",""trial"",""time""
""fullscreenenter"",""5"",""23213""
","
","","","","","","","","","","","","","","","","","","","","","",""
"d3-instructions","51","297077","0.0-51.0","3891","7249","24","Male","false","true","false","true","""event"",""trial"",""time""
""fullscreenenter"",""5"",""23213""
","
","
","""event"",""trial"",""time""
""fullscreenenter"",""5"",""23213""
","
","","","","","","","","","","","","","","","","","","","","","",""
"d3-instructions","52","298512","0.0-52.0","3891","7249","24","Male","false","true","false","true","""event"",""trial"",""time""
""fullscreenenter"",""5"",""23213""
","
","
","""event"",""trial"",""time""
""fullscreenenter"",""5"",""23213""
","
","","","","","","","","","","","","","","","","","","","","","",""
"d3-instructions","53","305551","0.0-53.0","3891","7249","24","Male","false","true","false","true","""event"",""trial"",""time""
""fullscreenenter"",""5"",""23213""
","
","
","""event"",""trial"",""time""
""fullscreenenter"",""5"",""23213""
","
","","","","","","","","","","","","","","","","","","","","","",""
"d3-instructions","54","311699","0.0-54.0","3891","7249","24","Male","false","true","false","true","""event"",""trial"",""time""
""fullscreenenter"",""5"",""23213""
","
","
","""event"",""trial"",""time""
""fullscreenenter"",""5"",""23213""
","
","","","","","","","","","","","","","","","","","","","","","",""
"d3-instructions","55","316145","0.0-55.0","3891","7249","24","Male","false","true","false","true","""event"",""trial"",""time""
""fullscreenenter"",""5"",""23213""
","
","
","""event"",""trial"",""time""
""fullscreenenter"",""5"",""23213""
","
","","","","","","","","","","","","","","","","","","","","","",""
"d3-instructions","56","319917","0.0-56.0","3891","7249","24","Male","false","true","false","true","""event"",""trial"",""time""
""fullscreenenter"",""5"",""23213""
","
","
","""event"",""trial"",""time""
""fullscreenenter"",""5"",""23213""
","
","","","","","","","","","","","","","","","","","","","","","",""
"d3-instructions","57","325287","0.0-57.0","3891","7249","24","Male","false","true","false","true","""event"",""trial"",""time""
""fullscreenenter"",""5"",""23213""
","
","
","""event"",""trial"",""time""
""fullscreenenter"",""5"",""23213""
","
","","","","","","","","","","","","","","","","","","","","","",""
"d3-instructions","58","336869","0.0-58.0","3891","7249","24","Male","false","true","false","true","""event"",""trial"",""time""
""fullscreenenter"",""5"",""23213""
","
","
","""event"",""trial"",""time""
""fullscreenenter"",""5"",""23213""
","
","","","","","","","","","","","","","","","","","","","","","",""
"d3-instructions","59","342485","0.0-59.0","3891","7249","24","Male","false","true","false","true","""event"",""trial"",""time""
""fullscreenenter"",""5"",""23213""
","
","
","""event"",""trial"",""time""
""fullscreenenter"",""5"",""23213""
","
","","","","","","","","","","","","","","","","","","","","","",""
"d3-instructions","60","345826","0.0-60.0","3891","7249","24","Male","false","true","false","true","""event"",""trial"",""time""
""fullscreenenter"",""5"",""23213""
","
","
","""event"",""trial"",""time""
""fullscreenenter"",""5"",""23213""
","
","","","","","","","","","","","","","","","","","","","","","",""
"d3-animate-choice","61","348479","0.0-61.0-0.0","3891","7249","24","Male","false","true","false","true","""event"",""trial"",""time""
""fullscreenenter"",""5"",""23213""
","
","
","""event"",""trial"",""time""
""fullscreenenter"",""5"",""23213""
","
","642","","48","","","3000","1","","","images/earth.jpg","images/tutrocket1","images/tutrocket2","null","images/tutrocket1","","1","practice","null","2","","",""
"d3-animate-choice","62","352487","0.0-61.0-1.0","3891","7249","24","Male","false","true","false","true","""event"",""trial"",""time""
""fullscreenenter"",""5"",""23213""
","
","
","""event"",""trial"",""time""
""fullscreenenter"",""5"",""23213""
","
","2477","","49","","","3000","1","","","images/tutgreenplanet.jpg","images/tutalien2","images/tutalien1","images/tutrocket1","images/tutalien1","images/nothing.png","2","practice","true","1","common","0","2023-03-03 22:39:10.349"
"two-step-fixation","63","353495","0.0-61.0-2.0","3891","7249","24","Male","false","true","false","true","""event"",""trial"",""time""
""fullscreenenter"",""5"",""23213""
","
","
","""event"",""trial"",""time""
""fullscreenenter"",""5"",""23213""
","
","","images/earth.jpg","","","","","","","","","","","","","","fixation","","","","","",""
"d3-animate-choice","64","356102","0.0-61.0-0.1","3891","7249","24","Male","false","true","false","true","""event"",""trial"",""time""
""fullscreenenter"",""5"",""23213""
","
","
","""event"",""trial"",""time""
""fullscreenenter"",""5"",""23213""
","
","599","","48","","","3000","1","","","images/earth.jpg","images/tutrocket1","images/tutrocket2","null","images/tutrocket1","","1","practice","null","2","","",""
"d3-animate-choice","65","358843","0.0-61.0-1.1","3891","7249","24","Male","false","true","false","true","""event"",""trial"",""time""
""fullscreenenter"",""5"",""23213""
","
","
","""event"",""trial"",""time""
""fullscreenenter"",""5"",""23213""
","
","737","","48","","","3000","1","","","images/tutyellowplanet.jpg","images/tutalien4","images/tutalien3","images/tutrocket1","images/tutalien4","images/t.png","2","practice","false","2","rare","1","2023-03-03 22:39:16.705"
"two-step-fixation","66","359847","0.0-61.0-2.1","3891","7249","24","Male","false","true","false","true","""event"",""trial"",""time""
""fullscreenenter"",""5"",""23213""
","
","
","""event"",""trial"",""time""
""fullscreenenter"",""5"",""23213""
","
","","images/earth.jpg","","","","","","","","","","","","","","fixation","","","","","",""
"d3-animate-choice","67","362251","0.0-61.0-0.2","3891","7249","24","Male","false","true","false","true","""event"",""trial"",""time""
""fullscreenenter"",""5"",""23213""
","
","
","""event"",""trial"",""time""
""fullscreenenter"",""5"",""23213""
","
","401","","48","","","3000","1","","","images/earth.jpg","images/tutrocket1","images/tutrocket2","null","images/tutrocket1","","1","practice","null","2","","",""
"d3-animate-choice","68","364681","0.0-61.0-1.2","3891","7249","24","Male","false","true","false","true","""event"",""trial"",""time""
""fullscreenenter"",""5"",""23213""
","
","
","""event"",""trial"",""time""
""fullscreenenter"",""5"",""23213""
","
","426","","48","","","3000","1","","","images/tutyellowplanet.jpg","images/tutalien4","images/tutalien3","images/tutrocket1","images/tutalien4","images/t.png","2","practice","false","2","rare","1","2023-03-03 22:39:22.543"
"two-step-fixation","69","365683","0.0-61.0-2.2","3891","7249","24","Male","false","true","false","true","""event"",""trial"",""time""
""fullscreenenter"",""5"",""23213""
","
","
","""event"",""trial"",""time""
""fullscreenenter"",""5"",""23213""
","
","","images/earth.jpg","","","","","","","","","","","","","","fixation","","","","","",""
"d3-animate-choice","70","368094","0.0-61.0-0.3","3891","7249","24","Male","false","true","false","true","""event"",""trial"",""time""
""fullscreenenter"",""5"",""23213""
","
","
","""event"",""trial"",""time""
""fullscreenenter"",""5"",""23213""
","
","403","","48","","","3000","1","","","images/earth.jpg","images/tutrocket1","images/tutrocket2","null","images/tutrocket1","","1","practice","null","2","","",""
"d3-animate-choice","71","370705","0.0-61.0-1.3","3891","7249","24","Male","false","true","false","true","""event"",""trial"",""time""
""fullscreenenter"",""5"",""23213""
","
","
","""event"",""trial"",""time""
""fullscreenenter"",""5"",""23213""
","
","605","","48","","","3000","1","","","images/tutgreenplanet.jpg","images/tutalien2","images/tutalien1","images/tutrocket1","images/tutalien2","images/nothing.png","2","practice","true","2","common","0","2023-03-03 22:39:28.568"
"two-step-fixation","72","371711","0.0-61.0-2.3","3891","7249","24","Male","false","true","false","true","""event"",""trial"",""time""
""fullscreenenter"",""5"",""23213""
","
","
","""event"",""trial"",""time""
""fullscreenenter"",""5"",""23213""
","
","","images/earth.jpg","","","","","","","","","","","","","","fixation","","","","","",""
"d3-animate-choice","73","374173","0.0-61.0-0.4","3891","7249","24","Male","false","true","false","true","""event"",""trial"",""time""
""fullscreenenter"",""5"",""23213""
","
","
","""event"",""trial"",""time""
""fullscreenenter"",""5"",""23213""
","
","457","","49","","","3000","1","","","images/earth.jpg","images/tutrocket1","images/tutrocket2","null","images/tutrocket2","","1","practice","null","1","","",""
"d3-animate-choice","74","376828","0.0-61.0-1.4","3891","7249","24","Male","false","true","false","true","""event"",""trial"",""time""
""fullscreenenter"",""5"",""23213""
","
","
","""event"",""trial"",""time""
""fullscreenenter"",""5"",""23213""
","
","648","","48","","","3000","1","","","images/tutyellowplanet.jpg","images/tutalien4","images/tutalien3","images/tutrocket2","images/tutalien4","images/t.png","2","practice","true","2","common","1","2023-03-03 22:39:34.690"
"two-step-fixation","75","377833","0.0-61.0-2.4","3891","7249","24","Male","false","true","false","true","""event"",""trial"",""time""
""fullscreenenter"",""5"",""23213""
","
","
","""event"",""trial"",""time""
""fullscreenenter"",""5"",""23213""
","
","","images/earth.jpg","","","","","","","","","","","","","","fixation","","","","","",""
"d3-animate-choice","76","380718","0.0-61.0-0.5","3891","7249","24","Male","false","true","false","true","""event"",""trial"",""time""
""fullscreenenter"",""5"",""23213""
","
","
","""event"",""trial"",""time""
""fullscreenenter"",""5"",""23213""
","
","876","","48","","","3000","1","","","images/earth.jpg","images/tutrocket1","images/tutrocket2","null","images/tutrocket1","","1","practice","null","2","","",""
"d3-animate-choice","77","383169","0.0-61.0-1.5","3891","7249","24","Male","false","true","false","true","""event"",""trial"",""time""
""fullscreenenter"",""5"",""23213""
","
","
","""event"",""trial"",""time""
""fullscreenenter"",""5"",""23213""
","
","447","","49","","","3000","1","","","images/tutgreenplanet.jpg","images/tutalien2","images/tutalien1","images/tutrocket1","images/tutalien1","images/nothing.png","2","practice","true","1","common","0","2023-03-03 22:39:41.032"
"two-step-fixation","78","384176","0.0-61.0-2.5","3891","7249","24","Male","false","true","false","true","""event"",""trial"",""time""
""fullscreenenter"",""5"",""23213""
","
","
","""event"",""trial"",""time""
""fullscreenenter"",""5"",""23213""
","
","","images/earth.jpg","","","","","","","","","","","","","","fixation","","","","","",""
"d3-animate-choice","79","386720","0.0-61.0-0.6","3891","7249","24","Male","false","true","false","true","""event"",""trial"",""time""
""fullscreenenter"",""5"",""23213""
","
","
","""event"",""trial"",""time""
""fullscreenenter"",""5"",""23213""
","
","537","","48","","","3000","1","","","images/earth.jpg","images/tutrocket1","images/tutrocket2","null","images/tutrocket1","","1","practice","null","2","","",""
"d3-animate-choice","80","389606","0.0-61.0-1.6","3891","7249","24","Male","false","true","false","true","""event"",""trial"",""time""
""fullscreenenter"",""5"",""23213""
","
","
","""event"",""trial"",""time""
""fullscreenenter"",""5"",""23213""
","
","880","","48","","","3000","1","","","images/tutgreenplanet.jpg","images/tutalien2","images/tutalien1","images/tutrocket1","images/tutalien2","images/nothing.png","2","practice","true","2","common","0","2023-03-03 22:39:47.468"
"two-step-fixation","81","390607","0.0-61.0-2.6","3891","7249","24","Male","false","true","false","true","""event"",""trial"",""time""
""fullscreenenter"",""5"",""23213""
","
","
","""event"",""trial"",""time""
""fullscreenenter"",""5"",""23213""
","
","","images/earth.jpg","","","","","","","","","","","","","","fixation","","","","","",""
"d3-animate-choice","82","393208","0.0-61.0-0.7","3891","7249","24","Male","false","true","false","true","""event"",""trial"",""time""
""fullscreenenter"",""5"",""23213""
","
","
","""event"",""trial"",""time""
""fullscreenenter"",""5"",""23213""
","
","598","","49","","","3000","1","","","images/earth.jpg","images/tutrocket1","images/tutrocket2","null","images/tutrocket2","","1","practice","null","1","","",""
"d3-animate-choice","83","396526","0.0-61.0-1.7","3891","7249","24","Male","false","true","false","true","""event"",""trial"",""time""
""fullscreenenter"",""5"",""23213""
","
","
","""event"",""trial"",""time""
""fullscreenenter"",""5"",""23213""
","
","1311","","48","","","3000","1","","","images/tutyellowplanet.jpg","images/tutalien4","images/tutalien3","images/tutrocket2","images/tutalien4","images/t.png","2","practice","true","2","common","1","2023-03-03 22:39:54.388"
"two-step-fixation","84","397529","0.0-61.0-2.7","3891","7249","24","Male","false","true","false","true","""event"",""trial"",""time""
""fullscreenenter"",""5"",""23213""
","
","
","""event"",""trial"",""time""
""fullscreenenter"",""5"",""23213""
","
","","images/earth.jpg","","","","","","","","","","","","","","fixation","","","","","",""
"d3-animate-choice","85","400354","0.0-61.0-0.8","3891","7249","24","Male","false","true","false","true","""event"",""trial"",""time""
""fullscreenenter"",""5"",""23213""
","
","
","""event"",""trial"",""time""
""fullscreenenter"",""5"",""23213""
","
","821","","48","","","3000","1","","","images/earth.jpg","images/tutrocket1","images/tutrocket2","null","images/tutrocket1","","1","practice","null","2","","",""
"d3-animate-choice","86","403229","0.0-61.0-1.8","3891","7249","24","Male","false","true","false","true","""event"",""trial"",""time""
""fullscreenenter"",""5"",""23213""
","
","
","""event"",""trial"",""time""
""fullscreenenter"",""5"",""23213""
","
","869","","48","","","3000","1","","","images/tutyellowplanet.jpg","images/tutalien4","images/tutalien3","images/tutrocket1","images/tutalien4","images/nothing.png","2","practice","false","2","rare","0","2023-03-03 22:40:01.091"
"two-step-fixation","87","404232","0.0-61.0-2.8","3891","7249","24","Male","false","true","false","true","""event"",""trial"",""time""
""fullscreenenter"",""5"",""23213""
","
","
","""event"",""trial"",""time""
""fullscreenenter"",""5"",""23213""
","
","","images/earth.jpg","","","","","","","","","","","","","","fixation","","","","","",""
"d3-animate-choice","88","406695","0.0-61.0-0.9","3891","7249","24","Male","false","true","false","true","""event"",""trial"",""time""
""fullscreenenter"",""5"",""23213""
","
","
","""event"",""trial"",""time""
""fullscreenenter"",""5"",""23213""
","
","458","","49","","","3000","1","","","images/earth.jpg","images/tutrocket1","images/tutrocket2","null","images/tutrocket2","","1","practice","null","1","","",""
"d3-animate-choice","89","409987","0.0-61.0-1.9","3891","7249","24","Male","false","true","false","true","""event"",""trial"",""time""
""fullscreenenter"",""5"",""23213""
","
","
","""event"",""trial"",""time""
""fullscreenenter"",""5"",""23213""
","
","1287","","49","","","3000","1","","","images/tutgreenplanet.jpg","images/tutalien2","images/tutalien1","images/tutrocket2","images/tutalien1","images/nothing.png","2","practice","false","1","rare","0","2023-03-03 22:40:07.850"
"two-step-fixation","90","410990","0.0-61.0-2.9","3891","7249","24","Male","false","true","false","true","""event"",""trial"",""time""
""fullscreenenter"",""5"",""23213""
","
","
","""event"",""trial"",""time""
""fullscreenenter"",""5"",""23213""
","
","","images/earth.jpg","","","","","","","","","","","","","","fixation","","","","","",""
"d3-animate-choice","91","413611","0.0-61.0-0.10","3891","7249","24","Male","false","true","false","true","""event"",""trial"",""time""
""fullscreenenter"",""5"",""23213""
","
","
","""event"",""trial"",""time""
""fullscreenenter"",""5"",""23213""
","
","616","","48","","","3000","1","","","images/earth.jpg","images/tutrocket1","images/tutrocket2","null","images/tutrocket1","","1","practice","null","2","","",""
"d3-animate-choice","92","416571","0.0-61.0-1.10","3891","7249","24","Male","false","true","false","true","""event"",""trial"",""time""
""fullscreenenter"",""5"",""23213""
","
","
","""event"",""trial"",""time""
""fullscreenenter"",""5"",""23213""
","
","957","","48","","","3000","1","","","images/tutgreenplanet.jpg","images/tutalien2","images/tutalien1","images/tutrocket1","images/tutalien2","images/nothing.png","2","practice","true","2","common","0","2023-03-03 22:40:14.433"
"two-step-fixation","93","417577","0.0-61.0-2.10","3891","7249","24","Male","false","true","false","true","""event"",""trial"",""time""
""fullscreenenter"",""5"",""23213""
","
","
","""event"",""trial"",""time""
""fullscreenenter"",""5"",""23213""
","
","","images/earth.jpg","","","","","","","","","","","","","","fixation","","","","","",""
"d3-animate-choice","94","419959","0.0-61.0-0.11","3891","7249","24","Male","false","true","false","true","""event"",""trial"",""time""
""fullscreenenter"",""5"",""23213""
","
","
","""event"",""trial"",""time""
""fullscreenenter"",""5"",""23213""
","
","378","","48","","","3000","1","","","images/earth.jpg","images/tutrocket1","images/tutrocket2","null","images/tutrocket1","","1","practice","null","2","","",""
"d3-animate-choice","95","422445","0.0-61.0-1.11","3891","7249","24","Male","false","true","false","true","""event"",""trial"",""time""
""fullscreenenter"",""5"",""23213""
","
","
","""event"",""trial"",""time""
""fullscreenenter"",""5"",""23213""
","
","482","","48","","","3000","1","","","images/tutgreenplanet.jpg","images/tutalien2","images/tutalien1","images/tutrocket1","images/tutalien2","images/t.png","2","practice","true","2","common","1","2023-03-03 22:40:20.307"
"two-step-fixation","96","423448","0.0-61.0-2.11","3891","7249","24","Male","false","true","false","true","""event"",""trial"",""time""
""fullscreenenter"",""5"",""23213""
","
","
","""event"",""trial"",""time""
""fullscreenenter"",""5"",""23213""
","
","","images/earth.jpg","","","","","","","","","","","","","","fixation","","","","","",""
"d3-animate-choice","97","426032","0.0-61.0-0.12","3891","7249","24","Male","false","true","false","true","""event"",""trial"",""time""
""fullscreenenter"",""5"",""23213""
","
","
","""event"",""trial"",""time""
""fullscreenenter"",""5"",""23213""
","
","580","","49","","","3000","1","","","images/earth.jpg","images/tutrocket1","images/tutrocket2","null","images/tutrocket2","","1","practice","null","1","","",""
"d3-animate-choice","98","428790","0.0-61.0-1.12","3891","7249","24","Male","false","true","false","true","""event"",""trial"",""time""
""fullscreenenter"",""5"",""23213""
","
","
","""event"",""trial"",""time""
""fullscreenenter"",""5"",""23213""
","
","755","","49","","","3000","1","","","images/tutgreenplanet.jpg","images/tutalien2","images/tutalien1","images/tutrocket2","images/tutalien1","images/nothing.png","2","practice","false","1","rare","0","2023-03-03 22:40:26.652"
"two-step-fixation","99","429792","0.0-61.0-2.12","3891","7249","24","Male","false","true","false","true","""event"",""trial"",""time""
""fullscreenenter"",""5"",""23213""
","
","
","""event"",""trial"",""time""
""fullscreenenter"",""5"",""23213""
","
","","images/earth.jpg","","","","","","","","","","","","","","fixation","","","","","",""
"d3-animate-choice","100","432266","0.0-61.0-0.13","3891","7249","24","Male","false","true","false","true","""event"",""trial"",""time""
""fullscreenenter"",""5"",""23213""
","
","
","""event"",""trial"",""time""
""fullscreenenter"",""5"",""23213""
","
","471","","48","","","3000","1","","","images/earth.jpg","images/tutrocket1","images/tutrocket2","null","images/tutrocket1","","1","practice","null","2","","",""
"d3-animate-choice","101","435266","0.0-61.0-1.13","3891","7249","24","Male","false","true","false","true","""event"",""trial"",""time""
""fullscreenenter"",""5"",""23213""
","
","
","""event"",""trial"",""time""
""fullscreenenter"",""5"",""23213""
","
","996","","48","","","3000","1","","","images/tutgreenplanet.jpg","images/tutalien2","images/tutalien1","images/tutrocket1","images/tutalien2","images/nothing.png","2","practice","true","2","common","0","2023-03-03 22:40:33.128"
"two-step-fixation","102","436270","0.0-61.0-2.13","3891","7249","24","Male","false","true","false","true","""event"",""trial"",""time""
""fullscreenenter"",""5"",""23213""
","
","
","""event"",""trial"",""time""
""fullscreenenter"",""5"",""23213""
","
","","images/earth.jpg","","","","","","","","","","","","","","fixation","","","","","",""
"d3-animate-choice","103","438777","0.0-61.0-0.14","3891","7249","24","Male","false","true","false","true","""event"",""trial"",""time""
""fullscreenenter"",""5"",""23213""
","
","
","""event"",""trial"",""time""
""fullscreenenter"",""5"",""23213""
","
","504","","49","","","3000","1","752","49","images/earth.jpg","images/tutrocket1","images/tutrocket2","null","images/tutrocket2","","1","practice","null","1","","",""
"d3-animate-choice","104","441639","0.0-61.0-1.14","3891","7249","24","Male","false","true","false","true","""event"",""trial"",""time""
""fullscreenenter"",""5"",""23213""
","
","
","""event"",""trial"",""time""
""fullscreenenter"",""5"",""23213""
","
","853","","49","","","3000","1","","","images/tutyellowplanet.jpg","images/tutalien4","images/tutalien3","images/tutrocket2","images/tutalien3","images/t.png","2","practice","true","1","common","1","2023-03-03 22:40:39.501"
"two-step-fixation","105","442646","0.0-61.0-2.14","3891","7249","24","Male","false","true","false","true","""event"",""trial"",""time""
""fullscreenenter"",""5"",""23213""
","
","
","""event"",""trial"",""time""
""fullscreenenter"",""5"",""23213""
","
","","images/earth.jpg","","","","","","","","","","","","","","fixation","","","","","",""
"d3-animate-choice","106","445128","0.0-61.0-0.15","3891","7249","24","Male","false","true","false","true","""event"",""trial"",""time""
""fullscreenenter"",""5"",""23213""
","
","
","""event"",""trial"",""time""
""fullscreenenter"",""5"",""23213""
","
","478","","48","","","3000","1","","","images/earth.jpg","images/tutrocket1","images/tutrocket2","null","images/tutrocket1","","1","practice","null","2","","",""
"d3-animate-choice","107","448556","0.0-61.0-1.15","3891","7249","24","Male","false","true","false","true","""event"",""trial"",""time""
""fullscreenenter"",""5"",""23213""
","
","
","""event"",""trial"",""time""
""fullscreenenter"",""5"",""23213""
","
","1424","","48","","","3000","1","","","images/tutgreenplanet.jpg","images/tutalien2","images/tutalien1","images/tutrocket1","images/tutalien2","images/nothing.png","2","practice","true","2","common","0","2023-03-03 22:40:46.418"
"two-step-fixation","108","449563","0.0-61.0-2.15","3891","7249","24","Male","false","true","false","true","""event"",""trial"",""time""
""fullscreenenter"",""5"",""23213""
","
","
","""event"",""trial"",""time""
""fullscreenenter"",""5"",""23213""
","
","","images/earth.jpg","","","","","","","","","","","","","","fixation","","","","","",""
"d3-animate-choice","109","452198","0.0-61.0-0.16","3891","7249","24","Male","false","true","false","true","""event"",""trial"",""time""
""fullscreenenter"",""5"",""23213""
","
","
","""event"",""trial"",""time""
""fullscreenenter"",""5"",""23213""
","
","629","","49","","","3000","1","","","images/earth.jpg","images/tutrocket1","images/tutrocket2","null","images/tutrocket2","","1","practice","null","1","","",""
"d3-animate-choice","110","455744","0.0-61.0-1.16","3891","7249","24","Male","false","true","false","true","""event"",""trial"",""time""
""fullscreenenter"",""5"",""23213""
","
","
","""event"",""trial"",""time""
""fullscreenenter"",""5"",""23213""
","
","1541","","49","","","3000","1","","","images/tutgreenplanet.jpg","images/tutalien2","images/tutalien1","images/tutrocket2","images/tutalien1","images/t.png","2","practice","false","1","rare","1","2023-03-03 22:40:53.606"
"two-step-fixation","111","456750","0.0-61.0-2.16","3891","7249","24","Male","false","true","false","true","""event"",""trial"",""time""
""fullscreenenter"",""5"",""23213""
","
","
","""event"",""trial"",""time""
""fullscreenenter"",""5"",""23213""
","
","","images/earth.jpg","","","","","","","","","","","","","","fixation","","","","","",""
"d3-animate-choice","112","459407","0.0-61.0-0.17","3891","7249","24","Male","false","true","false","true","""event"",""trial"",""time""
""fullscreenenter"",""5"",""23213""
","
","
","""event"",""trial"",""time""
""fullscreenenter"",""5"",""23213""
","
","650","","48","","","3000","1","","","images/earth.jpg","images/tutrocket1","images/tutrocket2","null","images/tutrocket1","","1","practice","null","2","","",""
"d3-animate-choice","113","462864","0.0-61.0-1.17","3891","7249","24","Male","false","true","false","true","""event"",""trial"",""time""
""fullscreenenter"",""5"",""23213""
","
","
","""event"",""trial"",""time""
""fullscreenenter"",""5"",""23213""
","
","1455","","48","","","3000","1","","","images/tutgreenplanet.jpg","images/tutalien2","images/tutalien1","images/tutrocket1","images/tutalien2","images/t.png","2","practice","true","2","common","1","2023-03-03 22:41:00.726"
"two-step-fixation","114","463866","0.0-61.0-2.17","3891","7249","24","Male","false","true","false","true","""event"",""trial"",""time""
""fullscreenenter"",""5"",""23213""
","
","
","""event"",""trial"",""time""
""fullscreenenter"",""5"",""23213""
","
","","images/earth.jpg","","","","","","","","","","","","","","fixation","","","","","",""
"d3-animate-choice","115","466576","0.0-61.0-0.18","3891","7249","24","Male","false","true","false","true","""event"",""trial"",""time""
""fullscreenenter"",""5"",""23213""
","
","
","""event"",""trial"",""time""
""fullscreenenter"",""5"",""23213""
","
","702","","49","","","3000","1","","","images/earth.jpg","images/tutrocket1","images/tutrocket2","null","images/tutrocket2","","1","practice","null","1","","",""
"d3-animate-choice","116","469916","0.0-61.0-1.18","3891","7249","24","Male","false","true","false","true","""event"",""trial"",""time""
""fullscreenenter"",""5"",""23213""
","
","
","""event"",""trial"",""time""
""fullscreenenter"",""5"",""23213""
","
","1332","","48","","","3000","1","","","images/tutyellowplanet.jpg","images/tutalien4","images/tutalien3","images/tutrocket2","images/tutalien4","images/nothing.png","2","practice","true","2","common","0","2023-03-03 22:41:07.778"
"two-step-fixation","117","470920","0.0-61.0-2.18","3891","7249","24","Male","false","true","false","true","""event"",""trial"",""time""
""fullscreenenter"",""5"",""23213""
","
","
","""event"",""trial"",""time""
""fullscreenenter"",""5"",""23213""
","
","","images/earth.jpg","","","","","","","","","","","","","","fixation","","","","","",""
"d3-animate-choice","118","473995","0.0-61.0-0.19","3891","7249","24","Male","false","true","false","true","""event"",""trial"",""time""
""fullscreenenter"",""5"",""23213""
","
","
","""event"",""trial"",""time""
""fullscreenenter"",""5"",""23213""
","
","1063","","48","","","3000","1","","","images/earth.jpg","images/tutrocket1","images/tutrocket2","null","images/tutrocket1","","1","practice","null","2","","",""
"d3-animate-choice","119","476477","0.0-61.0-1.19","3891","7249","24","Male","false","true","false","true","""event"",""trial"",""time""
""fullscreenenter"",""5"",""23213""
","
","
","""event"",""trial"",""time""
""fullscreenenter"",""5"",""23213""
","
","477","","49","","","3000","1","","","images/tutyellowplanet.jpg","images/tutalien4","images/tutalien3","images/tutrocket1","images/tutalien3","images/nothing.png","2","practice","false","1","rare","0","2023-03-03 22:41:14.339"
"two-step-fixation","120","477482","0.0-61.0-2.19","3891","7249","24","Male","false","true","false","true","""event"",""trial"",""time""
""fullscreenenter"",""5"",""23213""
","
","
","""event"",""trial"",""time""
""fullscreenenter"",""5"",""23213""
","
","","images/earth.jpg","","","","","","","","","","","","","","fixation","","","","","",""
"d3-instructions","121","483145","0.0-62.0","3891","7249","24","Male","false","true","false","true","""event"",""trial"",""time""
""fullscreenenter"",""5"",""23213""
","
","
","""event"",""trial"",""time""
""fullscreenenter"",""5"",""23213""
","
","","","","","","","","","","","","","","","","","","","","","",""
"audio-keyboard-response","122","487081","0.0-63.0","3891","7249","24","Male","false","true","false","true","""event"",""trial"",""time""
""fullscreenenter"",""5"",""23213""
","
","
","""event"",""trial"",""time""
""fullscreenenter"",""5"",""23213""
","
","3936","audio/instructions/treasure_feedback.wav","32","","","","","","","","","","","","","","","","","","",""
"d3-instructions","123","500370","0.0-64.0","3891","7249","24","Male","false","true","false","true","""event"",""trial"",""time""
""fullscreenenter"",""5"",""23213""
","
","
","""event"",""trial"",""time""
""fullscreenenter"",""5"",""23213""
","
","","","","","","","","","","","","","","","","","","","","","",""
"d3-instructions","124","512678","0.0-65.0","3891","7249","24","Male","false","true","false","true","""event"",""trial"",""time""
""fullscreenenter"",""5"",""23213""
","
","
","""event"",""trial"",""time""
""fullscreenenter"",""5"",""23213""
","
","","","","","","","","","","","","","","","","","","","","","",""
"d3-instructions","125","532295","0.0-66.0","3891","7249","24","Male","false","true","false","true","""event"",""trial"",""time""
""fullscreenenter"",""5"",""23213""
","
","
","""event"",""trial"",""time""
""fullscreenenter"",""5"",""23213""
","
","","","","","","","","","","","","","","","","","","","","","",""
"d3-instructions","126","538546","0.0-67.0","3891","7249","24","Male","false","true","false","true","""event"",""trial"",""time""
""fullscreenenter"",""5"",""23213""
","
","
","""event"",""trial"",""time""
""fullscreenenter"",""5"",""23213""
","
","","","","","","","","","","","","","","","","","","","","","",""
"d3-instructions","127","546594","0.0-68.0","3891","7249","24","Male","false","true","false","true","""event"",""trial"",""time""
""fullscreenenter"",""5"",""23213""
","
","
","""event"",""trial"",""time""
""fullscreenenter"",""5"",""23213""
","
","","","","","","","","","","","","","","","","","","","","","",""
"instructions-quiz","128","550236","0.0-69.0","3891","7249","24","Male","false","true","false","true","""event"",""trial"",""time""
""fullscreenenter"",""5"",""23213""
","
","
","""event"",""trial"",""time""
""fullscreenenter"",""5"",""23213""
","
","3638","audio/quiz/Q1_Prompt.wav","","1","","","","","","","","","","","","","","","","","",""
"audio-keyboard-response","129","556544","0.0-70.0","3891","7249","24","Male","false","true","false","true","""event"",""trial"",""time""
""fullscreenenter"",""5"",""23213""
","
","
","""event"",""trial"",""time""
""fullscreenenter"",""5"",""23213""
","
","6307","audio/quiz/Q1_Correct.wav","32","","","","","","","","","","","","","","","","","","",""
"instructions-quiz","130","563353","0.0-71.0","3891","7249","24","Male","false","true","false","true","""event"",""trial"",""time""
""fullscreenenter"",""5"",""23213""
","
","
","""event"",""trial"",""time""
""fullscreenenter"",""5"",""23213""
","
","6806","audio/quiz/Q2_Prompt.wav","","1","","","","","","","","","","","","","","","","","",""
"audio-keyboard-response","131","570460","0.0-72.0","3891","7249","24","Male","false","true","false","true","""event"",""trial"",""time""
""fullscreenenter"",""5"",""23213""
","
","
","""event"",""trial"",""time""
""fullscreenenter"",""5"",""23213""
","
","7108","audio/quiz/Q2_Incorrect.wav","32","","","","","","","","","","","","","","","","","","",""
"instructions-quiz","132","573487","0.0-73.0","3891","7249","24","Male","false","true","false","true","""event"",""trial"",""time""
""fullscreenenter"",""5"",""23213""
","
","
","""event"",""trial"",""time""
""fullscreenenter"",""5"",""23213""
","
","3027","audio/quiz/Q3_Prompt.wav","","1","","","","","","","","","","","","","","","","","",""
"audio-keyboard-response","133","575703","0.0-74.0","3891","7249","24","Male","false","true","false","true","""event"",""trial"",""time""
""fullscreenenter"",""5"",""23213""
","
","
","""event"",""trial"",""time""
""fullscreenenter"",""5"",""23213""
","
","2218","audio/quiz/Q3_Correct.wav","32","","","","","","","","","","","","","","","","","","",""
"d3-instructions","134","585686","0.0-75.0","3891","7249","24","Male","false","true","false","true","""event"",""trial"",""time""
""fullscreenenter"",""5"",""23213""
","
","
","""event"",""trial"",""time""
""fullscreenenter"",""5"",""23213""
","
","","","","","","","","","","","","","","","","","","","","","",""
"pavlovia","135","585688","0.0-76.0","3891","7249","24","Male","false","true","false","true","""event"",""trial"",""time""
""fullscreenenter"",""5"",""23213""
","
","
","""event"",""trial"",""time""
""fullscreenenter"",""5"",""23213""
","
","","","","","","","","","","","","","","","","","","","","","",""
"d3-animate-choice","136","589525","0.0-77.0-0.0","3891","7249","24","Male","false","true","false","true","""event"",""trial"",""time""
""fullscreenenter"",""5"",""23213""
","
","
","""event"",""trial"",""time""
""fullscreenenter"",""5"",""23213""
","
","1834","","48","","","3000","1","","","images/earth.jpg","images/rocket1","images/rocket2","null","images/rocket1","","1","real","null","2","","",""
"d3-animate-choice","137","592024","0.0-77.0-1.0","3891","7249","24","Male","false","true","false","true","""event"",""trial"",""time""
""fullscreenenter"",""5"",""23213""
","
","
","""event"",""trial"",""time""
""fullscreenenter"",""5"",""23213""
","
","495","","48","","","3000","1","","","images/redplanet1.jpg","images/alien2","images/alien1","images/rocket1","images/alien2","images/t.png","2","real","true","2","common","1","2023-03-03 22:43:09.886"
"two-step-fixation","138","593025","0.0-77.0-2.0","3891","7249","24","Male","false","true","false","true","""event"",""trial"",""time""
""fullscreenenter"",""5"",""23213""
","
","
","""event"",""trial"",""time""
""fullscreenenter"",""5"",""23213""
","
","","images/earth.jpg","","","","","","","","","","","","","","fixation","","","","","",""
"d3-animate-choice","139","595371","0.0-77.0-0.1","3891","7249","24","Male","false","true","false","true","""event"",""trial"",""time""
""fullscreenenter"",""5"",""23213""
","
","
","""event"",""trial"",""time""
""fullscreenenter"",""5"",""23213""
","
","341","","48","","","3000","1","","","images/earth.jpg","images/rocket1","images/rocket2","null","images/rocket1","","1","real","null","2","","",""
"d3-animate-choice","140","597808","0.0-77.0-1.1","3891","7249","24","Male","false","true","false","true","""event"",""trial"",""time""
""fullscreenenter"",""5"",""23213""
","
","
","""event"",""trial"",""time""
""fullscreenenter"",""5"",""23213""
","
","433","","49","","","3000","1","","","images/redplanet1.jpg","images/alien2","images/alien1","images/rocket1","images/alien1","images/nothing.png","2","real","true","1","common","0","2023-03-03 22:43:15.670"
"two-step-fixation","141","598811","0.0-77.0-2.1","3891","7249","24","Male","false","true","false","true","""event"",""trial"",""time""
""fullscreenenter"",""5"",""23213""
","
","
","""event"",""trial"",""time""
""fullscreenenter"",""5"",""23213""
","
","","images/earth.jpg","","","","","","","","","","","","","","fixation","","","","","",""
"d3-animate-choice","142","601200","0.0-77.0-0.2","3891","7249","24","Male","false","true","false","true","""event"",""trial"",""time""
""fullscreenenter"",""5"",""23213""
","
","
","""event"",""trial"",""time""
""fullscreenenter"",""5"",""23213""
","
","383","","48","","","3000","1","","","images/earth.jpg","images/rocket1","images/rocket2","null","images/rocket1","","1","real","null","2","","",""
"d3-animate-choice","143","603604","0.0-77.0-1.2","3891","7249","24","Male","false","true","false","true","""event"",""trial"",""time""
""fullscreenenter"",""5"",""23213""
","
","
","""event"",""trial"",""time""
""fullscreenenter"",""5"",""23213""
","
","399","","48","","","3000","1","","","images/redplanet1.jpg","images/alien2","images/alien1","images/rocket1","images/alien2","images/t.png","2","real","true","2","common","1","2023-03-03 22:43:21.466"
"two-step-fixation","144","604607","0.0-77.0-2.2","3891","7249","24","Male","false","true","false","true","""event"",""trial"",""time""
""fullscreenenter"",""5"",""23213""
","
","
","""event"",""trial"",""time""
""fullscreenenter"",""5"",""23213""
","
","","images/earth.jpg","","","","","","","","","","","","","","fixation","","","","","",""
"d3-animate-choice","145","607267","0.0-77.0-0.3","3891","7249","24","Male","false","true","false","true","""event"",""trial"",""time""
""fullscreenenter"",""5"",""23213""
","
","
","""event"",""trial"",""time""
""fullscreenenter"",""5"",""23213""
","
","657","","48","","","3000","1","","","images/earth.jpg","images/rocket1","images/rocket2","null","images/rocket1","","1","real","null","2","","",""
"d3-animate-choice","146","609718","0.0-77.0-1.3","3891","7249","24","Male","false","true","false","true","""event"",""trial"",""time""
""fullscreenenter"",""5"",""23213""
","
","
","""event"",""trial"",""time""
""fullscreenenter"",""5"",""23213""
","
","443","","48","","","3000","1","","","images/redplanet1.jpg","images/alien2","images/alien1","images/rocket1","images/alien2","images/t.png","2","real","true","2","common","1","2023-03-03 22:43:27.580"
"two-step-fixation","147","610725","0.0-77.0-2.3","3891","7249","24","Male","false","true","false","true","""event"",""trial"",""time""
""fullscreenenter"",""5"",""23213""
","
","
","""event"",""trial"",""time""
""fullscreenenter"",""5"",""23213""
","
","","images/earth.jpg","","","","","","","","","","","","","","fixation","","","","","",""
"d3-animate-choice","148","613063","0.0-77.0-0.4","3891","7249","24","Male","false","true","false","true","""event"",""trial"",""time""
""fullscreenenter"",""5"",""23213""
","
","
","""event"",""trial"",""time""
""fullscreenenter"",""5"",""23213""
","
","332","","48","","","3000","1","","","images/earth.jpg","images/rocket1","images/rocket2","null","images/rocket1","","1","real","null","2","","",""
"d3-animate-choice","149","615556","0.0-77.0-1.4","3891","7249","24","Male","false","true","false","true","""event"",""trial"",""time""
""fullscreenenter"",""5"",""23213""
","
","
","""event"",""trial"",""time""
""fullscreenenter"",""5"",""23213""
","
","484","","48","","","3000","1","","","images/redplanet1.jpg","images/alien2","images/alien1","images/rocket1","images/alien2","images/t.png","2","real","true","2","common","1","2023-03-03 22:43:33.418"
"two-step-fixation","150","616559","0.0-77.0-2.4","3891","7249","24","Male","false","true","false","true","""event"",""trial"",""time""
""fullscreenenter"",""5"",""23213""
","
","
","""event"",""trial"",""time""
""fullscreenenter"",""5"",""23213""
","
","","images/earth.jpg","","","","","","","","","","","","","","fixation","","","","","",""
"d3-animate-choice","151","618893","0.0-77.0-0.5","3891","7249","24","Male","false","true","false","true","""event"",""trial"",""time""
""fullscreenenter"",""5"",""23213""
","
","
","""event"",""trial"",""time""
""fullscreenenter"",""5"",""23213""
","
","331","","48","","","3000","1","","","images/earth.jpg","images/rocket1","images/rocket2","null","images/rocket1","","1","real","null","2","","",""
"d3-animate-choice","152","622250","0.0-77.0-1.5","3891","7249","24","Male","false","true","false","true","""event"",""trial"",""time""
""fullscreenenter"",""5"",""23213""
","
","
","""event"",""trial"",""time""
""fullscreenenter"",""5"",""23213""
","
","1353","","48","","","3000","1","","","images/purpleplanet.jpg","images/alien4","images/alien3","images/rocket1","images/alien4","images/t.png","2","real","false","2","rare","1","2023-03-03 22:43:40.113"
"two-step-fixation","153","623257","0.0-77.0-2.5","3891","7249","24","Male","false","true","false","true","""event"",""trial"",""time""
""fullscreenenter"",""5"",""23213""
","
","
","""event"",""trial"",""time""
""fullscreenenter"",""5"",""23213""
","
","","images/earth.jpg","","","","","","","","","","","","","","fixation","","","","","",""
"d3-animate-choice","154","625663","0.0-77.0-0.6","3891","7249","24","Male","false","true","false","true","""event"",""trial"",""time""
""fullscreenenter"",""5"",""23213""
","
","
","""event"",""trial"",""time""
""fullscreenenter"",""5"",""23213""
","
","404","","49","","","3000","1","","","images/earth.jpg","images/rocket1","images/rocket2","null","images/rocket2","","1","real","null","1","","",""
"d3-animate-choice","155","628117","0.0-77.0-1.6","3891","7249","24","Male","false","true","false","true","""event"",""trial"",""time""
""fullscreenenter"",""5"",""23213""
","
","
","""event"",""trial"",""time""
""fullscreenenter"",""5"",""23213""
","
","445","","48","","","3000","1","","","images/purpleplanet.jpg","images/alien4","images/alien3","images/rocket2","images/alien4","images/nothing.png","2","real","true","2","common","0","2023-03-03 22:43:45.979"
"two-step-fixation","156","629122","0.0-77.0-2.6","3891","7249","24","Male","false","true","false","true","""event"",""trial"",""time""
""fullscreenenter"",""5"",""23213""
","
","
","""event"",""trial"",""time""
""fullscreenenter"",""5"",""23213""
","
","","images/earth.jpg","","","","","","","","","","","","","","fixation","","","","","",""
"d3-animate-choice","157","631505","0.0-77.0-0.7","3891","7249","24","Male","false","true","false","true","""event"",""trial"",""time""
""fullscreenenter"",""5"",""23213""
","
","
","""event"",""trial"",""time""
""fullscreenenter"",""5"",""23213""
","
","380","","49","","","3000","1","","","images/earth.jpg","images/rocket1","images/rocket2","null","images/rocket2","","1","real","null","1","","",""
"d3-animate-choice","158","634472","0.0-77.0-1.7","3891","7249","24","Male","false","true","false","true","""event"",""trial"",""time""
""fullscreenenter"",""5"",""23213""
","
","
","""event"",""trial"",""time""
""fullscreenenter"",""5"",""23213""
","
","962","","48","","","3000","1","","","images/purpleplanet.jpg","images/alien4","images/alien3","images/rocket2","images/alien4","images/t.png","2","real","true","2","common","1","2023-03-03 22:43:52.334"
"two-step-fixation","159","635476","0.0-77.0-2.7","3891","7249","24","Male","false","true","false","true","""event"",""trial"",""time""
""fullscreenenter"",""5"",""23213""
","
","
","""event"",""trial"",""time""
""fullscreenenter"",""5"",""23213""
","
","","images/earth.jpg","","","","","","","","","","","","","","fixation","","","","","",""
"d3-animate-choice","160","637974","0.0-77.0-0.8","3891","7249","24","Male","false","true","false","true","""event"",""trial"",""time""
""fullscreenenter"",""5"",""23213""
","
","
","""event"",""trial"",""time""
""fullscreenenter"",""5"",""23213""
","
","494","","49","","","3000","1","","","images/earth.jpg","images/rocket1","images/rocket2","null","images/rocket2","","1","real","null","1","","",""
"d3-animate-choice","161","641245","0.0-77.0-1.8","3891","7249","24","Male","false","true","false","true","""event"",""trial"",""time""
""fullscreenenter"",""5"",""23213""
","
","
","""event"",""trial"",""time""
""fullscreenenter"",""5"",""23213""
","
","1265","","49","","","3000","1","","","images/redplanet1.jpg","images/alien2","images/alien1","images/rocket2","images/alien1","images/t.png","2","real","false","1","rare","1","2023-03-03 22:43:59.108"
"two-step-fixation","162","642252","0.0-77.0-2.8","3891","7249","24","Male","false","true","false","true","""event"",""trial"",""time""
""fullscreenenter"",""5"",""23213""
","
","
","""event"",""trial"",""time""
""fullscreenenter"",""5"",""23213""
","
","","images/earth.jpg","","","","","","","","","","","","","","fixation","","","","","",""
"d3-animate-choice","163","644954","0.0-77.0-0.9","3891","7249","24","Male","false","true","false","true","""event"",""trial"",""time""
""fullscreenenter"",""5"",""23213""
","
","
","""event"",""trial"",""time""
""fullscreenenter"",""5"",""23213""
","
","700","","49","","","3000","1","","","images/earth.jpg","images/rocket1","images/rocket2","null","images/rocket2","","1","real","null","1","","",""
"d3-animate-choice","164","647889","0.0-77.0-1.9","3891","7249","24","Male","false","true","false","true","""event"",""trial"",""time""
""fullscreenenter"",""5"",""23213""
","
","
","""event"",""trial"",""time""
""fullscreenenter"",""5"",""23213""
","
","929","","48","","","3000","1","","","images/purpleplanet.jpg","images/alien4","images/alien3","images/rocket2","images/alien4","images/t.png","2","real","true","2","common","1","2023-03-03 22:44:05.751"
"two-step-fixation","165","648891","0.0-77.0-2.9","3891","7249","24","Male","false","true","false","true","""event"",""trial"",""time""
""fullscreenenter"",""5"",""23213""
","
","
","""event"",""trial"",""time""
""fullscreenenter"",""5"",""23213""
","
","","images/earth.jpg","","","","","","","","","","","","","","fixation","","","","","",""
"d3-animate-choice","166","651479","0.0-77.0-0.10","3891","7249","24","Male","false","true","false","true","""event"",""trial"",""time""
""fullscreenenter"",""5"",""23213""
","
","
","""event"",""trial"",""time""
""fullscreenenter"",""5"",""23213""
","
","581","","49","","","3000","1","","","images/earth.jpg","images/rocket1","images/rocket2","null","images/rocket2","","1","real","null","1","","",""
"d3-animate-choice","167","654063","0.0-77.0-1.10","3891","7249","24","Male","false","true","false","true","""event"",""trial"",""time""
""fullscreenenter"",""5"",""23213""
","
","
","""event"",""trial"",""time""
""fullscreenenter"",""5"",""23213""
","
","579","","49","","","3000","1","","","images/purpleplanet.jpg","images/alien4","images/alien3","images/rocket2","images/alien3","images/nothing.png","2","real","true","1","common","0","2023-03-03 22:44:11.925"
"two-step-fixation","168","655070","0.0-77.0-2.10","3891","7249","24","Male","false","true","false","true","""event"",""trial"",""time""
""fullscreenenter"",""5"",""23213""
","
","
","""event"",""trial"",""time""
""fullscreenenter"",""5"",""23213""
","
","","images/earth.jpg","","","","","","","","","","","","","","fixation","","","","","",""
"d3-animate-choice","169","657435","0.0-77.0-0.11","3891","7249","24","Male","false","true","false","true","""event"",""trial"",""time""
""fullscreenenter"",""5"",""23213""
","
","
","""event"",""trial"",""time""
""fullscreenenter"",""5"",""23213""
","
","361","","49","","","3000","1","","","images/earth.jpg","images/rocket1","images/rocket2","null","images/rocket2","","1","real","null","1","","",""
"d3-animate-choice","170","659879","0.0-77.0-1.11","3891","7249","24","Male","false","true","false","true","""event"",""trial"",""time""
""fullscreenenter"",""5"",""23213""
","
","
","""event"",""trial"",""time""
""fullscreenenter"",""5"",""23213""
","
","439","","48","","","3000","1","","","images/purpleplanet.jpg","images/alien4","images/alien3","images/rocket2","images/alien4","images/t.png","2","real","true","2","common","1","2023-03-03 22:44:17.741"
"two-step-fixation","171","660886","0.0-77.0-2.11","3891","7249","24","Male","false","true","false","true","""event"",""trial"",""time""
""fullscreenenter"",""5"",""23213""
","
","
","""event"",""trial"",""time""
""fullscreenenter"",""5"",""23213""
","
","","images/earth.jpg","","","","","","","","","","","","","","fixation","","","","","",""
"d3-animate-choice","172","663310","0.0-77.0-0.12","3891","7249","24","Male","false","true","false","true","""event"",""trial"",""time""
""fullscreenenter"",""5"",""23213""
","
","
","""event"",""trial"",""time""
""fullscreenenter"",""5"",""23213""
","
","419","","49","","","3000","1","","","images/earth.jpg","images/rocket1","images/rocket2","null","images/rocket2","","1","real","null","1","","",""
"d3-animate-choice","173","666818","0.0-77.0-1.12","3891","7249","24","Male","false","true","false","true","""event"",""trial"",""time""
""fullscreenenter"",""5"",""23213""
","
","
","""event"",""trial"",""time""
""fullscreenenter"",""5"",""23213""
","
","1506","","48","","","3000","1","","","images/redplanet1.jpg","images/alien2","images/alien1","images/rocket2","images/alien2","images/nothing.png","2","real","false","2","rare","0","2023-03-03 22:44:24.681"
"two-step-fixation","174","667825","0.0-77.0-2.12","3891","7249","24","Male","false","true","false","true","""event"",""trial"",""time""
""fullscreenenter"",""5"",""23213""
","
","
","""event"",""trial"",""time""
""fullscreenenter"",""5"",""23213""
","
","","images/earth.jpg","","","","","","","","","","","","","","fixation","","","","","",""
"d3-animate-choice","175","670356","0.0-77.0-0.13","3891","7249","24","Male","false","true","false","true","""event"",""trial"",""time""
""fullscreenenter"",""5"",""23213""
","
","
","""event"",""trial"",""time""
""fullscreenenter"",""5"",""23213""
","
","523","","48","","","3000","1","","","images/earth.jpg","images/rocket1","images/rocket2","null","images/rocket1","","1","real","null","2","","",""
"d3-animate-choice","176","672786","0.0-77.0-1.13","3891","7249","24","Male","false","true","false","true","""event"",""trial"",""time""
""fullscreenenter"",""5"",""23213""
","
","
","""event"",""trial"",""time""
""fullscreenenter"",""5"",""23213""
","
","423","","48","","","3000","1","","","images/redplanet1.jpg","images/alien2","images/alien1","images/rocket1","images/alien2","images/nothing.png","2","real","true","2","common","0","2023-03-03 22:44:30.648"
"two-step-fixation","177","673791","0.0-77.0-2.13","3891","7249","24","Male","false","true","false","true","""event"",""trial"",""time""
""fullscreenenter"",""5"",""23213""
","
","
","""event"",""trial"",""time""
""fullscreenenter"",""5"",""23213""
","
","","images/earth.jpg","","","","","","","","","","","","","","fixation","","","","","",""
"d3-animate-choice","178","676160","0.0-77.0-0.14","3891","7249","24","Male","false","true","false","true","""event"",""trial"",""time""
""fullscreenenter"",""5"",""23213""
","
","
","""event"",""trial"",""time""
""fullscreenenter"",""5"",""23213""
","
","363","","48","","","3000","1","","","images/earth.jpg","images/rocket1","images/rocket2","null","images/rocket1","","1","real","null","2","","",""
"d3-animate-choice","179","679127","0.0-77.0-1.14","3891","7249","24","Male","false","true","false","true","""event"",""trial"",""time""
""fullscreenenter"",""5"",""23213""
","
","
","""event"",""trial"",""time""
""fullscreenenter"",""5"",""23213""
","
","963","","48","","","3000","1","","","images/purpleplanet.jpg","images/alien4","images/alien3","images/rocket1","images/alien4","images/t.png","2","real","false","2","rare","1","2023-03-03 22:44:36.989"
"two-step-fixation","180","680133","0.0-77.0-2.14","3891","7249","24","Male","false","true","false","true","""event"",""trial"",""time""
""fullscreenenter"",""5"",""23213""
","
","
","""event"",""trial"",""time""
""fullscreenenter"",""5"",""23213""
","
","","images/earth.jpg","","","","","","","","","","","","","","fixation","","","","","",""
"d3-animate-choice","181","682472","0.0-77.0-0.15","3891","7249","24","Male","false","true","false","true","""event"",""trial"",""time""
""fullscreenenter"",""5"",""23213""
","
","
","""event"",""trial"",""time""
""fullscreenenter"",""5"",""23213""
","
","331","","48","","","3000","1","","","images/earth.jpg","images/rocket1","images/rocket2","null","images/rocket1","","1","real","null","2","","",""
"d3-animate-choice","182","684923","0.0-77.0-1.15","3891","7249","24","Male","false","true","false","true","""event"",""trial"",""time""
""fullscreenenter"",""5"",""23213""
","
","
","""event"",""trial"",""time""
""fullscreenenter"",""5"",""23213""
","
","444","","48","","","3000","1","","","images/redplanet1.jpg","images/alien2","images/alien1","images/rocket1","images/alien2","images/t.png","2","real","true","2","common","1","2023-03-03 22:44:42.785"
"two-step-fixation","183","685929","0.0-77.0-2.15","3891","7249","24","Male","false","true","false","true","""event"",""trial"",""time""
""fullscreenenter"",""5"",""23213""
","
","
","""event"",""trial"",""time""
""fullscreenenter"",""5"",""23213""
","
","","images/earth.jpg","","","","","","","","","","","","","","fixation","","","","","",""
"d3-animate-choice","184","688299","0.0-77.0-0.16","3891","7249","24","Male","false","true","false","true","""event"",""trial"",""time""
""fullscreenenter"",""5"",""23213""
","
","
","""event"",""trial"",""time""
""fullscreenenter"",""5"",""23213""
","
","367","","48","","","3000","1","","","images/earth.jpg","images/rocket1","images/rocket2","null","images/rocket1","","1","real","null","2","","",""
"d3-animate-choice","185","690820","0.0-77.0-1.16","3891","7249","24","Male","false","true","false","true","""event"",""trial"",""time""
""fullscreenenter"",""5"",""23213""
","
","
","""event"",""trial"",""time""
""fullscreenenter"",""5"",""23213""
","
","514","","48","","","3000","1","","","images/redplanet1.jpg","images/alien2","images/alien1","images/rocket1","images/alien2","images/t.png","2","real","true","2","common","1","2023-03-03 22:44:48.682"
"two-step-fixation","186","691826","0.0-77.0-2.16","3891","7249","24","Male","false","true","false","true","""event"",""trial"",""time""
""fullscreenenter"",""5"",""23213""
","
","
","""event"",""trial"",""time""
""fullscreenenter"",""5"",""23213""
","
","","images/earth.jpg","","","","","","","","","","","","","","fixation","","","","","",""
"d3-animate-choice","187","694266","0.0-77.0-0.17","3891","7249","24","Male","false","true","false","true","""event"",""trial"",""time""
""fullscreenenter"",""5"",""23213""
","
","
","""event"",""trial"",""time""
""fullscreenenter"",""5"",""23213""
","
","433","","48","","","3000","1","","","images/earth.jpg","images/rocket1","images/rocket2","null","images/rocket1","","1","real","null","2","","",""
"d3-animate-choice","188","696676","0.0-77.0-1.17","3891","7249","24","Male","false","true","false","true","""event"",""trial"",""time""
""fullscreenenter"",""5"",""23213""
","
","
","""event"",""trial"",""time""
""fullscreenenter"",""5"",""23213""
","
","402","","48","","","3000","1","","","images/redplanet1.jpg","images/alien2","images/alien1","images/rocket1","images/alien2","images/t.png","2","real","true","2","common","1","2023-03-03 22:44:54.539"
"two-step-fixation","189","697684","0.0-77.0-2.17","3891","7249","24","Male","false","true","false","true","""event"",""trial"",""time""
""fullscreenenter"",""5"",""23213""
","
","
","""event"",""trial"",""time""
""fullscreenenter"",""5"",""23213""
","
","","images/earth.jpg","","","","","","","","","","","","","","fixation","","","","","",""
"d3-animate-choice","190","700208","0.0-77.0-0.18","3891","7249","24","Male","false","true","false","true","""event"",""trial"",""time""
""fullscreenenter"",""5"",""23213""
","
","
","""event"",""trial"",""time""
""fullscreenenter"",""5"",""23213""
","
","514","","48","","","3000","1","","","images/earth.jpg","images/rocket1","images/rocket2","null","images/rocket1","","1","real","null","2","","",""
"d3-animate-choice","191","702829","0.0-77.0-1.18","3891","7249","24","Male","false","true","false","true","""event"",""trial"",""time""
""fullscreenenter"",""5"",""23213""
","
","
","""event"",""trial"",""time""
""fullscreenenter"",""5"",""23213""
","
","613","","49","","","3000","1","","","images/purpleplanet.jpg","images/alien4","images/alien3","images/rocket1","images/alien3","images/nothing.png","2","real","false","1","rare","0","2023-03-03 22:45:00.692"
"two-step-fixation","192","703836","0.0-77.0-2.18","3891","7249","24","Male","false","true","false","true","""event"",""trial"",""time""
""fullscreenenter"",""5"",""23213""
","
","
","""event"",""trial"",""time""
""fullscreenenter"",""5"",""23213""
","
","","images/earth.jpg","","","","","","","","","","","","","","fixation","","","","","",""
"d3-animate-choice","193","706194","0.0-77.0-0.19","3891","7249","24","Male","false","true","false","true","""event"",""trial"",""time""
""fullscreenenter"",""5"",""23213""
","
","
","""event"",""trial"",""time""
""fullscreenenter"",""5"",""23213""
","
","353","","48","","","3000","1","","","images/earth.jpg","images/rocket1","images/rocket2","null","images/rocket1","","1","real","null","2","","",""
"d3-animate-choice","194","708644","0.0-77.0-1.19","3891","7249","24","Male","false","true","false","true","""event"",""trial"",""time""
""fullscreenenter"",""5"",""23213""
","
","
","""event"",""trial"",""time""
""fullscreenenter"",""5"",""23213""
","
","445","","48","","","3000","1","","","images/redplanet1.jpg","images/alien2","images/alien1","images/rocket1","images/alien2","images/t.png","2","real","true","2","common","1","2023-03-03 22:45:06.506"
"two-step-fixation","195","709646","0.0-77.0-2.19","3891","7249","24","Male","false","true","false","true","""event"",""trial"",""time""
""fullscreenenter"",""5"",""23213""
","
","
","""event"",""trial"",""time""
""fullscreenenter"",""5"",""23213""
","
","","images/earth.jpg","","","","","","","","","","","","","","fixation","","","","","",""
"d3-animate-choice","196","711999","0.0-77.0-0.20","3891","7249","24","Male","false","true","false","true","""event"",""trial"",""time""
""fullscreenenter"",""5"",""23213""
","
","
","""event"",""trial"",""time""
""fullscreenenter"",""5"",""23213""
","
","345","","49","","","3000","1","","","images/earth.jpg","images/rocket1","images/rocket2","null","images/rocket2","","1","real","null","1","","",""
"d3-animate-choice","197","715016","0.0-77.0-1.20","3891","7249","24","Male","false","true","false","true","""event"",""trial"",""time""
""fullscreenenter"",""5"",""23213""
","
","
","""event"",""trial"",""time""
""fullscreenenter"",""5"",""23213""
","
","1013","","48","","","3000","1","","","images/purpleplanet.jpg","images/alien4","images/alien3","images/rocket2","images/alien4","images/t.png","2","real","true","2","common","1","2023-03-03 22:45:12.878"
"two-step-fixation","198","716018","0.0-77.0-2.20","3891","7249","24","Male","false","true","false","true","""event"",""trial"",""time""
""fullscreenenter"",""5"",""23213""
","
","
","""event"",""trial"",""time""
""fullscreenenter"",""5"",""23213""
","
","","images/earth.jpg","","","","","","","","","","","","","","fixation","","","","","",""
"d3-animate-choice","199","718495","0.0-77.0-0.21","3891","7249","24","Male","false","true","false","true","""event"",""trial"",""time""
""fullscreenenter"",""5"",""23213""
","
","
","""event"",""trial"",""time""
""fullscreenenter"",""5"",""23213""
","
","473","","49","","","3000","1","","","images/earth.jpg","images/rocket1","images/rocket2","null","images/rocket2","","1","real","null","1","","",""
"d3-animate-choice","200","721147","0.0-77.0-1.21","3891","7249","24","Male","false","true","false","true","""event"",""trial"",""time""
""fullscreenenter"",""5"",""23213""
","
","
","""event"",""trial"",""time""
""fullscreenenter"",""5"",""23213""
","
","645","","48","","","3000","1","","","images/purpleplanet.jpg","images/alien4","images/alien3","images/rocket2","images/alien4","images/nothing.png","2","real","true","2","common","0","2023-03-03 22:45:19.009"
"two-step-fixation","201","722149","0.0-77.0-2.21","3891","7249","24","Male","false","true","false","true","""event"",""trial"",""time""
""fullscreenenter"",""5"",""23213""
","
","
","""event"",""trial"",""time""
""fullscreenenter"",""5"",""23213""
","
","","images/earth.jpg","","","","","","","","","","","","","","fixation","","","","","",""
"d3-animate-choice","202","724585","0.0-77.0-0.22","3891","7249","24","Male","false","true","false","true","""event"",""trial"",""time""
""fullscreenenter"",""5"",""23213""
","
","
","""event"",""trial"",""time""
""fullscreenenter"",""5"",""23213""
","
","427","","48","","","3000","1","","","images/earth.jpg","images/rocket1","images/rocket2","null","images/rocket1","","1","real","null","2","","",""
"d3-animate-choice","203","727181","0.0-77.0-1.22","3891","7249","24","Male","false","true","false","true","""event"",""trial"",""time""
""fullscreenenter"",""5"",""23213""
","
","
","""event"",""trial"",""time""
""fullscreenenter"",""5"",""23213""
","
","592","","48","","","3000","1","","","images/redplanet1.jpg","images/alien2","images/alien1","images/rocket1","images/alien2","images/t.png","2","real","true","2","common","1","2023-03-03 22:45:25.043"
"two-step-fixation","204","728188","0.0-77.0-2.22","3891","7249","24","Male","false","true","false","true","""event"",""trial"",""time""
""fullscreenenter"",""5"",""23213""
","
","
","""event"",""trial"",""time""
""fullscreenenter"",""5"",""23213""
","
","","images/earth.jpg","","","","","","","","","","","","","","fixation","","","","","",""
"d3-animate-choice","205","730568","0.0-77.0-0.23","3891","7249","24","Male","false","true","false","true","""event"",""trial"",""time""
""fullscreenenter"",""5"",""23213""
","
","
","""event"",""trial"",""time""
""fullscreenenter"",""5"",""23213""
","
","373","","48","","","3000","1","","","images/earth.jpg","images/rocket1","images/rocket2","null","images/rocket1","","1","real","null","2","","",""
"d3-animate-choice","206","733133","0.0-77.0-1.23","3891","7249","24","Male","false","true","false","true","""event"",""trial"",""time""
""fullscreenenter"",""5"",""23213""
","
","
","""event"",""trial"",""time""
""fullscreenenter"",""5"",""23213""
","
","557","","48","","","3000","1","","","images/redplanet1.jpg","images/alien2","images/alien1","images/rocket1","images/alien2","images/nothing.png","2","real","true","2","common","0","2023-03-03 22:45:30.995"
"two-step-fixation","207","734134","0.0-77.0-2.23","3891","7249","24","Male","false","true","false","true","""event"",""trial"",""time""
""fullscreenenter"",""5"",""23213""
","
","
","""event"",""trial"",""time""
""fullscreenenter"",""5"",""23213""
","
","","images/earth.jpg","","","","","","","","","","","","","","fixation","","","","","",""
"d3-animate-choice","208","736454","0.0-77.0-0.24","3891","7249","24","Male","false","true","false","true","""event"",""trial"",""time""
""fullscreenenter"",""5"",""23213""
","
","
","""event"",""trial"",""time""
""fullscreenenter"",""5"",""23213""
","
","316","","48","","","3000","1","","","images/earth.jpg","images/rocket1","images/rocket2","null","images/rocket1","","1","real","null","2","","",""
"d3-animate-choice","209","739220","0.0-77.0-1.24","3891","7249","24","Male","false","true","false","true","""event"",""trial"",""time""
""fullscreenenter"",""5"",""23213""
","
","
","""event"",""trial"",""time""
""fullscreenenter"",""5"",""23213""
","
","759","","49","","","3000","1","","","images/purpleplanet.jpg","images/alien4","images/alien3","images/rocket1","images/alien3","images/nothing.png","2","real","false","1","rare","0","2023-03-03 22:45:37.082"
"two-step-fixation","210","740226","0.0-77.0-2.24","3891","7249","24","Male","false","true","false","true","""event"",""trial"",""time""
""fullscreenenter"",""5"",""23213""
","
","
","""event"",""trial"",""time""
""fullscreenenter"",""5"",""23213""
","
","","images/earth.jpg","","","","","","","","","","","","","","fixation","","","","","",""
"d3-animate-choice","211","742562","0.0-77.0-0.25","3891","7249","24","Male","false","true","false","true","""event"",""trial"",""time""
""fullscreenenter"",""5"",""23213""
","
","
","""event"",""trial"",""time""
""fullscreenenter"",""5"",""23213""
","
","330","","48","","","3000","1","","","images/earth.jpg","images/rocket1","images/rocket2","null","images/rocket1","","1","real","null","2","","",""
"d3-animate-choice","212","745011","0.0-77.0-1.25","3891","7249","24","Male","false","true","false","true","""event"",""trial"",""time""
""fullscreenenter"",""5"",""23213""
","
","
","""event"",""trial"",""time""
""fullscreenenter"",""5"",""23213""
","
","446","","48","","","3000","1","","","images/purpleplanet.jpg","images/alien4","images/alien3","images/rocket1","images/alien4","images/t.png","2","real","false","2","rare","1","2023-03-03 22:45:42.874"
"two-step-fixation","213","746016","0.0-77.0-2.25","3891","7249","24","Male","false","true","false","true","""event"",""trial"",""time""
""fullscreenenter"",""5"",""23213""
","
","
","""event"",""trial"",""time""
""fullscreenenter"",""5"",""23213""
","
","","images/earth.jpg","","","","","","","","","","","","","","fixation","","","","","",""
"d3-animate-choice","214","748713","0.0-77.0-0.26","3891","7249","24","Male","false","true","false","true","""event"",""trial"",""time""
""fullscreenenter"",""5"",""23213""
","
","
","""event"",""trial"",""time""
""fullscreenenter"",""5"",""23213""
","
","690","","48","","","3000","1","","","images/earth.jpg","images/rocket1","images/rocket2","null","images/rocket1","","1","real","null","2","","",""
"d3-animate-choice","215","751186","0.0-77.0-1.26","3891","7249","24","Male","false","true","false","true","""event"",""trial"",""time""
""fullscreenenter"",""5"",""23213""
","
","
","""event"",""trial"",""time""
""fullscreenenter"",""5"",""23213""
","
","468","","48","","","3000","1","","","images/redplanet1.jpg","images/alien2","images/alien1","images/rocket1","images/alien2","images/nothing.png","2","real","true","2","common","0","2023-03-03 22:45:49.048"
"two-step-fixation","216","752192","0.0-77.0-2.26","3891","7249","24","Male","false","true","false","true","""event"",""trial"",""time""
""fullscreenenter"",""5"",""23213""
","
","
","""event"",""trial"",""time""
""fullscreenenter"",""5"",""23213""
","
","","images/earth.jpg","","","","","","","","","","","","","","fixation","","","","","",""
"d3-animate-choice","217","754624","0.0-77.0-0.27","3891","7249","24","Male","false","true","false","true","""event"",""trial"",""time""
""fullscreenenter"",""5"",""23213""
","
","
","""event"",""trial"",""time""
""fullscreenenter"",""5"",""23213""
","
","429","","48","","","3000","1","2025","48","images/earth.jpg","images/rocket1","images/rocket2","null","images/rocket1","","1","real","null","2","","",""
"d3-animate-choice","218","757196","0.0-77.0-1.27","3891","7249","24","Male","false","true","false","true","""event"",""trial"",""time""
""fullscreenenter"",""5"",""23213""
","
","
","""event"",""trial"",""time""
""fullscreenenter"",""5"",""23213""
","
","564","","49","","","3000","1","","","images/redplanet1.jpg","images/alien2","images/alien1","images/rocket1","images/alien1","images/t.png","2","real","true","1","common","1","2023-03-03 22:45:55.058"
"two-step-fixation","219","758202","0.0-77.0-2.27","3891","7249","24","Male","false","true","false","true","""event"",""trial"",""time""
""fullscreenenter"",""5"",""23213""
","
","
","""event"",""trial"",""time""
""fullscreenenter"",""5"",""23213""
","
","","images/earth.jpg","","","","","","","","","","","","","","fixation","","","","","",""
"d3-animate-choice","220","760558","0.0-77.0-0.28","3891","7249","24","Male","false","true","false","true","""event"",""trial"",""time""
""fullscreenenter"",""5"",""23213""
","
","
","""event"",""trial"",""time""
""fullscreenenter"",""5"",""23213""
","
","353","","48","","","3000","1","","","images/earth.jpg","images/rocket1","images/rocket2","null","images/rocket1","","1","real","null","2","","",""
"d3-animate-choice","221","763129","0.0-77.0-1.28","3891","7249","24","Male","false","true","false","true","""event"",""trial"",""time""
""fullscreenenter"",""5"",""23213""
","
","
","""event"",""trial"",""time""
""fullscreenenter"",""5"",""23213""
","
","564","","49","","","3000","1","","","images/redplanet1.jpg","images/alien2","images/alien1","images/rocket1","images/alien1","images/t.png","2","real","true","1","common","1","2023-03-03 22:46:00.992"
"two-step-fixation","222","764136","0.0-77.0-2.28","3891","7249","24","Male","false","true","false","true","""event"",""trial"",""time""
""fullscreenenter"",""5"",""23213""
","
","
","""event"",""trial"",""time""
""fullscreenenter"",""5"",""23213""
","
","","images/earth.jpg","","","","","","","","","","","","","","fixation","","","","","",""
"d3-animate-choice","223","766484","0.0-77.0-0.29","3891","7249","24","Male","false","true","false","true","""event"",""trial"",""time""
""fullscreenenter"",""5"",""23213""
","
","
","""event"",""trial"",""time""
""fullscreenenter"",""5"",""23213""
","
","342","","48","","","3000","1","","","images/earth.jpg","images/rocket1","images/rocket2","null","images/rocket1","","1","real","null","2","","",""
"d3-animate-choice","224","769081","0.0-77.0-1.29","3891","7249","24","Male","false","true","false","true","""event"",""trial"",""time""
""fullscreenenter"",""5"",""23213""
","
","
","""event"",""trial"",""time""
""fullscreenenter"",""5"",""23213""
","
","593","","49","","","3000","1","","","images/redplanet1.jpg","images/alien2","images/alien1","images/rocket1","images/alien1","images/t.png","2","real","true","1","common","1","2023-03-03 22:46:06.943"
"two-step-fixation","225","770084","0.0-77.0-2.29","3891","7249","24","Male","false","true","false","true","""event"",""trial"",""time""
""fullscreenenter"",""5"",""23213""
","
","
","""event"",""trial"",""time""
""fullscreenenter"",""5"",""23213""
","
","","images/earth.jpg","","","","","","","","","","","","","","fixation","","","","","",""
"d3-animate-choice","226","772562","0.0-77.0-0.30","3891","7249","24","Male","false","true","false","true","""event"",""trial"",""time""
""fullscreenenter"",""5"",""23213""
","
","
","""event"",""trial"",""time""
""fullscreenenter"",""5"",""23213""
","
","475","","48","","","3000","1","2458","49","images/earth.jpg","images/rocket1","images/rocket2","null","images/rocket1","","1","real","null","2","","",""
"d3-animate-choice","227","775461","0.0-77.0-1.30","3891","7249","24","Male","false","true","false","true","""event"",""trial"",""time""
""fullscreenenter"",""5"",""23213""
","
","
","""event"",""trial"",""time""
""fullscreenenter"",""5"",""23213""
","
","897","","48","","","3000","1","","","images/purpleplanet.jpg","images/alien4","images/alien3","images/rocket1","images/alien4","images/t.png","2","real","false","2","rare","1","2023-03-03 22:46:13.323"
"two-step-fixation","228","776466","0.0-77.0-2.30","3891","7249","24","Male","false","true","false","true","""event"",""trial"",""time""
""fullscreenenter"",""5"",""23213""
","
","
","""event"",""trial"",""time""
""fullscreenenter"",""5"",""23213""
","
","","images/earth.jpg","","","","","","","","","","","","","","fixation","","","","","",""
"d3-animate-choice","229","778905","0.0-77.0-0.31","3891","7249","24","Male","false","true","false","true","""event"",""trial"",""time""
""fullscreenenter"",""5"",""23213""
","
","
","""event"",""trial"",""time""
""fullscreenenter"",""5"",""23213""
","
","434","","48","","","3000","1","","","images/earth.jpg","images/rocket1","images/rocket2","null","images/rocket1","","1","real","null","2","","",""
"d3-animate-choice","230","781333","0.0-77.0-1.31","3891","7249","24","Male","false","true","false","true","""event"",""trial"",""time""
""fullscreenenter"",""5"",""23213""
","
","
","""event"",""trial"",""time""
""fullscreenenter"",""5"",""23213""
","
","422","","48","","","3000","1","","","images/redplanet1.jpg","images/alien2","images/alien1","images/rocket1","images/alien2","images/nothing.png","2","real","true","2","common","0","2023-03-03 22:46:19.195"
"two-step-fixation","231","782337","0.0-77.0-2.31","3891","7249","24","Male","false","true","false","true","""event"",""trial"",""time""
""fullscreenenter"",""5"",""23213""
","
","
","""event"",""trial"",""time""
""fullscreenenter"",""5"",""23213""
","
","","images/earth.jpg","","","","","","","","","","","","","","fixation","","","","","",""
"d3-animate-choice","232","784688","0.0-77.0-0.32","3891","7249","24","Male","false","true","false","true","""event"",""trial"",""time""
""fullscreenenter"",""5"",""23213""
","
","
","""event"",""trial"",""time""
""fullscreenenter"",""5"",""23213""
","
","347","","48","","","3000","1","","","images/earth.jpg","images/rocket1","images/rocket2","null","images/rocket1","","1","real","null","2","","",""
"d3-animate-choice","233","787466","0.0-77.0-1.32","3891","7249","24","Male","false","true","false","true","""event"",""trial"",""time""
""fullscreenenter"",""5"",""23213""
","
","
","""event"",""trial"",""time""
""fullscreenenter"",""5"",""23213""
","
","771","","49","","","3000","1","","","images/redplanet1.jpg","images/alien2","images/alien1","images/rocket1","images/alien1","images/nothing.png","2","real","true","1","common","0","2023-03-03 22:46:25.328"
"two-step-fixation","234","788470","0.0-77.0-2.32","3891","7249","24","Male","false","true","false","true","""event"",""trial"",""time""
""fullscreenenter"",""5"",""23213""
","
","
","""event"",""trial"",""time""
""fullscreenenter"",""5"",""23213""
","
","","images/earth.jpg","","","","","","","","","","","","","","fixation","","","","","",""
"d3-animate-choice","235","790823","0.0-77.0-0.33","3891","7249","24","Male","false","true","false","true","""event"",""trial"",""time""
""fullscreenenter"",""5"",""23213""
","
","
","""event"",""trial"",""time""
""fullscreenenter"",""5"",""23213""
","
","348","","48","","","3000","1","","","images/earth.jpg","images/rocket1","images/rocket2","null","images/rocket1","","1","real","null","2","","",""
"d3-animate-choice","236","793173","0.0-77.0-1.33","3891","7249","24","Male","false","true","false","true","""event"",""trial"",""time""
""fullscreenenter"",""5"",""23213""
","
","
","""event"",""trial"",""time""
""fullscreenenter"",""5"",""23213""
","
","347","","48","","","3000","1","","","images/redplanet1.jpg","images/alien2","images/alien1","images/rocket1","images/alien2","images/t.png","2","real","true","2","common","1","2023-03-03 22:46:31.035"
"two-step-fixation","237","794176","0.0-77.0-2.33","3891","7249","24","Male","false","true","false","true","""event"",""trial"",""time""
""fullscreenenter"",""5"",""23213""
","
","
","""event"",""trial"",""time""
""fullscreenenter"",""5"",""23213""
","
","","images/earth.jpg","","","","","","","","","","","","","","fixation","","","","","",""
"d3-animate-choice","238","796541","0.0-77.0-0.34","3891","7249","24","Male","false","true","false","true","""event"",""trial"",""time""
""fullscreenenter"",""5"",""23213""
","
","
","""event"",""trial"",""time""
""fullscreenenter"",""5"",""23213""
","
","359","","48","","","3000","1","","","images/earth.jpg","images/rocket1","images/rocket2","null","images/rocket1","","1","real","null","2","","",""
"d3-animate-choice","239","798848","0.0-77.0-1.34","3891","7249","24","Male","false","true","false","true","""event"",""trial"",""time""
""fullscreenenter"",""5"",""23213""
","
","
","""event"",""trial"",""time""
""fullscreenenter"",""5"",""23213""
","
","303","","48","","","3000","1","","","images/redplanet1.jpg","images/alien2","images/alien1","images/rocket1","images/alien2","images/nothing.png","2","real","true","2","common","0","2023-03-03 22:46:36.710"
"two-step-fixation","240","799853","0.0-77.0-2.34","3891","7249","24","Male","false","true","false","true","""event"",""trial"",""time""
""fullscreenenter"",""5"",""23213""
","
","
","""event"",""trial"",""time""
""fullscreenenter"",""5"",""23213""
","
","","images/earth.jpg","","","","","","","","","","","","","","fixation","","","","","",""
"d3-animate-choice","241","802175","0.0-77.0-0.35","3891","7249","24","Male","false","true","false","true","""event"",""trial"",""time""
""fullscreenenter"",""5"",""23213""
","
","
","""event"",""trial"",""time""
""fullscreenenter"",""5"",""23213""
","
","314","","48","","","3000","1","","","images/earth.jpg","images/rocket1","images/rocket2","null","images/rocket1","","1","real","null","2","","",""
"d3-animate-choice","242","804856","0.0-77.0-1.35","3891","7249","24","Male","false","true","false","true","""event"",""trial"",""time""
""fullscreenenter"",""5"",""23213""
","
","
","""event"",""trial"",""time""
""fullscreenenter"",""5"",""23213""
","
","676","","48","","","3000","1","","","images/purpleplanet.jpg","images/alien4","images/alien3","images/rocket1","images/alien4","images/nothing.png","2","real","false","2","rare","0","2023-03-03 22:46:42.718"
"two-step-fixation","243","805863","0.0-77.0-2.35","3891","7249","24","Male","false","true","false","true","""event"",""trial"",""time""
""fullscreenenter"",""5"",""23213""
","
","
","""event"",""trial"",""time""
""fullscreenenter"",""5"",""23213""
","
","","images/earth.jpg","","","","","","","","","","","","","","fixation","","","","","",""
"d3-animate-choice","244","808255","0.0-77.0-0.36","3891","7249","24","Male","false","true","false","true","""event"",""trial"",""time""
""fullscreenenter"",""5"",""23213""
","
","
","""event"",""trial"",""time""
""fullscreenenter"",""5"",""23213""
","
","387","","48","","","3000","1","","","images/earth.jpg","images/rocket1","images/rocket2","null","images/rocket1","","1","real","null","2","","",""
"d3-animate-choice","245","810654","0.0-77.0-1.36","3891","7249","24","Male","false","true","false","true","""event"",""trial"",""time""
""fullscreenenter"",""5"",""23213""
","
","
","""event"",""trial"",""time""
""fullscreenenter"",""5"",""23213""
","
","396","","49","","","3000","1","","","images/redplanet1.jpg","images/alien2","images/alien1","images/rocket1","images/alien1","images/t.png","2","real","true","1","common","1","2023-03-03 22:46:48.516"
"two-step-fixation","246","811656","0.0-77.0-2.36","3891","7249","24","Male","false","true","false","true","""event"",""trial"",""time""
""fullscreenenter"",""5"",""23213""
","
","
","""event"",""trial"",""time""
""fullscreenenter"",""5"",""23213""
","
","","images/earth.jpg","","","","","","","","","","","","","","fixation","","","","","",""
"d3-animate-choice","247","814109","0.0-77.0-0.37","3891","7249","24","Male","false","true","false","true","""event"",""trial"",""time""
""fullscreenenter"",""5"",""23213""
","
","
","""event"",""trial"",""time""
""fullscreenenter"",""5"",""23213""
","
","445","","49","","","3000","1","","","images/earth.jpg","images/rocket1","images/rocket2","null","images/rocket2","","1","real","null","1","","",""
"d3-animate-choice","248","816615","0.0-77.0-1.37","3891","7249","24","Male","false","true","false","true","""event"",""trial"",""time""
""fullscreenenter"",""5"",""23213""
","
","
","""event"",""trial"",""time""
""fullscreenenter"",""5"",""23213""
","
","502","","49","","","3000","1","","","images/redplanet1.jpg","images/alien2","images/alien1","images/rocket2","images/alien1","images/nothing.png","2","real","false","1","rare","0","2023-03-03 22:46:54.477"
"two-step-fixation","249","817618","0.0-77.0-2.37","3891","7249","24","Male","false","true","false","true","""event"",""trial"",""time""
""fullscreenenter"",""5"",""23213""
","
","
","""event"",""trial"",""time""
""fullscreenenter"",""5"",""23213""
","
","","images/earth.jpg","","","","","","","","","","","","","","fixation","","","","","",""
"d3-animate-choice","250","820196","0.0-77.0-0.38","3891","7249","24","Male","false","true","false","true","""event"",""trial"",""time""
""fullscreenenter"",""5"",""23213""
","
","
","""event"",""trial"",""time""
""fullscreenenter"",""5"",""23213""
","
","571","","49","","","3000","1","","","images/earth.jpg","images/rocket1","images/rocket2","null","images/rocket2","","1","real","null","1","","",""
