"trial_type","trial_index","time_elapsed","internal_node_id","participant_id","subject_id","age","gender","rocket_sides","red_planet_first_rocket","red_display_order","purple_display_order","interactions","blur_events","focus_events","fullscreenenter_events","fullscreenexit_events","rt","stimulus","key_press","button_pressed","success","duration","valid_pressed","rts","keys","planet_text","right_text","left_text","center_text","chosen_text","reward_text","trial_stage","practice_trial","transition_type","choice","transition","reward","timestamp"
"pavlovia","0","3","0.0-0.0","1230","5022","12","Male","false","true","false","true","
","
","
","
","
","","","","","","","","","","","","","","","","","","","","","",""
"html-keyboard-response","1","2693","0.0-1.0","1230","5022","12","Male","false","true","false","true","
","
","
","
","
","2689","Welcome! Press the space bar to begin.","32","","","","","","","","","","","","","","","","","","",""
"audio-keyboard-response","2","3169","0.0-2.0","1230","5022","12","Male","false","true","false","true","
","
","
","
","
","19","audio/beep_loop.wav","32","","","","","","","","","","","","","","","","","","",""
"audio-button-response","3","4915","0.0-3.0","1230","5022","12","Male","false","true","false","true","
","
","
","
","
","NaN","audio/fish.mp3","","1","","","","","","","","","","","","","","","","","",""
"audio-button-response","4","8306","0.0-4.0","1230","5022","12","Male","false","true","false","true","""event"",""trial"",""time""
""fullscreenenter"",""5"",""12354""
","
","
","""event"",""trial"",""time""
""fullscreenenter"",""5"",""12354""
","
","NaN","audio/tiger.mp3","","4","","","","","","","","","","","","","","","","","",""
"fullscreen","5","13343","0.0-5.0","1230","5022","12","Male","false","true","false","true","""event"",""trial"",""time""
""fullscreenenter"",""5"",""12354""
","
","
","""event"",""trial"",""time""
""fullscreenenter"",""5"",""12354""
","
","","","","","true","","","","","","","","","","","","","","","","",""
"d3-instructions","6","15979","0.0-6.0","1230","5022","12","Male","false","true","false","true","""event"",""trial"",""time""
""fullscreenenter"",""5"",""12354""
","
","
","""event"",""trial"",""time""
""fullscreenenter"",""5"",""12354""
","
","","","","","","","","","","","","","","","","","","","","","",""
"d3-instructions","7","16844","0.0-7.0","1230","5022","12","Male","false","true","false","true","""event"",""trial"",""time""
""fullscreenenter"",""5"",""12354""
","
","
","""event"",""trial"",""time""
""fullscreenenter"",""5"",""12354""
","
","","","","","","","","","","","","","","","","","","","","","",""
"d3-instructions","8","17496","0.0-8.0","1230","5022","12","Male","false","true","false","true","""event"",""trial"",""time""
""fullscreenenter"",""5"",""12354""
","
","
","""event"",""trial"",""time""
""fullscreenenter"",""5"",""12354""
","
","","","","","","","","","","","","","","","","","","","","","",""
"d3-instructions","9","18235","0.0-9.0","1230","5022","12","Male","false","true","false","true","""event"",""trial"",""time""
""fullscreenenter"",""5"",""12354""
","
","
","""event"",""trial"",""time""
""fullscreenenter"",""5"",""12354""
","
","","","","","","","","","","","","","","","","","","","","","",""
"d3-instructions","10","18851","0.0-10.0","1230","5022","12","Male","false","true","false","true","""event"",""trial"",""time""
""fullscreenenter"",""5"",""12354""
","
","
","""event"",""trial"",""time""
""fullscreenenter"",""5"",""12354""
","
","","","","","","","","","","","","","","","","","","","","","",""
"d3-animate-choice","11","23565","0.0-11.0","1230","5022","12","Male","false","true","false","true","""event"",""trial"",""time""
""fullscreenenter"",""5"",""12354""
","
","
","""event"",""trial"",""time""
""fullscreenenter"",""5"",""12354""
","
","1102.1000000238419","","32","","","3000","1","2150,2703.2000000476837,2995.600000023842,3249.900000035763,3512.400000035763,3751.800000011921,4046.600000023842,4314.600000023842,4642.700000047684","39,48,48,48,48,48,48,48,48","images/tutgreenplanet.jpg","images/tutalien1","images/tutalien2","null","images/tutalien1","","NA","practice","null","","","",""
"d3-animate-choice","12","25759","0.0-12.0","1230","5022","12","Male","false","true","false","true","""event"",""trial"",""time""
""fullscreenenter"",""5"",""12354""
","
","
","""event"",""trial"",""time""
""fullscreenenter"",""5"",""12354""
","
","174.80000001192093","","48","","","3000","1","495.80000001192093,766.3999999761581,1051.5999999642372,1395.5999999642372,1766.8999999761581","48,48,48,48,48","images/tutgreenplanet.jpg","images/tutalien1","images/tutalien2","null","images/tutalien1","","NA","practice","null","","","",""
"d3-animate-choice","13","28182","0.0-13.0","1230","5022","12","Male","false","true","false","true","""event"",""trial"",""time""
""fullscreenenter"",""5"",""12354""
","
","
","""event"",""trial"",""time""
""fullscreenenter"",""5"",""12354""
","
","415","","49","","","3000","1","","","images/tutgreenplanet.jpg","images/tutalien1","images/tutalien2","null","images/tutalien2","","NA","practice","null","","","",""
"d3-animate-choice","14","30317","0.0-14.0","1230","5022","12","Male","false","true","false","true","""event"",""trial"",""time""
""fullscreenenter"",""5"",""12354""
","
","
","""event"",""trial"",""time""
""fullscreenenter"",""5"",""12354""
","
","123.30000001192093","","48","","","3000","1","","","images/tutgreenplanet.jpg","images/tutalien1","images/tutalien2","null","images/tutalien1","","NA","practice","null","","","",""
"d3-instructions","15","31687","0.0-15.0","1230","5022","12","Male","false","true","false","true","""event"",""trial"",""time""
""fullscreenenter"",""5"",""12354""
","
","
","""event"",""trial"",""time""
""fullscreenenter"",""5"",""12354""
","
","","","","","","","","","","","","","","","","","","","","","",""
"d3-instructions","16","32415","0.0-16.0","1230","5022","12","Male","false","true","false","true","""event"",""trial"",""time""
""fullscreenenter"",""5"",""12354""
","
","
","""event"",""trial"",""time""
""fullscreenenter"",""5"",""12354""
","
","","","","","","","","","","","","","","","","","","","","","",""
"d3-instructions","17","33313","0.0-17.0","1230","5022","12","Male","false","true","false","true","""event"",""trial"",""time""
""fullscreenenter"",""5"",""12354""
","
","
","""event"",""trial"",""time""
""fullscreenenter"",""5"",""12354""
","
","","","","","","","","","","","","","","","","","","","","","",""
"d3-instructions","18","33997","0.0-18.0","1230","5022","12","Male","false","true","false","true","""event"",""trial"",""time""
""fullscreenenter"",""5"",""12354""
","
","
","""event"",""trial"",""time""
""fullscreenenter"",""5"",""12354""
","
","","","","","","","","","","","","","","","","","","","","","",""
"d3-instructions","19","34641","0.0-19.0","1230","5022","12","Male","false","true","false","true","""event"",""trial"",""time""
""fullscreenenter"",""5"",""12354""
","
","
","""event"",""trial"",""time""
""fullscreenenter"",""5"",""12354""
","
","","","","","","","","","","","","","","","","","","","","","",""
"d3-animate-choice","20","38246","0.0-20.0","1230","5022","12","Male","false","true","false","true","""event"",""trial"",""time""
""fullscreenenter"",""5"",""12354""
","
","
","""event"",""trial"",""time""
""fullscreenenter"",""5"",""12354""
","
","1593.5","","49","","","3000","1","","","images/tutyellowplanet.jpg","null","images/tutalien3","null","images/tutalien3","images/t.png","NA","practice","null","","","",""
"d3-animate-choice","21","41295","0.0-21.0","1230","5022","12","Male","false","true","false","true","""event"",""trial"",""time""
""fullscreenenter"",""5"",""12354""
","
","
","""event"",""trial"",""time""
""fullscreenenter"",""5"",""12354""
","
","1033.5","","49","","","3000","1","1366.300000011921,1615.6000000238419,1944.199999988079,2225.600000023842,2538.699999988079,2828.600000023842","49,49,49,49,49,49","images/tutyellowplanet.jpg","null","images/tutalien3","null","images/tutalien3","images/t.png","NA","practice","null","","","",""
"d3-animate-choice","22","43385","0.0-22.0","1230","5022","12","Male","false","true","false","true","""event"",""trial"",""time""
""fullscreenenter"",""5"",""12354""
","
","
","""event"",""trial"",""time""
""fullscreenenter"",""5"",""12354""
","
","78.20000004768372","","49","","","3000","1","362.4000000357628,663.3000000119209,993.1000000238419,1278.2000000476837,1651.800000011921,2008.7000000476837","49,49,49,49,49,49","images/tutyellowplanet.jpg","null","images/tutalien3","null","images/tutalien3","images/nothing.png","NA","practice","null","","","",""
"d3-animate-choice","23","45754","0.0-23.0","1230","5022","12","Male","false","true","false","true","""event"",""trial"",""time""
""fullscreenenter"",""5"",""12354""
","
","
","""event"",""trial"",""time""
""fullscreenenter"",""5"",""12354""
","
","352.80000001192093","","49","","","3000","1","745.8000000119209,1083,1390.300000011921,1661.8999999761581,1943.0999999642372,2237.800000011921","49,49,49,49,49,49","images/tutyellowplanet.jpg","null","images/tutalien3","null","images/tutalien3","images/t.png","NA","practice","null","","","",""
"d3-animate-choice","24","47960","0.0-24.0","1230","5022","12","Male","false","true","false","true","""event"",""trial"",""time""
""fullscreenenter"",""5"",""12354""
","
","
","""event"",""trial"",""time""
""fullscreenenter"",""5"",""12354""
","
","193.19999998807907","","49","","","3000","1","477.89999997615814,716.3999999761581,1020.1999999880791,1334.8999999761581,1653.1000000238419,1982.6000000238419","49,49,49,49,49,49","images/tutyellowplanet.jpg","null","images/tutalien3","null","images/tutalien3","images/t.png","NA","practice","null","","","",""
"d3-animate-choice","25","50148","0.0-25.0","1230","5022","12","Male","false","true","false","true","""event"",""trial"",""time""
""fullscreenenter"",""5"",""12354""
","
","
","""event"",""trial"",""time""
""fullscreenenter"",""5"",""12354""
","
","169.69999998807907","","49","","","3000","1","544.5999999642372,842.1999999880791,1198.8999999761581,1483.8999999761581,1765.199999988079,2049.2999999523163","49,49,49,49,49,49","images/tutyellowplanet.jpg","null","images/tutalien3","null","images/tutalien3","images/t.png","NA","practice","null","","","",""
"d3-animate-choice","26","52241","0.0-26.0","1230","5022","12","Male","false","true","false","true","""event"",""trial"",""time""
""fullscreenenter"",""5"",""12354""
","
","
","""event"",""trial"",""time""
""fullscreenenter"",""5"",""12354""
","
","77","","49","","","3000","1","316.89999997615814,689.5999999642372,878.6999999880791,1206,1434.2999999523163,1713.699999988079,2016.8999999761581","49,49,49,49,49,49,49","images/tutyellowplanet.jpg","null","images/tutalien3","null","images/tutalien3","images/nothing.png","NA","practice","null","","","",""
"d3-animate-choice","27","54462","0.0-27.0","1230","5022","12","Male","false","true","false","true","""event"",""trial"",""time""
""fullscreenenter"",""5"",""12354""
","
","
","""event"",""trial"",""time""
""fullscreenenter"",""5"",""12354""
","
","207.69999998807907","","49","","","3000","1","491.10000002384186,820.5,1301.300000011921,1673.800000011921,2038.8999999761581","49,49,49,49,49","images/tutyellowplanet.jpg","null","images/tutalien3","null","images/tutalien3","images/nothing.png","NA","practice","null","","","",""
"d3-animate-choice","28","56662","0.0-28.0","1230","5022","12","Male","false","true","false","true","""event"",""trial"",""time""
""fullscreenenter"",""5"",""12354""
","
","
","""event"",""trial"",""time""
""fullscreenenter"",""5"",""12354""
","
","188.5999999642372","","49","","","3000","1","586.2999999523163,1106.8999999761581,1444.199999988079,1764.0999999642372,2102.099999964237","49,49,49,49,49","images/tutyellowplanet.jpg","null","images/tutalien3","null","images/tutalien3","images/t.png","NA","practice","null","","","",""
"d3-animate-choice","29","58892","0.0-29.0","1230","5022","12","Male","false","true","false","true","""event"",""trial"",""time""
""fullscreenenter"",""5"",""12354""
","
","
","""event"",""trial"",""time""
""fullscreenenter"",""5"",""12354""
","
","226.0999999642372","","49","","","3000","1","523.6999999880791,1387,1601.8999999761581,1880.800000011921,2153.5","49,49,49,49,49","images/tutyellowplanet.jpg","null","images/tutalien3","null","images/tutalien3","images/t.png","NA","practice","null","","","",""
"d3-instructions","30","60678","0.0-30.0","1230","5022","12","Male","false","true","false","true","""event"",""trial"",""time""
""fullscreenenter"",""5"",""12354""
","
","
","""event"",""trial"",""time""
""fullscreenenter"",""5"",""12354""
","
","","","","","","","","","","","","","","","","","","","","","",""
"d3-instructions","31","61314","0.0-31.0","1230","5022","12","Male","false","true","false","true","""event"",""trial"",""time""
""fullscreenenter"",""5"",""12354""
","
","
","""event"",""trial"",""time""
""fullscreenenter"",""5"",""12354""
","
","","","","","","","","","","","","","","","","","","","","","",""
"d3-instructions","32","62378","0.0-32.0","1230","5022","12","Male","false","true","false","true","""event"",""trial"",""time""
""fullscreenenter"",""5"",""12354""
","
","
","""event"",""trial"",""time""
""fullscreenenter"",""5"",""12354""
","
","","","","","","","","","","","","","","","","","","","","","",""
"d3-instructions","33","63254","0.0-33.0","1230","5022","12","Male","false","true","false","true","""event"",""trial"",""time""
""fullscreenenter"",""5"",""12354""
","
","
","""event"",""trial"",""time""
""fullscreenenter"",""5"",""12354""
","
","","","","","","","","","","","","","","","","","","","","","",""
"d3-animate-choice","34","66574","0.0-34.0","1230","5022","12","Male","false","true","false","true","""event"",""trial"",""time""
""fullscreenenter"",""5"",""12354""
","
","
","""event"",""trial"",""time""
""fullscreenenter"",""5"",""12354""
","
","1297.0999999642372","","48","","","3000","1","1576,1789.699999988079,2082.199999988079,2392,2765.7999999523163,3098.899999976158","48,48,48,48,48,48","images/tutgreenplanet.jpg","images/tutalien1","images/tutalien2","null","images/tutalien1","images/nothing.png","NA","practice","null","","","",""
"d3-animate-choice","35","68693","0.0-35.0","1230","5022","12","Male","false","true","false","true","""event"",""trial"",""time""
""fullscreenenter"",""5"",""12354""
","
","
","""event"",""trial"",""time""
""fullscreenenter"",""5"",""12354""
","
","102.89999997615814","","48","","","3000","1","394.89999997615814,693.3999999761581,1027.6000000238419,1370.199999988079,1639.800000011921,1932.199999988079","48,48,48,48,48,48","images/tutgreenplanet.jpg","images/tutalien1","images/tutalien2","null","images/tutalien1","images/nothing.png","NA","practice","null","","","",""
"d3-animate-choice","36","70826","0.0-36.0","1230","5022","12","Male","false","true","false","true","""event"",""trial"",""time""
""fullscreenenter"",""5"",""12354""
","
","
","""event"",""trial"",""time""
""fullscreenenter"",""5"",""12354""
","
","116.90000003576279","","48","","","3000","1","410.30000001192093,727.8000000119209,996.1000000238419,1280.5,1613,1809.4000000357628,2067.400000035763","48,48,48,48,48,48,48","images/tutgreenplanet.jpg","images/tutalien1","images/tutalien2","null","images/tutalien1","images/nothing.png","NA","practice","null","","","",""
"d3-animate-choice","37","73054","0.0-37.0","1230","5022","12","Male","false","true","false","true","""event"",""trial"",""time""
""fullscreenenter"",""5"",""12354""
","
","
","""event"",""trial"",""time""
""fullscreenenter"",""5"",""12354""
","
","214.19999998807907","","48","","","3000","1","486,1031.5999999642372,1286.699999988079,1592.5999999642372,1826.0999999642372,2109","48,48,48,48,48,48","images/tutgreenplanet.jpg","images/tutalien1","images/tutalien2","null","images/tutalien1","images/nothing.png","NA","practice","null","","","",""
"d3-animate-choice","38","75136","0.0-38.0","1230","5022","12","Male","false","true","false","true","""event"",""trial"",""time""
""fullscreenenter"",""5"",""12354""
","
","
","""event"",""trial"",""time""
""fullscreenenter"",""5"",""12354""
","
","58.60000002384186","","48","","","3000","1","383.19999998807907,648.5,901.1999999880791,1178.699999988079,1497.1000000238419,1767","48,48,48,48,48,48","images/tutgreenplanet.jpg","images/tutalien1","images/tutalien2","null","images/tutalien1","images/nothing.png","NA","practice","null","","","",""
"d3-animate-choice","39","77158","0.0-39.0","1230","5022","12","Male","false","true","false","true","""event"",""trial"",""time""
""fullscreenenter"",""5"",""12354""
","
","
","""event"",""trial"",""time""
""fullscreenenter"",""5"",""12354""
","
","8.199999988079071","","48","","","3000","1","188.19999998807907,442.7999999523163,707.7999999523163,1007,1272.199999988079,1560.3999999761581,1822.199999988079","48,48,48,48,48,48,48","images/tutgreenplanet.jpg","images/tutalien1","images/tutalien2","null","images/tutalien1","images/nothing.png","NA","practice","null","","","",""
"d3-animate-choice","40","79221","0.0-40.0","1230","5022","12","Male","false","true","false","true","""event"",""trial"",""time""
""fullscreenenter"",""5"",""12354""
","
","
","""event"",""trial"",""time""
""fullscreenenter"",""5"",""12354""
","
","60.39999997615814","","48","","","3000","1","332,555.6000000238419,825.1000000238419,1020.8999999761581,1315,1553.8999999761581,1797.800000011921,2054.699999988079","48,48,48,48,48,48,48,48","images/tutgreenplanet.jpg","images/tutalien1","images/tutalien2","null","images/tutalien1","images/nothing.png","NA","practice","null","","","",""
"d3-animate-choice","41","81479","0.0-41.0","1230","5022","12","Male","false","true","false","true","""event"",""trial"",""time""
""fullscreenenter"",""5"",""12354""
","
","
","""event"",""trial"",""time""
""fullscreenenter"",""5"",""12354""
","
","243.30000001192093","","48","","","3000","1","519.8000000119209,795.6000000238419,1074.5,1333.4000000357628,1586.300000011921,1853.6000000238419,2120","48,48,48,48,48,48,48","images/tutgreenplanet.jpg","images/tutalien1","images/tutalien2","null","images/tutalien1","images/nothing.png","NA","practice","null","","","",""
"d3-animate-choice","42","84551","0.0-42.0","1230","5022","12","Male","false","true","false","true","""event"",""trial"",""time""
""fullscreenenter"",""5"",""12354""
","
","
","""event"",""trial"",""time""
""fullscreenenter"",""5"",""12354""
","
","1070.0999999642372","","49","","","3000","1","1361.0999999642372,1576,1845.5,2067.899999976158,2322.199999988079,2565.399999976158,2819.599999964237,3046.699999988079","49,49,49,49,49,49,49,49","images/tutgreenplanet.jpg","images/tutalien1","images/tutalien2","null","images/tutalien2","images/t.png","NA","practice","null","","","",""
"d3-animate-choice","43","86777","0.0-43.0","1230","5022","12","Male","false","true","false","true","""event"",""trial"",""time""
""fullscreenenter"",""5"",""12354""
","
","
","""event"",""trial"",""time""
""fullscreenenter"",""5"",""12354""
","
","221.19999998807907","","49","","","3000","1","442.2999999523163,762.6999999880791,1028.5999999642372,1268,1567.7999999523163,1833.2999999523163,2150.599999964237","49,49,49,49,49,49,49","images/tutgreenplanet.jpg","images/tutalien1","images/tutalien2","null","images/tutalien2","images/t.png","NA","practice","null","","","",""
"d3-instructions","44","93260","0.0-44.0","1230","5022","12","Male","false","true","false","true","""event"",""trial"",""time""
""fullscreenenter"",""5"",""12354""
","
","
","""event"",""trial"",""time""
""fullscreenenter"",""5"",""12354""
","
","","","","","","","","","","","","","","","","","","","","","",""
"d3-instructions","45","95724","0.0-45.0","1230","5022","12","Male","false","true","false","true","""event"",""trial"",""time""
""fullscreenenter"",""5"",""12354""
","
","
","""event"",""trial"",""time""
""fullscreenenter"",""5"",""12354""
","
","","","","","","","","","","","","","","","","","","","","","",""
"d3-instructions","46","96641","0.0-46.0","1230","5022","12","Male","false","true","false","true","""event"",""trial"",""time""
""fullscreenenter"",""5"",""12354""
","
","
","""event"",""trial"",""time""
""fullscreenenter"",""5"",""12354""
","
","","","","","","","","","","","","","","","","","","","","","",""
"d3-instructions","47","97399","0.0-47.0","1230","5022","12","Male","false","true","false","true","""event"",""trial"",""time""
""fullscreenenter"",""5"",""12354""
","
","
","""event"",""trial"",""time""
""fullscreenenter"",""5"",""12354""
","
","","","","","","","","","","","","","","","","","","","","","",""
"d3-instructions","48","99016","0.0-48.0","1230","5022","12","Male","false","true","false","true","""event"",""trial"",""time""
""fullscreenenter"",""5"",""12354""
","
","
","""event"",""trial"",""time""
""fullscreenenter"",""5"",""12354""
","
","","","","","","","","","","","","","","","","","","","","","",""
"d3-instructions","49","99941","0.0-49.0","1230","5022","12","Male","false","true","false","true","""event"",""trial"",""time""
""fullscreenenter"",""5"",""12354""
","
","
","""event"",""trial"",""time""
""fullscreenenter"",""5"",""12354""
","
","","","","","","","","","","","","","","","","","","","","","",""
"d3-instructions","50","100703","0.0-50.0","1230","5022","12","Male","false","true","false","true","""event"",""trial"",""time""
""fullscreenenter"",""5"",""12354""
","
","
","""event"",""trial"",""time""
""fullscreenenter"",""5"",""12354""
","
","","","","","","","","","","","","","","","","","","","","","",""
"d3-instructions","51","102203","0.0-51.0","1230","5022","12","Male","false","true","false","true","""event"",""trial"",""time""
""fullscreenenter"",""5"",""12354""
","
","
","""event"",""trial"",""time""
""fullscreenenter"",""5"",""12354""
","
","","","","","","","","","","","","","","","","","","","","","",""
"d3-instructions","52","104305","0.0-52.0","1230","5022","12","Male","false","true","false","true","""event"",""trial"",""time""
""fullscreenenter"",""5"",""12354""
","
","
","""event"",""trial"",""time""
""fullscreenenter"",""5"",""12354""
","
","","","","","","","","","","","","","","","","","","","","","",""
"d3-instructions","53","105670","0.0-53.0","1230","5022","12","Male","false","true","false","true","""event"",""trial"",""time""
""fullscreenenter"",""5"",""12354""
","
","
","""event"",""trial"",""time""
""fullscreenenter"",""5"",""12354""
","
","","","","","","","","","","","","","","","","","","","","","",""
"d3-instructions","54","106448","0.0-54.0","1230","5022","12","Male","false","true","false","true","""event"",""trial"",""time""
""fullscreenenter"",""5"",""12354""
","
","
","""event"",""trial"",""time""
""fullscreenenter"",""5"",""12354""
","
","","","","","","","","","","","","","","","","","","","","","",""
"d3-instructions","55","108486","0.0-55.0","1230","5022","12","Male","false","true","false","true","""event"",""trial"",""time""
""fullscreenenter"",""5"",""12354""
","
","
","""event"",""trial"",""time""
""fullscreenenter"",""5"",""12354""
","
","","","","","","","","","","","","","","","","","","","","","",""
"d3-instructions","56","110132","0.0-56.0","1230","5022","12","Male","false","true","false","true","""event"",""trial"",""time""
""fullscreenenter"",""5"",""12354""
","
","
","""event"",""trial"",""time""
""fullscreenenter"",""5"",""12354""
","
","","","","","","","","","","","","","","","","","","","","","",""
"d3-instructions","57","111589","0.0-57.0","1230","5022","12","Male","false","true","false","true","""event"",""trial"",""time""
""fullscreenenter"",""5"",""12354""
","
","
","""event"",""trial"",""time""
""fullscreenenter"",""5"",""12354""
","
","","","","","","","","","","","","","","","","","","","","","",""
"d3-instructions","58","112567","0.0-58.0","1230","5022","12","Male","false","true","false","true","""event"",""trial"",""time""
""fullscreenenter"",""5"",""12354""
","
","
","""event"",""trial"",""time""
""fullscreenenter"",""5"",""12354""
","
","","","","","","","","","","","","","","","","","","","","","",""
"d3-instructions","59","115350","0.0-59.0","1230","5022","12","Male","false","true","false","true","""event"",""trial"",""time""
""fullscreenenter"",""5"",""12354""
","
","
","""event"",""trial"",""time""
""fullscreenenter"",""5"",""12354""
","
","","","","","","","","","","","","","","","","","","","","","",""
"d3-instructions","60","116284","0.0-60.0","1230","5022","12","Male","false","true","false","true","""event"",""trial"",""time""
""fullscreenenter"",""5"",""12354""
","
","
","""event"",""trial"",""time""
""fullscreenenter"",""5"",""12354""
","
","","","","","","","","","","","","","","","","","","","","","",""
"d3-animate-choice","61","119412","0.0-61.0-0.0","1230","5022","12","Male","false","true","false","true","""event"",""trial"",""time""
""fullscreenenter"",""5"",""12354""
","
","
","""event"",""trial"",""time""
""fullscreenenter"",""5"",""12354""
","
","1123.199999988079","","48","","","3000","1","1368.3999999761581,1622.6000000238419,1909.800000011921,2171.199999988079,2455.899999976158,2721.399999976158","48,48,48,48,48,48","images/earth.jpg","images/tutrocket2","images/tutrocket1","null","images/tutrocket2","","1","practice","null","2","","",""
"d3-animate-choice","62","121564","0.0-61.0-1.0","1230","5022","12","Male","false","true","false","true","""event"",""trial"",""time""
""fullscreenenter"",""5"",""12354""
","
","
","""event"",""trial"",""time""
""fullscreenenter"",""5"",""12354""
","
","138.79999995231628","","48","","","3000","1","551,799.8999999761581,1087.2999999523163,1360.0999999642372,1610.7999999523163,1922.5999999642372","48,48,48,48,48,48","images/tutgreenplanet.jpg","images/tutalien2","images/tutalien1","images/tutrocket2","images/tutalien2","images/nothing.png","2","practice","false","2","rare","0","2022-12-10 16:13:29.025"
"two-step-fixation","63","122573","0.0-61.0-2.0","1230","5022","12","Male","false","true","false","true","""event"",""trial"",""time""
""fullscreenenter"",""5"",""12354""
","
","
","""event"",""trial"",""time""
""fullscreenenter"",""5"",""12354""
","
","","images/earth.jpg","","","","","","","","","","","","","","fixation","","","","","",""
"d3-animate-choice","64","124638","0.0-61.0-0.1","1230","5022","12","Male","false","true","false","true","""event"",""trial"",""time""
""fullscreenenter"",""5"",""12354""
","
","
","""event"",""trial"",""time""
""fullscreenenter"",""5"",""12354""
","
","49.69999998807907","","48","","","3000","1","388.19999998807907,750.2999999523163,1060.5999999642372,1424.8999999761581,1686","48,48,48,48,48","images/earth.jpg","images/tutrocket2","images/tutrocket1","null","images/tutrocket2","","1","practice","null","2","","",""
"d3-animate-choice","65","126689","0.0-61.0-1.1","1230","5022","12","Male","false","true","false","true","""event"",""trial"",""time""
""fullscreenenter"",""5"",""12354""
","
","
","""event"",""trial"",""time""
""fullscreenenter"",""5"",""12354""
","
","34.09999996423721","","48","","","3000","1","359.5,700.8999999761581,994.2999999523163,1310.0999999642372,1768.699999988079","48,48,48,48,48","images/tutgreenplanet.jpg","images/tutalien2","images/tutalien1","images/tutrocket2","images/tutalien2","images/nothing.png","2","practice","false","2","rare","0","2022-12-10 16:13:34.150"
"two-step-fixation","66","127703","0.0-61.0-2.1","1230","5022","12","Male","false","true","false","true","""event"",""trial"",""time""
""fullscreenenter"",""5"",""12354""
","
","
","""event"",""trial"",""time""
""fullscreenenter"",""5"",""12354""
","
","","images/earth.jpg","","","","","","","","","","","","","","fixation","","","","","",""
"d3-animate-choice","67","129910","0.0-61.0-0.2","1230","5022","12","Male","false","true","false","true","""event"",""trial"",""time""
""fullscreenenter"",""5"",""12354""
","
","
","""event"",""trial"",""time""
""fullscreenenter"",""5"",""12354""
","
","193.80000001192093","","48","","","3000","1","484.80000001192093,786.3999999761581,1037.1000000238419,1321,1592.8999999761581,1860.8999999761581,2121.600000023842","48,48,48,48,48,48,48","images/earth.jpg","images/tutrocket2","images/tutrocket1","null","images/tutrocket2","","1","practice","null","2","","",""
"d3-animate-choice","68","132119","0.0-61.0-1.2","1230","5022","12","Male","false","true","false","true","""event"",""trial"",""time""
""fullscreenenter"",""5"",""12354""
","
","
","""event"",""trial"",""time""
""fullscreenenter"",""5"",""12354""
","
","198.70000004768372","","48","","","3000","1","502.60000002384186,782.4000000357628,1050.800000011921,1318.4000000357628,1555.4000000357628,1824.2000000476837,2120.800000011921","48,48,48,48,48,48,48","images/tutyellowplanet.jpg","images/tutalien4","images/tutalien3","images/tutrocket2","images/tutalien4","images/t.png","2","practice","true","2","common","1","2022-12-10 16:13:39.580"
"two-step-fixation","69","133127","0.0-61.0-2.2","1230","5022","12","Male","false","true","false","true","""event"",""trial"",""time""
""fullscreenenter"",""5"",""12354""
","
","
","""event"",""trial"",""time""
""fullscreenenter"",""5"",""12354""
","
","","images/earth.jpg","","","","","","","","","","","","","","fixation","","","","","",""
"d3-animate-choice","70","135340","0.0-61.0-0.3","1230","5022","12","Male","false","true","false","true","""event"",""trial"",""time""
""fullscreenenter"",""5"",""12354""
","
","
","""event"",""trial"",""time""
""fullscreenenter"",""5"",""12354""
","
","199.69999998807907","","48","","","3000","1","497.39999997615814,759.8000000119209,1048.5,1349.5999999642372,1601.300000011921","48,48,48,48,48","images/earth.jpg","images/tutrocket2","images/tutrocket1","null","images/tutrocket2","","1","practice","null","2","","",""
"d3-animate-choice","71","138768","0.0-61.0-1.3","1230","5022","12","Male","false","true","false","true","""event"",""trial"",""time""
""fullscreenenter"",""5"",""12354""
","
","
","""event"",""trial"",""time""
""fullscreenenter"",""5"",""12354""
","
","1403.3999999761581","","48","","","3000","1","1750.300000011921,2045.800000011921,2375.199999988079,2657.099999964237,2864.099999964237,3097.5,3401.300000011921","48,48,48,48,48,48,48","images/tutgreenplanet.jpg","images/tutalien2","images/tutalien1","images/tutrocket2","images/tutalien2","images/nothing.png","2","practice","false","2","rare","0","2022-12-10 16:13:46.229"
"two-step-fixation","72","139773","0.0-61.0-2.3","1230","5022","12","Male","false","true","false","true","""event"",""trial"",""time""
""fullscreenenter"",""5"",""12354""
","
","
","""event"",""trial"",""time""
""fullscreenenter"",""5"",""12354""
","
","","images/earth.jpg","","","","","","","","","","","","","","fixation","","","","","",""
"d3-animate-choice","73","142005","0.0-61.0-0.4","1230","5022","12","Male","false","true","false","true","""event"",""trial"",""time""
""fullscreenenter"",""5"",""12354""
","
","
","""event"",""trial"",""time""
""fullscreenenter"",""5"",""12354""
","
","220.80000001192093","","48","","","3000","1","419.10000002384186,689.3000000119209,1007.2000000476837,1253.300000011921,1541.800000011921,2040.1000000238419","48,48,48,48,48,48","images/earth.jpg","images/tutrocket2","images/tutrocket1","null","images/tutrocket2","","1","practice","null","2","","",""
"d3-animate-choice","74","144294","0.0-61.0-1.4","1230","5022","12","Male","false","true","false","true","""event"",""trial"",""time""
""fullscreenenter"",""5"",""12354""
","
","
","""event"",""trial"",""time""
""fullscreenenter"",""5"",""12354""
","
","278.10000002384186","","48","","","3000","1","524.3000000119209,826.9000000357628,1131.4000000357628,1287,2215","48,48,48,189,48","images/tutgreenplanet.jpg","images/tutalien2","images/tutalien1","images/tutrocket2","images/tutalien2","images/nothing.png","2","practice","false","2","rare","0","2022-12-10 16:13:51.755"
"two-step-fixation","75","145296","0.0-61.0-2.4","1230","5022","12","Male","false","true","false","true","""event"",""trial"",""time""
""fullscreenenter"",""5"",""12354""
","
","
","""event"",""trial"",""time""
""fullscreenenter"",""5"",""12354""
","
","","images/earth.jpg","","","","","","","","","","","","","","fixation","","","","","",""
"d3-animate-choice","76","147699","0.0-61.0-0.5","1230","5022","12","Male","false","true","false","true","""event"",""trial"",""time""
""fullscreenenter"",""5"",""12354""
","
","
","""event"",""trial"",""time""
""fullscreenenter"",""5"",""12354""
","
","318.80000001192093","","189","","","3000","1","399.69999998807907,945.1999999880791,1330.6000000238419,1614.800000011921,1902.800000011921,1947.6000000238419,2293.100000023842","48,48,48,48,189,48,48","images/earth.jpg","images/tutrocket2","images/tutrocket1","null","images/tutrocket2","","1","practice","null","","","",""
"d3-animate-choice","77","149914","0.0-61.0-1.5","1230","5022","12","Male","false","true","false","true","""event"",""trial"",""time""
""fullscreenenter"",""5"",""12354""
","
","
","""event"",""trial"",""time""
""fullscreenenter"",""5"",""12354""
","
","208.30000001192093","","48","","","3000","1","854.8000000119209,1617.4000000357628,1993.800000011921","48,48,48","images/tutyellowplanet.jpg","images/tutalien4","images/tutalien3","images/tutrocket2","images/tutalien4","images/t.png","2","practice","true","2","common","1","2022-12-10 16:13:57.375"
"two-step-fixation","78","150925","0.0-61.0-2.5","1230","5022","12","Male","false","true","false","true","""event"",""trial"",""time""
""fullscreenenter"",""5"",""12354""
","
","
","""event"",""trial"",""time""
""fullscreenenter"",""5"",""12354""
","
","","images/earth.jpg","","","","","","","","","","","","","","fixation","","","","","",""
"d3-animate-choice","79","153166","0.0-61.0-0.6","1230","5022","12","Male","false","true","false","true","""event"",""trial"",""time""
""fullscreenenter"",""5"",""12354""
","
","
","""event"",""trial"",""time""
""fullscreenenter"",""5"",""12354""
","
","224.5999999642372","","48","","","3000","1","693.5999999642372,1196.0999999642372","48,48","images/earth.jpg","images/tutrocket2","images/tutrocket1","null","images/tutrocket2","","1","practice","null","2","","",""
"d3-animate-choice","80","155181","0.0-61.0-1.6","1230","5022","12","Male","false","true","false","true","""event"",""trial"",""time""
""fullscreenenter"",""5"",""12354""
","
","
","""event"",""trial"",""time""
""fullscreenenter"",""5"",""12354""
","
","4","","48","","","3000","1","264.39999997615814,547.1999999880791,866,1192.800000011921,1510.800000011921","48,48,48,48,48","images/tutyellowplanet.jpg","images/tutalien4","images/tutalien3","images/tutrocket2","images/tutalien4","images/t.png","2","practice","true","2","common","1","2022-12-10 16:14:02.642"
"two-step-fixation","81","156188","0.0-61.0-2.6","1230","5022","12","Male","false","true","false","true","""event"",""trial"",""time""
""fullscreenenter"",""5"",""12354""
","
","
","""event"",""trial"",""time""
""fullscreenenter"",""5"",""12354""
","
","","images/earth.jpg","","","","","","","","","","","","","","fixation","","","","","",""
"d3-animate-choice","82","158638","0.0-61.0-0.7","1230","5022","12","Male","false","true","false","true","""event"",""trial"",""time""
""fullscreenenter"",""5"",""12354""
","
","
","""event"",""trial"",""time""
""fullscreenenter"",""5"",""12354""
","
","441.4000000357628","","48","","","3000","1","763.8000000119209,1689.4000000357628,2001.300000011921,2273.699999988079","48,48,48,48","images/earth.jpg","images/tutrocket2","images/tutrocket1","null","images/tutrocket2","","1","practice","null","2","","",""
"d3-animate-choice","83","160907","0.0-61.0-1.7","1230","5022","12","Male","false","true","false","true","""event"",""trial"",""time""
""fullscreenenter"",""5"",""12354""
""fullscreenexit"",""84"",""161187""
","
","
","""event"",""trial"",""time""
""fullscreenenter"",""5"",""12354""
","""event"",""trial"",""time""
""fullscreenexit"",""84"",""161187""
","169","","39","","","3000","1","256.69999998807907,548.5999999642372,781.5999999642372,1043.0999999642372,1306.8999999761581,1648.5999999642372,2038.5999999642372","48,48,48,48,48,48,48","images/tutgreenplanet.jpg","images/tutalien2","images/tutalien1","images/tutrocket2","images/tutalien2","images/nothing.png","2","practice","false","","rare","0","2022-12-10 16:14:08.368"
"two-step-fixation","84","161918","0.0-61.0-2.7","1230","5022","12","Male","false","true","false","true","""event"",""trial"",""time""
""fullscreenenter"",""5"",""12354""
""fullscreenexit"",""84"",""161187""
","
","
","""event"",""trial"",""time""
""fullscreenenter"",""5"",""12354""
","""event"",""trial"",""time""
""fullscreenexit"",""84"",""161187""
","","images/earth.jpg","","","","","","","","","","","","","","fixation","","","","","",""
"d3-animate-choice","85","164148","0.0-61.0-0.8","1230","5022","12","Male","false","true","false","true","""event"",""trial"",""time""
""fullscreenenter"",""5"",""12354""
""fullscreenexit"",""84"",""161187""
","
","
","""event"",""trial"",""time""
""fullscreenenter"",""5"",""12354""
","""event"",""trial"",""time""
""fullscreenexit"",""84"",""161187""
","223.29999995231628","","48","","","3000","1","548.6999999880791,843.2999999523163,1503.699999988079,1762.699999988079,1985.3999999761581","48,48,48,48,48","images/earth.jpg","images/tutrocket2","images/tutrocket1","null","images/tutrocket2","","1","practice","null","2","","",""
"d3-animate-choice","86","166210","0.0-61.0-1.8","1230","5022","12","Male","false","true","false","true","""event"",""trial"",""time""
""fullscreenenter"",""5"",""12354""
""fullscreenexit"",""84"",""161187""
","
","
","""event"",""trial"",""time""
""fullscreenenter"",""5"",""12354""
","""event"",""trial"",""time""
""fullscreenexit"",""84"",""161187""
","49.19999998807907","","48","","","3000","1","241.30000001192093,437.0999999642372,645.3000000119209,875.5999999642372,1159.300000011921,1456.800000011921,1748.199999988079","48,48,48,48,48,48,48","images/tutyellowplanet.jpg","images/tutalien4","images/tutalien3","images/tutrocket2","images/tutalien4","images/t.png","2","practice","true","2","common","1","2022-12-10 16:14:13.671"
"two-step-fixation","87","167222","0.0-61.0-2.8","1230","5022","12","Male","false","true","false","true","""event"",""trial"",""time""
""fullscreenenter"",""5"",""12354""
""fullscreenexit"",""84"",""161187""
","
","
","""event"",""trial"",""time""
""fullscreenenter"",""5"",""12354""
","""event"",""trial"",""time""
""fullscreenexit"",""84"",""161187""
","","images/earth.jpg","","","","","","","","","","","","","","fixation","","","","","",""
"d3-animate-choice","88","169283","0.0-61.0-0.9","1230","5022","12","Male","false","true","false","true","""event"",""trial"",""time""
""fullscreenenter"",""5"",""12354""
""fullscreenexit"",""84"",""161187""
","
","
","""event"",""trial"",""time""
""fullscreenenter"",""5"",""12354""
","""event"",""trial"",""time""
""fullscreenexit"",""84"",""161187""
","55.19999998807907","","48","","","3000","1","506.0999999642372,908.2999999523163,1289.2999999523163,1669.5999999642372,2040.199999988079","48,48,48,48,48","images/earth.jpg","images/tutrocket2","images/tutrocket1","null","images/tutrocket2","","1","practice","null","2","","",""
"d3-animate-choice","89","171860","0.0-61.0-1.9","1230","5022","12","Male","false","true","false","true","""event"",""trial"",""time""
""fullscreenenter"",""5"",""12354""
""fullscreenexit"",""84"",""161187""
","
","
","""event"",""trial"",""time""
""fullscreenenter"",""5"",""12354""
","""event"",""trial"",""time""
""fullscreenexit"",""84"",""161187""
","558.8999999761581","","48","","","3000","1","867.1999999880791,1239.5,1604.2999999523163,1958.699999988079,2344.599999964237","48,48,48,48,48","images/tutyellowplanet.jpg","images/tutalien4","images/tutalien3","images/tutrocket2","images/tutalien4","images/nothing.png","2","practice","true","2","common","0","2022-12-10 16:14:19.321"
"two-step-fixation","90","172875","0.0-61.0-2.9","1230","5022","12","Male","false","true","false","true","""event"",""trial"",""time""
""fullscreenenter"",""5"",""12354""
""fullscreenexit"",""84"",""161187""
","
","
","""event"",""trial"",""time""
""fullscreenenter"",""5"",""12354""
","""event"",""trial"",""time""
""fullscreenexit"",""84"",""161187""
","","images/earth.jpg","","","","","","","","","","","","","","fixation","","","","","",""
"d3-animate-choice","91","174958","0.0-61.0-0.10","1230","5022","12","Male","false","true","false","true","""event"",""trial"",""time""
""fullscreenenter"",""5"",""12354""
""fullscreenexit"",""84"",""161187""
","
","
","""event"",""trial"",""time""
""fullscreenenter"",""5"",""12354""
","""event"",""trial"",""time""
""fullscreenexit"",""84"",""161187""
","79.80000001192093","","48","","","3000","1","1173,1551.800000011921","48,48","images/earth.jpg","images/tutrocket2","images/tutrocket1","null","images/tutrocket2","","1","practice","null","2","","",""
"d3-animate-choice","92","177331","0.0-61.0-1.10","1230","5022","12","Male","false","true","false","true","""event"",""trial"",""time""
""fullscreenenter"",""5"",""12354""
""fullscreenexit"",""84"",""161187""
","
","
","""event"",""trial"",""time""
""fullscreenenter"",""5"",""12354""
","""event"",""trial"",""time""
""fullscreenexit"",""84"",""161187""
","369.60000002384186","","48","","","3000","1","773.1000000238419,1054.5,1365,2008.300000011921,2298.600000023842","48,48,48,48,48","images/tutyellowplanet.jpg","images/tutalien4","images/tutalien3","images/tutrocket2","images/tutalien4","images/nothing.png","2","practice","true","2","common","0","2022-12-10 16:14:24.792"
"two-step-fixation","93","178340","0.0-61.0-2.10","1230","5022","12","Male","false","true","false","true","""event"",""trial"",""time""
""fullscreenenter"",""5"",""12354""
""fullscreenexit"",""84"",""161187""
","
","
","""event"",""trial"",""time""
""fullscreenenter"",""5"",""12354""
","""event"",""trial"",""time""
""fullscreenexit"",""84"",""161187""
","","images/earth.jpg","","","","","","","","","","","","","","fixation","","","","","",""
"d3-animate-choice","94","181355","0.0-61.0-0.11","1230","5022","12","Male","false","true","false","true","""event"",""trial"",""time""
""fullscreenenter"",""5"",""12354""
""fullscreenexit"",""84"",""161187""
","
","
","""event"",""trial"",""time""
""fullscreenenter"",""5"",""12354""
","""event"",""trial"",""time""
""fullscreenexit"",""84"",""161187""
","1011.0999999642372","","48","","","3000","1","1311,1899.8999999761581","48,48","images/earth.jpg","images/tutrocket2","images/tutrocket1","null","images/tutrocket2","","1","practice","null","2","","",""
"d3-animate-choice","95","184380","0.0-61.0-1.11","1230","5022","12","Male","false","true","false","true","""event"",""trial"",""time""
""fullscreenenter"",""5"",""12354""
""fullscreenexit"",""84"",""161187""
","
","
","""event"",""trial"",""time""
""fullscreenenter"",""5"",""12354""
","""event"",""trial"",""time""
""fullscreenexit"",""84"",""161187""
","1019.3999999761581","","48","","","3000","1","1333.199999988079,1727.5","48,48","images/tutyellowplanet.jpg","images/tutalien4","images/tutalien3","images/tutrocket2","images/tutalien4","images/t.png","2","practice","true","2","common","1","2022-12-10 16:14:31.841"
"two-step-fixation","96","185392","0.0-61.0-2.11","1230","5022","12","Male","false","true","false","true","""event"",""trial"",""time""
""fullscreenenter"",""5"",""12354""
""fullscreenexit"",""84"",""161187""
","
","
","""event"",""trial"",""time""
""fullscreenenter"",""5"",""12354""
","""event"",""trial"",""time""
""fullscreenexit"",""84"",""161187""
","","images/earth.jpg","","","","","","","","","","","","","","fixation","","","","","",""
"d3-animate-choice","97","187836","0.0-61.0-0.12","1230","5022","12","Male","false","true","false","true","""event"",""trial"",""time""
""fullscreenenter"",""5"",""12354""
""fullscreenexit"",""84"",""161187""
","
","
","""event"",""trial"",""time""
""fullscreenenter"",""5"",""12354""
","""event"",""trial"",""time""
""fullscreenexit"",""84"",""161187""
","433.89999997615814","","48","","","3000","1","678.8999999761581","48","images/earth.jpg","images/tutrocket2","images/tutrocket1","null","images/tutrocket2","","1","practice","null","2","","",""
"d3-animate-choice","98","191617","0.0-61.0-1.12","1230","5022","12","Male","false","true","false","true","""event"",""trial"",""time""
""fullscreenenter"",""5"",""12354""
""fullscreenexit"",""84"",""161187""
","
","
","""event"",""trial"",""time""
""fullscreenenter"",""5"",""12354""
","""event"",""trial"",""time""
""fullscreenexit"",""84"",""161187""
","1770.199999988079","","48","","","3000","1","2016.6000000238419,2266,2522.5,2775.600000023842,3009.100000023842,3215.600000023842,3428.5,3631.699999988079","48,48,48,48,48,48,48,48","images/tutyellowplanet.jpg","images/tutalien4","images/tutalien3","images/tutrocket2","images/tutalien4","images/t.png","2","practice","true","2","common","1","2022-12-10 16:14:39.078"
"two-step-fixation","99","192638","0.0-61.0-2.12","1230","5022","12","Male","false","true","false","true","""event"",""trial"",""time""
""fullscreenenter"",""5"",""12354""
""fullscreenexit"",""84"",""161187""
","
","
","""event"",""trial"",""time""
""fullscreenenter"",""5"",""12354""
","""event"",""trial"",""time""
""fullscreenexit"",""84"",""161187""
","","images/earth.jpg","","","","","","","","","","","","","","fixation","","","","","",""
"d3-animate-choice","100","194851","0.0-61.0-0.13","1230","5022","12","Male","false","true","false","true","""event"",""trial"",""time""
""fullscreenenter"",""5"",""12354""
""fullscreenexit"",""84"",""161187""
","
","
","""event"",""trial"",""time""
""fullscreenenter"",""5"",""12354""
","""event"",""trial"",""time""
""fullscreenexit"",""84"",""161187""
","205.89999997615814","","48","","","3000","1","489,748.7999999523163,973.7999999523163,1264.2999999523163","48,48,48,48","images/earth.jpg","images/tutrocket2","images/tutrocket1","null","images/tutrocket2","","1","practice","null","2","","",""
"d3-animate-choice","101","197044","0.0-61.0-1.13","1230","5022","12","Male","false","true","false","true","""event"",""trial"",""time""
""fullscreenenter"",""5"",""12354""
""fullscreenexit"",""84"",""161187""
","
","
","""event"",""trial"",""time""
""fullscreenenter"",""5"",""12354""
","""event"",""trial"",""time""
""fullscreenexit"",""84"",""161187""
","188.80000001192093","","48","","","3000","1","501.80000001192093,859.4000000357628,1716","48,48,48","images/tutyellowplanet.jpg","images/tutalien4","images/tutalien3","images/tutrocket2","images/tutalien4","images/nothing.png","2","practice","true","2","common","0","2022-12-10 16:14:44.505"
"two-step-fixation","102","198056","0.0-61.0-2.13","1230","5022","12","Male","false","true","false","true","""event"",""trial"",""time""
""fullscreenenter"",""5"",""12354""
""fullscreenexit"",""84"",""161187""
","
","
","""event"",""trial"",""time""
""fullscreenenter"",""5"",""12354""
","""event"",""trial"",""time""
""fullscreenexit"",""84"",""161187""
","","images/earth.jpg","","","","","","","","","","","","","","fixation","","","","","",""
"d3-animate-choice","103","200147","0.0-61.0-0.14","1230","5022","12","Male","false","true","false","true","""event"",""trial"",""time""
""fullscreenenter"",""5"",""12354""
""fullscreenexit"",""84"",""161187""
","
","
","""event"",""trial"",""time""
""fullscreenenter"",""5"",""12354""
","""event"",""trial"",""time""
""fullscreenexit"",""84"",""161187""
","82.69999998807907","","48","","","3000","1","287.80000001192093,499.5,738.8999999761581,979.8999999761581,1489.8999999761581,1715.8999999761581,1985.3999999761581","48,48,48,48,48,48,48","images/earth.jpg","images/tutrocket2","images/tutrocket1","null","images/tutrocket2","","1","practice","null","2","","",""
"d3-animate-choice","104","202303","0.0-61.0-1.14","1230","5022","12","Male","false","true","false","true","""event"",""trial"",""time""
""fullscreenenter"",""5"",""12354""
""fullscreenexit"",""84"",""161187""
","
","
","""event"",""trial"",""time""
""fullscreenenter"",""5"",""12354""
","""event"",""trial"",""time""
""fullscreenexit"",""84"",""161187""
","141.29999995231628","","48","","","3000","1","359.5,536.2999999523163,766.1999999880791,1141,1369.699999988079,1680.2999999523163","48,48,48,48,48,48","images/tutgreenplanet.jpg","images/tutalien2","images/tutalien1","images/tutrocket2","images/tutalien2","images/nothing.png","2","practice","false","2","rare","0","2022-12-10 16:14:49.764"
"two-step-fixation","105","203312","0.0-61.0-2.14","1230","5022","12","Male","false","true","false","true","""event"",""trial"",""time""
""fullscreenenter"",""5"",""12354""
""fullscreenexit"",""84"",""161187""
","
","
","""event"",""trial"",""time""
""fullscreenenter"",""5"",""12354""
","""event"",""trial"",""time""
""fullscreenexit"",""84"",""161187""
","","images/earth.jpg","","","","","","","","","","","","","","fixation","","","","","",""
"d3-animate-choice","106","205325","0.0-61.0-0.15","1230","5022","12","Male","false","true","false","true","""event"",""trial"",""time""
""fullscreenenter"",""5"",""12354""
""fullscreenexit"",""84"",""161187""
","
","
","""event"",""trial"",""time""
""fullscreenenter"",""5"",""12354""
","""event"",""trial"",""time""
""fullscreenexit"",""84"",""161187""
","6.800000011920929","","48","","","3000","1","289,721.0999999642372,990.6999999880791,1259.300000011921,1910.5","48,48,48,48,48","images/earth.jpg","images/tutrocket2","images/tutrocket1","null","images/tutrocket2","","1","practice","null","2","","",""
"d3-animate-choice","107","208336","0.0-61.0-1.15","1230","5022","12","Male","false","true","false","true","""event"",""trial"",""time""
""fullscreenenter"",""5"",""12354""
""fullscreenexit"",""84"",""161187""
","
","
","""event"",""trial"",""time""
""fullscreenenter"",""5"",""12354""
","""event"",""trial"",""time""
""fullscreenexit"",""84"",""161187""
","1002","","48","","","3000","1","1289.800000011921,1572.4000000357628,1819,2088.2000000476837","48,48,48,48","images/tutyellowplanet.jpg","images/tutalien4","images/tutalien3","images/tutrocket2","images/tutalien4","images/nothing.png","2","practice","true","2","common","0","2022-12-10 16:14:55.797"
"two-step-fixation","108","209346","0.0-61.0-2.15","1230","5022","12","Male","false","true","false","true","""event"",""trial"",""time""
""fullscreenenter"",""5"",""12354""
""fullscreenexit"",""84"",""161187""
","
","
","""event"",""trial"",""time""
""fullscreenenter"",""5"",""12354""
","""event"",""trial"",""time""
""fullscreenexit"",""84"",""161187""
","","images/earth.jpg","","","","","","","","","","","","","","fixation","","","","","",""
"d3-animate-choice","109","211443","0.0-61.0-0.16","1230","5022","12","Male","false","true","false","true","""event"",""trial"",""time""
""fullscreenenter"",""5"",""12354""
""fullscreenexit"",""84"",""161187""
","
","
","""event"",""trial"",""time""
""fullscreenenter"",""5"",""12354""
","""event"",""trial"",""time""
""fullscreenexit"",""84"",""161187""
","91.19999998807907","","48","","","3000","1","411.30000001192093,1341.800000011921,1580.1000000238419,1839.300000011921","48,48,48,48","images/earth.jpg","images/tutrocket2","images/tutrocket1","null","images/tutrocket2","","1","practice","null","2","","",""
"d3-animate-choice","110","213458","0.0-61.0-1.16","1230","5022","12","Male","false","true","false","true","""event"",""trial"",""time""
""fullscreenenter"",""5"",""12354""
""fullscreenexit"",""84"",""161187""
","
","
","""event"",""trial"",""time""
""fullscreenenter"",""5"",""12354""
","""event"",""trial"",""time""
""fullscreenexit"",""84"",""161187""
","9.599999964237213","","48","","","3000","1","250.89999997615814,498.7999999523163,707.5,919.5,1126.7999999523163,1349.5999999642372,1574.7999999523163,1851.5","48,48,48,48,48,48,48,48","images/tutyellowplanet.jpg","images/tutalien4","images/tutalien3","images/tutrocket2","images/tutalien4","images/t.png","2","practice","true","2","common","1","2022-12-10 16:15:00.919"
"two-step-fixation","111","214467","0.0-61.0-2.16","1230","5022","12","Male","false","true","false","true","""event"",""trial"",""time""
""fullscreenenter"",""5"",""12354""
""fullscreenexit"",""84"",""161187""
","
","
","""event"",""trial"",""time""
""fullscreenenter"",""5"",""12354""
","""event"",""trial"",""time""
""fullscreenexit"",""84"",""161187""
","","images/earth.jpg","","","","","","","","","","","","","","fixation","","","","","",""
"d3-animate-choice","112","216628","0.0-61.0-0.17","1230","5022","12","Male","false","true","false","true","""event"",""trial"",""time""
""fullscreenenter"",""5"",""12354""
""fullscreenexit"",""84"",""161187""
","
","
","""event"",""trial"",""time""
""fullscreenenter"",""5"",""12354""
","""event"",""trial"",""time""
""fullscreenexit"",""84"",""161187""
","157.5","","48","","","3000","1","430.19999998807907,698.6999999880791,974.0999999642372,1225.7999999523163,1488.5,1737.8999999761581,1949.7999999523163","48,48,48,48,48,48,48","images/earth.jpg","images/tutrocket2","images/tutrocket1","null","images/tutrocket2","","1","practice","null","2","","",""
"d3-animate-choice","113","218650","0.0-61.0-1.17","1230","5022","12","Male","false","true","false","true","""event"",""trial"",""time""
""fullscreenenter"",""5"",""12354""
""fullscreenexit"",""84"",""161187""
","
","
","""event"",""trial"",""time""
""fullscreenenter"",""5"",""12354""
","""event"",""trial"",""time""
""fullscreenexit"",""84"",""161187""
","11.100000023841858","","48","","","3000","1","223.10000002384186,548.9000000357628,828.3000000119209,1142.6000000238419,1468.4000000357628,1776.9000000357628","48,48,48,48,48,48","images/tutyellowplanet.jpg","images/tutalien4","images/tutalien3","images/tutrocket2","images/tutalien4","images/t.png","2","practice","true","2","common","1","2022-12-10 16:15:06.111"
"two-step-fixation","114","219664","0.0-61.0-2.17","1230","5022","12","Male","false","true","false","true","""event"",""trial"",""time""
""fullscreenenter"",""5"",""12354""
""fullscreenexit"",""84"",""161187""
","
","
","""event"",""trial"",""time""
""fullscreenenter"",""5"",""12354""
","""event"",""trial"",""time""
""fullscreenexit"",""84"",""161187""
","","images/earth.jpg","","","","","","","","","","","","","","fixation","","","","","",""
"d3-animate-choice","115","221896","0.0-61.0-0.18","1230","5022","12","Male","false","true","false","true","""event"",""trial"",""time""
""fullscreenenter"",""5"",""12354""
""fullscreenexit"",""84"",""161187""
","
","
","""event"",""trial"",""time""
""fullscreenenter"",""5"",""12354""
","""event"",""trial"",""time""
""fullscreenexit"",""84"",""161187""
","218.10000002384186","","48","","","3000","1","552.4000000357628,854.1999999880791,1162.1000000238419,1463,1787.300000011921,2045.300000011921","48,48,48,48,48,48","images/earth.jpg","images/tutrocket2","images/tutrocket1","null","images/tutrocket2","","1","practice","null","2","","",""
"d3-animate-choice","116","224475","0.0-61.0-1.18","1230","5022","12","Male","false","true","false","true","""event"",""trial"",""time""
""fullscreenenter"",""5"",""12354""
""fullscreenexit"",""84"",""161187""
","
","
","""event"",""trial"",""time""
""fullscreenenter"",""5"",""12354""
","""event"",""trial"",""time""
""fullscreenexit"",""84"",""161187""
","571.8999999761581","","48","","","3000","1","1225.5,1469.199999988079,1941.699999988079,2301.300000011921","48,48,48,48","images/tutyellowplanet.jpg","images/tutalien4","images/tutalien3","images/tutrocket2","images/tutalien4","images/t.png","2","practice","true","2","common","1","2022-12-10 16:15:11.937"
"two-step-fixation","117","225485","0.0-61.0-2.18","1230","5022","12","Male","false","true","false","true","""event"",""trial"",""time""
""fullscreenenter"",""5"",""12354""
""fullscreenexit"",""84"",""161187""
","
","
","""event"",""trial"",""time""
""fullscreenenter"",""5"",""12354""
","""event"",""trial"",""time""
""fullscreenexit"",""84"",""161187""
","","images/earth.jpg","","","","","","","","","","","","","","fixation","","","","","",""
"d3-animate-choice","118","227729","0.0-61.0-0.19","1230","5022","12","Male","false","true","false","true","""event"",""trial"",""time""
""fullscreenenter"",""5"",""12354""
""fullscreenexit"",""84"",""161187""
","
","
","""event"",""trial"",""time""
""fullscreenenter"",""5"",""12354""
","""event"",""trial"",""time""
""fullscreenexit"",""84"",""161187""
","227.10000002384186","","48","","","3000","1","972.1000000238419,1208.9000000357628,1510.6000000238419,1796.300000011921","48,48,48,48","images/earth.jpg","images/tutrocket2","images/tutrocket1","null","images/tutrocket2","","1","practice","null","2","","",""
"d3-animate-choice","119","229976","0.0-61.0-1.19","1230","5022","12","Male","false","true","false","true","""event"",""trial"",""time""
""fullscreenenter"",""5"",""12354""
""fullscreenexit"",""84"",""161187""
","
","
","""event"",""trial"",""time""
""fullscreenenter"",""5"",""12354""
","""event"",""trial"",""time""
""fullscreenexit"",""84"",""161187""
","235.19999998807907","","48","","","3000","1","506,866.6999999880791,1147.4000000357628,1407.800000011921,1710.5,2000.4000000357628","48,48,48,48,48,48","images/tutyellowplanet.jpg","images/tutalien4","images/tutalien3","images/tutrocket2","images/tutalien4","images/t.png","2","practice","true","2","common","1","2022-12-10 16:15:17.437"
"two-step-fixation","120","230980","0.0-61.0-2.19","1230","5022","12","Male","false","true","false","true","""event"",""trial"",""time""
""fullscreenenter"",""5"",""12354""
""fullscreenexit"",""84"",""161187""
","
","
","""event"",""trial"",""time""
""fullscreenenter"",""5"",""12354""
","""event"",""trial"",""time""
""fullscreenexit"",""84"",""161187""
","","images/earth.jpg","","","","","","","","","","","","","","fixation","","","","","",""
"d3-instructions","121","235324","0.0-62.0","1230","5022","12","Male","false","true","false","true","""event"",""trial"",""time""
""fullscreenenter"",""5"",""12354""
""fullscreenexit"",""84"",""161187""
","
","
","""event"",""trial"",""time""
""fullscreenenter"",""5"",""12354""
","""event"",""trial"",""time""
""fullscreenexit"",""84"",""161187""
","","","","","","","","","","","","","","","","","","","","","",""
"audio-keyboard-response","122","236692","0.0-63.0","1230","5022","12","Male","false","true","false","true","""event"",""trial"",""time""
""fullscreenenter"",""5"",""12354""
""fullscreenexit"",""84"",""161187""
","
","
","""event"",""trial"",""time""
""fullscreenenter"",""5"",""12354""
","""event"",""trial"",""time""
""fullscreenexit"",""84"",""161187""
","1368","audio/instructions/treasure_feedback.wav","32","","","","","","","","","","","","","","","","","","",""
"d3-instructions","123","238142","0.0-64.0","1230","5022","12","Male","false","true","false","true","""event"",""trial"",""time""
""fullscreenenter"",""5"",""12354""
""fullscreenexit"",""84"",""161187""
","
","
","""event"",""trial"",""time""
""fullscreenenter"",""5"",""12354""
","""event"",""trial"",""time""
""fullscreenexit"",""84"",""161187""
","","","","","","","","","","","","","","","","","","","","","",""
"d3-instructions","124","238718","0.0-65.0","1230","5022","12","Male","false","true","false","true","""event"",""trial"",""time""
""fullscreenenter"",""5"",""12354""
""fullscreenexit"",""84"",""161187""
","
","
","""event"",""trial"",""time""
""fullscreenenter"",""5"",""12354""
","""event"",""trial"",""time""
""fullscreenexit"",""84"",""161187""
","","","","","","","","","","","","","","","","","","","","","",""
"d3-instructions","125","239364","0.0-66.0","1230","5022","12","Male","false","true","false","true","""event"",""trial"",""time""
""fullscreenenter"",""5"",""12354""
""fullscreenexit"",""84"",""161187""
","
","
","""event"",""trial"",""time""
""fullscreenenter"",""5"",""12354""
","""event"",""trial"",""time""
""fullscreenexit"",""84"",""161187""
","","","","","","","","","","","","","","","","","","","","","",""
"d3-instructions","126","239983","0.0-67.0","1230","5022","12","Male","false","true","false","true","""event"",""trial"",""time""
""fullscreenenter"",""5"",""12354""
""fullscreenexit"",""84"",""161187""
","
","
","""event"",""trial"",""time""
""fullscreenenter"",""5"",""12354""
","""event"",""trial"",""time""
""fullscreenexit"",""84"",""161187""
","","","","","","","","","","","","","","","","","","","","","",""
"d3-instructions","127","240661","0.0-68.0","1230","5022","12","Male","false","true","false","true","""event"",""trial"",""time""
""fullscreenenter"",""5"",""12354""
""fullscreenexit"",""84"",""161187""
","
","
","""event"",""trial"",""time""
""fullscreenenter"",""5"",""12354""
","""event"",""trial"",""time""
""fullscreenexit"",""84"",""161187""
","","","","","","","","","","","","","","","","","","","","","",""
"instructions-quiz","128","243483","0.0-69.0","1230","5022","12","Male","false","true","false","true","""event"",""trial"",""time""
""fullscreenenter"",""5"",""12354""
""fullscreenexit"",""84"",""161187""
","
","
","""event"",""trial"",""time""
""fullscreenenter"",""5"",""12354""
","""event"",""trial"",""time""
""fullscreenexit"",""84"",""161187""
","2819.599999964237","audio/quiz/Q1_Prompt.wav","","1","","","","","","","","","","","","","","","","","",""
"audio-keyboard-response","129","245756","0.0-70.0","1230","5022","12","Male","false","true","false","true","""event"",""trial"",""time""
""fullscreenenter"",""5"",""12354""
""fullscreenexit"",""84"",""161187""
","
","
","""event"",""trial"",""time""
""fullscreenenter"",""5"",""12354""
","""event"",""trial"",""time""
""fullscreenexit"",""84"",""161187""
","2261","audio/quiz/Q1_Correct.wav","32","","","","","","","","","","","","","","","","","","",""
"instructions-quiz","130","249861","0.0-71.0","1230","5022","12","Male","false","true","false","true","""event"",""trial"",""time""
""fullscreenenter"",""5"",""12354""
""fullscreenexit"",""84"",""161187""
","
","
","""event"",""trial"",""time""
""fullscreenenter"",""5"",""12354""
","""event"",""trial"",""time""
""fullscreenexit"",""84"",""161187""
","4104.199999988079","audio/quiz/Q2_Prompt.wav","","0","","","","","","","","","","","","","","","","","",""
"audio-keyboard-response","131","250043","0.0-72.0","1230","5022","12","Male","false","true","false","true","""event"",""trial"",""time""
""fullscreenenter"",""5"",""12354""
""fullscreenexit"",""84"",""161187""
","
","
","""event"",""trial"",""time""
""fullscreenenter"",""5"",""12354""
","""event"",""trial"",""time""
""fullscreenexit"",""84"",""161187""
","181","audio/quiz/Q2_Correct.wav","32","","","","","","","","","","","","","","","","","","",""
"instructions-quiz","132","253375","0.0-73.0","1230","5022","12","Male","false","true","false","true","""event"",""trial"",""time""
""fullscreenenter"",""5"",""12354""
""fullscreenexit"",""84"",""161187""
","
","
","""event"",""trial"",""time""
""fullscreenenter"",""5"",""12354""
","""event"",""trial"",""time""
""fullscreenexit"",""84"",""161187""
","3331.399999976158","audio/quiz/Q3_Prompt.wav","","1","","","","","","","","","","","","","","","","","",""
"audio-keyboard-response","133","253479","0.0-74.0","1230","5022","12","Male","false","true","false","true","""event"",""trial"",""time""
""fullscreenenter"",""5"",""12354""
""fullscreenexit"",""84"",""161187""
","
","
","""event"",""trial"",""time""
""fullscreenenter"",""5"",""12354""
","""event"",""trial"",""time""
""fullscreenexit"",""84"",""161187""
","101","audio/quiz/Q3_Correct.wav","32","","","","","","","","","","","","","","","","","","",""
"d3-instructions","134","255162","0.0-75.0","1230","5022","12","Male","false","true","false","true","""event"",""trial"",""time""
""fullscreenenter"",""5"",""12354""
""fullscreenexit"",""84"",""161187""
","
","
","""event"",""trial"",""time""
""fullscreenenter"",""5"",""12354""
","""event"",""trial"",""time""
""fullscreenexit"",""84"",""161187""
","","","","","","","","","","","","","","","","","","","","","",""
"d3-animate-choice","135","258302","0.0-76.0-0.0","1230","5022","12","Male","false","true","false","true","""event"",""trial"",""time""
""fullscreenenter"",""5"",""12354""
""fullscreenexit"",""84"",""161187""
","
","
","""event"",""trial"",""time""
""fullscreenenter"",""5"",""12354""
","""event"",""trial"",""time""
""fullscreenexit"",""84"",""161187""
","1133.1000000238419","","48","","","3000","1","1327.800000011921,1509.1000000238419,1724,1946,2147.5,2535.400000035763,2742.699999988079,2963.400000035763","48,48,48,48,48,48,48,48","images/earth.jpg","images/rocket1","images/rocket2","null","images/rocket1","","1","real","null","2","","",""
"d3-animate-choice","136","260393","0.0-76.0-1.0","1230","5022","12","Male","false","true","false","true","""event"",""trial"",""time""
""fullscreenenter"",""5"",""12354""
""fullscreenexit"",""84"",""161187""
","
","
","""event"",""trial"",""time""
""fullscreenenter"",""5"",""12354""
","""event"",""trial"",""time""
""fullscreenexit"",""84"",""161187""
","71.89999997615814","","48","","","3000","1","307.30000001192093,539.8999999761581,781.3000000119209,1017.8000000119209,1272,1530.5999999642372,1776.8999999761581,2014.3999999761581","48,48,48,48,48,48,48,48","images/purpleplanet.jpg","images/alien4","images/alien3","images/rocket1","images/alien4","images/nothing.png","2","real","false","2","rare","0","2022-12-10 16:15:47.854"
"two-step-fixation","137","261408","0.0-76.0-2.0","1230","5022","12","Male","false","true","false","true","""event"",""trial"",""time""
""fullscreenenter"",""5"",""12354""
""fullscreenexit"",""84"",""161187""
","
","
","""event"",""trial"",""time""
""fullscreenenter"",""5"",""12354""
","""event"",""trial"",""time""
""fullscreenexit"",""84"",""161187""
","","images/earth.jpg","","","","","","","","","","","","","","fixation","","","","","",""
"d3-animate-choice","138","263431","0.0-76.0-0.1","1230","5022","12","Male","false","true","false","true","""event"",""trial"",""time""
""fullscreenenter"",""5"",""12354""
""fullscreenexit"",""84"",""161187""
","
","
","""event"",""trial"",""time""
""fullscreenenter"",""5"",""12354""
","""event"",""trial"",""time""
""fullscreenexit"",""84"",""161187""
","13.100000023841858","","48","","","3000","1","271.30000001192093,550.6999999880791,836.6999999880791,1069.5,1356,1609.1000000238419,1895.6000000238419","48,48,48,48,48,48,48","images/earth.jpg","images/rocket1","images/rocket2","null","images/rocket1","","1","real","null","2","","",""
"d3-animate-choice","139","265615","0.0-76.0-1.1","1230","5022","12","Male","false","true","false","true","""event"",""trial"",""time""
""fullscreenenter"",""5"",""12354""
""fullscreenexit"",""84"",""161187""
","
","
","""event"",""trial"",""time""
""fullscreenenter"",""5"",""12354""
","""event"",""trial"",""time""
""fullscreenexit"",""84"",""161187""
","172.60000002384186","","48","","","3000","1","429.80000001192093,703.4000000357628,951.6000000238419,1190.5,1461.699999988079,1726.5,2000","48,48,48,48,48,48,48","images/redplanet1.jpg","images/alien2","images/alien1","images/rocket1","images/alien2","images/t.png","2","real","true","2","common","1","2022-12-10 16:15:53.076"
"two-step-fixation","140","266618","0.0-76.0-2.1","1230","5022","12","Male","false","true","false","true","""event"",""trial"",""time""
""fullscreenenter"",""5"",""12354""
""fullscreenexit"",""84"",""161187""
","
","
","""event"",""trial"",""time""
""fullscreenenter"",""5"",""12354""
","""event"",""trial"",""time""
""fullscreenexit"",""84"",""161187""
","","images/earth.jpg","","","","","","","","","","","","","","fixation","","","","","",""
"d3-animate-choice","141","268823","0.0-76.0-0.2","1230","5022","12","Male","false","true","false","true","""event"",""trial"",""time""
""fullscreenenter"",""5"",""12354""
""fullscreenexit"",""84"",""161187""
","
","
","""event"",""trial"",""time""
""fullscreenenter"",""5"",""12354""
","""event"",""trial"",""time""
""fullscreenexit"",""84"",""161187""
","200.39999997615814","","48","","","3000","1","503.19999998807907,716.8999999761581,1008.3000000119209,1281.3999999761581,1569,1756.3999999761581,2077.300000011921","48,48,48,48,48,48,48","images/earth.jpg","images/rocket1","images/rocket2","null","images/rocket1","","1","real","null","2","","",""
"d3-animate-choice","142","270949","0.0-76.0-1.2","1230","5022","12","Male","false","true","false","true","""event"",""trial"",""time""
""fullscreenenter"",""5"",""12354""
""fullscreenexit"",""84"",""161187""
","
","
","""event"",""trial"",""time""
""fullscreenenter"",""5"",""12354""
","""event"",""trial"",""time""
""fullscreenexit"",""84"",""161187""
","113.69999998807907","","48","","","3000","1","404.30000001192093,665.3000000119209,934.1000000238419,1176.199999988079,1446.4000000357628,1698.699999988079,1972.300000011921","48,48,48,48,48,48,48","images/redplanet1.jpg","images/alien2","images/alien1","images/rocket1","images/alien2","images/nothing.png","2","real","true","2","common","0","2022-12-10 16:15:58.410"
"two-step-fixation","143","271954","0.0-76.0-2.2","1230","5022","12","Male","false","true","false","true","""event"",""trial"",""time""
""fullscreenenter"",""5"",""12354""
""fullscreenexit"",""84"",""161187""
","
","
","""event"",""trial"",""time""
""fullscreenenter"",""5"",""12354""
","""event"",""trial"",""time""
""fullscreenexit"",""84"",""161187""
","","images/earth.jpg","","","","","","","","","","","","","","fixation","","","","","",""
"d3-animate-choice","144","274082","0.0-76.0-0.3","1230","5022","12","Male","false","true","false","true","""event"",""trial"",""time""
""fullscreenenter"",""5"",""12354""
""fullscreenexit"",""84"",""161187""
","
","
","""event"",""trial"",""time""
""fullscreenenter"",""5"",""12354""
","""event"",""trial"",""time""
""fullscreenexit"",""84"",""161187""
","122.89999997615814","","48","","","3000","1","384.69999998807907,679,991.3999999761581,1228.5,1513.699999988079,1779.5,2079.300000011921","48,48,48,48,48,48,48","images/earth.jpg","images/rocket1","images/rocket2","null","images/rocket1","","1","real","null","2","","",""
"d3-animate-choice","145","276554","0.0-76.0-1.3","1230","5022","12","Male","false","true","false","true","""event"",""trial"",""time""
""fullscreenenter"",""5"",""12354""
""fullscreenexit"",""84"",""161187""
","
","
","""event"",""trial"",""time""
""fullscreenenter"",""5"",""12354""
","""event"",""trial"",""time""
""fullscreenexit"",""84"",""161187""
","454.69999998807907","","48","","","3000","1","745.3999999761581,993.8000000119209,1239.6000000238419,1536.1000000238419,1766.800000011921,1997,2281.800000011921","48,48,48,48,48,48,48","images/redplanet1.jpg","images/alien2","images/alien1","images/rocket1","images/alien2","images/t.png","2","real","true","2","common","1","2022-12-10 16:16:04.015"
"two-step-fixation","146","277558","0.0-76.0-2.3","1230","5022","12","Male","false","true","false","true","""event"",""trial"",""time""
""fullscreenenter"",""5"",""12354""
""fullscreenexit"",""84"",""161187""
","
","
","""event"",""trial"",""time""
""fullscreenenter"",""5"",""12354""
","""event"",""trial"",""time""
""fullscreenexit"",""84"",""161187""
","","images/earth.jpg","","","","","","","","","","","","","","fixation","","","","","",""
"d3-animate-choice","147","279850","0.0-76.0-0.4","1230","5022","12","Male","false","true","false","true","""event"",""trial"",""time""
""fullscreenenter"",""5"",""12354""
""fullscreenexit"",""84"",""161187""
","
","
","""event"",""trial"",""time""
""fullscreenenter"",""5"",""12354""
","""event"",""trial"",""time""
""fullscreenexit"",""84"",""161187""
","285.30000001192093","","48","","","3000","1","527.5999999642372,832.5,1158.300000011921,1406.800000011921,1668.199999988079,1947.8999999761581,2222","48,48,48,48,48,48,48","images/earth.jpg","images/rocket1","images/rocket2","null","images/rocket1","","1","real","null","2","","",""
"d3-animate-choice","148","282073","0.0-76.0-1.4","1230","5022","12","Male","false","true","false","true","""event"",""trial"",""time""
""fullscreenenter"",""5"",""12354""
""fullscreenexit"",""84"",""161187""
","
","
","""event"",""trial"",""time""
""fullscreenenter"",""5"",""12354""
","""event"",""trial"",""time""
""fullscreenexit"",""84"",""161187""
","205","","48","","","3000","1","464.69999998807907,728.8000000119209,1016.5,1285.300000011921,1515.5,2019","48,48,48,48,48,48","images/purpleplanet.jpg","images/alien4","images/alien3","images/rocket1","images/alien4","images/nothing.png","2","real","false","2","rare","0","2022-12-10 16:16:09.534"
"two-step-fixation","149","283089","0.0-76.0-2.4","1230","5022","12","Male","false","true","false","true","""event"",""trial"",""time""
""fullscreenenter"",""5"",""12354""
""fullscreenexit"",""84"",""161187""
","
","
","""event"",""trial"",""time""
""fullscreenenter"",""5"",""12354""
","""event"",""trial"",""time""
""fullscreenexit"",""84"",""161187""
","","images/earth.jpg","","","","","","","","","","","","","","fixation","","","","","",""
"d3-animate-choice","150","285267","0.0-76.0-0.5","1230","5022","12","Male","false","true","false","true","""event"",""trial"",""time""
""fullscreenenter"",""5"",""12354""
""fullscreenexit"",""84"",""161187""
","
","
","""event"",""trial"",""time""
""fullscreenenter"",""5"",""12354""
","""event"",""trial"",""time""
""fullscreenexit"",""84"",""161187""
","165.29999995231628","","48","","","3000","1","434.89999997615814,676.5999999642372,952.5999999642372,1223.699999988079,1482.2999999523163,1726,1965.2999999523163","48,48,48,48,48,48,48","images/earth.jpg","images/rocket1","images/rocket2","null","images/rocket1","","1","real","null","2","","",""
"d3-animate-choice","151","287302","0.0-76.0-1.5","1230","5022","12","Male","false","true","false","true","""event"",""trial"",""time""
""fullscreenenter"",""5"",""12354""
""fullscreenexit"",""84"",""161187""
","
","
","""event"",""trial"",""time""
""fullscreenenter"",""5"",""12354""
","""event"",""trial"",""time""
""fullscreenexit"",""84"",""161187""
","29.299999952316284","","48","","","3000","1","292.7999999523163,556.5,855.5999999642372,1160.5,1495.0999999642372,1842.3999999761581","48,48,48,48,48,48","images/redplanet1.jpg","images/alien2","images/alien1","images/rocket1","images/alien2","images/nothing.png","2","real","true","2","common","0","2022-12-10 16:16:14.764"
"two-step-fixation","152","288305","0.0-76.0-2.5","1230","5022","12","Male","false","true","false","true","""event"",""trial"",""time""
""fullscreenenter"",""5"",""12354""
""fullscreenexit"",""84"",""161187""
","
","
","""event"",""trial"",""time""
""fullscreenenter"",""5"",""12354""
","""event"",""trial"",""time""
""fullscreenexit"",""84"",""161187""
","","images/earth.jpg","","","","","","","","","","","","","","fixation","","","","","",""
"d3-animate-choice","153","290442","0.0-76.0-0.6","1230","5022","12","Male","false","true","false","true","""event"",""trial"",""time""
""fullscreenenter"",""5"",""12354""
""fullscreenexit"",""84"",""161187""
","
","
","""event"",""trial"",""time""
""fullscreenenter"",""5"",""12354""
","""event"",""trial"",""time""
""fullscreenexit"",""84"",""161187""
","132.5","","48","","","3000","1","423.80000001192093,669.8000000119209,975.1999999880791,1279.699999988079,1536.1000000238419,1781.199999988079,2077.600000023842","48,48,48,48,48,48,48","images/earth.jpg","images/rocket1","images/rocket2","null","images/rocket1","","1","real","null","2","","",""
"d3-animate-choice","154","292706","0.0-76.0-1.6","1230","5022","12","Male","false","true","false","true","""event"",""trial"",""time""
""fullscreenenter"",""5"",""12354""
""fullscreenexit"",""84"",""161187""
","
","
","""event"",""trial"",""time""
""fullscreenenter"",""5"",""12354""
","""event"",""trial"",""time""
""fullscreenexit"",""84"",""161187""
","259","","48","","","3000","1","577.5999999642372,813.6999999880791,1489.0999999642372,1846.5999999642372,2142.199999988079","48,48,48,48,48","images/redplanet1.jpg","images/alien2","images/alien1","images/rocket1","images/alien2","images/nothing.png","2","real","true","2","common","0","2022-12-10 16:16:20.167"
"two-step-fixation","155","293713","0.0-76.0-2.6","1230","5022","12","Male","false","true","false","true","""event"",""trial"",""time""
""fullscreenenter"",""5"",""12354""
""fullscreenexit"",""84"",""161187""
","
","
","""event"",""trial"",""time""
""fullscreenenter"",""5"",""12354""
","""event"",""trial"",""time""
""fullscreenexit"",""84"",""161187""
","","images/earth.jpg","","","","","","","","","","","","","","fixation","","","","","",""
"d3-animate-choice","156","295957","0.0-76.0-0.7","1230","5022","12","Male","false","true","false","true","""event"",""trial"",""time""
""fullscreenenter"",""5"",""12354""
""fullscreenexit"",""84"",""161187""
","
","
","""event"",""trial"",""time""
""fullscreenenter"",""5"",""12354""
","""event"",""trial"",""time""
""fullscreenexit"",""84"",""161187""
","233.89999997615814","","48","","","3000","1","541.8999999761581,880.3000000119209,1397.6000000238419","48,48,48","images/earth.jpg","images/rocket1","images/rocket2","null","images/rocket1","","1","real","null","2","","",""
"d3-animate-choice","157","298155","0.0-76.0-1.7","1230","5022","12","Male","false","true","false","true","""event"",""trial"",""time""
""fullscreenenter"",""5"",""12354""
""fullscreenexit"",""84"",""161187""
","
","
","""event"",""trial"",""time""
""fullscreenenter"",""5"",""12354""
","""event"",""trial"",""time""
""fullscreenexit"",""84"",""161187""
","191.39999997615814","","48","","","3000","1","476.0999999642372,826.1999999880791,1052,1354.5999999642372,1601.0999999642372,1855,2118.099999964237","48,48,48,48,48,48,48","images/purpleplanet.jpg","images/alien4","images/alien3","images/rocket1","images/alien4","images/t.png","2","real","false","2","rare","1","2022-12-10 16:16:25.616"
"two-step-fixation","158","299165","0.0-76.0-2.7","1230","5022","12","Male","false","true","false","true","""event"",""trial"",""time""
""fullscreenenter"",""5"",""12354""
""fullscreenexit"",""84"",""161187""
","
","
","""event"",""trial"",""time""
""fullscreenenter"",""5"",""12354""
","""event"",""trial"",""time""
""fullscreenexit"",""84"",""161187""
","","images/earth.jpg","","","","","","","","","","","","","","fixation","","","","","",""
"d3-animate-choice","159","301362","0.0-76.0-0.8","1230","5022","12","Male","false","true","false","true","""event"",""trial"",""time""
""fullscreenenter"",""5"",""12354""
""fullscreenexit"",""84"",""161187""
","
","
","""event"",""trial"",""time""
""fullscreenenter"",""5"",""12354""
","""event"",""trial"",""time""
""fullscreenexit"",""84"",""161187""
","186.69999998807907","","48","","","3000","1","510,739.6000000238419,1012.9000000357628,1314.1000000238419,1611.199999988079,1869.9000000357628,2096.300000011921","48,48,48,48,48,48,48","images/earth.jpg","images/rocket1","images/rocket2","null","images/rocket1","","1","real","null","2","","",""
"d3-animate-choice","160","303594","0.0-76.0-1.8","1230","5022","12","Male","false","true","false","true","""event"",""trial"",""time""
""fullscreenenter"",""5"",""12354""
""fullscreenexit"",""84"",""161187""
","
","
","""event"",""trial"",""time""
""fullscreenenter"",""5"",""12354""
","""event"",""trial"",""time""
""fullscreenexit"",""84"",""161187""
","224.9000000357628","","48","","","3000","1","493.2000000476837,769.5,1478.6000000238419,1740.7000000476837,2042.6000000238419","48,48,48,48,48","images/redplanet1.jpg","images/alien2","images/alien1","images/rocket1","images/alien2","images/t.png","2","real","true","2","common","1","2022-12-10 16:16:31.055"
"two-step-fixation","161","304606","0.0-76.0-2.8","1230","5022","12","Male","false","true","false","true","""event"",""trial"",""time""
""fullscreenenter"",""5"",""12354""
""fullscreenexit"",""84"",""161187""
","
","
","""event"",""trial"",""time""
""fullscreenenter"",""5"",""12354""
","""event"",""trial"",""time""
""fullscreenexit"",""84"",""161187""
","","images/earth.jpg","","","","","","","","","","","","","","fixation","","","","","",""
"d3-animate-choice","162","306767","0.0-76.0-0.9","1230","5022","12","Male","false","true","false","true","""event"",""trial"",""time""
""fullscreenenter"",""5"",""12354""
""fullscreenexit"",""84"",""161187""
","
","
","""event"",""trial"",""time""
""fullscreenenter"",""5"",""12354""
","""event"",""trial"",""time""
""fullscreenexit"",""84"",""161187""
","153.69999998807907","","48","","","3000","1","411.4000000357628,705.8000000119209,939.3000000119209,1177.199999988079,1634.6000000238419","48,48,48,48,48","images/earth.jpg","images/rocket1","images/rocket2","null","images/rocket1","","1","real","null","2","","",""
"d3-animate-choice","163","308787","0.0-76.0-1.9","1230","5022","12","Male","false","true","false","true","""event"",""trial"",""time""
""fullscreenenter"",""5"",""12354""
""fullscreenexit"",""84"",""161187""
","
","
","""event"",""trial"",""time""
""fullscreenenter"",""5"",""12354""
","""event"",""trial"",""time""
""fullscreenexit"",""84"",""161187""
","15.199999988079071","","48","","","3000","1","259.39999997615814,525.2999999523163,886.1999999880791,1137.8999999761581,1471.199999988079,1766.5","48,48,48,48,48,48","images/redplanet1.jpg","images/alien2","images/alien1","images/rocket1","images/alien2","images/nothing.png","2","real","true","2","common","0","2022-12-10 16:16:36.248"
"two-step-fixation","164","309799","0.0-76.0-2.9","1230","5022","12","Male","false","true","false","true","""event"",""trial"",""time""
""fullscreenenter"",""5"",""12354""
""fullscreenexit"",""84"",""161187""
","
","
","""event"",""trial"",""time""
""fullscreenenter"",""5"",""12354""
","""event"",""trial"",""time""
""fullscreenexit"",""84"",""161187""
","","images/earth.jpg","","","","","","","","","","","","","","fixation","","","","","",""
"d3-animate-choice","165","312112","0.0-76.0-0.10","1230","5022","12","Male","false","true","false","true","""event"",""trial"",""time""
""fullscreenenter"",""5"",""12354""
""fullscreenexit"",""84"",""161187""
","
","
","""event"",""trial"",""time""
""fullscreenenter"",""5"",""12354""
","""event"",""trial"",""time""
""fullscreenexit"",""84"",""161187""
","306.69999998807907","","48","","","3000","1","582,867.4000000357628,1362.1000000238419,1603.699999988079,1875.300000011921,2107","48,48,48,48,48,48","images/earth.jpg","images/rocket1","images/rocket2","null","images/rocket1","","1","real","null","2","","",""
"d3-animate-choice","166","314415","0.0-76.0-1.10","1230","5022","12","Male","false","true","false","true","""event"",""trial"",""time""
""fullscreenenter"",""5"",""12354""
""fullscreenexit"",""84"",""161187""
","
","
","""event"",""trial"",""time""
""fullscreenenter"",""5"",""12354""
","""event"",""trial"",""time""
""fullscreenexit"",""84"",""161187""
","290.10000002384186","","48","","","3000","1","544.3000000119209,815.1999999880791,1065.4000000357628,1355.6000000238419,1642.9000000357628,1948.800000011921,2217.100000023842","48,48,48,48,48,48,48","images/purpleplanet.jpg","images/alien4","images/alien3","images/rocket1","images/alien4","images/t.png","2","real","false","2","rare","1","2022-12-10 16:16:41.876"
"two-step-fixation","167","315431","0.0-76.0-2.10","1230","5022","12","Male","false","true","false","true","""event"",""trial"",""time""
""fullscreenenter"",""5"",""12354""
""fullscreenexit"",""84"",""161187""
","
","
","""event"",""trial"",""time""
""fullscreenenter"",""5"",""12354""
","""event"",""trial"",""time""
""fullscreenexit"",""84"",""161187""
","","images/earth.jpg","","","","","","","","","","","","","","fixation","","","","","",""
"d3-animate-choice","168","317501","0.0-76.0-0.11","1230","5022","12","Male","false","true","false","true","""event"",""trial"",""time""
""fullscreenenter"",""5"",""12354""
""fullscreenexit"",""84"",""161187""
","
","
","""event"",""trial"",""time""
""fullscreenenter"",""5"",""12354""
","""event"",""trial"",""time""
""fullscreenexit"",""84"",""161187""
","61.200000047683716","","48","","","3000","1","382.2000000476837,692,971.2000000476837,1241.6000000238419,1576.7000000476837,1833.5","48,48,48,48,48,48","images/earth.jpg","images/rocket1","images/rocket2","null","images/rocket1","","1","real","null","2","","",""
"d3-animate-choice","169","319571","0.0-76.0-1.11","1230","5022","12","Male","false","true","false","true","""event"",""trial"",""time""
""fullscreenenter"",""5"",""12354""
""fullscreenexit"",""84"",""161187""
","
","
","""event"",""trial"",""time""
""fullscreenenter"",""5"",""12354""
","""event"",""trial"",""time""
""fullscreenexit"",""84"",""161187""
","65.30000001192093","","48","","","3000","1","361.10000002384186,686.8999999761581,978.6000000238419,1230.199999988079,1526.1000000238419,1802.3999999761581","48,48,48,48,48,48","images/purpleplanet.jpg","images/alien4","images/alien3","images/rocket1","images/alien4","images/t.png","2","real","false","2","rare","1","2022-12-10 16:16:47.032"
"two-step-fixation","170","320581","0.0-76.0-2.11","1230","5022","12","Male","false","true","false","true","""event"",""trial"",""time""
""fullscreenenter"",""5"",""12354""
""fullscreenexit"",""84"",""161187""
","
","
","""event"",""trial"",""time""
""fullscreenenter"",""5"",""12354""
","""event"",""trial"",""time""
""fullscreenexit"",""84"",""161187""
","","images/earth.jpg","","","","","","","","","","","","","","fixation","","","","","",""
"d3-animate-choice","171","322683","0.0-76.0-0.12","1230","5022","12","Male","false","true","false","true","""event"",""trial"",""time""
""fullscreenenter"",""5"",""12354""
""fullscreenexit"",""84"",""161187""
","
","
","""event"",""trial"",""time""
""fullscreenenter"",""5"",""12354""
","""event"",""trial"",""time""
""fullscreenexit"",""84"",""161187""
","96.80000001192093","","48","","","3000","1","456.10000002384186,722.1000000238419,1041.6000000238419,1349.5,1658,2028.800000011921","48,48,48,48,48,48","images/earth.jpg","images/rocket1","images/rocket2","null","images/rocket1","","1","real","null","2","","",""
"d3-animate-choice","172","324912","0.0-76.0-1.12","1230","5022","12","Male","false","true","false","true","""event"",""trial"",""time""
""fullscreenenter"",""5"",""12354""
""fullscreenexit"",""84"",""161187""
","
","
","""event"",""trial"",""time""
""fullscreenenter"",""5"",""12354""
","""event"",""trial"",""time""
""fullscreenexit"",""84"",""161187""
","216.69999998807907","","48","","","3000","1","762.8999999761581,1051.6000000238419,1349.699999988079,1631.6000000238419,2187.100000023842","48,48,48,48,48","images/redplanet1.jpg","images/alien2","images/alien1","images/rocket1","images/alien2","images/t.png","2","real","true","2","common","1","2022-12-10 16:16:52.373"
"two-step-fixation","173","325915","0.0-76.0-2.12","1230","5022","12","Male","false","true","false","true","""event"",""trial"",""time""
""fullscreenenter"",""5"",""12354""
""fullscreenexit"",""84"",""161187""
","
","
","""event"",""trial"",""time""
""fullscreenenter"",""5"",""12354""
","""event"",""trial"",""time""
""fullscreenexit"",""84"",""161187""
","","images/earth.jpg","","","","","","","","","","","","","","fixation","","","","","",""
"d3-animate-choice","174","328079","0.0-76.0-0.13","1230","5022","12","Male","false","true","false","true","""event"",""trial"",""time""
""fullscreenenter"",""5"",""12354""
""fullscreenexit"",""84"",""161187""
","
","
","""event"",""trial"",""time""
""fullscreenenter"",""5"",""12354""
","""event"",""trial"",""time""
""fullscreenexit"",""84"",""161187""
","156.80000001192093","","48","","","3000","1","469.80000001192093,725.5,1317.3999999761581,1586.8999999761581,1887.699999988079","48,48,48,48,48","images/earth.jpg","images/rocket1","images/rocket2","null","images/rocket1","","1","real","null","2","","",""
"d3-animate-choice","175","330095","0.0-76.0-1.13","1230","5022","12","Male","false","true","false","true","""event"",""trial"",""time""
""fullscreenenter"",""5"",""12354""
""fullscreenexit"",""84"",""161187""
","
","
","""event"",""trial"",""time""
""fullscreenenter"",""5"",""12354""
","""event"",""trial"",""time""
""fullscreenexit"",""84"",""161187""
","12.399999976158142","","48","","","3000","1","549.6000000238419,788.1999999880791,1093.199999988079,1363.800000011921,1665.6000000238419,1914","48,48,48,48,48,48","images/redplanet1.jpg","images/alien2","images/alien1","images/rocket1","images/alien2","images/nothing.png","2","real","true","2","common","0","2022-12-10 16:16:57.556"
"two-step-fixation","176","331099","0.0-76.0-2.13","1230","5022","12","Male","false","true","false","true","""event"",""trial"",""time""
""fullscreenenter"",""5"",""12354""
""fullscreenexit"",""84"",""161187""
","
","
","""event"",""trial"",""time""
""fullscreenenter"",""5"",""12354""
","""event"",""trial"",""time""
""fullscreenexit"",""84"",""161187""
","","images/earth.jpg","","","","","","","","","","","","","","fixation","","","","","",""
"d3-animate-choice","177","333358","0.0-76.0-0.14","1230","5022","12","Male","false","true","false","true","""event"",""trial"",""time""
""fullscreenenter"",""5"",""12354""
""fullscreenexit"",""84"",""161187""
","
","
","""event"",""trial"",""time""
""fullscreenenter"",""5"",""12354""
","""event"",""trial"",""time""
""fullscreenexit"",""84"",""161187""
","253","","48","","","3000","1","583,900.5,1177.800000011921,1478.800000011921,1775,2049.300000011921","48,48,48,48,48,48","images/earth.jpg","images/rocket1","images/rocket2","null","images/rocket1","","1","real","null","2","","",""
"d3-animate-choice","178","335437","0.0-76.0-1.14","1230","5022","12","Male","false","true","false","true","""event"",""trial"",""time""
""fullscreenenter"",""5"",""12354""
""fullscreenexit"",""84"",""161187""
","
","
","""event"",""trial"",""time""
""fullscreenenter"",""5"",""12354""
","""event"",""trial"",""time""
""fullscreenexit"",""84"",""161187""
","65.5","","48","","","3000","1","316.39999997615814,574.1000000238419,866.1999999880791,1158.1000000238419,1701.8999999761581,1948.6000000238419","48,48,48,48,48,48","images/purpleplanet.jpg","images/alien4","images/alien3","images/rocket1","images/alien4","images/t.png","2","real","false","2","rare","1","2022-12-10 16:17:02.898"
"two-step-fixation","179","336450","0.0-76.0-2.14","1230","5022","12","Male","false","true","false","true","""event"",""trial"",""time""
""fullscreenenter"",""5"",""12354""
""fullscreenexit"",""84"",""161187""
","
","
","""event"",""trial"",""time""
""fullscreenenter"",""5"",""12354""
","""event"",""trial"",""time""
""fullscreenexit"",""84"",""161187""
","","images/earth.jpg","","","","","","","","","","","","","","fixation","","","","","",""
"d3-animate-choice","180","338564","0.0-76.0-0.15","1230","5022","12","Male","false","true","false","true","""event"",""trial"",""time""
""fullscreenenter"",""5"",""12354""
""fullscreenexit"",""84"",""161187""
","
","
","""event"",""trial"",""time""
""fullscreenenter"",""5"",""12354""
","""event"",""trial"",""time""
""fullscreenexit"",""84"",""161187""
","106","","48","","","3000","1","420.0999999642372,698.7999999523163,985,1240.199999988079,1567.8999999761581,1926.0999999642372","48,48,48,48,48,48","images/earth.jpg","images/rocket1","images/rocket2","null","images/rocket1","","1","real","null","2","","",""
"d3-animate-choice","181","340635","0.0-76.0-1.15","1230","5022","12","Male","false","true","false","true","""event"",""trial"",""time""
""fullscreenenter"",""5"",""12354""
""fullscreenexit"",""84"",""161187""
","
","
","""event"",""trial"",""time""
""fullscreenenter"",""5"",""12354""
","""event"",""trial"",""time""
""fullscreenexit"",""84"",""161187""
","67.30000001192093","","48","","","3000","1","413.10000002384186,757.9000000357628,1054.6000000238419,1347.6000000238419,1606.6000000238419,1874.5","48,48,48,48,48,48","images/redplanet1.jpg","images/alien2","images/alien1","images/rocket1","images/alien2","images/t.png","2","real","true","2","common","1","2022-12-10 16:17:08.096"
"two-step-fixation","182","341650","0.0-76.0-2.15","1230","5022","12","Male","false","true","false","true","""event"",""trial"",""time""
""fullscreenenter"",""5"",""12354""
""fullscreenexit"",""84"",""161187""
","
","
","""event"",""trial"",""time""
""fullscreenenter"",""5"",""12354""
","""event"",""trial"",""time""
""fullscreenexit"",""84"",""161187""
","","images/earth.jpg","","","","","","","","","","","","","","fixation","","","","","",""
"d3-animate-choice","183","343707","0.0-76.0-0.16","1230","5022","12","Male","false","true","false","true","""event"",""trial"",""time""
""fullscreenenter"",""5"",""12354""
""fullscreenexit"",""84"",""161187""
","
","
","""event"",""trial"",""time""
""fullscreenenter"",""5"",""12354""
","""event"",""trial"",""time""
""fullscreenexit"",""84"",""161187""
","47.30000001192093","","48","","","3000","1","307.19999998807907,571.6999999880791,822,1055.300000011921,1341.699999988079,1553.699999988079,1765.800000011921,2043.6000000238419","48,48,48,48,48,48,48,48","images/earth.jpg","images/rocket1","images/rocket2","null","images/rocket1","","1","real","null","2","","",""
"d3-animate-choice","184","345977","0.0-76.0-1.16","1230","5022","12","Male","false","true","false","true","""event"",""trial"",""time""
""fullscreenenter"",""5"",""12354""
""fullscreenexit"",""84"",""161187""
","
","
","""event"",""trial"",""time""
""fullscreenenter"",""5"",""12354""
","""event"",""trial"",""time""
""fullscreenexit"",""84"",""161187""
","259.19999998807907","","48","","","3000","1","589.8999999761581,928.5,1332.8999999761581,1615.199999988079,1950.199999988079,2243","48,48,48,48,48,48","images/purpleplanet.jpg","images/alien4","images/alien3","images/rocket1","images/alien4","images/t.png","2","real","false","2","rare","1","2022-12-10 16:17:13.438"
"two-step-fixation","185","346983","0.0-76.0-2.16","1230","5022","12","Male","false","true","false","true","""event"",""trial"",""time""
""fullscreenenter"",""5"",""12354""
""fullscreenexit"",""84"",""161187""
","
","
","""event"",""trial"",""time""
""fullscreenenter"",""5"",""12354""
","""event"",""trial"",""time""
""fullscreenexit"",""84"",""161187""
","","images/earth.jpg","","","","","","","","","","","","","","fixation","","","","","",""
"d3-animate-choice","186","349189","0.0-76.0-0.17","1230","5022","12","Male","false","true","false","true","""event"",""trial"",""time""
""fullscreenenter"",""5"",""12354""
""fullscreenexit"",""84"",""161187""
","
","
","""event"",""trial"",""time""
""fullscreenenter"",""5"",""12354""
","""event"",""trial"",""time""
""fullscreenexit"",""84"",""161187""
","188.80000001192093","","48","","","3000","1","532.6999999880791,1119.300000011921,1487.800000011921,1721.6000000238419","48,48,48,48","images/earth.jpg","images/rocket1","images/rocket2","null","images/rocket1","","1","real","null","2","","",""
"d3-animate-choice","187","351250","0.0-76.0-1.17","1230","5022","12","Male","false","true","false","true","""event"",""trial"",""time""
""fullscreenenter"",""5"",""12354""
""fullscreenexit"",""84"",""161187""
","
","
","""event"",""trial"",""time""
""fullscreenenter"",""5"",""12354""
","""event"",""trial"",""time""
""fullscreenexit"",""84"",""161187""
","57.60000002384186","","48","","","3000","1","384.89999997615814,676.6000000238419,982.1000000238419,1367.8999999761581,1649.199999988079","48,48,48,48,48","images/redplanet1.jpg","images/alien2","images/alien1","images/rocket1","images/alien2","images/t.png","2","real","true","2","common","1","2022-12-10 16:17:18.711"
"two-step-fixation","188","352257","0.0-76.0-2.17","1230","5022","12","Male","false","true","false","true","""event"",""trial"",""time""
""fullscreenenter"",""5"",""12354""
""fullscreenexit"",""84"",""161187""
","
","
","""event"",""trial"",""time""
""fullscreenenter"",""5"",""12354""
","""event"",""trial"",""time""
""fullscreenexit"",""84"",""161187""
","","images/earth.jpg","","","","","","","","","","","","","","fixation","","","","","",""
"d3-animate-choice","189","354300","0.0-76.0-0.18","1230","5022","12","Male","false","true","false","true","""event"",""trial"",""time""
""fullscreenenter"",""5"",""12354""
""fullscreenexit"",""84"",""161187""
","
","
","""event"",""trial"",""time""
""fullscreenenter"",""5"",""12354""
","""event"",""trial"",""time""
""fullscreenexit"",""84"",""161187""
","34.80000001192093","","48","","","3000","1","376.80000001192093,763.8999999761581,1030,1315.6000000238419,1742.699999988079","48,48,48,48,48","images/earth.jpg","images/rocket1","images/rocket2","null","images/rocket1","","1","real","null","2","","",""
"d3-animate-choice","190","356926","0.0-76.0-1.18","1230","5022","12","Male","false","true","false","true","""event"",""trial"",""time""
""fullscreenenter"",""5"",""12354""
""fullscreenexit"",""84"",""161187""
","
","
","""event"",""trial"",""time""
""fullscreenenter"",""5"",""12354""
","""event"",""trial"",""time""
""fullscreenexit"",""84"",""161187""
","618.2999999523163","","48","","","3000","1","1152.199999988079,1495,1751.2999999523163,2287.599999964237,2568.899999976158","48,48,48,48,48","images/redplanet1.jpg","images/alien2","images/alien1","images/rocket1","images/alien2","images/t.png","2","real","true","2","common","1","2022-12-10 16:17:24.387"
"two-step-fixation","191","357933","0.0-76.0-2.18","1230","5022","12","Male","false","true","false","true","""event"",""trial"",""time""
""fullscreenenter"",""5"",""12354""
""fullscreenexit"",""84"",""161187""
","
","
","""event"",""trial"",""time""
""fullscreenenter"",""5"",""12354""
","""event"",""trial"",""time""
""fullscreenexit"",""84"",""161187""
","","images/earth.jpg","","","","","","","","","","","","","","fixation","","","","","",""
"d3-animate-choice","192","360008","0.0-76.0-0.19","1230","5022","12","Male","false","true","false","true","""event"",""trial"",""time""
""fullscreenenter"",""5"",""12354""
""fullscreenexit"",""84"",""161187""
","
","
","""event"",""trial"",""time""
""fullscreenenter"",""5"",""12354""
","""event"",""trial"",""time""
""fullscreenexit"",""84"",""161187""
","68.29999995231628","","48","","","3000","1","344.2999999523163,1145,1634.8999999761581,1989.5999999642372","48,48,48,48","images/earth.jpg","images/rocket1","images/rocket2","null","images/rocket1","","1","real","null","2","","",""
"d3-animate-choice","193","362112","0.0-76.0-1.19","1230","5022","12","Male","false","true","false","true","""event"",""trial"",""time""
""fullscreenenter"",""5"",""12354""
""fullscreenexit"",""84"",""161187""
","
","
","""event"",""trial"",""time""
""fullscreenenter"",""5"",""12354""
