"trial_type","trial_index","time_elapsed","internal_node_id","participant_id","subject_id","age","gender","rocket_sides","red_planet_first_rocket","red_display_order","purple_display_order","interactions","blur_events","focus_events","fullscreenenter_events","fullscreenexit_events","rt","stimulus","key_press","button_pressed","success","duration","valid_pressed","rts","keys","planet_text","right_text","left_text","center_text","chosen_text","reward_text","trial_stage","practice_trial","transition_type","choice","transition","reward","timestamp"
"pavlovia","0","3","0.0-0.0","754","606","20","Male","false","false","false","true","
","
","
","
","
","","","","","","","","","","","","","","","","","","","","","",""
"html-keyboard-response","1","1504","0.0-1.0","754","606","20","Male","false","false","false","true","
","
","
","
","
","1499.9000000059605","Welcome! Press the space bar to begin.","32","","","","","","","","","","","","","","","","","","",""
"audio-keyboard-response","2","4375","0.0-2.0","754","606","20","Male","false","false","false","true","
","
","
","
","
","2131","audio/beep_loop.wav","32","","","","","","","","","","","","","","","","","","",""
"audio-button-response","3","6372","0.0-3.0","754","606","20","Male","false","false","false","true","
","
","
","
","
","NaN","audio/fish.mp3","","1","","","","","","","","","","","","","","","","","",""
"audio-button-response","4","8829","0.0-4.0","754","606","20","Male","false","false","false","true","""event"",""trial"",""time""
""fullscreenenter"",""5"",""14807""
","
","
","""event"",""trial"",""time""
""fullscreenenter"",""5"",""14807""
","
","NaN","audio/tiger.mp3","","4","","","","","","","","","","","","","","","","","",""
"fullscreen","5","15789","0.0-5.0","754","606","20","Male","false","false","false","true","""event"",""trial"",""time""
""fullscreenenter"",""5"",""14807""
","
","
","""event"",""trial"",""time""
""fullscreenenter"",""5"",""14807""
","
","","","","","true","","","","","","","","","","","","","","","","",""
"d3-instructions","6","27843","0.0-6.0","754","606","20","Male","false","false","false","true","""event"",""trial"",""time""
""fullscreenenter"",""5"",""14807""
","
","
","""event"",""trial"",""time""
""fullscreenenter"",""5"",""14807""
","
","","","","","","","","","","","","","","","","","","","","","",""
"d3-instructions","7","34840","0.0-7.0","754","606","20","Male","false","false","false","true","""event"",""trial"",""time""
""fullscreenenter"",""5"",""14807""
","
","
","""event"",""trial"",""time""
""fullscreenenter"",""5"",""14807""
","
","","","","","","","","","","","","","","","","","","","","","",""
"d3-instructions","8","45581","0.0-8.0","754","606","20","Male","false","false","false","true","""event"",""trial"",""time""
""fullscreenenter"",""5"",""14807""
","
","
","""event"",""trial"",""time""
""fullscreenenter"",""5"",""14807""
","
","","","","","","","","","","","","","","","","","","","","","",""
"d3-instructions","9","58576","0.0-9.0","754","606","20","Male","false","false","false","true","""event"",""trial"",""time""
""fullscreenenter"",""5"",""14807""
","
","
","""event"",""trial"",""time""
""fullscreenenter"",""5"",""14807""
","
","","","","","","","","","","","","","","","","","","","","","",""
"d3-instructions","10","72614","0.0-10.0","754","606","20","Male","false","false","false","true","""event"",""trial"",""time""
""fullscreenenter"",""5"",""14807""
","
","
","""event"",""trial"",""time""
""fullscreenenter"",""5"",""14807""
","
","","","","","","","","","","","","","","","","","","","","","",""
"d3-animate-choice","11","75990","0.0-11.0","754","606","20","Male","false","false","false","true","""event"",""trial"",""time""
""fullscreenenter"",""5"",""14807""
","
","
","""event"",""trial"",""time""
""fullscreenenter"",""5"",""14807""
","
","1351.5","","48","","","3000","1","3138","49","images/tutgreenplanet.jpg","images/tutalien1","images/tutalien2","null","images/tutalien1","","NA","practice","null","","","",""
"d3-animate-choice","12","78684","0.0-12.0","754","606","20","Male","false","false","false","true","""event"",""trial"",""time""
""fullscreenenter"",""5"",""14807""
","
","
","""event"",""trial"",""time""
""fullscreenenter"",""5"",""14807""
","
","668.5999999940395","","49","","","3000","1","","","images/tutgreenplanet.jpg","images/tutalien1","images/tutalien2","null","images/tutalien2","","NA","practice","null","","","",""
"d3-animate-choice","13","81264","0.0-13.0","754","606","20","Male","false","false","false","true","""event"",""trial"",""time""
""fullscreenenter"",""5"",""14807""
","
","
","""event"",""trial"",""time""
""fullscreenenter"",""5"",""14807""
","
","563.8999999910593","","49","","","3000","1","","","images/tutgreenplanet.jpg","images/tutalien1","images/tutalien2","null","images/tutalien2","","NA","practice","null","","","",""
"d3-animate-choice","14","83594","0.0-14.0","754","606","20","Male","false","false","false","true","""event"",""trial"",""time""
""fullscreenenter"",""5"",""14807""
","
","
","""event"",""trial"",""time""
""fullscreenenter"",""5"",""14807""
","
","308.6000000089407","","48","","","3000","1","","","images/tutgreenplanet.jpg","images/tutalien1","images/tutalien2","null","images/tutalien1","","NA","practice","null","","","",""
"d3-instructions","15","93510","0.0-15.0","754","606","20","Male","false","false","false","true","""event"",""trial"",""time""
""fullscreenenter"",""5"",""14807""
","
","
","""event"",""trial"",""time""
""fullscreenenter"",""5"",""14807""
","
","","","","","","","","","","","","","","","","","","","","","",""
"d3-instructions","16","100958","0.0-16.0","754","606","20","Male","false","false","false","true","""event"",""trial"",""time""
""fullscreenenter"",""5"",""14807""
","
","
","""event"",""trial"",""time""
""fullscreenenter"",""5"",""14807""
","
","","","","","","","","","","","","","","","","","","","","","",""
"d3-instructions","17","110721","0.0-17.0","754","606","20","Male","false","false","false","true","""event"",""trial"",""time""
""fullscreenenter"",""5"",""14807""
","
","
","""event"",""trial"",""time""
""fullscreenenter"",""5"",""14807""
","
","","","","","","","","","","","","","","","","","","","","","",""
"d3-instructions","18","123656","0.0-18.0","754","606","20","Male","false","false","false","true","""event"",""trial"",""time""
""fullscreenenter"",""5"",""14807""
","
","
","""event"",""trial"",""time""
""fullscreenenter"",""5"",""14807""
","
","","","","","","","","","","","","","","","","","","","","","",""
"d3-instructions","19","136763","0.0-19.0","754","606","20","Male","false","false","false","true","""event"",""trial"",""time""
""fullscreenenter"",""5"",""14807""
","
","
","""event"",""trial"",""time""
""fullscreenenter"",""5"",""14807""
","
","","","","","","","","","","","","","","","","","","","","","",""
"d3-animate-choice","20","139974","0.0-20.0","754","606","20","Male","false","false","false","true","""event"",""trial"",""time""
""fullscreenenter"",""5"",""14807""
","
","
","""event"",""trial"",""time""
""fullscreenenter"",""5"",""14807""
","
","1195.0999999940395","","49","","","3000","1","","","images/tutyellowplanet.jpg","null","images/tutalien3","null","images/tutalien3","images/t.png","NA","practice","null","","","",""
"d3-animate-choice","21","142424","0.0-21.0","754","606","20","Male","false","false","false","true","""event"",""trial"",""time""
""fullscreenenter"",""5"",""14807""
","
","
","""event"",""trial"",""time""
""fullscreenenter"",""5"",""14807""
","
","428.80000001192093","","49","","","3000","1","","","images/tutyellowplanet.jpg","null","images/tutalien3","null","images/tutalien3","images/t.png","NA","practice","null","","","",""
"d3-animate-choice","22","144744","0.0-22.0","754","606","20","Male","false","false","false","true","""event"",""trial"",""time""
""fullscreenenter"",""5"",""14807""
","
","
","""event"",""trial"",""time""
""fullscreenenter"",""5"",""14807""
","
","310.40000000596046","","49","","","3000","1","","","images/tutyellowplanet.jpg","null","images/tutalien3","null","images/tutalien3","images/t.png","NA","practice","null","","","",""
"d3-animate-choice","23","147074","0.0-23.0","754","606","20","Male","false","false","false","true","""event"",""trial"",""time""
""fullscreenenter"",""5"",""14807""
","
","
","""event"",""trial"",""time""
""fullscreenenter"",""5"",""14807""
","
","309.79999999701977","","49","","","3000","1","","","images/tutyellowplanet.jpg","null","images/tutalien3","null","images/tutalien3","images/t.png","NA","practice","null","","","",""
"d3-animate-choice","24","149374","0.0-24.0","754","606","20","Male","false","false","false","true","""event"",""trial"",""time""
""fullscreenenter"",""5"",""14807""
","
","
","""event"",""trial"",""time""
""fullscreenenter"",""5"",""14807""
","
","286.30000001192093","","49","","","3000","1","","","images/tutyellowplanet.jpg","null","images/tutalien3","null","images/tutalien3","images/t.png","NA","practice","null","","","",""
"d3-animate-choice","25","151813","0.0-25.0","754","606","20","Male","false","false","false","true","""event"",""trial"",""time""
""fullscreenenter"",""5"",""14807""
","
","
","""event"",""trial"",""time""
""fullscreenenter"",""5"",""14807""
","
","422.79999999701977","","49","","","3000","1","","","images/tutyellowplanet.jpg","null","images/tutalien3","null","images/tutalien3","images/t.png","NA","practice","null","","","",""
"d3-animate-choice","26","154154","0.0-26.0","754","606","20","Male","false","false","false","true","""event"",""trial"",""time""
""fullscreenenter"",""5"",""14807""
","
","
","""event"",""trial"",""time""
""fullscreenenter"",""5"",""14807""
","
","326.29999999701977","","49","","","3000","1","","","images/tutyellowplanet.jpg","null","images/tutalien3","null","images/tutalien3","images/t.png","NA","practice","null","","","",""
"d3-animate-choice","27","156574","0.0-27.0","754","606","20","Male","false","false","false","true","""event"",""trial"",""time""
""fullscreenenter"",""5"",""14807""
","
","
","""event"",""trial"",""time""
""fullscreenenter"",""5"",""14807""
","
","399.5","","49","","","3000","1","","","images/tutyellowplanet.jpg","null","images/tutalien3","null","images/tutalien3","images/t.png","NA","practice","null","","","",""
"d3-animate-choice","28","158925","0.0-28.0","754","606","20","Male","false","false","false","true","""event"",""trial"",""time""
""fullscreenenter"",""5"",""14807""
","
","
","""event"",""trial"",""time""
""fullscreenenter"",""5"",""14807""
","
","329.79999999701977","","49","","","3000","1","","","images/tutyellowplanet.jpg","null","images/tutalien3","null","images/tutalien3","images/nothing.png","NA","practice","null","","","",""
"d3-animate-choice","29","161284","0.0-29.0","754","606","20","Male","false","false","false","true","""event"",""trial"",""time""
""fullscreenenter"",""5"",""14807""
","
","
","""event"",""trial"",""time""
""fullscreenenter"",""5"",""14807""
","
","352.5","","49","","","3000","1","","","images/tutyellowplanet.jpg","null","images/tutalien3","null","images/tutalien3","images/t.png","NA","practice","null","","","",""
"d3-instructions","30","168599","0.0-30.0","754","606","20","Male","false","false","false","true","""event"",""trial"",""time""
""fullscreenenter"",""5"",""14807""
","
","
","""event"",""trial"",""time""
""fullscreenenter"",""5"",""14807""
","
","","","","","","","","","","","","","","","","","","","","","",""
"d3-instructions","31","185043","0.0-31.0","754","606","20","Male","false","false","false","true","""event"",""trial"",""time""
""fullscreenenter"",""5"",""14807""
","
","
","""event"",""trial"",""time""
""fullscreenenter"",""5"",""14807""
","
","","","","","","","","","","","","","","","","","","","","","",""
"d3-instructions","32","195957","0.0-32.0","754","606","20","Male","false","false","false","true","""event"",""trial"",""time""
""fullscreenenter"",""5"",""14807""
","
","
","""event"",""trial"",""time""
""fullscreenenter"",""5"",""14807""
","
","","","","","","","","","","","","","","","","","","","","","",""
"d3-instructions","33","207443","0.0-33.0","754","606","20","Male","false","false","false","true","""event"",""trial"",""time""
""fullscreenenter"",""5"",""14807""
","
","
","""event"",""trial"",""time""
""fullscreenenter"",""5"",""14807""
","
","","","","","","","","","","","","","","","","","","","","","",""
"d3-animate-choice","34","210414","0.0-34.0","754","606","20","Male","false","false","false","true","""event"",""trial"",""time""
""fullscreenenter"",""5"",""14807""
","
","
","""event"",""trial"",""time""
""fullscreenenter"",""5"",""14807""
","
","961.7999999970198","","49","","","3000","1","","","images/tutgreenplanet.jpg","images/tutalien1","images/tutalien2","null","images/tutalien2","images/t.png","NA","practice","null","","","",""
"d3-animate-choice","35","212763","0.0-35.0","754","606","20","Male","false","false","false","true","""event"",""trial"",""time""
""fullscreenenter"",""5"",""14807""
","
","
","""event"",""trial"",""time""
""fullscreenenter"",""5"",""14807""
","
","342.79999999701977","","49","","","3000","1","","","images/tutgreenplanet.jpg","images/tutalien1","images/tutalien2","null","images/tutalien2","images/t.png","NA","practice","null","","","",""
"d3-animate-choice","36","215015","0.0-36.0","754","606","20","Male","false","false","false","true","""event"",""trial"",""time""
""fullscreenenter"",""5"",""14807""
","
","
","""event"",""trial"",""time""
""fullscreenenter"",""5"",""14807""
","
","234.5","","49","","","3000","1","","","images/tutgreenplanet.jpg","images/tutalien1","images/tutalien2","null","images/tutalien2","images/t.png","NA","practice","null","","","",""
"d3-animate-choice","37","217303","0.0-37.0","754","606","20","Male","false","false","false","true","""event"",""trial"",""time""
""fullscreenenter"",""5"",""14807""
","
","
","""event"",""trial"",""time""
""fullscreenenter"",""5"",""14807""
","
","267.79999999701977","","49","","","3000","1","","","images/tutgreenplanet.jpg","images/tutalien1","images/tutalien2","null","images/tutalien2","images/nothing.png","NA","practice","null","","","",""
"d3-animate-choice","38","219583","0.0-38.0","754","606","20","Male","false","false","false","true","""event"",""trial"",""time""
""fullscreenenter"",""5"",""14807""
","
","
","""event"",""trial"",""time""
""fullscreenenter"",""5"",""14807""
","
","255.29999999701977","","49","","","3000","1","","","images/tutgreenplanet.jpg","images/tutalien1","images/tutalien2","null","images/tutalien2","images/t.png","NA","practice","null","","","",""
"d3-animate-choice","39","221853","0.0-39.0","754","606","20","Male","false","false","false","true","""event"",""trial"",""time""
""fullscreenenter"",""5"",""14807""
","
","
","""event"",""trial"",""time""
""fullscreenenter"",""5"",""14807""
","
","262.80000001192093","","49","","","3000","1","","","images/tutgreenplanet.jpg","images/tutalien1","images/tutalien2","null","images/tutalien2","images/t.png","NA","practice","null","","","",""
"d3-animate-choice","40","224113","0.0-40.0","754","606","20","Male","false","false","false","true","""event"",""trial"",""time""
""fullscreenenter"",""5"",""14807""
","
","
","""event"",""trial"",""time""
""fullscreenenter"",""5"",""14807""
","
","242.1000000089407","","49","","","3000","1","","","images/tutgreenplanet.jpg","images/tutalien1","images/tutalien2","null","images/tutalien2","images/t.png","NA","practice","null","","","",""
"d3-animate-choice","41","226163","0.0-41.0","754","606","20","Male","false","false","false","true","""event"",""trial"",""time""
""fullscreenenter"",""5"",""14807""
","
","
","""event"",""trial"",""time""
""fullscreenenter"",""5"",""14807""
","
","38.099999994039536","","49","","","3000","1","","","images/tutgreenplanet.jpg","images/tutalien1","images/tutalien2","null","images/tutalien2","images/t.png","NA","practice","null","","","",""
"d3-animate-choice","42","228411","0.0-42.0","754","606","20","Male","false","false","false","true","""event"",""trial"",""time""
""fullscreenenter"",""5"",""14807""
","
","
","""event"",""trial"",""time""
""fullscreenenter"",""5"",""14807""
","
","242.09999999403954","","49","","","3000","1","","","images/tutgreenplanet.jpg","images/tutalien1","images/tutalien2","null","images/tutalien2","images/t.png","NA","practice","null","","","",""
"d3-animate-choice","43","230692","0.0-43.0","754","606","20","Male","false","false","false","true","""event"",""trial"",""time""
""fullscreenenter"",""5"",""14807""
","
","
","""event"",""trial"",""time""
""fullscreenenter"",""5"",""14807""
","
","275.40000000596046","","49","","","3000","1","","","images/tutgreenplanet.jpg","images/tutalien1","images/tutalien2","null","images/tutalien2","images/t.png","NA","practice","null","","","",""
"d3-instructions","44","243788","0.0-44.0","754","606","20","Male","false","false","false","true","""event"",""trial"",""time""
""fullscreenenter"",""5"",""14807""
","
","
","""event"",""trial"",""time""
""fullscreenenter"",""5"",""14807""
","
","","","","","","","","","","","","","","","","","","","","","",""
"d3-instructions","45","249865","0.0-45.0","754","606","20","Male","false","false","false","true","""event"",""trial"",""time""
""fullscreenenter"",""5"",""14807""
","
","
","""event"",""trial"",""time""
""fullscreenenter"",""5"",""14807""
","
","","","","","","","","","","","","","","","","","","","","","",""
"d3-instructions","46","254804","0.0-46.0","754","606","20","Male","false","false","false","true","""event"",""trial"",""time""
""fullscreenenter"",""5"",""14807""
","
","
","""event"",""trial"",""time""
""fullscreenenter"",""5"",""14807""
","
","","","","","","","","","","","","","","","","","","","","","",""
"d3-instructions","47","275220","0.0-47.0","754","606","20","Male","false","false","false","true","""event"",""trial"",""time""
""fullscreenenter"",""5"",""14807""
","
","
","""event"",""trial"",""time""
""fullscreenenter"",""5"",""14807""
","
","","","","","","","","","","","","","","","","","","","","","",""
"d3-instructions","48","281983","0.0-48.0","754","606","20","Male","false","false","false","true","""event"",""trial"",""time""
""fullscreenenter"",""5"",""14807""
","
","
","""event"",""trial"",""time""
""fullscreenenter"",""5"",""14807""
","
","","","","","","","","","","","","","","","","","","","","","",""
"d3-instructions","49","293260","0.0-49.0","754","606","20","Male","false","false","false","true","""event"",""trial"",""time""
""fullscreenenter"",""5"",""14807""
","
","
","""event"",""trial"",""time""
""fullscreenenter"",""5"",""14807""
","
","","","","","","","","","","","","","","","","","","","","","",""
"d3-instructions","50","302268","0.0-50.0","754","606","20","Male","false","false","false","true","""event"",""trial"",""time""
""fullscreenenter"",""5"",""14807""
","
","
","""event"",""trial"",""time""
""fullscreenenter"",""5"",""14807""
","
","","","","","","","","","","","","","","","","","","","","","",""
"d3-instructions","51","305804","0.0-51.0","754","606","20","Male","false","false","false","true","""event"",""trial"",""time""
""fullscreenenter"",""5"",""14807""
","
","
","""event"",""trial"",""time""
""fullscreenenter"",""5"",""14807""
","
","","","","","","","","","","","","","","","","","","","","","",""
"d3-instructions","52","309188","0.0-52.0","754","606","20","Male","false","false","false","true","""event"",""trial"",""time""
""fullscreenenter"",""5"",""14807""
","
","
","""event"",""trial"",""time""
""fullscreenenter"",""5"",""14807""
","
","","","","","","","","","","","","","","","","","","","","","",""
"d3-instructions","53","321443","0.0-53.0","754","606","20","Male","false","false","false","true","""event"",""trial"",""time""
""fullscreenenter"",""5"",""14807""
","
","
","""event"",""trial"",""time""
""fullscreenenter"",""5"",""14807""
","
","","","","","","","","","","","","","","","","","","","","","",""
"d3-instructions","54","334187","0.0-54.0","754","606","20","Male","false","false","false","true","""event"",""trial"",""time""
""fullscreenenter"",""5"",""14807""
","
","
","""event"",""trial"",""time""
""fullscreenenter"",""5"",""14807""
","
","","","","","","","","","","","","","","","","","","","","","",""
"d3-instructions","55","344118","0.0-55.0","754","606","20","Male","false","false","false","true","""event"",""trial"",""time""
""fullscreenenter"",""5"",""14807""
","
","
","""event"",""trial"",""time""
""fullscreenenter"",""5"",""14807""
","
","","","","","","","","","","","","","","","","","","","","","",""
"d3-instructions","56","353384","0.0-56.0","754","606","20","Male","false","false","false","true","""event"",""trial"",""time""
""fullscreenenter"",""5"",""14807""
","
","
","""event"",""trial"",""time""
""fullscreenenter"",""5"",""14807""
","
","","","","","","","","","","","","","","","","","","","","","",""
"d3-instructions","57","363380","0.0-57.0","754","606","20","Male","false","false","false","true","""event"",""trial"",""time""
""fullscreenenter"",""5"",""14807""
","
","
","""event"",""trial"",""time""
""fullscreenenter"",""5"",""14807""
","
","","","","","","","","","","","","","","","","","","","","","",""
"d3-instructions","58","373896","0.0-58.0","754","606","20","Male","false","false","false","true","""event"",""trial"",""time""
""fullscreenenter"",""5"",""14807""
","
","
","""event"",""trial"",""time""
""fullscreenenter"",""5"",""14807""
","
","","","","","","","","","","","","","","","","","","","","","",""
"d3-instructions","59","379073","0.0-59.0","754","606","20","Male","false","false","false","true","""event"",""trial"",""time""
""fullscreenenter"",""5"",""14807""
","
","
","""event"",""trial"",""time""
""fullscreenenter"",""5"",""14807""
","
","","","","","","","","","","","","","","","","","","","","","",""
"d3-instructions","60","386097","0.0-60.0","754","606","20","Male","false","false","false","true","""event"",""trial"",""time""
""fullscreenenter"",""5"",""14807""
","
","
","""event"",""trial"",""time""
""fullscreenenter"",""5"",""14807""
","
","","","","","","","","","","","","","","","","","","","","","",""
"d3-animate-choice","61","389036","0.0-61.0-0.0","754","606","20","Male","false","false","false","true","""event"",""trial"",""time""
""fullscreenenter"",""5"",""14807""
","
","
","""event"",""trial"",""time""
""fullscreenenter"",""5"",""14807""
","
","928","","49","","","3000","1","","","images/earth.jpg","images/tutrocket1","images/tutrocket2","null","images/tutrocket2","","1","practice","null","1","","",""
"d3-animate-choice","62","392325","0.0-61.0-1.0","754","606","20","Male","false","false","false","true","""event"",""trial"",""time""
""fullscreenenter"",""5"",""14807""
","
","
","""event"",""trial"",""time""
""fullscreenenter"",""5"",""14807""
","
","1258","","49","","","3000","1","","","images/tutgreenplanet.jpg","images/tutalien2","images/tutalien1","images/tutrocket2","images/tutalien1","images/nothing.png","2","practice","true","1","common","0","2022-02-01 23:00:32.768"
"two-step-fixation","63","393335","0.0-61.0-2.0","754","606","20","Male","false","false","false","true","""event"",""trial"",""time""
""fullscreenenter"",""5"",""14807""
","
","
","""event"",""trial"",""time""
""fullscreenenter"",""5"",""14807""
","
","","images/earth.jpg","","","","","","","","","","","","","","fixation","","","","","",""
"d3-animate-choice","64","396125","0.0-61.0-0.1","754","606","20","Male","false","false","false","true","""event"",""trial"",""time""
""fullscreenenter"",""5"",""14807""
","
","
","""event"",""trial"",""time""
""fullscreenenter"",""5"",""14807""
","
","780.0999999940395","","49","","","3000","1","","","images/earth.jpg","images/tutrocket1","images/tutrocket2","null","images/tutrocket2","","1","practice","null","1","","",""
"d3-animate-choice","65","398774","0.0-61.0-1.1","754","606","20","Male","false","false","false","true","""event"",""trial"",""time""
""fullscreenenter"",""5"",""14807""
","
","
","""event"",""trial"",""time""
""fullscreenenter"",""5"",""14807""
","
","628.1999999880791","","49","","","3000","1","","","images/tutgreenplanet.jpg","images/tutalien2","images/tutalien1","images/tutrocket2","images/tutalien1","images/nothing.png","2","practice","true","1","common","0","2022-02-01 23:00:39.216"
"two-step-fixation","66","399787","0.0-61.0-2.1","754","606","20","Male","false","false","false","true","""event"",""trial"",""time""
""fullscreenenter"",""5"",""14807""
","
","
","""event"",""trial"",""time""
""fullscreenenter"",""5"",""14807""
","
","","images/earth.jpg","","","","","","","","","","","","","","fixation","","","","","",""
"d3-animate-choice","67","402115","0.0-61.0-0.2","754","606","20","Male","false","false","false","true","""event"",""trial"",""time""
""fullscreenenter"",""5"",""14807""
","
","
","""event"",""trial"",""time""
""fullscreenenter"",""5"",""14807""
","
","309.8999999910593","","49","","","3000","1","","","images/earth.jpg","images/tutrocket1","images/tutrocket2","null","images/tutrocket2","","1","practice","null","1","","",""
"d3-animate-choice","68","404669","0.0-61.0-1.2","754","606","20","Male","false","false","false","true","""event"",""trial"",""time""
""fullscreenenter"",""5"",""14807""
","
","
","""event"",""trial"",""time""
""fullscreenenter"",""5"",""14807""
","
","548","","48","","","3000","1","","","images/tutgreenplanet.jpg","images/tutalien2","images/tutalien1","images/tutrocket2","images/tutalien2","images/nothing.png","2","practice","true","2","common","0","2022-02-01 23:00:45.111"
"two-step-fixation","69","405677","0.0-61.0-2.2","754","606","20","Male","false","false","false","true","""event"",""trial"",""time""
""fullscreenenter"",""5"",""14807""
","
","
","""event"",""trial"",""time""
""fullscreenenter"",""5"",""14807""
","
","","images/earth.jpg","","","","","","","","","","","","","","fixation","","","","","",""
"d3-animate-choice","70","408151","0.0-61.0-0.3","754","606","20","Male","false","false","false","true","""event"",""trial"",""time""
""fullscreenenter"",""5"",""14807""
","
","
","""event"",""trial"",""time""
""fullscreenenter"",""5"",""14807""
","
","466.79999999701977","","49","","","3000","1","","","images/earth.jpg","images/tutrocket1","images/tutrocket2","null","images/tutrocket2","","1","practice","null","1","","",""
"d3-animate-choice","71","410660","0.0-61.0-1.3","754","606","20","Male","false","false","false","true","""event"",""trial"",""time""
""fullscreenenter"",""5"",""14807""
","
","
","""event"",""trial"",""time""
""fullscreenenter"",""5"",""14807""
","
","503.20000000298023","","48","","","3000","1","","","images/tutgreenplanet.jpg","images/tutalien2","images/tutalien1","images/tutrocket2","images/tutalien2","images/nothing.png","2","practice","true","2","common","0","2022-02-01 23:00:51.102"
"two-step-fixation","72","411668","0.0-61.0-2.3","754","606","20","Male","false","false","false","true","""event"",""trial"",""time""
""fullscreenenter"",""5"",""14807""
","
","
","""event"",""trial"",""time""
""fullscreenenter"",""5"",""14807""
","
","","images/earth.jpg","","","","","","","","","","","","","","fixation","","","","","",""
"d3-animate-choice","73","414006","0.0-61.0-0.4","754","606","20","Male","false","false","false","true","""event"",""trial"",""time""
""fullscreenenter"",""5"",""14807""
","
","
","""event"",""trial"",""time""
""fullscreenenter"",""5"",""14807""
","
","316.3999999910593","","48","","","3000","1","","","images/earth.jpg","images/tutrocket1","images/tutrocket2","null","images/tutrocket1","","1","practice","null","2","","",""
"d3-animate-choice","74","416574","0.0-61.0-1.4","754","606","20","Male","false","false","false","true","""event"",""trial"",""time""
""fullscreenenter"",""5"",""14807""
","
","
","""event"",""trial"",""time""
""fullscreenenter"",""5"",""14807""
","
","559.4000000059605","","49","","","3000","1","","","images/tutyellowplanet.jpg","images/tutalien4","images/tutalien3","images/tutrocket1","images/tutalien3","images/nothing.png","2","practice","true","1","common","0","2022-02-01 23:00:57.016"
"two-step-fixation","75","417581","0.0-61.0-2.4","754","606","20","Male","false","false","false","true","""event"",""trial"",""time""
""fullscreenenter"",""5"",""14807""
","
","
","""event"",""trial"",""time""
""fullscreenenter"",""5"",""14807""
","
","","images/earth.jpg","","","","","","","","","","","","","","fixation","","","","","",""
"d3-animate-choice","76","419834","0.0-61.0-0.5","754","606","20","Male","false","false","false","true","""event"",""trial"",""time""
""fullscreenenter"",""5"",""14807""
","
","
","""event"",""trial"",""time""
""fullscreenenter"",""5"",""14807""
","
","249","","48","","","3000","1","","","images/earth.jpg","images/tutrocket1","images/tutrocket2","null","images/tutrocket1","","1","practice","null","2","","",""
"d3-animate-choice","77","422752","0.0-61.0-1.5","754","606","20","Male","false","false","false","true","""event"",""trial"",""time""
""fullscreenenter"",""5"",""14807""
","
","
","""event"",""trial"",""time""
""fullscreenenter"",""5"",""14807""
","
","907.5999999940395","","48","","","3000","1","","","images/tutgreenplanet.jpg","images/tutalien2","images/tutalien1","images/tutrocket1","images/tutalien2","images/nothing.png","2","practice","false","2","rare","0","2022-02-01 23:01:03.194"
"two-step-fixation","78","423757","0.0-61.0-2.5","754","606","20","Male","false","false","false","true","""event"",""trial"",""time""
""fullscreenenter"",""5"",""14807""
","
","
","""event"",""trial"",""time""
""fullscreenenter"",""5"",""14807""
","
","","images/earth.jpg","","","","","","","","","","","","","","fixation","","","","","",""
"d3-animate-choice","79","426029","0.0-61.0-0.6","754","606","20","Male","false","false","false","true","""event"",""trial"",""time""
""fullscreenenter"",""5"",""14807""
","
","
","""event"",""trial"",""time""
""fullscreenenter"",""5"",""14807""
","
","264","","48","","","3000","1","","","images/earth.jpg","images/tutrocket1","images/tutrocket2","null","images/tutrocket1","","1","practice","null","2","","",""
"d3-animate-choice","80","428464","0.0-61.0-1.6","754","606","20","Male","false","false","false","true","""event"",""trial"",""time""
""fullscreenenter"",""5"",""14807""
","
","
","""event"",""trial"",""time""
""fullscreenenter"",""5"",""14807""
","
","428.5","","48","","","3000","1","","","images/tutyellowplanet.jpg","images/tutalien4","images/tutalien3","images/tutrocket1","images/tutalien4","images/t.png","2","practice","true","2","common","1","2022-02-01 23:01:08.906"
"two-step-fixation","81","429469","0.0-61.0-2.6","754","606","20","Male","false","false","false","true","""event"",""trial"",""time""
""fullscreenenter"",""5"",""14807""
","
","
","""event"",""trial"",""time""
""fullscreenenter"",""5"",""14807""
","
","","images/earth.jpg","","","","","","","","","","","","","","fixation","","","","","",""
"d3-animate-choice","82","431796","0.0-61.0-0.7","754","606","20","Male","false","false","false","true","""event"",""trial"",""time""
""fullscreenenter"",""5"",""14807""
","
","
","""event"",""trial"",""time""
""fullscreenenter"",""5"",""14807""
","
","322.5","","48","","","3000","1","","","images/earth.jpg","images/tutrocket1","images/tutrocket2","null","images/tutrocket1","","1","practice","null","2","","",""
"d3-animate-choice","83","434340","0.0-61.0-1.7","754","606","20","Male","false","false","false","true","""event"",""trial"",""time""
""fullscreenenter"",""5"",""14807""
","
","
","""event"",""trial"",""time""
""fullscreenenter"",""5"",""14807""
","
","539.5999999940395","","48","","","3000","1","","","images/tutyellowplanet.jpg","images/tutalien4","images/tutalien3","images/tutrocket1","images/tutalien4","images/nothing.png","2","practice","true","2","common","0","2022-02-01 23:01:14.782"
"two-step-fixation","84","435348","0.0-61.0-2.7","754","606","20","Male","false","false","false","true","""event"",""trial"",""time""
""fullscreenenter"",""5"",""14807""
","
","
","""event"",""trial"",""time""
""fullscreenenter"",""5"",""14807""
","
","","images/earth.jpg","","","","","","","","","","","","","","fixation","","","","","",""
"d3-animate-choice","85","437627","0.0-61.0-0.8","754","606","20","Male","false","false","false","true","""event"",""trial"",""time""
""fullscreenenter"",""5"",""14807""
","
","
","""event"",""trial"",""time""
""fullscreenenter"",""5"",""14807""
","
","272.20000000298023","","48","","","3000","1","","","images/earth.jpg","images/tutrocket1","images/tutrocket2","null","images/tutrocket1","","1","practice","null","2","","",""
"d3-animate-choice","86","440204","0.0-61.0-1.8","754","606","20","Male","false","false","false","true","""event"",""trial"",""time""
""fullscreenenter"",""5"",""14807""
","
","
","""event"",""trial"",""time""
""fullscreenenter"",""5"",""14807""
","
","566.3999999910593","","48","","","3000","1","","","images/tutyellowplanet.jpg","images/tutalien4","images/tutalien3","images/tutrocket1","images/tutalien4","images/t.png","2","practice","true","2","common","1","2022-02-01 23:01:20.646"
"two-step-fixation","87","441211","0.0-61.0-2.8","754","606","20","Male","false","false","false","true","""event"",""trial"",""time""
""fullscreenenter"",""5"",""14807""
","
","
","""event"",""trial"",""time""
""fullscreenenter"",""5"",""14807""
","
","","images/earth.jpg","","","","","","","","","","","","","","fixation","","","","","",""
"d3-animate-choice","88","443730","0.0-61.0-0.9","754","606","20","Male","false","false","false","true","""event"",""trial"",""time""
""fullscreenenter"",""5"",""14807""
","
","
","""event"",""trial"",""time""
""fullscreenenter"",""5"",""14807""
","
","511.80000001192093","","48","","","3000","1","","","images/earth.jpg","images/tutrocket1","images/tutrocket2","null","images/tutrocket1","","1","practice","null","2","","",""
"d3-animate-choice","89","446454","0.0-61.0-1.9","754","606","20","Male","false","false","false","true","""event"",""trial"",""time""
""fullscreenenter"",""5"",""14807""
","
","
","""event"",""trial"",""time""
""fullscreenenter"",""5"",""14807""
","
","716.0999999940395","","48","","","3000","1","","","images/tutyellowplanet.jpg","images/tutalien4","images/tutalien3","images/tutrocket1","images/tutalien4","images/t.png","2","practice","true","2","common","1","2022-02-01 23:01:26.896"
"two-step-fixation","90","447462","0.0-61.0-2.9","754","606","20","Male","false","false","false","true","""event"",""trial"",""time""
""fullscreenenter"",""5"",""14807""
","
","
","""event"",""trial"",""time""
""fullscreenenter"",""5"",""14807""
","
","","images/earth.jpg","","","","","","","","","","","","","","fixation","","","","","",""
"d3-animate-choice","91","449733","0.0-61.0-0.10","754","606","20","Male","false","false","false","true","""event"",""trial"",""time""
""fullscreenenter"",""5"",""14807""
","
","
","""event"",""trial"",""time""
""fullscreenenter"",""5"",""14807""
","
","260.20000000298023","","48","","","3000","1","","","images/earth.jpg","images/tutrocket1","images/tutrocket2","null","images/tutrocket1","","1","practice","null","2","","",""
"d3-animate-choice","92","452495","0.0-61.0-1.10","754","606","20","Male","false","false","false","true","""event"",""trial"",""time""
""fullscreenenter"",""5"",""14807""
","
","
","""event"",""trial"",""time""
""fullscreenenter"",""5"",""14807""
","
","753.7999999970198","","48","","","3000","1","","","images/tutyellowplanet.jpg","images/tutalien4","images/tutalien3","images/tutrocket1","images/tutalien4","images/nothing.png","2","practice","true","2","common","0","2022-02-01 23:01:32.937"
"two-step-fixation","93","453502","0.0-61.0-2.10","754","606","20","Male","false","false","false","true","""event"",""trial"",""time""
""fullscreenenter"",""5"",""14807""
","
","
","""event"",""trial"",""time""
""fullscreenenter"",""5"",""14807""
","
","","images/earth.jpg","","","","","","","","","","","","","","fixation","","","","","",""
"d3-animate-choice","94","455725","0.0-61.0-0.11","754","606","20","Male","false","false","false","true","""event"",""trial"",""time""
""fullscreenenter"",""5"",""14807""
","
","
","""event"",""trial"",""time""
""fullscreenenter"",""5"",""14807""
","
","217.90000000596046","","48","","","3000","1","","","images/earth.jpg","images/tutrocket1","images/tutrocket2","null","images/tutrocket1","","1","practice","null","2","","",""
"d3-animate-choice","95","458931","0.0-61.0-1.11","754","606","20","Male","false","false","false","true","""event"",""trial"",""time""
""fullscreenenter"",""5"",""14807""
","
","
","""event"",""trial"",""time""
""fullscreenenter"",""5"",""14807""
","
","1199.0999999940395","","48","","","3000","1","","","images/tutgreenplanet.jpg","images/tutalien2","images/tutalien1","images/tutrocket1","images/tutalien2","images/t.png","2","practice","false","2","rare","1","2022-02-01 23:01:39.373"
"two-step-fixation","96","459934","0.0-61.0-2.11","754","606","20","Male","false","false","false","true","""event"",""trial"",""time""
""fullscreenenter"",""5"",""14807""
","
","
","""event"",""trial"",""time""
""fullscreenenter"",""5"",""14807""
","
","","images/earth.jpg","","","","","","","","","","","","","","fixation","","","","","",""
"d3-animate-choice","97","462253","0.0-61.0-0.12","754","606","20","Male","false","false","false","true","""event"",""trial"",""time""
""fullscreenenter"",""5"",""14807""
","
","
","""event"",""trial"",""time""
""fullscreenenter"",""5"",""14807""
","
","308.69999998807907","","48","","","3000","1","","","images/earth.jpg","images/tutrocket1","images/tutrocket2","null","images/tutrocket1","","1","practice","null","2","","",""
"d3-animate-choice","98","464737","0.0-61.0-1.12","754","606","20","Male","false","false","false","true","""event"",""trial"",""time""
""fullscreenenter"",""5"",""14807""
","
","
","""event"",""trial"",""time""
""fullscreenenter"",""5"",""14807""
","
","476.70000000298023","","48","","","3000","1","","","images/tutyellowplanet.jpg","images/tutalien4","images/tutalien3","images/tutrocket1","images/tutalien4","images/nothing.png","2","practice","true","2","common","0","2022-02-01 23:01:45.179"
"two-step-fixation","99","465746","0.0-61.0-2.12","754","606","20","Male","false","false","false","true","""event"",""trial"",""time""
""fullscreenenter"",""5"",""14807""
","
","
","""event"",""trial"",""time""
""fullscreenenter"",""5"",""14807""
","
","","images/earth.jpg","","","","","","","","","","","","","","fixation","","","","","",""
"d3-animate-choice","100","467875","0.0-61.0-0.13","754","606","20","Male","false","false","false","true","""event"",""trial"",""time""
""fullscreenenter"",""5"",""14807""
","
","
","""event"",""trial"",""time""
""fullscreenenter"",""5"",""14807""
","
","120.20000000298023","","48","","","3000","1","","","images/earth.jpg","images/tutrocket1","images/tutrocket2","null","images/tutrocket1","","1","practice","null","2","","",""
"d3-animate-choice","101","470473","0.0-61.0-1.13","754","606","20","Male","false","false","false","true","""event"",""trial"",""time""
""fullscreenenter"",""5"",""14807""
","
","
","""event"",""trial"",""time""
""fullscreenenter"",""5"",""14807""
","
","592.3999999910593","","48","","","3000","1","","","images/tutyellowplanet.jpg","images/tutalien4","images/tutalien3","images/tutrocket1","images/tutalien4","images/t.png","2","practice","true","2","common","1","2022-02-01 23:01:50.916"
"two-step-fixation","102","471481","0.0-61.0-2.13","754","606","20","Male","false","false","false","true","""event"",""trial"",""time""
""fullscreenenter"",""5"",""14807""
","
","
","""event"",""trial"",""time""
""fullscreenenter"",""5"",""14807""
","
","","images/earth.jpg","","","","","","","","","","","","","","fixation","","","","","",""
"d3-animate-choice","103","473734","0.0-61.0-0.14","754","606","20","Male","false","false","false","true","""event"",""trial"",""time""
""fullscreenenter"",""5"",""14807""
","
","
","""event"",""trial"",""time""
""fullscreenenter"",""5"",""14807""
","
","248.1000000089407","","48","","","3000","1","","","images/earth.jpg","images/tutrocket1","images/tutrocket2","null","images/tutrocket1","","1","practice","null","2","","",""
"d3-animate-choice","104","476481","0.0-61.0-1.14","754","606","20","Male","false","false","false","true","""event"",""trial"",""time""
""fullscreenenter"",""5"",""14807""
","
","
","""event"",""trial"",""time""
""fullscreenenter"",""5"",""14807""
","
","740.2000000029802","","48","","","3000","1","","","images/tutgreenplanet.jpg","images/tutalien2","images/tutalien1","images/tutrocket1","images/tutalien2","images/t.png","2","practice","false","2","rare","1","2022-02-01 23:01:56.923"
"two-step-fixation","105","477487","0.0-61.0-2.14","754","606","20","Male","false","false","false","true","""event"",""trial"",""time""
""fullscreenenter"",""5"",""14807""
","
","
","""event"",""trial"",""time""
""fullscreenenter"",""5"",""14807""
","
","","images/earth.jpg","","","","","","","","","","","","","","fixation","","","","","",""
"d3-animate-choice","106","479581","0.0-61.0-0.15","754","606","20","Male","false","false","false","true","""event"",""trial"",""time""
""fullscreenenter"",""5"",""14807""
","
","
","""event"",""trial"",""time""
""fullscreenenter"",""5"",""14807""
","
","85.09999999403954","","48","","","3000","1","","","images/earth.jpg","images/tutrocket1","images/tutrocket2","null","images/tutrocket1","","1","practice","null","2","","",""
"d3-animate-choice","107","482208","0.0-61.0-1.15","754","606","20","Male","false","false","false","true","""event"",""trial"",""time""
""fullscreenenter"",""5"",""14807""
","
","
","""event"",""trial"",""time""
""fullscreenenter"",""5"",""14807""
","
","619.8999999910593","","48","","","3000","1","","","images/tutgreenplanet.jpg","images/tutalien2","images/tutalien1","images/tutrocket1","images/tutalien2","images/t.png","2","practice","false","2","rare","1","2022-02-01 23:02:02.650"
"two-step-fixation","108","483213","0.0-61.0-2.15","754","606","20","Male","false","false","false","true","""event"",""trial"",""time""
""fullscreenenter"",""5"",""14807""
","
","
","""event"",""trial"",""time""
""fullscreenenter"",""5"",""14807""
","
","","images/earth.jpg","","","","","","","","","","","","","","fixation","","","","","",""
"d3-animate-choice","109","485600","0.0-61.0-0.16","754","606","20","Male","false","false","false","true","""event"",""trial"",""time""
""fullscreenenter"",""5"",""14807""
","
","
","""event"",""trial"",""time""
""fullscreenenter"",""5"",""14807""
","
","380.3999999910593","","48","","","3000","1","","","images/earth.jpg","images/tutrocket1","images/tutrocket2","null","images/tutrocket1","","1","practice","null","2","","",""
"d3-animate-choice","110","488104","0.0-61.0-1.16","754","606","20","Male","false","false","false","true","""event"",""trial"",""time""
""fullscreenenter"",""5"",""14807""
","
","
","""event"",""trial"",""time""
""fullscreenenter"",""5"",""14807""
","
","496.70000000298023","","48","","","3000","1","","","images/tutgreenplanet.jpg","images/tutalien2","images/tutalien1","images/tutrocket1","images/tutalien2","images/t.png","2","practice","false","2","rare","1","2022-02-01 23:02:08.546"
"two-step-fixation","111","489111","0.0-61.0-2.16","754","606","20","Male","false","false","false","true","""event"",""trial"",""time""
""fullscreenenter"",""5"",""14807""
","
","
","""event"",""trial"",""time""
""fullscreenenter"",""5"",""14807""
","
","","images/earth.jpg","","","","","","","","","","","","","","fixation","","","","","",""
"d3-animate-choice","112","491537","0.0-61.0-0.17","754","606","20","Male","false","false","false","true","""event"",""trial"",""time""
""fullscreenenter"",""5"",""14807""
","
","
","""event"",""trial"",""time""
""fullscreenenter"",""5"",""14807""
","
","417.69999998807907","","48","","","3000","1","","","images/earth.jpg","images/tutrocket1","images/tutrocket2","null","images/tutrocket1","","1","practice","null","2","","",""
"d3-animate-choice","113","494243","0.0-61.0-1.17","754","606","20","Male","false","false","false","true","""event"",""trial"",""time""
""fullscreenenter"",""5"",""14807""
","
","
","""event"",""trial"",""time""
""fullscreenenter"",""5"",""14807""
","
","698.5999999940395","","48","","","3000","1","","","images/tutyellowplanet.jpg","images/tutalien4","images/tutalien3","images/tutrocket1","images/tutalien4","images/nothing.png","2","practice","true","2","common","0","2022-02-01 23:02:14.686"
"two-step-fixation","114","495250","0.0-61.0-2.17","754","606","20","Male","false","false","false","true","""event"",""trial"",""time""
""fullscreenenter"",""5"",""14807""
","
","
","""event"",""trial"",""time""
""fullscreenenter"",""5"",""14807""
","
","","images/earth.jpg","","","","","","","","","","","","","","fixation","","","","","",""
"d3-animate-choice","115","497307","0.0-61.0-0.18","754","606","20","Male","false","false","false","true","""event"",""trial"",""time""
""fullscreenenter"",""5"",""14807""
","
","
","""event"",""trial"",""time""
""fullscreenenter"",""5"",""14807""
","
","47.1000000089407","","48","","","3000","1","","","images/earth.jpg","images/tutrocket1","images/tutrocket2","null","images/tutrocket1","","1","practice","null","2","","",""
"d3-animate-choice","116","501218","0.0-61.0-1.18","754","606","20","Male","false","false","false","true","""event"",""trial"",""time""
""fullscreenenter"",""5"",""14807""
","
","
","""event"",""trial"",""time""
""fullscreenenter"",""5"",""14807""
","
","1903.3999999910593","","48","","","3000","1","","","images/tutgreenplanet.jpg","images/tutalien2","images/tutalien1","images/tutrocket1","images/tutalien2","images/t.png","2","practice","false","2","rare","1","2022-02-01 23:02:21.660"
"two-step-fixation","117","502226","0.0-61.0-2.18","754","606","20","Male","false","false","false","true","""event"",""trial"",""time""
""fullscreenenter"",""5"",""14807""
","
","
","""event"",""trial"",""time""
""fullscreenenter"",""5"",""14807""
","
","","images/earth.jpg","","","","","","","","","","","","","","fixation","","","","","",""
"d3-animate-choice","118","504551","0.0-61.0-0.19","754","606","20","Male","false","false","false","true","""event"",""trial"",""time""
""fullscreenenter"",""5"",""14807""
","
","
","""event"",""trial"",""time""
""fullscreenenter"",""5"",""14807""
","
","315.6000000089407","","48","","","3000","1","","","images/earth.jpg","images/tutrocket1","images/tutrocket2","null","images/tutrocket1","","1","practice","null","2","","",""
"d3-animate-choice","119","508158","0.0-61.0-1.19","754","606","20","Male","false","false","false","true","""event"",""trial"",""time""
""fullscreenenter"",""5"",""14807""
","
","
","""event"",""trial"",""time""
""fullscreenenter"",""5"",""14807""
","
","1598.6000000089407","","48","","","3000","1","","","images/tutyellowplanet.jpg","images/tutalien4","images/tutalien3","images/tutrocket1","images/tutalien4","images/nothing.png","2","practice","true","2","common","0","2022-02-01 23:02:28.600"
"two-step-fixation","120","509164","0.0-61.0-2.19","754","606","20","Male","false","false","false","true","""event"",""trial"",""time""
""fullscreenenter"",""5"",""14807""
","
","
","""event"",""trial"",""time""
""fullscreenenter"",""5"",""14807""
","
","","images/earth.jpg","","","","","","","","","","","","","","fixation","","","","","",""
"d3-instructions","121","557592","0.0-62.0","754","606","20","Male","false","false","false","true","""event"",""trial"",""time""
""fullscreenenter"",""5"",""14807""
","
","
","""event"",""trial"",""time""
""fullscreenenter"",""5"",""14807""
","
","","","","","","","","","","","","","","","","","","","","","",""
"audio-keyboard-response","122","561429","0.0-63.0","754","606","20","Male","false","false","false","true","""event"",""trial"",""time""
""fullscreenenter"",""5"",""14807""
","
","
","""event"",""trial"",""time""
""fullscreenenter"",""5"",""14807""
","
","3661","audio/instructions/treasure_feedback.wav","32","","","","","","","","","","","","","","","","","","",""
"d3-instructions","123","571951","0.0-64.0","754","606","20","Male","false","false","false","true","""event"",""trial"",""time""
""fullscreenenter"",""5"",""14807""
","
","
","""event"",""trial"",""time""
""fullscreenenter"",""5"",""14807""
","
","","","","","","","","","","","","","","","","","","","","","",""
"d3-instructions","124","585855","0.0-65.0","754","606","20","Male","false","false","false","true","""event"",""trial"",""time""
""fullscreenenter"",""5"",""14807""
","
","
","""event"",""trial"",""time""
""fullscreenenter"",""5"",""14807""
","
","","","","","","","","","","","","","","","","","","","","","",""
"d3-instructions","125","611551","0.0-66.0","754","606","20","Male","false","false","false","true","""event"",""trial"",""time""
""fullscreenenter"",""5"",""14807""
","
","
","""event"",""trial"",""time""
""fullscreenenter"",""5"",""14807""
","
","","","","","","","","","","","","","","","","","","","","","",""
"d3-instructions","126","627821","0.0-67.0","754","606","20","Male","false","false","false","true","""event"",""trial"",""time""
""fullscreenenter"",""5"",""14807""
","
","
","""event"",""trial"",""time""
""fullscreenenter"",""5"",""14807""
","
","","","","","","","","","","","","","","","","","","","","","",""
"d3-instructions","127","636744","0.0-68.0","754","606","20","Male","false","false","false","true","""event"",""trial"",""time""
""fullscreenenter"",""5"",""14807""
","
","
","""event"",""trial"",""time""
""fullscreenenter"",""5"",""14807""
","
","","","","","","","","","","","","","","","","","","","","","",""
"instructions-quiz","128","639098","0.0-69.0","754","606","20","Male","false","false","false","true","""event"",""trial"",""time""
""fullscreenenter"",""5"",""14807""
","
","
","""event"",""trial"",""time""
""fullscreenenter"",""5"",""14807""
","
","2349.2000000029802","audio/quiz/Q1_Prompt.wav","","1","","","","","","","","","","","","","","","","","",""
"audio-keyboard-response","129","648263","0.0-70.0","754","606","20","Male","false","false","false","true","""event"",""trial"",""time""
""fullscreenenter"",""5"",""14807""
","
","
","""event"",""trial"",""time""
""fullscreenenter"",""5"",""14807""
","
","null","audio/quiz/Q1_Correct.wav","null","","","","","","","","","","","","","","","","","","",""
"instructions-quiz","130","657300","0.0-71.0","754","606","20","Male","false","false","false","true","""event"",""trial"",""time""
""fullscreenenter"",""5"",""14807""
","
","
","""event"",""trial"",""time""
""fullscreenenter"",""5"",""14807""
","
","9035","audio/quiz/Q2_Prompt.wav","","0","","","","","","","","","","","","","","","","","",""
"audio-keyboard-response","131","670163","0.0-72.0","754","606","20","Male","false","false","false","true","""event"",""trial"",""time""
""fullscreenenter"",""5"",""14807""
","
","
","""event"",""trial"",""time""
""fullscreenenter"",""5"",""14807""
","
","null","audio/quiz/Q2_Correct.wav","null","","","","","","","","","","","","","","","","","","",""
"instructions-quiz","132","671949","0.0-73.0","754","606","20","Male","false","false","false","true","""event"",""trial"",""time""
""fullscreenenter"",""5"",""14807""
","
","
","""event"",""trial"",""time""
""fullscreenenter"",""5"",""14807""
","
","1781.7999999970198","audio/quiz/Q3_Prompt.wav","","1","","","","","","","","","","","","","","","","","",""
"audio-keyboard-response","133","677743","0.0-74.0","754","606","20","Male","false","false","false","true","""event"",""trial"",""time""
""fullscreenenter"",""5"",""14807""
","
","
","""event"",""trial"",""time""
""fullscreenenter"",""5"",""14807""
","
","null","audio/quiz/Q3_Correct.wav","null","","","","","","","","","","","","","","","","","","",""
"d3-instructions","134","694341","0.0-75.0","754","606","20","Male","false","false","false","true","""event"",""trial"",""time""
""fullscreenenter"",""5"",""14807""
","
","
","""event"",""trial"",""time""
""fullscreenenter"",""5"",""14807""
","
","","","","","","","","","","","","","","","","","","","","","",""
"d3-animate-choice","135","697285","0.0-76.0-0.0","754","606","20","Male","false","false","false","true","""event"",""trial"",""time""
""fullscreenenter"",""5"",""14807""
","
","
","""event"",""trial"",""time""
""fullscreenenter"",""5"",""14807""
","
","935.2000000029802","","49","","","3000","1","","","images/earth.jpg","images/rocket1","images/rocket2","null","images/rocket2","","1","real","null","1","","",""
"d3-animate-choice","136","699990","0.0-76.0-1.0","754","606","20","Male","false","false","false","true","""event"",""trial"",""time""
""fullscreenenter"",""5"",""14807""
","
","
","""event"",""trial"",""time""
""fullscreenenter"",""5"",""14807""
","
","698.0999999940395","","49","","","3000","1","","","images/redplanet1.jpg","images/alien2","images/alien1","images/rocket2","images/alien1","images/nothing.png","2","real","true","1","common","0","2022-02-01 23:05:40.432"
"two-step-fixation","137","701002","0.0-76.0-2.0","754","606","20","Male","false","false","false","true","""event"",""trial"",""time""
""fullscreenenter"",""5"",""14807""
","
","
","""event"",""trial"",""time""
""fullscreenenter"",""5"",""14807""
","
","","images/earth.jpg","","","","","","","","","","","","","","fixation","","","","","",""
"d3-animate-choice","138","703302","0.0-76.0-0.1","754","606","20","Male","false","false","false","true","""event"",""trial"",""time""
""fullscreenenter"",""5"",""14807""
","
","
","""event"",""trial"",""time""
""fullscreenenter"",""5"",""14807""
","
","290","","49","","","3000","1","","","images/earth.jpg","images/rocket1","images/rocket2","null","images/rocket2","","1","real","null","1","","",""
"d3-animate-choice","139","705964","0.0-76.0-1.1","754","606","20","Male","false","false","false","true","""event"",""trial"",""time""
""fullscreenenter"",""5"",""14807""
","
","
","""event"",""trial"",""time""
""fullscreenenter"",""5"",""14807""
","
","654.2999999970198","","49","","","3000","1","","","images/purpleplanet.jpg","images/alien4","images/alien3","images/rocket2","images/alien3","images/nothing.png","2","real","false","1","rare","0","2022-02-01 23:05:46.406"
"two-step-fixation","140","706973","0.0-76.0-2.1","754","606","20","Male","false","false","false","true","""event"",""trial"",""time""
""fullscreenenter"",""5"",""14807""
","
","
","""event"",""trial"",""time""
""fullscreenenter"",""5"",""14807""
","
","","images/earth.jpg","","","","","","","","","","","","","","fixation","","","","","",""
"d3-animate-choice","141","709277","0.0-76.0-0.2","754","606","20","Male","false","false","false","true","""event"",""trial"",""time""
""fullscreenenter"",""5"",""14807""
","
","
","""event"",""trial"",""time""
""fullscreenenter"",""5"",""14807""
","
","296.40000000596046","","49","","","3000","1","","","images/earth.jpg","images/rocket1","images/rocket2","null","images/rocket2","","1","real","null","1","","",""
"d3-animate-choice","142","711819","0.0-76.0-1.2","754","606","20","Male","false","false","false","true","""event"",""trial"",""time""
""fullscreenenter"",""5"",""14807""
","
","
","""event"",""trial"",""time""
""fullscreenenter"",""5"",""14807""
","
","532.2999999970198","","49","","","3000","1","","","images/redplanet1.jpg","images/alien2","images/alien1","images/rocket2","images/alien1","images/t.png","2","real","true","1","common","1","2022-02-01 23:05:52.261"
"two-step-fixation","143","712826","0.0-76.0-2.2","754","606","20","Male","false","false","false","true","""event"",""trial"",""time""
""fullscreenenter"",""5"",""14807""
","
","
","""event"",""trial"",""time""
""fullscreenenter"",""5"",""14807""
","
","","images/earth.jpg","","","","","","","","","","","","","","fixation","","","","","",""
"d3-animate-choice","144","715104","0.0-76.0-0.3","754","606","20","Male","false","false","false","true","""event"",""trial"",""time""
""fullscreenenter"",""5"",""14807""
","
","
","""event"",""trial"",""time""
""fullscreenenter"",""5"",""14807""
","
","270.70000000298023","","49","","","3000","1","","","images/earth.jpg","images/rocket1","images/rocket2","null","images/rocket2","","1","real","null","1","","",""
"d3-animate-choice","145","717563","0.0-76.0-1.3","754","606","20","Male","false","false","false","true","""event"",""trial"",""time""
""fullscreenenter"",""5"",""14807""
","
","
","""event"",""trial"",""time""
""fullscreenenter"",""5"",""14807""
","
","454","","49","","","3000","1","","","images/redplanet1.jpg","images/alien2","images/alien1","images/rocket2","images/alien1","images/nothing.png","2","real","true","1","common","0","2022-02-01 23:05:58.005"
"two-step-fixation","146","718566","0.0-76.0-2.3","754","606","20","Male","false","false","false","true","""event"",""trial"",""time""
""fullscreenenter"",""5"",""14807""
","
","
","""event"",""trial"",""time""
""fullscreenenter"",""5"",""14807""
","
","","images/earth.jpg","","","","","","","","","","","","","","fixation","","","","","",""
"d3-animate-choice","147","720837","0.0-76.0-0.4","754","606","20","Male","false","false","false","true","""event"",""trial"",""time""
""fullscreenenter"",""5"",""14807""
","
","
","""event"",""trial"",""time""
""fullscreenenter"",""5"",""14807""
","
","264","","49","","","3000","1","","","images/earth.jpg","images/rocket1","images/rocket2","null","images/rocket2","","1","real","null","1","","",""
"d3-animate-choice","148","723232","0.0-76.0-1.4","754","606","20","Male","false","false","false","true","""event"",""trial"",""time""
""fullscreenenter"",""5"",""14807""
","
","
","""event"",""trial"",""time""
""fullscreenenter"",""5"",""14807""
","
","389.69999998807907","","49","","","3000","1","","","images/redplanet1.jpg","images/alien2","images/alien1","images/rocket2","images/alien1","images/t.png","2","real","true","1","common","1","2022-02-01 23:06:03.674"
"two-step-fixation","149","724241","0.0-76.0-2.4","754","606","20","Male","false","false","false","true","""event"",""trial"",""time""
""fullscreenenter"",""5"",""14807""
","
","
","""event"",""trial"",""time""
""fullscreenenter"",""5"",""14807""
","
","","images/earth.jpg","","","","","","","","","","","","","","fixation","","","","","",""
"d3-animate-choice","150","726509","0.0-76.0-0.5","754","606","20","Male","false","false","false","true","""event"",""trial"",""time""
""fullscreenenter"",""5"",""14807""
","
","
","""event"",""trial"",""time""
""fullscreenenter"",""5"",""14807""
","
","258.70000000298023","","49","","","3000","1","","","images/earth.jpg","images/rocket1","images/rocket2","null","images/rocket2","","1","real","null","1","","",""
"d3-animate-choice","151","729041","0.0-76.0-1.5","754","606","20","Male","false","false","false","true","""event"",""trial"",""time""
""fullscreenenter"",""5"",""14807""
","
","
","""event"",""trial"",""time""
""fullscreenenter"",""5"",""14807""
","
","526.0999999940395","","49","","","3000","1","","","images/redplanet1.jpg","images/alien2","images/alien1","images/rocket2","images/alien1","images/nothing.png","2","real","true","1","common","0","2022-02-01 23:06:09.484"
"two-step-fixation","152","730050","0.0-76.0-2.5","754","606","20","Male","false","false","false","true","""event"",""trial"",""time""
""fullscreenenter"",""5"",""14807""
","
","
","""event"",""trial"",""time""
""fullscreenenter"",""5"",""14807""
","
","","images/earth.jpg","","","","","","","","","","","","","","fixation","","","","","",""
"d3-animate-choice","153","732301","0.0-76.0-0.6","754","606","20","Male","false","false","false","true","""event"",""trial"",""time""
""fullscreenenter"",""5"",""14807""
","
","
","""event"",""trial"",""time""
""fullscreenenter"",""5"",""14807""
","
","242.79999999701977","","49","","","3000","1","","","images/earth.jpg","images/rocket1","images/rocket2","null","images/rocket2","","1","real","null","1","","",""
"d3-animate-choice","154","735059","0.0-76.0-1.6","754","606","20","Male","false","false","false","true","""event"",""trial"",""time""
""fullscreenenter"",""5"",""14807""
","
","
","""event"",""trial"",""time""
""fullscreenenter"",""5"",""14807""
","
","751.0999999940395","","49","","","3000","1","","","images/purpleplanet.jpg","images/alien4","images/alien3","images/rocket2","images/alien3","images/nothing.png","2","real","false","1","rare","0","2022-02-01 23:06:15.501"
"two-step-fixation","155","736065","0.0-76.0-2.6","754","606","20","Male","false","false","false","true","""event"",""trial"",""time""
""fullscreenenter"",""5"",""14807""
","
","
","""event"",""trial"",""time""
""fullscreenenter"",""5"",""14807""
","
","","images/earth.jpg","","","","","","","","","","","","","","fixation","","","","","",""
"d3-animate-choice","156","738320","0.0-76.0-0.7","754","606","20","Male","false","false","false","true","""event"",""trial"",""time""
""fullscreenenter"",""5"",""14807""
","
","
","""event"",""trial"",""time""
""fullscreenenter"",""5"",""14807""
","
","249.8999999910593","","49","","","3000","1","","","images/earth.jpg","images/rocket1","images/rocket2","null","images/rocket2","","1","real","null","1","","",""
"d3-animate-choice","157","740786","0.0-76.0-1.7","754","606","20","Male","false","false","false","true","""event"",""trial"",""time""
""fullscreenenter"",""5"",""14807""
","
","
","""event"",""trial"",""time""
""fullscreenenter"",""5"",""14807""
","
","459.79999999701977","","48","","","3000","1","","","images/redplanet1.jpg","images/alien2","images/alien1","images/rocket2","images/alien2","images/t.png","2","real","true","2","common","1","2022-02-01 23:06:21.228"
"two-step-fixation","158","741792","0.0-76.0-2.7","754","606","20","Male","false","false","false","true","""event"",""trial"",""time""
""fullscreenenter"",""5"",""14807""
","
","
","""event"",""trial"",""time""
""fullscreenenter"",""5"",""14807""
","
","","images/earth.jpg","","","","","","","","","","","","","","fixation","","","","","",""
"d3-animate-choice","159","744088","0.0-76.0-0.8","754","606","20","Male","false","false","false","true","""event"",""trial"",""time""
""fullscreenenter"",""5"",""14807""
","
","
","""event"",""trial"",""time""
""fullscreenenter"",""5"",""14807""
","
","287.3999999910593","","49","","","3000","1","","","images/earth.jpg","images/rocket1","images/rocket2","null","images/rocket2","","1","real","null","1","","",""
"d3-animate-choice","160","746561","0.0-76.0-1.8","754","606","20","Male","false","false","false","true","""event"",""trial"",""time""
""fullscreenenter"",""5"",""14807""
","
","
","""event"",""trial"",""time""
""fullscreenenter"",""5"",""14807""
","
","467","","48","","","3000","1","","","images/redplanet1.jpg","images/alien2","images/alien1","images/rocket2","images/alien2","images/t.png","2","real","true","2","common","1","2022-02-01 23:06:27.003"
"two-step-fixation","161","747569","0.0-76.0-2.8","754","606","20","Male","false","false","false","true","""event"",""trial"",""time""
""fullscreenenter"",""5"",""14807""
","
","
","""event"",""trial"",""time""
""fullscreenenter"",""5"",""14807""
","
","","images/earth.jpg","","","","","","","","","","","","","","fixation","","","","","",""
"d3-animate-choice","162","749787","0.0-76.0-0.9","754","606","20","Male","false","false","false","true","""event"",""trial"",""time""
""fullscreenenter"",""5"",""14807""
","
","
","""event"",""trial"",""time""
""fullscreenenter"",""5"",""14807""
","
","213.90000000596046","","49","","","3000","1","","","images/earth.jpg","images/rocket1","images/rocket2","null","images/rocket2","","1","real","null","1","","",""
"d3-animate-choice","163","752954","0.0-76.0-1.9","754","606","20","Male","false","false","false","true","""event"",""trial"",""time""
""fullscreenenter"",""5"",""14807""
","
","
","""event"",""trial"",""time""
""fullscreenenter"",""5"",""14807""
","
","1162.7999999970198","","48","","","3000","1","","","images/purpleplanet.jpg","images/alien4","images/alien3","images/rocket2","images/alien4","images/nothing.png","2","real","false","2","rare","0","2022-02-01 23:06:33.396"
"two-step-fixation","164","753960","0.0-76.0-2.9","754","606","20","Male","false","false","false","true","""event"",""trial"",""time""
""fullscreenenter"",""5"",""14807""
","
","
","""event"",""trial"",""time""
""fullscreenenter"",""5"",""14807""
","
","","images/earth.jpg","","","","","","","","","","","","","","fixation","","","","","",""
"d3-animate-choice","165","756191","0.0-76.0-0.10","754","606","20","Male","false","false","false","true","""event"",""trial"",""time""
""fullscreenenter"",""5"",""14807""
","
","
","""event"",""trial"",""time""
""fullscreenenter"",""5"",""14807""
","
","224.19999998807907","","49","","","3000","1","","","images/earth.jpg","images/rocket1","images/rocket2","null","images/rocket2","","1","real","null","1","","",""
"d3-animate-choice","166","759305","0.0-76.0-1.10","754","606","20","Male","false","false","false","true","""event"",""trial"",""time""
""fullscreenenter"",""5"",""14807""
","
","
","""event"",""trial"",""time""
""fullscreenenter"",""5"",""14807""
","
","1107.7999999970198","","48","","","3000","1","","","images/purpleplanet.jpg","images/alien4","images/alien3","images/rocket2","images/alien4","images/t.png","2","real","false","2","rare","1","2022-02-01 23:06:39.747"
"two-step-fixation","167","760310","0.0-76.0-2.10","754","606","20","Male","false","false","false","true","""event"",""trial"",""time""
""fullscreenenter"",""5"",""14807""
","
","
","""event"",""trial"",""time""
""fullscreenenter"",""5"",""14807""
","
","","images/earth.jpg","","","","","","","","","","","","","","fixation","","","","","",""
"d3-animate-choice","168","762436","0.0-76.0-0.11","754","606","20","Male","false","false","false","true","""event"",""trial"",""time""
""fullscreenenter"",""5"",""14807""
","
","
","""event"",""trial"",""time""
""fullscreenenter"",""5"",""14807""
","
","117.6000000089407","","49","","","3000","1","","","images/earth.jpg","images/rocket1","images/rocket2","null","images/rocket2","","1","real","null","1","","",""
"d3-animate-choice","169","765116","0.0-76.0-1.11","754","606","20","Male","false","false","false","true","""event"",""trial"",""time""
""fullscreenenter"",""5"",""14807""
","
","
","""event"",""trial"",""time""
""fullscreenenter"",""5"",""14807""
","
","672.2000000029802","","48","","","3000","1","","","images/purpleplanet.jpg","images/alien4","images/alien3","images/rocket2","images/alien4","images/t.png","2","real","false","2","rare","1","2022-02-01 23:06:45.558"
"two-step-fixation","170","766121","0.0-76.0-2.11","754","606","20","Male","false","false","false","true","""event"",""trial"",""time""
""fullscreenenter"",""5"",""14807""
","
","
","""event"",""trial"",""time""
""fullscreenenter"",""5"",""14807""
","
","","images/earth.jpg","","","","","","","","","","","","","","fixation","","","","","",""
"d3-animate-choice","171","768422","0.0-76.0-0.12","754","606","20","Male","false","false","false","true","""event"",""trial"",""time""
""fullscreenenter"",""5"",""14807""
","
","
","""event"",""trial"",""time""
""fullscreenenter"",""5"",""14807""
","
","293.5","","49","","","3000","1","","","images/earth.jpg","images/rocket1","images/rocket2","null","images/rocket2","","1","real","null","1","","",""
"d3-animate-choice","172","770925","0.0-76.0-1.12","754","606","20","Male","false","false","false","true","""event"",""trial"",""time""
""fullscreenenter"",""5"",""14807""
","
","
","""event"",""trial"",""time""
""fullscreenenter"",""5"",""14807""
","
","496","","48","","","3000","1","","","images/purpleplanet.jpg","images/alien4","images/alien3","images/rocket2","images/alien4","images/t.png","2","real","false","2","rare","1","2022-02-01 23:06:51.367"
"two-step-fixation","173","771931","0.0-76.0-2.12","754","606","20","Male","false","false","false","true","""event"",""trial"",""time""
""fullscreenenter"",""5"",""14807""
","
","
","""event"",""trial"",""time""
""fullscreenenter"",""5"",""14807""
","
","","images/earth.jpg","","","","","","","","","","","","","","fixation","","","","","",""
"d3-animate-choice","174","774177","0.0-76.0-0.13","754","606","20","Male","false","false","false","true","""event"",""trial"",""time""
""fullscreenenter"",""5"",""14807""
","
","
","""event"",""trial"",""time""
""fullscreenenter"",""5"",""14807""
","
","242.90000000596046","","49","","","3000","1","","","images/earth.jpg","images/rocket1","images/rocket2","null","images/rocket2","","1","real","null","1","","",""
"d3-animate-choice","175","776652","0.0-76.0-1.13","754","606","20","Male","false","false","false","true","""event"",""trial"",""time""
""fullscreenenter"",""5"",""14807""
","
","
","""event"",""trial"",""time""
""fullscreenenter"",""5"",""14807""
","
","469.1000000089407","","48","","","3000","1","","","images/redplanet1.jpg","images/alien2","images/alien1","images/rocket2","images/alien2","images/t.png","2","real","true","2","common","1","2022-02-01 23:06:57.095"
"two-step-fixation","176","777659","0.0-76.0-2.13","754","606","20","Male","false","false","false","true","""event"",""trial"",""time""
""fullscreenenter"",""5"",""14807""
","
","
","""event"",""trial"",""time""
""fullscreenenter"",""5"",""14807""
","
","","images/earth.jpg","","","","","","","","","","","","","","fixation","","","","","",""
"d3-animate-choice","177","779949","0.0-76.0-0.14","754","606","20","Male","false","false","false","true","""event"",""trial"",""time""
""fullscreenenter"",""5"",""14807""
","
","
","""event"",""trial"",""time""
""fullscreenenter"",""5"",""14807""
","
","282.29999999701977","","49","","","3000","1","","","images/earth.jpg","images/rocket1","images/rocket2","null","images/rocket2","","1","real","null","1","","",""
"d3-animate-choice","178","782391","0.0-76.0-1.14","754","606","20","Male","false","false","false","true","""event"",""trial"",""time""
""fullscreenenter"",""5"",""14807""
","
","
","""event"",""trial"",""time""
""fullscreenenter"",""5"",""14807""
","
","436.29999999701977","","48","","","3000","1","","","images/redplanet1.jpg","images/alien2","images/alien1","images/rocket2","images/alien2","images/nothing.png","2","real","true","2","common","0","2022-02-01 23:07:02.833"
"two-step-fixation","179","783398","0.0-76.0-2.14","754","606","20","Male","false","false","false","true","""event"",""trial"",""time""
""fullscreenenter"",""5"",""14807""
","
","
","""event"",""trial"",""time""
""fullscreenenter"",""5"",""14807""
","
","","images/earth.jpg","","","","","","","","","","","","","","fixation","","","","","",""
"d3-animate-choice","180","785656","0.0-76.0-0.15","754","606","20","Male","false","false","false","true","""event"",""trial"",""time""
""fullscreenenter"",""5"",""14807""
","
","
","""event"",""trial"",""time""
""fullscreenenter"",""5"",""14807""
","
","252.3999999910593","","49","","","3000","1","","","images/earth.jpg","images/rocket1","images/rocket2","null","images/rocket2","","1","real","null","1","","",""
"d3-animate-choice","181","788222","0.0-76.0-1.15","754","606","20","Male","false","false","false","true","""event"",""trial"",""time""
""fullscreenenter"",""5"",""14807""
","
","
","""event"",""trial"",""time""
""fullscreenenter"",""5"",""14807""
","
","559.0999999940395","","48","","","3000","1","","","images/purpleplanet.jpg","images/alien4","images/alien3","images/rocket2","images/alien4","images/nothing.png","2","real","false","2","rare","0","2022-02-01 23:07:08.664"
"two-step-fixation","182","789228","0.0-76.0-2.15","754","606","20","Male","false","false","false","true","""event"",""trial"",""time""
""fullscreenenter"",""5"",""14807""
","
","
","""event"",""trial"",""time""
""fullscreenenter"",""5"",""14807""
","
","","images/earth.jpg","","","","","","","","","","","","","","fixation","","","","","",""
"d3-animate-choice","183","791288","0.0-76.0-0.16","754","606","20","Male","false","false","false","true","""event"",""trial"",""time""
""fullscreenenter"",""5"",""14807""
","
","
","""event"",""trial"",""time""
""fullscreenenter"",""5"",""14807""
","
","51.70000000298023","","49","","","3000","1","","","images/earth.jpg","images/rocket1","images/rocket2","null","images/rocket2","","1","real","null","1","","",""
"d3-animate-choice","184","793699","0.0-76.0-1.16","754","606","20","Male","false","false","false","true","""event"",""trial"",""time""
""fullscreenenter"",""5"",""14807""
","
","
","""event"",""trial"",""time""
""fullscreenenter"",""5"",""14807""
","
","404.5","","48","","","3000","1","","","images/redplanet1.jpg","images/alien2","images/alien1","images/rocket2","images/alien2","images/t.png","2","real","true","2","common","1","2022-02-01 23:07:14.142"
"two-step-fixation","185","794706","0.0-76.0-2.16","754","606","20","Male","false","false","false","true","""event"",""trial"",""time""
""fullscreenenter"",""5"",""14807""
","
","
","""event"",""trial"",""time""
""fullscreenenter"",""5"",""14807""
","
","","images/earth.jpg","","","","","","","","","","","","","","fixation","","","","","",""
"d3-animate-choice","186","796918","0.0-76.0-0.17","754","606","20","Male","false","false","false","true","""event"",""trial"",""time""
""fullscreenenter"",""5"",""14807""
","
","
","""event"",""trial"",""time""
""fullscreenenter"",""5"",""14807""
","
","204.5","","49","","","3000","1","","","images/earth.jpg","images/rocket1","images/rocket2","null","images/rocket2","","1","real","null","1","","",""
"d3-animate-choice","187","799421","0.0-76.0-1.17","754","606","20","Male","false","false","false","true","""event"",""trial"",""time""
""fullscreenenter"",""5"",""14807""
","
","
","""event"",""trial"",""time""
""fullscreenenter"",""5"",""14807""
","
","497.90000000596046","","48","","","3000","1","","","images/purpleplanet.jpg","images/alien4","images/alien3","images/rocket2","images/alien4","images/t.png","2","real","false","2","rare","1","2022-02-01 23:07:19.864"
"two-step-fixation","188","800425","0.0-76.0-2.17","754","606","20","Male","false","false","false","true","""event"",""trial"",""time""
""fullscreenenter"",""5"",""14807""
","
","
","""event"",""trial"",""time""
""fullscreenenter"",""5"",""14807""
","
","","images/earth.jpg","","","","","","","","","","","","","","fixation","","","","","",""
"d3-animate-choice","189","802476","0.0-76.0-0.18","754","606","20","Male","false","false","false","true","""event"",""trial"",""time""
""fullscreenenter"",""5"",""14807""
","
","
","""event"",""trial"",""time""
""fullscreenenter"",""5"",""14807""
","
","43.20000000298023","","49","","","3000","1","","","images/earth.jpg","images/rocket1","images/rocket2","null","images/rocket2","","1","real","null","1","","",""
"d3-animate-choice","190","804914","0.0-76.0-1.18","754","606","20","Male","false","false","false","true","""event"",""trial"",""time""
""fullscreenenter"",""5"",""14807""
","
","
","""event"",""trial"",""time""
""fullscreenenter"",""5"",""14807""
","
","432.5","","48","","","3000","1","","","images/redplanet1.jpg","images/alien2","images/alien1","images/rocket2","images/alien2","images/t.png","2","real","true","2","common","1","2022-02-01 23:07:25.357"
"two-step-fixation","191","805921","0.0-76.0-2.18","754","606","20","Male","false","false","false","true","""event"",""trial"",""time""
""fullscreenenter"",""5"",""14807""
","
","
","""event"",""trial"",""time""
""fullscreenenter"",""5"",""14807""
","
","","images/earth.jpg","","","","","","","","","","","","","","fixation","","","","","",""
"d3-animate-choice","192","808460","0.0-76.0-0.19","754","606","20","Male","false","false","false","true","""event"",""trial"",""time""
""fullscreenenter"",""5"",""14807""
","
","
","""event"",""trial"",""time""
""fullscreenenter"",""5"",""14807""
","
","533.3999999910593","","49","","","3000","1","","","images/earth.jpg","images/rocket1","images/rocket2","null","images/rocket2","","1","real","null","1","","",""
"d3-animate-choice","193","810897","0.0-76.0-1.19","754","606","20","Male","false","false","false","true","""event"",""trial"",""time""
""fullscreenenter"",""5"",""14807""
","
","
","""event"",""trial"",""time""
""fullscreenenter"",""5"",""14807""
","
","431.70000000298023","","48","","","3000","1","","","images/purpleplanet.jpg","images/alien4","images/alien3","images/rocket2","images/alien4","images/t.png","2","real","false","2","rare","1","2022-02-01 23:07:31.339"
"two-step-fixation","194","811905","0.0-76.0-2.19","754","606","20","Male","false","false","false","true","""event"",""trial"",""time""
""fullscreenenter"",""5"",""14807""
","
","
","""event"",""trial"",""time""
""fullscreenenter"",""5"",""14807""
","
","","images/earth.jpg","","","","","","","","","","","","","","fixation","","","","","",""
"d3-animate-choice","195","814131","0.0-76.0-0.20","754","606","20","Male","false","false","false","true","""event"",""trial"",""time""
""fullscreenenter"",""5"",""14807""
","
","
","""event"",""trial"",""time""
""fullscreenenter"",""5"",""14807""
","
","219.70000000298023","","49","","","3000","1","","","images/earth.jpg","images/rocket1","images/rocket2","null","images/rocket2","","1","real","null","1","","",""
"d3-animate-choice","196","816645","0.0-76.0-1.20","754","606","20","Male","false","false","false","true","""event"",""trial"",""time""
""fullscreenenter"",""5"",""14807""
","
","
","""event"",""trial"",""time""
""fullscreenenter"",""5"",""14807""
","
","507.20000000298023","","48","","","3000","1","","","images/purpleplanet.jpg","images/alien4","images/alien3","images/rocket2","images/alien4","images/t.png","2","real","false","2","rare","1","2022-02-01 23:07:37.088"
"two-step-fixation","197","817652","0.0-76.0-2.20","754","606","20","Male","false","false","false","true","""event"",""trial"",""time""
""fullscreenenter"",""5"",""14807""
","
","
","""event"",""trial"",""time""
""fullscreenenter"",""5"",""14807""
","
","","images/earth.jpg","","","","","","","","","","","","","","fixation","","","","","",""
"d3-animate-choice","198","819886","0.0-76.0-0.21","754","606","20","Male","false","false","false","true","""event"",""trial"",""time""
""fullscreenenter"",""5"",""14807""
","
","
","""event"",""trial"",""time""
""fullscreenenter"",""5"",""14807""
","
","225.70000000298023","","49","","","3000","1","","","images/earth.jpg","images/rocket1","images/rocket2","null","images/rocket2","","1","real","null","1","","",""
"d3-animate-choice","199","822310","0.0-76.0-1.21","754","606","20","Male","false","false","false","true","""event"",""trial"",""time""
""fullscreenenter"",""5"",""14807""
","
","
","""event"",""trial"",""time""
""fullscreenenter"",""5"",""14807""
","
","416.5","","48","","","3000","1","","","images/redplanet1.jpg","images/alien2","images/alien1","images/rocket2","images/alien2","images/t.png","2","real","true","2","common","1","2022-02-01 23:07:42.752"
"two-step-fixation","200","823317","0.0-76.0-2.21","754","606","20","Male","false","false","false","true","""event"",""trial"",""time""
""fullscreenenter"",""5"",""14807""
","
","
","""event"",""trial"",""time""
""fullscreenenter"",""5"",""14807""
","
","","images/earth.jpg","","","","","","","","","","","","","","fixation","","","","","",""
"d3-animate-choice","201","825551","0.0-76.0-0.22","754","606","20","Male","false","false","false","true","""event"",""trial"",""time""
""fullscreenenter"",""5"",""14807""
","
","
","""event"",""trial"",""time""
""fullscreenenter"",""5"",""14807""
","
","227.1000000089407","","49","","","3000","1","","","images/earth.jpg","images/rocket1","images/rocket2","null","images/rocket2","","1","real","null","1","","",""
"d3-animate-choice","202","827925","0.0-76.0-1.22","754","606","20","Male","false","false","false","true","""event"",""trial"",""time""
""fullscreenenter"",""5"",""14807""
","
","
","""event"",""trial"",""time""
""fullscreenenter"",""5"",""14807""
","
","369","","48","","","3000","1","","","images/redplanet1.jpg","images/alien2","images/alien1","images/rocket2","images/alien2","images/t.png","2","real","true","2","common","1","2022-02-01 23:07:48.367"
"two-step-fixation","203","828933","0.0-76.0-2.22","754","606","20","Male","false","false","false","true","""event"",""trial"",""time""
""fullscreenenter"",""5"",""14807""
","
","
","""event"",""trial"",""time""
""fullscreenenter"",""5"",""14807""
","
","","images/earth.jpg","","","","","","","","","","","","","","fixation","","","","","",""
"d3-animate-choice","204","831112","0.0-76.0-0.23","754","606","20","Male","false","false","false","true","""event"",""trial"",""time""
""fullscreenenter"",""5"",""14807""
","
","
","""event"",""trial"",""time""
""fullscreenenter"",""5"",""14807""
","
","172.3999999910593","","49","","","3000","1","","","images/earth.jpg","images/rocket1","images/rocket2","null","images/rocket2","","1","real","null","1","","",""
"d3-animate-choice","205","833615","0.0-76.0-1.23","754","606","20","Male","false","false","false","true","""event"",""trial"",""time""
""fullscreenenter"",""5"",""14807""
","
","
","""event"",""trial"",""time""
""fullscreenenter"",""5"",""14807""
","
","495.6000000089407","","48","","","3000","1","","","images/purpleplanet.jpg","images/alien4","images/alien3","images/rocket2","images/alien4","images/t.png","2","real","false","2","rare","1","2022-02-01 23:07:54.058"
"two-step-fixation","206","834623","0.0-76.0-2.23","754","606","20","Male","false","false","false","true","""event"",""trial"",""time""
""fullscreenenter"",""5"",""14807""
","
","
","""event"",""trial"",""time""
""fullscreenenter"",""5"",""14807""
","
","","images/earth.jpg","","","","","","","","","","","","","","fixation","","","","","",""
"d3-animate-choice","207","836888","0.0-76.0-0.24","754","606","20","Male","false","false","false","true","""event"",""trial"",""time""
""fullscreenenter"",""5"",""14807""
","
","
","""event"",""trial"",""time""
""fullscreenenter"",""5"",""14807""
","
","257.09999999403954","","49","","","3000","1","","","images/earth.jpg","images/rocket1","images/rocket2","null","images/rocket2","","1","real","null","1","","",""
"d3-animate-choice","208","839304","0.0-76.0-1.24","754","606","20","Male","false","false","false","true","""event"",""trial"",""time""
""fullscreenenter"",""5"",""14807""
","
","
","""event"",""trial"",""time""
""fullscreenenter"",""5"",""14807""
","
","409.09999999403954","","48","","","3000","1","","","images/redplanet1.jpg","images/alien2","images/alien1","images/rocket2","images/alien2","images/t.png","2","real","true","2","common","1","2022-02-01 23:07:59.746"
"two-step-fixation","209","840311","0.0-76.0-2.24","754","606","20","Male","false","false","false","true","""event"",""trial"",""time""
""fullscreenenter"",""5"",""14807""
","
","
","""event"",""trial"",""time""
""fullscreenenter"",""5"",""14807""
","
","","images/earth.jpg","","","","","","","","","","","","","","fixation","","","","","",""
"d3-animate-choice","210","842560","0.0-76.0-0.25","754","606","20","Male","false","false","false","true","""event"",""trial"",""time""
""fullscreenenter"",""5"",""14807""
","
","
","""event"",""trial"",""time""
""fullscreenenter"",""5"",""14807""
","
","241.90000000596046","","49","","","3000","1","","","images/earth.jpg","images/rocket1","images/rocket2","null","images/rocket2","","1","real","null","1","","",""
"d3-animate-choice","211","844913","0.0-76.0-1.25","754","606","20","Male","false","false","false","true","""event"",""trial"",""time""
""fullscreenenter"",""5"",""14807""
","
","
","""event"",""trial"",""time""
""fullscreenenter"",""5"",""14807""
","
","346.59999999403954","","48","","","3000","1","","","images/redplanet1.jpg","images/alien2","images/alien1","images/rocket2","images/alien2","images/t.png","2","real","true","2","common","1","2022-02-01 23:08:05.356"
"two-step-fixation","212","845921","0.0-76.0-2.25","754","606","20","Male","false","false","false","true","""event"",""trial"",""time""
""fullscreenenter"",""5"",""14807""
","
","
","""event"",""trial"",""time""
""fullscreenenter"",""5"",""14807""
","
","","images/earth.jpg","","","","","","","","","","","","","","fixation","","","","","",""
"d3-animate-choice","213","848127","0.0-76.0-0.26","754","606","20","Male","false","false","false","true","""event"",""trial"",""time""
""fullscreenenter"",""5"",""14807""
","
","
","""event"",""trial"",""time""
""fullscreenenter"",""5"",""14807""
","
","200.70000000298023","","49","","","3000","1","","","images/earth.jpg","images/rocket1","images/rocket2","null","images/rocket2","","1","real","null","1","","",""
"d3-animate-choice","214","850558","0.0-76.0-1.26","754","606","20","Male","false","false","false","true","""event"",""trial"",""time""
""fullscreenenter"",""5"",""14807""
","
","
","""event"",""trial"",""time""
""fullscreenenter"",""5"",""14807""
","
","424.70000000298023","","48","","","3000","1","","","images/redplanet1.jpg","images/alien2","images/alien1","images/rocket2","images/alien2","images/t.png","2","real","true","2","common","1","2022-02-01 23:08:11.000"
"two-step-fixation","215","851566","0.0-76.0-2.26","754","606","20","Male","false","false","false","true","""event"",""trial"",""time""
""fullscreenenter"",""5"",""14807""
","
","
","""event"",""trial"",""time""
""fullscreenenter"",""5"",""14807""
","
","","images/earth.jpg","","","","","","","","","","","","","","fixation","","","","","",""
"d3-animate-choice","216","853800","0.0-76.0-0.27","754","606","20","Male","false","false","false","true","""event"",""trial"",""time""
""fullscreenenter"",""5"",""14807""
","
","
","""event"",""trial"",""time""
""fullscreenenter"",""5"",""14807""
","
","227.5","","49","","","3000","1","","","images/earth.jpg","images/rocket1","images/rocket2","null","images/rocket2","","1","real","null","1","","",""
"d3-animate-choice","217","856177","0.0-76.0-1.27","754","606","20","Male","false","false","false","true","""event"",""trial"",""time""
""fullscreenenter"",""5"",""14807""
","
","
","""event"",""trial"",""time""
""fullscreenenter"",""5"",""14807""
","
","367.29999999701977","","48","","","3000","1","","","images/purpleplanet.jpg","images/alien4","images/alien3","images/rocket2","images/alien4","images/t.png","2","real","false","2","rare","1","2022-02-01 23:08:16.619"
"two-step-fixation","218","857183","0.0-76.0-2.27","754","606","20","Male","false","false","false","true","""event"",""trial"",""time""
""fullscreenenter"",""5"",""14807""
","
","
","""event"",""trial"",""time""
""fullscreenenter"",""5"",""14807""
","
","","images/earth.jpg","","","","","","","","","","","","","","fixation","","","","","",""
"d3-animate-choice","219","859218","0.0-76.0-0.28","754","606","20","Male","false","false","false","true","""event"",""trial"",""time""
""fullscreenenter"",""5"",""14807""
","
","
","""event"",""trial"",""time""
""fullscreenenter"",""5"",""14807""
","
","28.200000002980232","","49","","","3000","1","","","images/earth.jpg","images/rocket1","images/rocket2","null","images/rocket2","","1","real","null","1","","",""
"d3-animate-choice","220","861587","0.0-76.0-1.28","754","606","20","Male","false","false","false","true","""event"",""trial"",""time""
""fullscreenenter"",""5"",""14807""
","
","
","""event"",""trial"",""time""
""fullscreenenter"",""5"",""14807""
","
","361.40000000596046","","48","","","3000","1","","","images/redplanet1.jpg","images/alien2","images/alien1","images/rocket2","images/alien2","images/t.png","2","real","true","2","common","1","2022-02-01 23:08:22.029"
"two-step-fixation","221","862592","0.0-76.0-2.28","754","606","20","Male","false","false","false","true","""event"",""trial"",""time""
""fullscreenenter"",""5"",""14807""
","
","
","""event"",""trial"",""time""
""fullscreenenter"",""5"",""14807""
","
","","images/earth.jpg","","","","","","","","","","","","","","fixation","","","","","",""
"d3-animate-choice","222","864759","0.0-76.0-0.29","754","606","20","Male","false","false","false","true","""event"",""trial"",""time""
""fullscreenenter"",""5"",""14807""
","
","
","""event"",""trial"",""time""
""fullscreenenter"",""5"",""14807""
","
","159.3999999910593","","49","","","3000","1","","","images/earth.jpg","images/rocket1","images/rocket2","null","images/rocket2","","1","real","null","1","","",""
"d3-animate-choice","223","867162","0.0-76.0-1.29","754","606","20","Male","false","false","false","true","""event"",""trial"",""time""
""fullscreenenter"",""5"",""14807""
","
","
","""event"",""trial"",""time""
""fullscreenenter"",""5"",""14807""
","
","395.6000000089407","","48","","","3000","1","","","images/redplanet1.jpg","images/alien2","images/alien1","images/rocket2","images/alien2","images/t.png","2","real","true","2","common","1","2022-02-01 23:08:27.604"
"two-step-fixation","224","868169","0.0-76.0-2.29","754","606","20","Male","false","false","false","true","""event"",""trial"",""time""
""fullscreenenter"",""5"",""14807""
","
","
","""event"",""trial"",""time""
""fullscreenenter"",""5"",""14807""
","
","","images/earth.jpg","","","","","","","","","","","","","","fixation","","","","","",""
"d3-animate-choice","225","870392","0.0-76.0-0.30","754","606","20","Male","false","false","false","true","""event"",""trial"",""time""
""fullscreenenter"",""5"",""14807""
","
","
","""event"",""trial"",""time""
""fullscreenenter"",""5"",""14807""
","
","215.70000000298023","","49","","","3000","1","","","images/earth.jpg","images/rocket1","images/rocket2","null","images/rocket2","","1","real","null","1","","",""
"d3-animate-choice","226","873035","0.0-76.0-1.30","754","606","20","Male","false","false","false","true","""event"",""trial"",""time""
""fullscreenenter"",""5"",""14807""
","
","
","""event"",""trial"",""time""
""fullscreenenter"",""5"",""14807""
","
","635.2999999970198","","48","","","3000","1","","","images/redplanet1.jpg","images/alien2","images/alien1","images/rocket2","images/alien2","images/t.png","2","real","true","2","common","1","2022-02-01 23:08:33.477"
"two-step-fixation","227","874043","0.0-76.0-2.30","754","606","20","Male","false","false","false","true","""event"",""trial"",""time""
""fullscreenenter"",""5"",""14807""
","
","
","""event"",""trial"",""time""
""fullscreenenter"",""5"",""14807""
","
","","images/earth.jpg","","","","","","","","","","","","","","fixation","","","","","",""
"d3-animate-choice","228","876211","0.0-76.0-0.31","754","606","20","Male","false","false","false","true","""event"",""trial"",""time""
""fullscreenenter"",""5"",""14807""
","
","
","""event"",""trial"",""time""
""fullscreenenter"",""5"",""14807""
","
","160.79999999701977","","49","","","3000","1","","","images/earth.jpg","images/rocket1","images/rocket2","null","images/rocket2","","1","real","null","1","","",""
"d3-animate-choice","229","878832","0.0-76.0-1.31","754","606","20","Male","false","false","false","true","""event"",""trial"",""time""
""fullscreenenter"",""5"",""14807""
","
","
","""event"",""trial"",""time""
""fullscreenenter"",""5"",""14807""
","
","614.2000000029802","","48","","","3000","1","","","images/redplanet1.jpg","images/alien2","images/alien1","images/rocket2","images/alien2","images/nothing.png","2","real","true","2","common","0","2022-02-01 23:08:39.274"
"two-step-fixation","230","879835","0.0-76.0-2.31","754","606","20","Male","false","false","false","true","""event"",""trial"",""time""
""fullscreenenter"",""5"",""14807""
","
","
","""event"",""trial"",""time""
""fullscreenenter"",""5"",""14807""
","
","","images/earth.jpg","","","","","","","","","","","","","","fixation","","","","","",""
"d3-animate-choice","231","882079","0.0-76.0-0.32","754","606","20","Male","false","false","false","true","""event"",""trial"",""time""
""fullscreenenter"",""5"",""14807""
","
","
","""event"",""trial"",""time""
""fullscreenenter"",""5"",""14807""
","
","241","","49","","","3000","1","","","images/earth.jpg","images/rocket1","images/rocket2","null","images/rocket2","","1","real","null","1","","",""
"d3-animate-choice","232","884488","0.0-76.0-1.32","754","606","20","Male","false","false","false","true","""event"",""trial"",""time""
""fullscreenenter"",""5"",""14807""
","
","
","""event"",""trial"",""time""
""fullscreenenter"",""5"",""14807""
","
","402.59999999403954","","48","","","3000","1","","","images/redplanet1.jpg","images/alien2","images/alien1","images/rocket2","images/alien2","images/nothing.png","2","real","true","2","common","0","2022-02-01 23:08:44.930"
"two-step-fixation","233","885495","0.0-76.0-2.32","754","606","20","Male","false","false","false","true","""event"",""trial"",""time""
""fullscreenenter"",""5"",""14807""
","
","
","""event"",""trial"",""time""
""fullscreenenter"",""5"",""14807""
","
","","images/earth.jpg","","","","","","","","","","","","","","fixation","","","","","",""
"d3-animate-choice","234","887757","0.0-76.0-0.33","754","606","20","Male","false","false","false","true","""event"",""trial"",""time""
""fullscreenenter"",""5"",""14807""
","
","
","""event"",""trial"",""time""
""fullscreenenter"",""5"",""14807""
","
","254.8999999910593","","49","","","3000","1","","","images/earth.jpg","images/rocket1","images/rocket2","null","images/rocket2","","1","real","null","1","","",""
"d3-animate-choice","235","890107","0.0-76.0-1.33","754","606","20","Male","false","false","false","true","""event"",""trial"",""time""
""fullscreenenter"",""5"",""14807""
","
","
","""event"",""trial"",""time""
""fullscreenenter"",""5"",""14807""
","
","343.5","","48","","","3000","1","","","images/redplanet1.jpg","images/alien2","images/alien1","images/rocket2","images/alien2","images/t.png","2","real","true","2","common","1","2022-02-01 23:08:50.549"
"two-step-fixation","236","891110","0.0-76.0-2.33","754","606","20","Male","false","false","false","true","""event"",""trial"",""time""
""fullscreenenter"",""5"",""14807""
","
","
","""event"",""trial"",""time""
""fullscreenenter"",""5"",""14807""
","
","","images/earth.jpg","","","","","","","","","","","","","","fixation","","","","","",""
"d3-animate-choice","237","893361","0.0-76.0-0.34","754","606","20","Male","false","false","false","true","""event"",""trial"",""time""
""fullscreenenter"",""5"",""14807""
","
","
","""event"",""trial"",""time""
""fullscreenenter"",""5"",""14807""
","
","242.40000000596046","","49","","","3000","1","","","images/earth.jpg","images/rocket1","images/rocket2","null","images/rocket2","","1","real","null","1","","",""
"d3-animate-choice","238","895745","0.0-76.0-1.34","754","606","20","Male","false","false","false","true","""event"",""trial"",""time""
""fullscreenenter"",""5"",""14807""
","
","
","""event"",""trial"",""time""
""fullscreenenter"",""5"",""14807""
","
","377.59999999403954","","48","","","3000","1","","","images/purpleplanet.jpg","images/alien4","images/alien3","images/rocket2","images/alien4","images/t.png","2","real","false","2","rare","1","2022-02-01 23:08:56.188"
"two-step-fixation","239","896751","0.0-76.0-2.34","754","606","20","Male","false","false","false","true","""event"",""trial"",""time""
""fullscreenenter"",""5"",""14807""
","
","
","""event"",""trial"",""time""
""fullscreenenter"",""5"",""14807""
","
","","images/earth.jpg","","","","","","","","","","","","","","fixation","","","","","",""
"d3-animate-choice","240","898968","0.0-76.0-0.35","754","606","20","Male","false","false","false","true","""event"",""trial"",""time""
""fullscreenenter"",""5"",""14807""
","
","
","""event"",""trial"",""time""
""fullscreenenter"",""5"",""14807""
","
","211.1000000089407","","49","","","3000","1","","","images/earth.jpg","images/rocket1","images/rocket2","null","images/rocket2","","1","real","null","1","","",""
"d3-animate-choice","241","901379","0.0-76.0-1.35","754","606","20","Male","false","false","false","true","""event"",""trial"",""time""
""fullscreenenter"",""5"",""14807""
","
","
","""event"",""trial"",""time""
""fullscreenenter"",""5"",""14807""
","
","402.90000000596046","","48","","","3000","1","","","images/redplanet1.jpg","images/alien2","images/alien1","images/rocket2","images/alien2","images/t.png","2","real","true","2","common","1","2022-02-01 23:09:01.822"
"two-step-fixation","242","902386","0.0-76.0-2.35","754","606","20","Male","false","false","false","true","""event"",""trial"",""time""
""fullscreenenter"",""5"",""14807""
","
","
","""event"",""trial"",""time""
""fullscreenenter"",""5"",""14807""
","
","","images/earth.jpg","","","","","","","","","","","","","","fixation","","","","","",""
"d3-animate-choice","243","904631","0.0-76.0-0.36","754","606","20","Male","false","false","false","true","""event"",""trial"",""time""
""fullscreenenter"",""5"",""14807""
","
","
","""event"",""trial"",""time""
""fullscreenenter"",""5"",""14807""
","
","236.59999999403954","","49","","","3000","1","","","images/earth.jpg","images/rocket1","images/rocket2","null","images/rocket2","","1","real","null","1","","",""
"d3-animate-choice","244","907182","0.0-76.0-1.36","754","606","20","Male","false","false","false","true","""event"",""trial"",""time""
""fullscreenenter"",""5"",""14807""
","
","
","""event"",""trial"",""time""
""fullscreenenter"",""5"",""14807""
","
","544","","48","","","3000","1","","","images/purpleplanet.jpg","images/alien4","images/alien3","images/rocket2","images/alien4","images/t.png","2","real","false","2","rare","1","2022-02-01 23:09:07.625"
"two-step-fixation","245","908190","0.0-76.0-2.36","754","606","20","Male","false","false","false","true","""event"",""trial"",""time""
""fullscreenenter"",""5"",""14807""
","
","
","""event"",""trial"",""time""
""fullscreenenter"",""5"",""14807""
","
","","images/earth.jpg","","","","","","","","","","","","","","fixation","","","","","",""
"d3-animate-choice","246","910268","0.0-76.0-0.37","754","606","20","Male","false","false","false","true","""event"",""trial"",""time""
""fullscreenenter"",""5"",""14807""
","
","
","""event"",""trial"",""time""
""fullscreenenter"",""5"",""14807""
","
","72.40000000596046","","49","","","3000","1","","","images/earth.jpg","images/rocket1","images/rocket2","null","images/rocket2","","1","real","null","1","","",""
"d3-animate-choice","247","912756","0.0-76.0-1.37","754","606","20","Male","false","false","false","true","""event"",""trial"",""time""
""fullscreenenter"",""5"",""14807""
","
","
","""event"",""trial"",""time""
""fullscreenenter"",""5"",""14807""
","
