trial_type,trial_index,time_elapsed,internal_node_id,participant_id,subject_id,age,gender,rocket_sides,red_planet_first_rocket,red_display_order,purple_display_order,interactions,blur_events,focus_events,fullscreenenter_events,fullscreenexit_events,rt,stimulus,key_press,button_pressed,success,duration,valid_pressed,rts,keys,planet_text,right_text,left_text,center_text,chosen_text,reward_text,trial_stage,practice_trial,transition_type,reward,timestamp,choice,transition
pavlovia,0,17,0.0-0.0,1463,1657,8,Female,FALSE,TRUE,TRUE,FALSE,"""event"",""trial"",""time""
""focus"",""1"",""35905""
","
","""event"",""trial"",""time""
""focus"",""1"",""35905""
","
","
",,,,,,,,,,,,,,,,,,,,,,
html-keyboard-response,1,38166,0.0-1.0,1463,1657,8,Female,FALSE,TRUE,TRUE,FALSE,"""event"",""trial"",""time""
""focus"",""1"",""35905""
","
","""event"",""trial"",""time""
""focus"",""1"",""35905""
","
","
",38146.3,Welcome! Press the space bar to begin.,32,,,,,,,,,,,,,,,,,,,
audio-keyboard-response,2,40753,0.0-2.0,1463,1657,8,Female,FALSE,TRUE,TRUE,FALSE,"""event"",""trial"",""time""
""focus"",""1"",""35905""
","
","""event"",""trial"",""time""
""focus"",""1"",""35905""
","
","
",1309,audio/beep_loop.wav,175,,,,,,,,,,,,,,,,,,,
audio-button-response,3,46833,0.0-3.0,1463,1657,8,Female,FALSE,TRUE,TRUE,FALSE,"""event"",""trial"",""time""
""focus"",""1"",""35905""
","
","""event"",""trial"",""time""
""focus"",""1"",""35905""
","
","
",NaN,audio/fish.mp3,,1,,,,,,,,,,,,,,,,,,
audio-button-response,4,49339,0.0-4.0,1463,1657,8,Female,FALSE,TRUE,TRUE,FALSE,"""event"",""trial"",""time""
""focus"",""1"",""35905""
""blur"",""5"",""53201""
""focus"",""5"",""221911""
""blur"",""5"",""224679""
""focus"",""5"",""226201""
""fullscreenenter"",""5"",""227030""
","""event"",""trial"",""time""
""blur"",""5"",""53201""
""blur"",""5"",""224679""
","""event"",""trial"",""time""
""focus"",""1"",""35905""
""focus"",""5"",""221911""
""focus"",""5"",""226201""
","""event"",""trial"",""time""
""fullscreenenter"",""5"",""227030""
","
",NaN,audio/tiger.mp3,,4,,,,,,,,,,,,,,,,,,
fullscreen,5,227954,0.0-5.0,1463,1657,8,Female,FALSE,TRUE,TRUE,FALSE,"""event"",""trial"",""time""
""focus"",""1"",""35905""
""blur"",""5"",""53201""
""focus"",""5"",""221911""
""blur"",""5"",""224679""
""focus"",""5"",""226201""
""fullscreenenter"",""5"",""227030""
","""event"",""trial"",""time""
""blur"",""5"",""53201""
""blur"",""5"",""224679""
","""event"",""trial"",""time""
""focus"",""1"",""35905""
""focus"",""5"",""221911""
""focus"",""5"",""226201""
","""event"",""trial"",""time""
""fullscreenenter"",""5"",""227030""
","
",,,,,TRUE,,,,,,,,,,,,,,,,,
d3-instructions,6,282269,0.0-6.0,1463,1657,8,Female,FALSE,TRUE,TRUE,FALSE,"""event"",""trial"",""time""
""focus"",""1"",""35905""
""blur"",""5"",""53201""
""focus"",""5"",""221911""
""blur"",""5"",""224679""
""focus"",""5"",""226201""
""fullscreenenter"",""5"",""227030""
","""event"",""trial"",""time""
""blur"",""5"",""53201""
""blur"",""5"",""224679""
","""event"",""trial"",""time""
""focus"",""1"",""35905""
""focus"",""5"",""221911""
""focus"",""5"",""226201""
","""event"",""trial"",""time""
""fullscreenenter"",""5"",""227030""
","
",,,,,,,,,,,,,,,,,,,,,,
d3-instructions,7,293383,0.0-7.0,1463,1657,8,Female,FALSE,TRUE,TRUE,FALSE,"""event"",""trial"",""time""
""focus"",""1"",""35905""
""blur"",""5"",""53201""
""focus"",""5"",""221911""
""blur"",""5"",""224679""
""focus"",""5"",""226201""
""fullscreenenter"",""5"",""227030""
","""event"",""trial"",""time""
""blur"",""5"",""53201""
""blur"",""5"",""224679""
","""event"",""trial"",""time""
""focus"",""1"",""35905""
""focus"",""5"",""221911""
""focus"",""5"",""226201""
","""event"",""trial"",""time""
""fullscreenenter"",""5"",""227030""
","
",,,,,,,,,,,,,,,,,,,,,,
d3-instructions,8,301217,0.0-8.0,1463,1657,8,Female,FALSE,TRUE,TRUE,FALSE,"""event"",""trial"",""time""
""focus"",""1"",""35905""
""blur"",""5"",""53201""
""focus"",""5"",""221911""
""blur"",""5"",""224679""
""focus"",""5"",""226201""
""fullscreenenter"",""5"",""227030""
","""event"",""trial"",""time""
""blur"",""5"",""53201""
""blur"",""5"",""224679""
","""event"",""trial"",""time""
""focus"",""1"",""35905""
""focus"",""5"",""221911""
""focus"",""5"",""226201""
","""event"",""trial"",""time""
""fullscreenenter"",""5"",""227030""
","
",,,,,,,,,,,,,,,,,,,,,,
d3-instructions,9,313133,0.0-9.0,1463,1657,8,Female,FALSE,TRUE,TRUE,FALSE,"""event"",""trial"",""time""
""focus"",""1"",""35905""
""blur"",""5"",""53201""
""focus"",""5"",""221911""
""blur"",""5"",""224679""
""focus"",""5"",""226201""
""fullscreenenter"",""5"",""227030""
","""event"",""trial"",""time""
""blur"",""5"",""53201""
""blur"",""5"",""224679""
","""event"",""trial"",""time""
""focus"",""1"",""35905""
""focus"",""5"",""221911""
""focus"",""5"",""226201""
","""event"",""trial"",""time""
""fullscreenenter"",""5"",""227030""
","
",,,,,,,,,,,,,,,,,,,,,,
d3-instructions,10,333458,0.0-10.0,1463,1657,8,Female,FALSE,TRUE,TRUE,FALSE,"""event"",""trial"",""time""
""focus"",""1"",""35905""
""blur"",""5"",""53201""
""focus"",""5"",""221911""
""blur"",""5"",""224679""
""focus"",""5"",""226201""
""fullscreenenter"",""5"",""227030""
","""event"",""trial"",""time""
""blur"",""5"",""53201""
""blur"",""5"",""224679""
","""event"",""trial"",""time""
""focus"",""1"",""35905""
""focus"",""5"",""221911""
""focus"",""5"",""226201""
","""event"",""trial"",""time""
""fullscreenenter"",""5"",""227030""
","
",,,,,,,,,,,,,,,,,,,,,,
d3-animate-choice,11,339191,0.0-11.0,1463,1657,8,Female,FALSE,TRUE,TRUE,FALSE,"""event"",""trial"",""time""
""focus"",""1"",""35905""
""blur"",""5"",""53201""
""focus"",""5"",""221911""
""blur"",""5"",""224679""
""focus"",""5"",""226201""
""fullscreenenter"",""5"",""227030""
","""event"",""trial"",""time""
""blur"",""5"",""53201""
""blur"",""5"",""224679""
","""event"",""trial"",""time""
""focus"",""1"",""35905""
""focus"",""5"",""221911""
""focus"",""5"",""226201""
","""event"",""trial"",""time""
""fullscreenenter"",""5"",""227030""
","
",3720.5,,49,,,3000,1,,,images/tutgreenplanet.jpg,images/tutalien1,images/tutalien2,null,images/tutalien2,,NA,practice,null,,,,
d3-animate-choice,12,344395,0.0-12.0,1463,1657,8,Female,FALSE,TRUE,TRUE,FALSE,"""event"",""trial"",""time""
""focus"",""1"",""35905""
""blur"",""5"",""53201""
""focus"",""5"",""221911""
""blur"",""5"",""224679""
""focus"",""5"",""226201""
""fullscreenenter"",""5"",""227030""
","""event"",""trial"",""time""
""blur"",""5"",""53201""
""blur"",""5"",""224679""
","""event"",""trial"",""time""
""focus"",""1"",""35905""
""focus"",""5"",""221911""
""focus"",""5"",""226201""
","""event"",""trial"",""time""
""fullscreenenter"",""5"",""227030""
","
",3193.3,,48,,,3000,1,,,images/tutgreenplanet.jpg,images/tutalien1,images/tutalien2,null,images/tutalien1,,NA,practice,null,,,,
d3-animate-choice,13,347593,0.0-13.0,1463,1657,8,Female,FALSE,TRUE,TRUE,FALSE,"""event"",""trial"",""time""
""focus"",""1"",""35905""
""blur"",""5"",""53201""
""focus"",""5"",""221911""
""blur"",""5"",""224679""
""focus"",""5"",""226201""
""fullscreenenter"",""5"",""227030""
","""event"",""trial"",""time""
""blur"",""5"",""53201""
""blur"",""5"",""224679""
","""event"",""trial"",""time""
""focus"",""1"",""35905""
""focus"",""5"",""221911""
""focus"",""5"",""226201""
","""event"",""trial"",""time""
""fullscreenenter"",""5"",""227030""
","
",1184.5,,48,,,3000,1,,,images/tutgreenplanet.jpg,images/tutalien1,images/tutalien2,null,images/tutalien1,,NA,practice,null,,,,
d3-animate-choice,14,350584,0.0-14.0,1463,1657,8,Female,FALSE,TRUE,TRUE,FALSE,"""event"",""trial"",""time""
""focus"",""1"",""35905""
""blur"",""5"",""53201""
""focus"",""5"",""221911""
""blur"",""5"",""224679""
""focus"",""5"",""226201""
""fullscreenenter"",""5"",""227030""
","""event"",""trial"",""time""
""blur"",""5"",""53201""
""blur"",""5"",""224679""
","""event"",""trial"",""time""
""focus"",""1"",""35905""
""focus"",""5"",""221911""
""focus"",""5"",""226201""
","""event"",""trial"",""time""
""fullscreenenter"",""5"",""227030""
","
",977.9,,49,,,3000,1,,,images/tutgreenplanet.jpg,images/tutalien1,images/tutalien2,null,images/tutalien2,,NA,practice,null,,,,
d3-instructions,15,360613,0.0-15.0,1463,1657,8,Female,FALSE,TRUE,TRUE,FALSE,"""event"",""trial"",""time""
""focus"",""1"",""35905""
""blur"",""5"",""53201""
""focus"",""5"",""221911""
""blur"",""5"",""224679""
""focus"",""5"",""226201""
""fullscreenenter"",""5"",""227030""
","""event"",""trial"",""time""
""blur"",""5"",""53201""
""blur"",""5"",""224679""
","""event"",""trial"",""time""
""focus"",""1"",""35905""
""focus"",""5"",""221911""
""focus"",""5"",""226201""
","""event"",""trial"",""time""
""fullscreenenter"",""5"",""227030""
","
",,,,,,,,,,,,,,,,,,,,,,
d3-instructions,16,368681,0.0-16.0,1463,1657,8,Female,FALSE,TRUE,TRUE,FALSE,"""event"",""trial"",""time""
""focus"",""1"",""35905""
""blur"",""5"",""53201""
""focus"",""5"",""221911""
""blur"",""5"",""224679""
""focus"",""5"",""226201""
""fullscreenenter"",""5"",""227030""
","""event"",""trial"",""time""
""blur"",""5"",""53201""
""blur"",""5"",""224679""
","""event"",""trial"",""time""
""focus"",""1"",""35905""
""focus"",""5"",""221911""
""focus"",""5"",""226201""
","""event"",""trial"",""time""
""fullscreenenter"",""5"",""227030""
","
",,,,,,,,,,,,,,,,,,,,,,
d3-instructions,17,378597,0.0-17.0,1463,1657,8,Female,FALSE,TRUE,TRUE,FALSE,"""event"",""trial"",""time""
""focus"",""1"",""35905""
""blur"",""5"",""53201""
""focus"",""5"",""221911""
""blur"",""5"",""224679""
""focus"",""5"",""226201""
""fullscreenenter"",""5"",""227030""
","""event"",""trial"",""time""
""blur"",""5"",""53201""
""blur"",""5"",""224679""
","""event"",""trial"",""time""
""focus"",""1"",""35905""
""focus"",""5"",""221911""
""focus"",""5"",""226201""
","""event"",""trial"",""time""
""fullscreenenter"",""5"",""227030""
","
",,,,,,,,,,,,,,,,,,,,,,
d3-instructions,18,392390,0.0-18.0,1463,1657,8,Female,FALSE,TRUE,TRUE,FALSE,"""event"",""trial"",""time""
""focus"",""1"",""35905""
""blur"",""5"",""53201""
""focus"",""5"",""221911""
""blur"",""5"",""224679""
""focus"",""5"",""226201""
""fullscreenenter"",""5"",""227030""
","""event"",""trial"",""time""
""blur"",""5"",""53201""
""blur"",""5"",""224679""
","""event"",""trial"",""time""
""focus"",""1"",""35905""
""focus"",""5"",""221911""
""focus"",""5"",""226201""
","""event"",""trial"",""time""
""fullscreenenter"",""5"",""227030""
","
",,,,,,,,,,,,,,,,,,,,,,
d3-instructions,19,408253,0.0-19.0,1463,1657,8,Female,FALSE,TRUE,TRUE,FALSE,"""event"",""trial"",""time""
""focus"",""1"",""35905""
""blur"",""5"",""53201""
""focus"",""5"",""221911""
""blur"",""5"",""224679""
""focus"",""5"",""226201""
""fullscreenenter"",""5"",""227030""
","""event"",""trial"",""time""
""blur"",""5"",""53201""
""blur"",""5"",""224679""
","""event"",""trial"",""time""
""focus"",""1"",""35905""
""focus"",""5"",""221911""
""focus"",""5"",""226201""
","""event"",""trial"",""time""
""fullscreenenter"",""5"",""227030""
","
",,,,,,,,,,,,,,,,,,,,,,
d3-animate-choice,20,412163,0.0-20.0,1463,1657,8,Female,FALSE,TRUE,TRUE,FALSE,"""event"",""trial"",""time""
""focus"",""1"",""35905""
""blur"",""5"",""53201""
""focus"",""5"",""221911""
""blur"",""5"",""224679""
""focus"",""5"",""226201""
""fullscreenenter"",""5"",""227030""
","""event"",""trial"",""time""
""blur"",""5"",""53201""
""blur"",""5"",""224679""
","""event"",""trial"",""time""
""focus"",""1"",""35905""
""focus"",""5"",""221911""
""focus"",""5"",""226201""
","""event"",""trial"",""time""
""fullscreenenter"",""5"",""227030""
","
",1898.5,,49,,,3000,1,,,images/tutyellowplanet.jpg,null,images/tutalien3,null,images/tutalien3,images/t.png,NA,practice,null,,,,
d3-animate-choice,21,414974,0.0-21.0,1463,1657,8,Female,FALSE,TRUE,TRUE,FALSE,"""event"",""trial"",""time""
""focus"",""1"",""35905""
""blur"",""5"",""53201""
""focus"",""5"",""221911""
""blur"",""5"",""224679""
""focus"",""5"",""226201""
""fullscreenenter"",""5"",""227030""
","""event"",""trial"",""time""
""blur"",""5"",""53201""
""blur"",""5"",""224679""
","""event"",""trial"",""time""
""focus"",""1"",""35905""
""focus"",""5"",""221911""
""focus"",""5"",""226201""
","""event"",""trial"",""time""
""fullscreenenter"",""5"",""227030""
","
",801.5,,49,,,3000,1,,,images/tutyellowplanet.jpg,null,images/tutalien3,null,images/tutalien3,images/t.png,NA,practice,null,,,,
d3-animate-choice,22,417514,0.0-22.0,1463,1657,8,Female,FALSE,TRUE,TRUE,FALSE,"""event"",""trial"",""time""
""focus"",""1"",""35905""
""blur"",""5"",""53201""
""focus"",""5"",""221911""
""blur"",""5"",""224679""
""focus"",""5"",""226201""
""fullscreenenter"",""5"",""227030""
","""event"",""trial"",""time""
""blur"",""5"",""53201""
""blur"",""5"",""224679""
","""event"",""trial"",""time""
""focus"",""1"",""35905""
""focus"",""5"",""221911""
""focus"",""5"",""226201""
","""event"",""trial"",""time""
""fullscreenenter"",""5"",""227030""
","
",535.5,,49,,,3000,1,,,images/tutyellowplanet.jpg,null,images/tutalien3,null,images/tutalien3,images/t.png,NA,practice,null,,,,
d3-animate-choice,23,420114,0.0-23.0,1463,1657,8,Female,FALSE,TRUE,TRUE,FALSE,"""event"",""trial"",""time""
""focus"",""1"",""35905""
""blur"",""5"",""53201""
""focus"",""5"",""221911""
""blur"",""5"",""224679""
""focus"",""5"",""226201""
""fullscreenenter"",""5"",""227030""
","""event"",""trial"",""time""
""blur"",""5"",""53201""
""blur"",""5"",""224679""
","""event"",""trial"",""time""
""focus"",""1"",""35905""
""focus"",""5"",""221911""
""focus"",""5"",""226201""
","""event"",""trial"",""time""
""fullscreenenter"",""5"",""227030""
","
",591.6,,49,,,3000,1,,,images/tutyellowplanet.jpg,null,images/tutalien3,null,images/tutalien3,images/t.png,NA,practice,null,,,,
d3-animate-choice,24,422500,0.0-24.0,1463,1657,8,Female,FALSE,TRUE,TRUE,FALSE,"""event"",""trial"",""time""
""focus"",""1"",""35905""
""blur"",""5"",""53201""
""focus"",""5"",""221911""
""blur"",""5"",""224679""
""focus"",""5"",""226201""
""fullscreenenter"",""5"",""227030""
","""event"",""trial"",""time""
""blur"",""5"",""53201""
""blur"",""5"",""224679""
","""event"",""trial"",""time""
""focus"",""1"",""35905""
""focus"",""5"",""221911""
""focus"",""5"",""226201""
","""event"",""trial"",""time""
""fullscreenenter"",""5"",""227030""
","
",375.8,,49,,,3000,1,,,images/tutyellowplanet.jpg,null,images/tutalien3,null,images/tutalien3,images/t.png,NA,practice,null,,,,
d3-animate-choice,25,424915,0.0-25.0,1463,1657,8,Female,FALSE,TRUE,TRUE,FALSE,"""event"",""trial"",""time""
""focus"",""1"",""35905""
""blur"",""5"",""53201""
""focus"",""5"",""221911""
""blur"",""5"",""224679""
""focus"",""5"",""226201""
""fullscreenenter"",""5"",""227030""
","""event"",""trial"",""time""
""blur"",""5"",""53201""
""blur"",""5"",""224679""
","""event"",""trial"",""time""
""focus"",""1"",""35905""
""focus"",""5"",""221911""
""focus"",""5"",""226201""
","""event"",""trial"",""time""
""fullscreenenter"",""5"",""227030""
","
",407.8,,49,,,3000,1,,,images/tutyellowplanet.jpg,null,images/tutalien3,null,images/tutalien3,images/t.png,NA,practice,null,,,,
d3-animate-choice,26,427312,0.0-26.0,1463,1657,8,Female,FALSE,TRUE,TRUE,FALSE,"""event"",""trial"",""time""
""focus"",""1"",""35905""
""blur"",""5"",""53201""
""focus"",""5"",""221911""
""blur"",""5"",""224679""
""focus"",""5"",""226201""
""fullscreenenter"",""5"",""227030""
","""event"",""trial"",""time""
""blur"",""5"",""53201""
""blur"",""5"",""224679""
","""event"",""trial"",""time""
""focus"",""1"",""35905""
""focus"",""5"",""221911""
""focus"",""5"",""226201""
","""event"",""trial"",""time""
""fullscreenenter"",""5"",""227030""
","
",382.5,,49,,,3000,1,,,images/tutyellowplanet.jpg,null,images/tutalien3,null,images/tutalien3,images/t.png,NA,practice,null,,,,
d3-animate-choice,27,429793,0.0-27.0,1463,1657,8,Female,FALSE,TRUE,TRUE,FALSE,"""event"",""trial"",""time""
""focus"",""1"",""35905""
""blur"",""5"",""53201""
""focus"",""5"",""221911""
""blur"",""5"",""224679""
""focus"",""5"",""226201""
""fullscreenenter"",""5"",""227030""
","""event"",""trial"",""time""
""blur"",""5"",""53201""
""blur"",""5"",""224679""
","""event"",""trial"",""time""
""focus"",""1"",""35905""
""focus"",""5"",""221911""
""focus"",""5"",""226201""
","""event"",""trial"",""time""
""fullscreenenter"",""5"",""227030""
","
",473.1,,49,,,3000,1,,,images/tutyellowplanet.jpg,null,images/tutalien3,null,images/tutalien3,images/t.png,NA,practice,null,,,,
d3-animate-choice,28,432242,0.0-28.0,1463,1657,8,Female,FALSE,TRUE,TRUE,FALSE,"""event"",""trial"",""time""
""focus"",""1"",""35905""
""blur"",""5"",""53201""
""focus"",""5"",""221911""
""blur"",""5"",""224679""
""focus"",""5"",""226201""
""fullscreenenter"",""5"",""227030""
","""event"",""trial"",""time""
""blur"",""5"",""53201""
""blur"",""5"",""224679""
","""event"",""trial"",""time""
""focus"",""1"",""35905""
""focus"",""5"",""221911""
""focus"",""5"",""226201""
","""event"",""trial"",""time""
""fullscreenenter"",""5"",""227030""
","
",433.7,,49,,,3000,1,,,images/tutyellowplanet.jpg,null,images/tutalien3,null,images/tutalien3,images/t.png,NA,practice,null,,,,
d3-animate-choice,29,434924,0.0-29.0,1463,1657,8,Female,FALSE,TRUE,TRUE,FALSE,"""event"",""trial"",""time""
""focus"",""1"",""35905""
""blur"",""5"",""53201""
""focus"",""5"",""221911""
""blur"",""5"",""224679""
""focus"",""5"",""226201""
""fullscreenenter"",""5"",""227030""
","""event"",""trial"",""time""
""blur"",""5"",""53201""
""blur"",""5"",""224679""
","""event"",""trial"",""time""
""focus"",""1"",""35905""
""focus"",""5"",""221911""
""focus"",""5"",""226201""
","""event"",""trial"",""time""
""fullscreenenter"",""5"",""227030""
","
",664.2,,49,,,3000,1,,,images/tutyellowplanet.jpg,null,images/tutalien3,null,images/tutalien3,images/t.png,NA,practice,null,,,,
d3-instructions,30,442780,0.0-30.0,1463,1657,8,Female,FALSE,TRUE,TRUE,FALSE,"""event"",""trial"",""time""
""focus"",""1"",""35905""
""blur"",""5"",""53201""
""focus"",""5"",""221911""
""blur"",""5"",""224679""
""focus"",""5"",""226201""
""fullscreenenter"",""5"",""227030""
","""event"",""trial"",""time""
""blur"",""5"",""53201""
""blur"",""5"",""224679""
","""event"",""trial"",""time""
""focus"",""1"",""35905""
""focus"",""5"",""221911""
""focus"",""5"",""226201""
","""event"",""trial"",""time""
""fullscreenenter"",""5"",""227030""
","
",,,,,,,,,,,,,,,,,,,,,,
d3-instructions,31,453636,0.0-31.0,1463,1657,8,Female,FALSE,TRUE,TRUE,FALSE,"""event"",""trial"",""time""
""focus"",""1"",""35905""
""blur"",""5"",""53201""
""focus"",""5"",""221911""
""blur"",""5"",""224679""
""focus"",""5"",""226201""
""fullscreenenter"",""5"",""227030""
","""event"",""trial"",""time""
""blur"",""5"",""53201""
""blur"",""5"",""224679""
","""event"",""trial"",""time""
""focus"",""1"",""35905""
""focus"",""5"",""221911""
""focus"",""5"",""226201""
","""event"",""trial"",""time""
""fullscreenenter"",""5"",""227030""
","
",,,,,,,,,,,,,,,,,,,,,,
d3-instructions,32,463347,0.0-32.0,1463,1657,8,Female,FALSE,TRUE,TRUE,FALSE,"""event"",""trial"",""time""
""focus"",""1"",""35905""
""blur"",""5"",""53201""
""focus"",""5"",""221911""
""blur"",""5"",""224679""
""focus"",""5"",""226201""
""fullscreenenter"",""5"",""227030""
","""event"",""trial"",""time""
""blur"",""5"",""53201""
""blur"",""5"",""224679""
","""event"",""trial"",""time""
""focus"",""1"",""35905""
""focus"",""5"",""221911""
""focus"",""5"",""226201""
","""event"",""trial"",""time""
""fullscreenenter"",""5"",""227030""
","
",,,,,,,,,,,,,,,,,,,,,,
d3-instructions,33,474519,0.0-33.0,1463,1657,8,Female,FALSE,TRUE,TRUE,FALSE,"""event"",""trial"",""time""
""focus"",""1"",""35905""
""blur"",""5"",""53201""
""focus"",""5"",""221911""
""blur"",""5"",""224679""
""focus"",""5"",""226201""
""fullscreenenter"",""5"",""227030""
","""event"",""trial"",""time""
""blur"",""5"",""53201""
""blur"",""5"",""224679""
","""event"",""trial"",""time""
""focus"",""1"",""35905""
""focus"",""5"",""221911""
""focus"",""5"",""226201""
","""event"",""trial"",""time""
""fullscreenenter"",""5"",""227030""
","
",,,,,,,,,,,,,,,,,,,,,,
d3-animate-choice,34,478483,0.0-34.0,1463,1657,8,Female,FALSE,TRUE,TRUE,FALSE,"""event"",""trial"",""time""
""focus"",""1"",""35905""
""blur"",""5"",""53201""
""focus"",""5"",""221911""
""blur"",""5"",""224679""
""focus"",""5"",""226201""
""fullscreenenter"",""5"",""227030""
","""event"",""trial"",""time""
""blur"",""5"",""53201""
""blur"",""5"",""224679""
","""event"",""trial"",""time""
""focus"",""1"",""35905""
""focus"",""5"",""221911""
""focus"",""5"",""226201""
","""event"",""trial"",""time""
""fullscreenenter"",""5"",""227030""
","
",1947.8,,49,,,3000,1,,,images/tutgreenplanet.jpg,images/tutalien1,images/tutalien2,null,images/tutalien2,images/t.png,NA,practice,null,,,,
d3-animate-choice,35,481498,0.0-35.0,1463,1657,8,Female,FALSE,TRUE,TRUE,FALSE,"""event"",""trial"",""time""
""focus"",""1"",""35905""
""blur"",""5"",""53201""
""focus"",""5"",""221911""
""blur"",""5"",""224679""
""focus"",""5"",""226201""
""fullscreenenter"",""5"",""227030""
","""event"",""trial"",""time""
""blur"",""5"",""53201""
""blur"",""5"",""224679""
","""event"",""trial"",""time""
""focus"",""1"",""35905""
""focus"",""5"",""221911""
""focus"",""5"",""226201""
","""event"",""trial"",""time""
""fullscreenenter"",""5"",""227030""
","
",1003.3,,49,,,3000,1,,,images/tutgreenplanet.jpg,images/tutalien1,images/tutalien2,null,images/tutalien2,images/t.png,NA,practice,null,,,,
d3-animate-choice,36,484515,0.0-36.0,1463,1657,8,Female,FALSE,TRUE,TRUE,FALSE,"""event"",""trial"",""time""
""focus"",""1"",""35905""
""blur"",""5"",""53201""
""focus"",""5"",""221911""
""blur"",""5"",""224679""
""focus"",""5"",""226201""
""fullscreenenter"",""5"",""227030""
","""event"",""trial"",""time""
""blur"",""5"",""53201""
""blur"",""5"",""224679""
","""event"",""trial"",""time""
""focus"",""1"",""35905""
""focus"",""5"",""221911""
""focus"",""5"",""226201""
","""event"",""trial"",""time""
""fullscreenenter"",""5"",""227030""
","
",998.8,,49,,,3000,1,,,images/tutgreenplanet.jpg,images/tutalien1,images/tutalien2,null,images/tutalien2,images/t.png,NA,practice,null,,,,
d3-animate-choice,37,487545,0.0-37.0,1463,1657,8,Female,FALSE,TRUE,TRUE,FALSE,"""event"",""trial"",""time""
""focus"",""1"",""35905""
""blur"",""5"",""53201""
""focus"",""5"",""221911""
""blur"",""5"",""224679""
""focus"",""5"",""226201""
""fullscreenenter"",""5"",""227030""
","""event"",""trial"",""time""
""blur"",""5"",""53201""
""blur"",""5"",""224679""
","""event"",""trial"",""time""
""focus"",""1"",""35905""
""focus"",""5"",""221911""
""focus"",""5"",""226201""
","""event"",""trial"",""time""
""fullscreenenter"",""5"",""227030""
","
",1017.1,,49,,,3000,1,,,images/tutgreenplanet.jpg,images/tutalien1,images/tutalien2,null,images/tutalien2,images/nothing.png,NA,practice,null,,,,
d3-animate-choice,38,491400,0.0-38.0,1463,1657,8,Female,FALSE,TRUE,TRUE,FALSE,"""event"",""trial"",""time""
""focus"",""1"",""35905""
""blur"",""5"",""53201""
""focus"",""5"",""221911""
""blur"",""5"",""224679""
""focus"",""5"",""226201""
""fullscreenenter"",""5"",""227030""
","""event"",""trial"",""time""
""blur"",""5"",""53201""
""blur"",""5"",""224679""
","""event"",""trial"",""time""
""focus"",""1"",""35905""
""focus"",""5"",""221911""
""focus"",""5"",""226201""
","""event"",""trial"",""time""
""fullscreenenter"",""5"",""227030""
","
",1839.2,,48,,,3000,1,,,images/tutgreenplanet.jpg,images/tutalien1,images/tutalien2,null,images/tutalien1,images/t.png,NA,practice,null,,,,
d3-animate-choice,39,494309,0.0-39.0,1463,1657,8,Female,FALSE,TRUE,TRUE,FALSE,"""event"",""trial"",""time""
""focus"",""1"",""35905""
""blur"",""5"",""53201""
""focus"",""5"",""221911""
""blur"",""5"",""224679""
""focus"",""5"",""226201""
""fullscreenenter"",""5"",""227030""
","""event"",""trial"",""time""
""blur"",""5"",""53201""
""blur"",""5"",""224679""
","""event"",""trial"",""time""
""focus"",""1"",""35905""
""focus"",""5"",""221911""
""focus"",""5"",""226201""
","""event"",""trial"",""time""
""fullscreenenter"",""5"",""227030""
","
",890.8,,48,,,3000,1,,,images/tutgreenplanet.jpg,images/tutalien1,images/tutalien2,null,images/tutalien1,images/t.png,NA,practice,null,,,,
d3-animate-choice,40,497141,0.0-40.0,1463,1657,8,Female,FALSE,TRUE,TRUE,FALSE,"""event"",""trial"",""time""
""focus"",""1"",""35905""
""blur"",""5"",""53201""
""focus"",""5"",""221911""
""blur"",""5"",""224679""
""focus"",""5"",""226201""
""fullscreenenter"",""5"",""227030""
","""event"",""trial"",""time""
""blur"",""5"",""53201""
""blur"",""5"",""224679""
","""event"",""trial"",""time""
""focus"",""1"",""35905""
""focus"",""5"",""221911""
""focus"",""5"",""226201""
","""event"",""trial"",""time""
""fullscreenenter"",""5"",""227030""
","
",820.9,,48,,,3000,1,,,images/tutgreenplanet.jpg,images/tutalien1,images/tutalien2,null,images/tutalien1,images/nothing.png,NA,practice,null,,,,
d3-animate-choice,41,500075,0.0-41.0,1463,1657,8,Female,FALSE,TRUE,TRUE,FALSE,"""event"",""trial"",""time""
""focus"",""1"",""35905""
""blur"",""5"",""53201""
""focus"",""5"",""221911""
""blur"",""5"",""224679""
""focus"",""5"",""226201""
""fullscreenenter"",""5"",""227030""
","""event"",""trial"",""time""
""blur"",""5"",""53201""
""blur"",""5"",""224679""
","""event"",""trial"",""time""
""focus"",""1"",""35905""
""focus"",""5"",""221911""
""focus"",""5"",""226201""
","""event"",""trial"",""time""
""fullscreenenter"",""5"",""227030""
","
",921.6,,49,,,3000,1,,,images/tutgreenplanet.jpg,images/tutalien1,images/tutalien2,null,images/tutalien2,images/t.png,NA,practice,null,,,,
d3-animate-choice,42,502551,0.0-42.0,1463,1657,8,Female,FALSE,TRUE,TRUE,FALSE,"""event"",""trial"",""time""
""focus"",""1"",""35905""
""blur"",""5"",""53201""
""focus"",""5"",""221911""
""blur"",""5"",""224679""
""focus"",""5"",""226201""
""fullscreenenter"",""5"",""227030""
","""event"",""trial"",""time""
""blur"",""5"",""53201""
""blur"",""5"",""224679""
","""event"",""trial"",""time""
""focus"",""1"",""35905""
""focus"",""5"",""221911""
""focus"",""5"",""226201""
","""event"",""trial"",""time""
""fullscreenenter"",""5"",""227030""
","
",461.8,,49,,,3000,1,,,images/tutgreenplanet.jpg,images/tutalien1,images/tutalien2,null,images/tutalien2,images/t.png,NA,practice,null,,,,
d3-animate-choice,43,505306,0.0-43.0,1463,1657,8,Female,FALSE,TRUE,TRUE,FALSE,"""event"",""trial"",""time""
""focus"",""1"",""35905""
""blur"",""5"",""53201""
""focus"",""5"",""221911""
""blur"",""5"",""224679""
""focus"",""5"",""226201""
""fullscreenenter"",""5"",""227030""
","""event"",""trial"",""time""
""blur"",""5"",""53201""
""blur"",""5"",""224679""
","""event"",""trial"",""time""
""focus"",""1"",""35905""
""focus"",""5"",""221911""
""focus"",""5"",""226201""
","""event"",""trial"",""time""
""fullscreenenter"",""5"",""227030""
","
",744.6,,49,,,3000,1,,,images/tutgreenplanet.jpg,images/tutalien1,images/tutalien2,null,images/tutalien2,images/t.png,NA,practice,null,,,,
d3-instructions,44,521431,0.0-44.0,1463,1657,8,Female,FALSE,TRUE,TRUE,FALSE,"""event"",""trial"",""time""
""focus"",""1"",""35905""
""blur"",""5"",""53201""
""focus"",""5"",""221911""
""blur"",""5"",""224679""
""focus"",""5"",""226201""
""fullscreenenter"",""5"",""227030""
","""event"",""trial"",""time""
""blur"",""5"",""53201""
""blur"",""5"",""224679""
","""event"",""trial"",""time""
""focus"",""1"",""35905""
""focus"",""5"",""221911""
""focus"",""5"",""226201""
","""event"",""trial"",""time""
""fullscreenenter"",""5"",""227030""
","
",,,,,,,,,,,,,,,,,,,,,,
d3-instructions,45,528918,0.0-45.0,1463,1657,8,Female,FALSE,TRUE,TRUE,FALSE,"""event"",""trial"",""time""
""focus"",""1"",""35905""
""blur"",""5"",""53201""
""focus"",""5"",""221911""
""blur"",""5"",""224679""
""focus"",""5"",""226201""
""fullscreenenter"",""5"",""227030""
","""event"",""trial"",""time""
""blur"",""5"",""53201""
""blur"",""5"",""224679""
","""event"",""trial"",""time""
""focus"",""1"",""35905""
""focus"",""5"",""221911""
""focus"",""5"",""226201""
","""event"",""trial"",""time""
""fullscreenenter"",""5"",""227030""
","
",,,,,,,,,,,,,,,,,,,,,,
d3-instructions,46,535893,0.0-46.0,1463,1657,8,Female,FALSE,TRUE,TRUE,FALSE,"""event"",""trial"",""time""
""focus"",""1"",""35905""
""blur"",""5"",""53201""
""focus"",""5"",""221911""
""blur"",""5"",""224679""
""focus"",""5"",""226201""
""fullscreenenter"",""5"",""227030""
","""event"",""trial"",""time""
""blur"",""5"",""53201""
""blur"",""5"",""224679""
","""event"",""trial"",""time""
""focus"",""1"",""35905""
""focus"",""5"",""221911""
""focus"",""5"",""226201""
","""event"",""trial"",""time""
""fullscreenenter"",""5"",""227030""
","
",,,,,,,,,,,,,,,,,,,,,,
d3-instructions,47,555607,0.0-47.0,1463,1657,8,Female,FALSE,TRUE,TRUE,FALSE,"""event"",""trial"",""time""
""focus"",""1"",""35905""
""blur"",""5"",""53201""
""focus"",""5"",""221911""
""blur"",""5"",""224679""
""focus"",""5"",""226201""
""fullscreenenter"",""5"",""227030""
","""event"",""trial"",""time""
""blur"",""5"",""53201""
""blur"",""5"",""224679""
","""event"",""trial"",""time""
""focus"",""1"",""35905""
""focus"",""5"",""221911""
""focus"",""5"",""226201""
","""event"",""trial"",""time""
""fullscreenenter"",""5"",""227030""
","
",,,,,,,,,,,,,,,,,,,,,,
d3-instructions,48,563882,0.0-48.0,1463,1657,8,Female,FALSE,TRUE,TRUE,FALSE,"""event"",""trial"",""time""
""focus"",""1"",""35905""
""blur"",""5"",""53201""
""focus"",""5"",""221911""
""blur"",""5"",""224679""
""focus"",""5"",""226201""
""fullscreenenter"",""5"",""227030""
","""event"",""trial"",""time""
""blur"",""5"",""53201""
""blur"",""5"",""224679""
","""event"",""trial"",""time""
""focus"",""1"",""35905""
""focus"",""5"",""221911""
""focus"",""5"",""226201""
","""event"",""trial"",""time""
""fullscreenenter"",""5"",""227030""
","
",,,,,,,,,,,,,,,,,,,,,,
d3-instructions,49,576256,0.0-49.0,1463,1657,8,Female,FALSE,TRUE,TRUE,FALSE,"""event"",""trial"",""time""
""focus"",""1"",""35905""
""blur"",""5"",""53201""
""focus"",""5"",""221911""
""blur"",""5"",""224679""
""focus"",""5"",""226201""
""fullscreenenter"",""5"",""227030""
","""event"",""trial"",""time""
""blur"",""5"",""53201""
""blur"",""5"",""224679""
","""event"",""trial"",""time""
""focus"",""1"",""35905""
""focus"",""5"",""221911""
""focus"",""5"",""226201""
","""event"",""trial"",""time""
""fullscreenenter"",""5"",""227030""
","
",,,,,,,,,,,,,,,,,,,,,,
d3-instructions,50,587201,0.0-50.0,1463,1657,8,Female,FALSE,TRUE,TRUE,FALSE,"""event"",""trial"",""time""
""focus"",""1"",""35905""
""blur"",""5"",""53201""
""focus"",""5"",""221911""
""blur"",""5"",""224679""
""focus"",""5"",""226201""
""fullscreenenter"",""5"",""227030""
","""event"",""trial"",""time""
""blur"",""5"",""53201""
""blur"",""5"",""224679""
","""event"",""trial"",""time""
""focus"",""1"",""35905""
""focus"",""5"",""221911""
""focus"",""5"",""226201""
","""event"",""trial"",""time""
""fullscreenenter"",""5"",""227030""
","
",,,,,,,,,,,,,,,,,,,,,,
d3-instructions,51,591428,0.0-51.0,1463,1657,8,Female,FALSE,TRUE,TRUE,FALSE,"""event"",""trial"",""time""
""focus"",""1"",""35905""
""blur"",""5"",""53201""
""focus"",""5"",""221911""
""blur"",""5"",""224679""
""focus"",""5"",""226201""
""fullscreenenter"",""5"",""227030""
","""event"",""trial"",""time""
""blur"",""5"",""53201""
""blur"",""5"",""224679""
","""event"",""trial"",""time""
""focus"",""1"",""35905""
""focus"",""5"",""221911""
""focus"",""5"",""226201""
","""event"",""trial"",""time""
""fullscreenenter"",""5"",""227030""
","
",,,,,,,,,,,,,,,,,,,,,,
d3-instructions,52,594543,0.0-52.0,1463,1657,8,Female,FALSE,TRUE,TRUE,FALSE,"""event"",""trial"",""time""
""focus"",""1"",""35905""
""blur"",""5"",""53201""
""focus"",""5"",""221911""
""blur"",""5"",""224679""
""focus"",""5"",""226201""
""fullscreenenter"",""5"",""227030""
","""event"",""trial"",""time""
""blur"",""5"",""53201""
""blur"",""5"",""224679""
","""event"",""trial"",""time""
""focus"",""1"",""35905""
""focus"",""5"",""221911""
""focus"",""5"",""226201""
","""event"",""trial"",""time""
""fullscreenenter"",""5"",""227030""
","
",,,,,,,,,,,,,,,,,,,,,,
d3-instructions,53,608861,0.0-53.0,1463,1657,8,Female,FALSE,TRUE,TRUE,FALSE,"""event"",""trial"",""time""
""focus"",""1"",""35905""
""blur"",""5"",""53201""
""focus"",""5"",""221911""
""blur"",""5"",""224679""
""focus"",""5"",""226201""
""fullscreenenter"",""5"",""227030""
","""event"",""trial"",""time""
""blur"",""5"",""53201""
""blur"",""5"",""224679""
","""event"",""trial"",""time""
""focus"",""1"",""35905""
""focus"",""5"",""221911""
""focus"",""5"",""226201""
","""event"",""trial"",""time""
""fullscreenenter"",""5"",""227030""
","
",,,,,,,,,,,,,,,,,,,,,,
d3-instructions,54,622389,0.0-54.0,1463,1657,8,Female,FALSE,TRUE,TRUE,FALSE,"""event"",""trial"",""time""
""focus"",""1"",""35905""
""blur"",""5"",""53201""
""focus"",""5"",""221911""
""blur"",""5"",""224679""
""focus"",""5"",""226201""
""fullscreenenter"",""5"",""227030""
","""event"",""trial"",""time""
""blur"",""5"",""53201""
""blur"",""5"",""224679""
","""event"",""trial"",""time""
""focus"",""1"",""35905""
""focus"",""5"",""221911""
""focus"",""5"",""226201""
","""event"",""trial"",""time""
""fullscreenenter"",""5"",""227030""
","
",,,,,,,,,,,,,,,,,,,,,,
d3-instructions,55,633156,0.0-55.0,1463,1657,8,Female,FALSE,TRUE,TRUE,FALSE,"""event"",""trial"",""time""
""focus"",""1"",""35905""
""blur"",""5"",""53201""
""focus"",""5"",""221911""
""blur"",""5"",""224679""
""focus"",""5"",""226201""
""fullscreenenter"",""5"",""227030""
","""event"",""trial"",""time""
""blur"",""5"",""53201""
""blur"",""5"",""224679""
","""event"",""trial"",""time""
""focus"",""1"",""35905""
""focus"",""5"",""221911""
""focus"",""5"",""226201""
","""event"",""trial"",""time""
""fullscreenenter"",""5"",""227030""
","
",,,,,,,,,,,,,,,,,,,,,,
d3-instructions,56,644326,0.0-56.0,1463,1657,8,Female,FALSE,TRUE,TRUE,FALSE,"""event"",""trial"",""time""
""focus"",""1"",""35905""
""blur"",""5"",""53201""
""focus"",""5"",""221911""
""blur"",""5"",""224679""
""focus"",""5"",""226201""
""fullscreenenter"",""5"",""227030""
","""event"",""trial"",""time""
""blur"",""5"",""53201""
""blur"",""5"",""224679""
","""event"",""trial"",""time""
""focus"",""1"",""35905""
""focus"",""5"",""221911""
""focus"",""5"",""226201""
","""event"",""trial"",""time""
""fullscreenenter"",""5"",""227030""
","
",,,,,,,,,,,,,,,,,,,,,,
d3-instructions,57,657407,0.0-57.0,1463,1657,8,Female,FALSE,TRUE,TRUE,FALSE,"""event"",""trial"",""time""
""focus"",""1"",""35905""
""blur"",""5"",""53201""
""focus"",""5"",""221911""
""blur"",""5"",""224679""
""focus"",""5"",""226201""
""fullscreenenter"",""5"",""227030""
","""event"",""trial"",""time""
""blur"",""5"",""53201""
""blur"",""5"",""224679""
","""event"",""trial"",""time""
""focus"",""1"",""35905""
""focus"",""5"",""221911""
""focus"",""5"",""226201""
","""event"",""trial"",""time""
""fullscreenenter"",""5"",""227030""
","
",,,,,,,,,,,,,,,,,,,,,,
d3-instructions,58,671586,0.0-58.0,1463,1657,8,Female,FALSE,TRUE,TRUE,FALSE,"""event"",""trial"",""time""
""focus"",""1"",""35905""
""blur"",""5"",""53201""
""focus"",""5"",""221911""
""blur"",""5"",""224679""
""focus"",""5"",""226201""
""fullscreenenter"",""5"",""227030""
","""event"",""trial"",""time""
""blur"",""5"",""53201""
""blur"",""5"",""224679""
","""event"",""trial"",""time""
""focus"",""1"",""35905""
""focus"",""5"",""221911""
""focus"",""5"",""226201""
","""event"",""trial"",""time""
""fullscreenenter"",""5"",""227030""
","
",,,,,,,,,,,,,,,,,,,,,,
d3-instructions,59,676774,0.0-59.0,1463,1657,8,Female,FALSE,TRUE,TRUE,FALSE,"""event"",""trial"",""time""
""focus"",""1"",""35905""
""blur"",""5"",""53201""
""focus"",""5"",""221911""
""blur"",""5"",""224679""
""focus"",""5"",""226201""
""fullscreenenter"",""5"",""227030""
","""event"",""trial"",""time""
""blur"",""5"",""53201""
""blur"",""5"",""224679""
","""event"",""trial"",""time""
""focus"",""1"",""35905""
""focus"",""5"",""221911""
""focus"",""5"",""226201""
","""event"",""trial"",""time""
""fullscreenenter"",""5"",""227030""
","
",,,,,,,,,,,,,,,,,,,,,,
d3-instructions,60,683846,0.0-60.0,1463,1657,8,Female,FALSE,TRUE,TRUE,FALSE,"""event"",""trial"",""time""
""focus"",""1"",""35905""
""blur"",""5"",""53201""
""focus"",""5"",""221911""
""blur"",""5"",""224679""
""focus"",""5"",""226201""
""fullscreenenter"",""5"",""227030""
","""event"",""trial"",""time""
""blur"",""5"",""53201""
""blur"",""5"",""224679""
","""event"",""trial"",""time""
""focus"",""1"",""35905""
""focus"",""5"",""221911""
""focus"",""5"",""226201""
","""event"",""trial"",""time""
""fullscreenenter"",""5"",""227030""
","
",,,,,,,,,,,,,,,,,,,,,,
d3-animate-choice,61,687866,0.0-61.0-0.0,1463,1657,8,Female,FALSE,TRUE,TRUE,FALSE,"""event"",""trial"",""time""
""focus"",""1"",""35905""
""blur"",""5"",""53201""
""focus"",""5"",""221911""
""blur"",""5"",""224679""
""focus"",""5"",""226201""
""fullscreenenter"",""5"",""227030""
","""event"",""trial"",""time""
""blur"",""5"",""53201""
""blur"",""5"",""224679""
","""event"",""trial"",""time""
""focus"",""1"",""35905""
""focus"",""5"",""221911""
""focus"",""5"",""226201""
","""event"",""trial"",""time""
""fullscreenenter"",""5"",""227030""
","
",null,,null,,,3000,0,,,images/earth.jpg,images/tutrocket1,images/tutrocket2,null,,,1,practice,null,,,,
d3-animate-choice,62,688884,0.0-61.0-1.0,1463,1657,8,Female,FALSE,TRUE,TRUE,FALSE,"""event"",""trial"",""time""
""focus"",""1"",""35905""
""blur"",""5"",""53201""
""focus"",""5"",""221911""
""blur"",""5"",""224679""
""focus"",""5"",""226201""
""fullscreenenter"",""5"",""227030""
","""event"",""trial"",""time""
""blur"",""5"",""53201""
""blur"",""5"",""224679""
","""event"",""trial"",""time""
""focus"",""1"",""35905""
""focus"",""5"",""221911""
""focus"",""5"",""226201""
","""event"",""trial"",""time""
""fullscreenenter"",""5"",""227030""
","
",null,,null,,,0,0,,,images/earth.jpg,images/tutrocket1,images/tutrocket2,null,,,2,practice,null,0,23:13.0,,
two-step-fixation,63,689892,0.0-61.0-2.0,1463,1657,8,Female,FALSE,TRUE,TRUE,FALSE,"""event"",""trial"",""time""
""focus"",""1"",""35905""
""blur"",""5"",""53201""
""focus"",""5"",""221911""
""blur"",""5"",""224679""
""focus"",""5"",""226201""
""fullscreenenter"",""5"",""227030""
","""event"",""trial"",""time""
""blur"",""5"",""53201""
""blur"",""5"",""224679""
","""event"",""trial"",""time""
""focus"",""1"",""35905""
""focus"",""5"",""221911""
""focus"",""5"",""226201""
","""event"",""trial"",""time""
""fullscreenenter"",""5"",""227030""
","
",,images/earth.jpg,,,,,,,,,,,,,,fixation,,,,,,
d3-animate-choice,64,693908,0.0-61.0-0.1,1463,1657,8,Female,FALSE,TRUE,TRUE,FALSE,"""event"",""trial"",""time""
""focus"",""1"",""35905""
""blur"",""5"",""53201""
""focus"",""5"",""221911""
""blur"",""5"",""224679""
""focus"",""5"",""226201""
""fullscreenenter"",""5"",""227030""
","""event"",""trial"",""time""
""blur"",""5"",""53201""
""blur"",""5"",""224679""
","""event"",""trial"",""time""
""focus"",""1"",""35905""
""focus"",""5"",""221911""
""focus"",""5"",""226201""
","""event"",""trial"",""time""
""fullscreenenter"",""5"",""227030""
","
",null,,null,,,3000,0,,,images/earth.jpg,images/tutrocket1,images/tutrocket2,null,,,1,practice,null,,,,
d3-animate-choice,65,694923,0.0-61.0-1.1,1463,1657,8,Female,FALSE,TRUE,TRUE,FALSE,"""event"",""trial"",""time""
""focus"",""1"",""35905""
""blur"",""5"",""53201""
""focus"",""5"",""221911""
""blur"",""5"",""224679""
""focus"",""5"",""226201""
""fullscreenenter"",""5"",""227030""
","""event"",""trial"",""time""
""blur"",""5"",""53201""
""blur"",""5"",""224679""
","""event"",""trial"",""time""
""focus"",""1"",""35905""
""focus"",""5"",""221911""
""focus"",""5"",""226201""
","""event"",""trial"",""time""
""fullscreenenter"",""5"",""227030""
","
",null,,null,,,0,0,,,images/earth.jpg,images/tutrocket1,images/tutrocket2,null,,,2,practice,null,0,23:19.0,,
two-step-fixation,66,695926,0.0-61.0-2.1,1463,1657,8,Female,FALSE,TRUE,TRUE,FALSE,"""event"",""trial"",""time""
""focus"",""1"",""35905""
""blur"",""5"",""53201""
""focus"",""5"",""221911""
""blur"",""5"",""224679""
""focus"",""5"",""226201""
""fullscreenenter"",""5"",""227030""
","""event"",""trial"",""time""
""blur"",""5"",""53201""
""blur"",""5"",""224679""
","""event"",""trial"",""time""
""focus"",""1"",""35905""
""focus"",""5"",""221911""
""focus"",""5"",""226201""
","""event"",""trial"",""time""
""fullscreenenter"",""5"",""227030""
","
",,images/earth.jpg,,,,,,,,,,,,,,fixation,,,,,,
d3-animate-choice,67,699943,0.0-61.0-0.2,1463,1657,8,Female,FALSE,TRUE,TRUE,FALSE,"""event"",""trial"",""time""
""focus"",""1"",""35905""
""blur"",""5"",""53201""
""focus"",""5"",""221911""
""blur"",""5"",""224679""
""focus"",""5"",""226201""
""fullscreenenter"",""5"",""227030""
","""event"",""trial"",""time""
""blur"",""5"",""53201""
""blur"",""5"",""224679""
","""event"",""trial"",""time""
""focus"",""1"",""35905""
""focus"",""5"",""221911""
""focus"",""5"",""226201""
","""event"",""trial"",""time""
""fullscreenenter"",""5"",""227030""
","
",null,,null,,,3000,0,,,images/earth.jpg,images/tutrocket1,images/tutrocket2,null,,,1,practice,null,,,,
d3-animate-choice,68,700959,0.0-61.0-1.2,1463,1657,8,Female,FALSE,TRUE,TRUE,FALSE,"""event"",""trial"",""time""
""focus"",""1"",""35905""
""blur"",""5"",""53201""
""focus"",""5"",""221911""
""blur"",""5"",""224679""
""focus"",""5"",""226201""
""fullscreenenter"",""5"",""227030""
","""event"",""trial"",""time""
""blur"",""5"",""53201""
""blur"",""5"",""224679""
","""event"",""trial"",""time""
""focus"",""1"",""35905""
""focus"",""5"",""221911""
""focus"",""5"",""226201""
","""event"",""trial"",""time""
""fullscreenenter"",""5"",""227030""
","
",null,,null,,,0,0,,,images/earth.jpg,images/tutrocket1,images/tutrocket2,null,,,2,practice,null,0,23:25.0,,
two-step-fixation,69,701966,0.0-61.0-2.2,1463,1657,8,Female,FALSE,TRUE,TRUE,FALSE,"""event"",""trial"",""time""
""focus"",""1"",""35905""
""blur"",""5"",""53201""
""focus"",""5"",""221911""
""blur"",""5"",""224679""
""focus"",""5"",""226201""
""fullscreenenter"",""5"",""227030""
","""event"",""trial"",""time""
""blur"",""5"",""53201""
""blur"",""5"",""224679""
","""event"",""trial"",""time""
""focus"",""1"",""35905""
""focus"",""5"",""221911""
""focus"",""5"",""226201""
","""event"",""trial"",""time""
""fullscreenenter"",""5"",""227030""
","
",,images/earth.jpg,,,,,,,,,,,,,,fixation,,,,,,
d3-animate-choice,70,705971,0.0-61.0-0.3,1463,1657,8,Female,FALSE,TRUE,TRUE,FALSE,"""event"",""trial"",""time""
""focus"",""1"",""35905""
""blur"",""5"",""53201""
""focus"",""5"",""221911""
""blur"",""5"",""224679""
""focus"",""5"",""226201""
""fullscreenenter"",""5"",""227030""
","""event"",""trial"",""time""
""blur"",""5"",""53201""
""blur"",""5"",""224679""
","""event"",""trial"",""time""
""focus"",""1"",""35905""
""focus"",""5"",""221911""
""focus"",""5"",""226201""
","""event"",""trial"",""time""
""fullscreenenter"",""5"",""227030""
","
",null,,null,,,3000,0,,,images/earth.jpg,images/tutrocket1,images/tutrocket2,null,,,1,practice,null,,,,
d3-animate-choice,71,706982,0.0-61.0-1.3,1463,1657,8,Female,FALSE,TRUE,TRUE,FALSE,"""event"",""trial"",""time""
""focus"",""1"",""35905""
""blur"",""5"",""53201""
""focus"",""5"",""221911""
""blur"",""5"",""224679""
""focus"",""5"",""226201""
""fullscreenenter"",""5"",""227030""
","""event"",""trial"",""time""
""blur"",""5"",""53201""
""blur"",""5"",""224679""
","""event"",""trial"",""time""
""focus"",""1"",""35905""
""focus"",""5"",""221911""
""focus"",""5"",""226201""
","""event"",""trial"",""time""
""fullscreenenter"",""5"",""227030""
","
",null,,null,,,0,0,,,images/earth.jpg,images/tutrocket1,images/tutrocket2,null,,,2,practice,null,0,23:31.1,,
two-step-fixation,72,707992,0.0-61.0-2.3,1463,1657,8,Female,FALSE,TRUE,TRUE,FALSE,"""event"",""trial"",""time""
""focus"",""1"",""35905""
""blur"",""5"",""53201""
""focus"",""5"",""221911""
""blur"",""5"",""224679""
""focus"",""5"",""226201""
""fullscreenenter"",""5"",""227030""
","""event"",""trial"",""time""
""blur"",""5"",""53201""
""blur"",""5"",""224679""
","""event"",""trial"",""time""
""focus"",""1"",""35905""
""focus"",""5"",""221911""
""focus"",""5"",""226201""
","""event"",""trial"",""time""
""fullscreenenter"",""5"",""227030""
","
",,images/earth.jpg,,,,,,,,,,,,,,fixation,,,,,,
d3-animate-choice,73,712005,0.0-61.0-0.4,1463,1657,8,Female,FALSE,TRUE,TRUE,FALSE,"""event"",""trial"",""time""
""focus"",""1"",""35905""
""blur"",""5"",""53201""
""focus"",""5"",""221911""
""blur"",""5"",""224679""
""focus"",""5"",""226201""
""fullscreenenter"",""5"",""227030""
","""event"",""trial"",""time""
""blur"",""5"",""53201""
""blur"",""5"",""224679""
","""event"",""trial"",""time""
""focus"",""1"",""35905""
""focus"",""5"",""221911""
""focus"",""5"",""226201""
","""event"",""trial"",""time""
""fullscreenenter"",""5"",""227030""
","
",null,,null,,,3000,0,,,images/earth.jpg,images/tutrocket1,images/tutrocket2,null,,,1,practice,null,,,,
d3-animate-choice,74,713019,0.0-61.0-1.4,1463,1657,8,Female,FALSE,TRUE,TRUE,FALSE,"""event"",""trial"",""time""
""focus"",""1"",""35905""
""blur"",""5"",""53201""
""focus"",""5"",""221911""
""blur"",""5"",""224679""
""focus"",""5"",""226201""
""fullscreenenter"",""5"",""227030""
","""event"",""trial"",""time""
""blur"",""5"",""53201""
""blur"",""5"",""224679""
","""event"",""trial"",""time""
""focus"",""1"",""35905""
""focus"",""5"",""221911""
""focus"",""5"",""226201""
","""event"",""trial"",""time""
""fullscreenenter"",""5"",""227030""
","
",null,,null,,,0,0,,,images/earth.jpg,images/tutrocket1,images/tutrocket2,null,,,2,practice,null,0,23:37.1,,
two-step-fixation,75,714032,0.0-61.0-2.4,1463,1657,8,Female,FALSE,TRUE,TRUE,FALSE,"""event"",""trial"",""time""
""focus"",""1"",""35905""
""blur"",""5"",""53201""
""focus"",""5"",""221911""
""blur"",""5"",""224679""
""focus"",""5"",""226201""
""fullscreenenter"",""5"",""227030""
","""event"",""trial"",""time""
""blur"",""5"",""53201""
""blur"",""5"",""224679""
","""event"",""trial"",""time""
""focus"",""1"",""35905""
""focus"",""5"",""221911""
""focus"",""5"",""226201""
","""event"",""trial"",""time""
""fullscreenenter"",""5"",""227030""
","
",,images/earth.jpg,,,,,,,,,,,,,,fixation,,,,,,
d3-animate-choice,76,718036,0.0-61.0-0.5,1463,1657,8,Female,FALSE,TRUE,TRUE,FALSE,"""event"",""trial"",""time""
""focus"",""1"",""35905""
""blur"",""5"",""53201""
""focus"",""5"",""221911""
""blur"",""5"",""224679""
""focus"",""5"",""226201""
""fullscreenenter"",""5"",""227030""
","""event"",""trial"",""time""
""blur"",""5"",""53201""
""blur"",""5"",""224679""
","""event"",""trial"",""time""
""focus"",""1"",""35905""
""focus"",""5"",""221911""
""focus"",""5"",""226201""
","""event"",""trial"",""time""
""fullscreenenter"",""5"",""227030""
","
",null,,null,,,3000,0,,,images/earth.jpg,images/tutrocket1,images/tutrocket2,null,,,1,practice,null,,,,
d3-animate-choice,77,719051,0.0-61.0-1.5,1463,1657,8,Female,FALSE,TRUE,TRUE,FALSE,"""event"",""trial"",""time""
""focus"",""1"",""35905""
""blur"",""5"",""53201""
""focus"",""5"",""221911""
""blur"",""5"",""224679""
""focus"",""5"",""226201""
""fullscreenenter"",""5"",""227030""
","""event"",""trial"",""time""
""blur"",""5"",""53201""
""blur"",""5"",""224679""
","""event"",""trial"",""time""
""focus"",""1"",""35905""
""focus"",""5"",""221911""
""focus"",""5"",""226201""
","""event"",""trial"",""time""
""fullscreenenter"",""5"",""227030""
","
",null,,null,,,0,0,,,images/earth.jpg,images/tutrocket1,images/tutrocket2,null,,,2,practice,null,0,23:43.1,,
two-step-fixation,78,720061,0.0-61.0-2.5,1463,1657,8,Female,FALSE,TRUE,TRUE,FALSE,"""event"",""trial"",""time""
""focus"",""1"",""35905""
""blur"",""5"",""53201""
""focus"",""5"",""221911""
""blur"",""5"",""224679""
""focus"",""5"",""226201""
""fullscreenenter"",""5"",""227030""
","""event"",""trial"",""time""
""blur"",""5"",""53201""
""blur"",""5"",""224679""
","""event"",""trial"",""time""
""focus"",""1"",""35905""
""focus"",""5"",""221911""
""focus"",""5"",""226201""
","""event"",""trial"",""time""
""fullscreenenter"",""5"",""227030""
","
",,images/earth.jpg,,,,,,,,,,,,,,fixation,,,,,,
d3-animate-choice,79,724065,0.0-61.0-0.6,1463,1657,8,Female,FALSE,TRUE,TRUE,FALSE,"""event"",""trial"",""time""
""focus"",""1"",""35905""
""blur"",""5"",""53201""
""focus"",""5"",""221911""
""blur"",""5"",""224679""
""focus"",""5"",""226201""
""fullscreenenter"",""5"",""227030""
","""event"",""trial"",""time""
""blur"",""5"",""53201""
""blur"",""5"",""224679""
","""event"",""trial"",""time""
""focus"",""1"",""35905""
""focus"",""5"",""221911""
""focus"",""5"",""226201""
","""event"",""trial"",""time""
""fullscreenenter"",""5"",""227030""
","
",null,,null,,,3000,0,,,images/earth.jpg,images/tutrocket1,images/tutrocket2,null,,,1,practice,null,,,,
d3-animate-choice,80,725078,0.0-61.0-1.6,1463,1657,8,Female,FALSE,TRUE,TRUE,FALSE,"""event"",""trial"",""time""
""focus"",""1"",""35905""
""blur"",""5"",""53201""
""focus"",""5"",""221911""
""blur"",""5"",""224679""
""focus"",""5"",""226201""
""fullscreenenter"",""5"",""227030""
","""event"",""trial"",""time""
""blur"",""5"",""53201""
""blur"",""5"",""224679""
","""event"",""trial"",""time""
""focus"",""1"",""35905""
""focus"",""5"",""221911""
""focus"",""5"",""226201""
","""event"",""trial"",""time""
""fullscreenenter"",""5"",""227030""
","
",null,,null,,,0,0,,,images/earth.jpg,images/tutrocket1,images/tutrocket2,null,,,2,practice,null,0,23:49.2,,
two-step-fixation,81,726082,0.0-61.0-2.6,1463,1657,8,Female,FALSE,TRUE,TRUE,FALSE,"""event"",""trial"",""time""
""focus"",""1"",""35905""
""blur"",""5"",""53201""
""focus"",""5"",""221911""
""blur"",""5"",""224679""
""focus"",""5"",""226201""
""fullscreenenter"",""5"",""227030""
","""event"",""trial"",""time""
""blur"",""5"",""53201""
""blur"",""5"",""224679""
","""event"",""trial"",""time""
""focus"",""1"",""35905""
""focus"",""5"",""221911""
""focus"",""5"",""226201""
","""event"",""trial"",""time""
""fullscreenenter"",""5"",""227030""
","
",,images/earth.jpg,,,,,,,,,,,,,,fixation,,,,,,
d3-animate-choice,82,730096,0.0-61.0-0.7,1463,1657,8,Female,FALSE,TRUE,TRUE,FALSE,"""event"",""trial"",""time""
""focus"",""1"",""35905""
""blur"",""5"",""53201""
""focus"",""5"",""221911""
""blur"",""5"",""224679""
""focus"",""5"",""226201""
""fullscreenenter"",""5"",""227030""
","""event"",""trial"",""time""
""blur"",""5"",""53201""
""blur"",""5"",""224679""
","""event"",""trial"",""time""
""focus"",""1"",""35905""
""focus"",""5"",""221911""
""focus"",""5"",""226201""
","""event"",""trial"",""time""
""fullscreenenter"",""5"",""227030""
","
",null,,null,,,3000,0,,,images/earth.jpg,images/tutrocket1,images/tutrocket2,null,,,1,practice,null,,,,
d3-animate-choice,83,731108,0.0-61.0-1.7,1463,1657,8,Female,FALSE,TRUE,TRUE,FALSE,"""event"",""trial"",""time""
""focus"",""1"",""35905""
""blur"",""5"",""53201""
""focus"",""5"",""221911""
""blur"",""5"",""224679""
""focus"",""5"",""226201""
""fullscreenenter"",""5"",""227030""
","""event"",""trial"",""time""
""blur"",""5"",""53201""
""blur"",""5"",""224679""
","""event"",""trial"",""time""
""focus"",""1"",""35905""
""focus"",""5"",""221911""
""focus"",""5"",""226201""
","""event"",""trial"",""time""
""fullscreenenter"",""5"",""227030""
","
",null,,null,,,0,0,,,images/earth.jpg,images/tutrocket1,images/tutrocket2,null,,,2,practice,null,0,23:55.2,,
two-step-fixation,84,732112,0.0-61.0-2.7,1463,1657,8,Female,FALSE,TRUE,TRUE,FALSE,"""event"",""trial"",""time""
""focus"",""1"",""35905""
""blur"",""5"",""53201""
""focus"",""5"",""221911""
""blur"",""5"",""224679""
""focus"",""5"",""226201""
""fullscreenenter"",""5"",""227030""
","""event"",""trial"",""time""
""blur"",""5"",""53201""
""blur"",""5"",""224679""
","""event"",""trial"",""time""
""focus"",""1"",""35905""
""focus"",""5"",""221911""
""focus"",""5"",""226201""
","""event"",""trial"",""time""
""fullscreenenter"",""5"",""227030""
","
",,images/earth.jpg,,,,,,,,,,,,,,fixation,,,,,,
d3-animate-choice,85,736126,0.0-61.0-0.8,1463,1657,8,Female,FALSE,TRUE,TRUE,FALSE,"""event"",""trial"",""time""
""focus"",""1"",""35905""
""blur"",""5"",""53201""
""focus"",""5"",""221911""
""blur"",""5"",""224679""
""focus"",""5"",""226201""
""fullscreenenter"",""5"",""227030""
","""event"",""trial"",""time""
""blur"",""5"",""53201""
""blur"",""5"",""224679""
","""event"",""trial"",""time""
""focus"",""1"",""35905""
""focus"",""5"",""221911""
""focus"",""5"",""226201""
","""event"",""trial"",""time""
""fullscreenenter"",""5"",""227030""
","
",null,,null,,,3000,0,,,images/earth.jpg,images/tutrocket1,images/tutrocket2,null,,,1,practice,null,,,,
d3-animate-choice,86,737143,0.0-61.0-1.8,1463,1657,8,Female,FALSE,TRUE,TRUE,FALSE,"""event"",""trial"",""time""
""focus"",""1"",""35905""
""blur"",""5"",""53201""
""focus"",""5"",""221911""
""blur"",""5"",""224679""
""focus"",""5"",""226201""
""fullscreenenter"",""5"",""227030""
","""event"",""trial"",""time""
""blur"",""5"",""53201""
""blur"",""5"",""224679""
","""event"",""trial"",""time""
""focus"",""1"",""35905""
""focus"",""5"",""221911""
""focus"",""5"",""226201""
","""event"",""trial"",""time""
""fullscreenenter"",""5"",""227030""
","
",null,,null,,,0,0,,,images/earth.jpg,images/tutrocket1,images/tutrocket2,null,,,2,practice,null,0,24:01.2,,
two-step-fixation,87,738152,0.0-61.0-2.8,1463,1657,8,Female,FALSE,TRUE,TRUE,FALSE,"""event"",""trial"",""time""
""focus"",""1"",""35905""
""blur"",""5"",""53201""
""focus"",""5"",""221911""
""blur"",""5"",""224679""
""focus"",""5"",""226201""
""fullscreenenter"",""5"",""227030""
","""event"",""trial"",""time""
""blur"",""5"",""53201""
""blur"",""5"",""224679""
","""event"",""trial"",""time""
""focus"",""1"",""35905""
""focus"",""5"",""221911""
""focus"",""5"",""226201""
","""event"",""trial"",""time""
""fullscreenenter"",""5"",""227030""
","
",,images/earth.jpg,,,,,,,,,,,,,,fixation,,,,,,
d3-animate-choice,88,740503,0.0-61.0-0.9,1463,1657,8,Female,FALSE,TRUE,TRUE,FALSE,"""event"",""trial"",""time""
""focus"",""1"",""35905""
""blur"",""5"",""53201""
""focus"",""5"",""221911""
""blur"",""5"",""224679""
""focus"",""5"",""226201""
""fullscreenenter"",""5"",""227030""
","""event"",""trial"",""time""
""blur"",""5"",""53201""
""blur"",""5"",""224679""
","""event"",""trial"",""time""
""focus"",""1"",""35905""
""focus"",""5"",""221911""
""focus"",""5"",""226201""
","""event"",""trial"",""time""
""fullscreenenter"",""5"",""227030""
","
",344.8,,48,,,3000,1,,,images/earth.jpg,images/tutrocket1,images/tutrocket2,null,images/tutrocket1,,1,practice,null,,,2,
d3-animate-choice,89,744524,0.0-61.0-1.9,1463,1657,8,Female,FALSE,TRUE,TRUE,FALSE,"""event"",""trial"",""time""
""focus"",""1"",""35905""
""blur"",""5"",""53201""
""focus"",""5"",""221911""
""blur"",""5"",""224679""
""focus"",""5"",""226201""
""fullscreenenter"",""5"",""227030""
","""event"",""trial"",""time""
""blur"",""5"",""53201""
""blur"",""5"",""224679""
","""event"",""trial"",""time""
""focus"",""1"",""35905""
""focus"",""5"",""221911""
""focus"",""5"",""226201""
","""event"",""trial"",""time""
""fullscreenenter"",""5"",""227030""
","
",null,,null,,,3000,0,,,images/tutyellowplanet.jpg,images/tutalien4,images/tutalien3,images/tutrocket1,,,2,practice,FALSE,0,24:08.6,,rare
two-step-fixation,90,745529,0.0-61.0-2.9,1463,1657,8,Female,FALSE,TRUE,TRUE,FALSE,"""event"",""trial"",""time""
""focus"",""1"",""35905""
""blur"",""5"",""53201""
""focus"",""5"",""221911""
""blur"",""5"",""224679""
""focus"",""5"",""226201""
""fullscreenenter"",""5"",""227030""
","""event"",""trial"",""time""
""blur"",""5"",""53201""
""blur"",""5"",""224679""
","""event"",""trial"",""time""
""focus"",""1"",""35905""
""focus"",""5"",""221911""
""focus"",""5"",""226201""
","""event"",""trial"",""time""
""fullscreenenter"",""5"",""227030""
","
",,images/earth.jpg,,,,,,,,,,,,,,fixation,,,,,,
d3-animate-choice,91,748462,0.0-61.0-0.10,1463,1657,8,Female,FALSE,TRUE,TRUE,FALSE,"""event"",""trial"",""time""
""focus"",""1"",""35905""
""blur"",""5"",""53201""
""focus"",""5"",""221911""
""blur"",""5"",""224679""
""focus"",""5"",""226201""
""fullscreenenter"",""5"",""227030""
","""event"",""trial"",""time""
""blur"",""5"",""53201""
""blur"",""5"",""224679""
","""event"",""trial"",""time""
""focus"",""1"",""35905""
""focus"",""5"",""221911""
""focus"",""5"",""226201""
","""event"",""trial"",""time""
""fullscreenenter"",""5"",""227030""
","
",919.7,,49,,,3000,1,,,images/earth.jpg,images/tutrocket1,images/tutrocket2,null,images/tutrocket2,,1,practice,null,,,1,
d3-animate-choice,92,751420,0.0-61.0-1.10,1463,1657,8,Female,FALSE,TRUE,TRUE,FALSE,"""event"",""trial"",""time""
""focus"",""1"",""35905""
""blur"",""5"",""53201""
""focus"",""5"",""221911""
""blur"",""5"",""224679""
""focus"",""5"",""226201""
""fullscreenenter"",""5"",""227030""
","""event"",""trial"",""time""
""blur"",""5"",""53201""
""blur"",""5"",""224679""
","""event"",""trial"",""time""
""focus"",""1"",""35905""
""focus"",""5"",""221911""
""focus"",""5"",""226201""
","""event"",""trial"",""time""
""fullscreenenter"",""5"",""227030""
","
",945.8,,48,,,3000,1,,,images/tutgreenplanet.jpg,images/tutalien2,images/tutalien1,images/tutrocket2,images/tutalien2,images/nothing.png,2,practice,FALSE,0,24:15.5,2,rare
two-step-fixation,93,752432,0.0-61.0-2.10,1463,1657,8,Female,FALSE,TRUE,TRUE,FALSE,"""event"",""trial"",""time""
""focus"",""1"",""35905""
""blur"",""5"",""53201""
""focus"",""5"",""221911""
""blur"",""5"",""224679""
""focus"",""5"",""226201""
""fullscreenenter"",""5"",""227030""
","""event"",""trial"",""time""
""blur"",""5"",""53201""
""blur"",""5"",""224679""
","""event"",""trial"",""time""
""focus"",""1"",""35905""
""focus"",""5"",""221911""
""focus"",""5"",""226201""
","""event"",""trial"",""time""
""fullscreenenter"",""5"",""227030""
","
",,images/earth.jpg,,,,,,,,,,,,,,fixation,,,,,,
d3-animate-choice,94,755804,0.0-61.0-0.11,1463,1657,8,Female,FALSE,TRUE,TRUE,FALSE,"""event"",""trial"",""time""
""focus"",""1"",""35905""
""blur"",""5"",""53201""
""focus"",""5"",""221911""
""blur"",""5"",""224679""
""focus"",""5"",""226201""
""fullscreenenter"",""5"",""227030""
","""event"",""trial"",""time""
""blur"",""5"",""53201""
""blur"",""5"",""224679""
","""event"",""trial"",""time""
""focus"",""1"",""35905""
""focus"",""5"",""221911""
""focus"",""5"",""226201""
","""event"",""trial"",""time""
""fullscreenenter"",""5"",""227030""
","
",1354.8,,48,,,3000,1,,,images/earth.jpg,images/tutrocket1,images/tutrocket2,null,images/tutrocket1,,1,practice,null,,,2,
d3-animate-choice,95,758259,0.0-61.0-1.11,1463,1657,8,Female,FALSE,TRUE,TRUE,FALSE,"""event"",""trial"",""time""
""focus"",""1"",""35905""
""blur"",""5"",""53201""
""focus"",""5"",""221911""
""blur"",""5"",""224679""
""focus"",""5"",""226201""
""fullscreenenter"",""5"",""227030""
","""event"",""trial"",""time""
""blur"",""5"",""53201""
""blur"",""5"",""224679""
","""event"",""trial"",""time""
""focus"",""1"",""35905""
""focus"",""5"",""221911""
""focus"",""5"",""226201""
","""event"",""trial"",""time""
""fullscreenenter"",""5"",""227030""
","
",451.6,,49,,,3000,1,,,images/tutyellowplanet.jpg,images/tutalien4,images/tutalien3,images/tutrocket1,images/tutalien3,images/t.png,2,practice,FALSE,1,24:22.3,1,rare
two-step-fixation,96,759266,0.0-61.0-2.11,1463,1657,8,Female,FALSE,TRUE,TRUE,FALSE,"""event"",""trial"",""time""
""focus"",""1"",""35905""
""blur"",""5"",""53201""
""focus"",""5"",""221911""
""blur"",""5"",""224679""
""focus"",""5"",""226201""
""fullscreenenter"",""5"",""227030""
","""event"",""trial"",""time""
""blur"",""5"",""53201""
""blur"",""5"",""224679""
","""event"",""trial"",""time""
""focus"",""1"",""35905""
""focus"",""5"",""221911""
""focus"",""5"",""226201""
","""event"",""trial"",""time""
""fullscreenenter"",""5"",""227030""
","
",,images/earth.jpg,,,,,,,,,,,,,,fixation,,,,,,
d3-animate-choice,97,762564,0.0-61.0-0.12,1463,1657,8,Female,FALSE,TRUE,TRUE,FALSE,"""event"",""trial"",""time""
""focus"",""1"",""35905""
""blur"",""5"",""53201""
""focus"",""5"",""221911""
""blur"",""5"",""224679""
""focus"",""5"",""226201""
""fullscreenenter"",""5"",""227030""
","""event"",""trial"",""time""
""blur"",""5"",""53201""
""blur"",""5"",""224679""
","""event"",""trial"",""time""
""focus"",""1"",""35905""
""focus"",""5"",""221911""
""focus"",""5"",""226201""
","""event"",""trial"",""time""
""fullscreenenter"",""5"",""227030""
","
",1289,,48,,,3000,1,,,images/earth.jpg,images/tutrocket1,images/tutrocket2,null,images/tutrocket1,,1,practice,null,,,2,
d3-animate-choice,98,765894,0.0-61.0-1.12,1463,1657,8,Female,FALSE,TRUE,TRUE,FALSE,"""event"",""trial"",""time""
""focus"",""1"",""35905""
""blur"",""5"",""53201""
""focus"",""5"",""221911""
""blur"",""5"",""224679""
""focus"",""5"",""226201""
""fullscreenenter"",""5"",""227030""
","""event"",""trial"",""time""
""blur"",""5"",""53201""
""blur"",""5"",""224679""
","""event"",""trial"",""time""
""focus"",""1"",""35905""
""focus"",""5"",""221911""
""focus"",""5"",""226201""
","""event"",""trial"",""time""
""fullscreenenter"",""5"",""227030""
","
",1317.1,,49,,,3000,1,,,images/tutgreenplanet.jpg,images/tutalien2,images/tutalien1,images/tutrocket1,images/tutalien1,images/nothing.png,2,practice,TRUE,0,24:30.0,1,common
two-step-fixation,99,766904,0.0-61.0-2.12,1463,1657,8,Female,FALSE,TRUE,TRUE,FALSE,"""event"",""trial"",""time""
""focus"",""1"",""35905""
""blur"",""5"",""53201""
""focus"",""5"",""221911""
""blur"",""5"",""224679""
""focus"",""5"",""226201""
""fullscreenenter"",""5"",""227030""
","""event"",""trial"",""time""
""blur"",""5"",""53201""
""blur"",""5"",""224679""
","""event"",""trial"",""time""
""focus"",""1"",""35905""
""focus"",""5"",""221911""
""focus"",""5"",""226201""
","""event"",""trial"",""time""
""fullscreenenter"",""5"",""227030""
","
",,images/earth.jpg,,,,,,,,,,,,,,fixation,,,,,,
d3-animate-choice,100,770245,0.0-61.0-0.13,1463,1657,8,Female,FALSE,TRUE,TRUE,FALSE,"""event"",""trial"",""time""
""focus"",""1"",""35905""
""blur"",""5"",""53201""
""focus"",""5"",""221911""
""blur"",""5"",""224679""
""focus"",""5"",""226201""
""fullscreenenter"",""5"",""227030""
","""event"",""trial"",""time""
""blur"",""5"",""53201""
""blur"",""5"",""224679""
","""event"",""trial"",""time""
""focus"",""1"",""35905""
""focus"",""5"",""221911""
""focus"",""5"",""226201""
","""event"",""trial"",""time""
""fullscreenenter"",""5"",""227030""
","
",1334.1,,48,,,3000,1,,,images/earth.jpg,images/tutrocket1,images/tutrocket2,null,images/tutrocket1,,1,practice,null,,,2,
d3-animate-choice,101,774253,0.0-61.0-1.13,1463,1657,8,Female,FALSE,TRUE,TRUE,FALSE,"""event"",""trial"",""time""
""focus"",""1"",""35905""
""blur"",""5"",""53201""
""focus"",""5"",""221911""
""blur"",""5"",""224679""
""focus"",""5"",""226201""
""fullscreenenter"",""5"",""227030""
","""event"",""trial"",""time""
""blur"",""5"",""53201""
""blur"",""5"",""224679""
","""event"",""trial"",""time""
""focus"",""1"",""35905""
""focus"",""5"",""221911""
""focus"",""5"",""226201""
","""event"",""trial"",""time""
""fullscreenenter"",""5"",""227030""
","
",1998.8,,49,,,3000,1,,,images/tutgreenplanet.jpg,images/tutalien2,images/tutalien1,images/tutrocket1,images/tutalien1,images/nothing.png,2,practice,TRUE,0,24:38.3,1,common
two-step-fixation,102,775259,0.0-61.0-2.13,1463,1657,8,Female,FALSE,TRUE,TRUE,FALSE,"""event"",""trial"",""time""
""focus"",""1"",""35905""
""blur"",""5"",""53201""
""focus"",""5"",""221911""
""blur"",""5"",""224679""
""focus"",""5"",""226201""
""fullscreenenter"",""5"",""227030""
","""event"",""trial"",""time""
""blur"",""5"",""53201""
""blur"",""5"",""224679""
","""event"",""trial"",""time""
""focus"",""1"",""35905""
""focus"",""5"",""221911""
""focus"",""5"",""226201""
","""event"",""trial"",""time""
""fullscreenenter"",""5"",""227030""
","
",,images/earth.jpg,,,,,,,,,,,,,,fixation,,,,,,
d3-animate-choice,103,778194,0.0-61.0-0.14,1463,1657,8,Female,FALSE,TRUE,TRUE,FALSE,"""event"",""trial"",""time""
""focus"",""1"",""35905""
""blur"",""5"",""53201""
""focus"",""5"",""221911""
""blur"",""5"",""224679""
""focus"",""5"",""226201""
""fullscreenenter"",""5"",""227030""
","""event"",""trial"",""time""
""blur"",""5"",""53201""
""blur"",""5"",""224679""
","""event"",""trial"",""time""
""focus"",""1"",""35905""
""focus"",""5"",""221911""
""focus"",""5"",""226201""
","""event"",""trial"",""time""
""fullscreenenter"",""5"",""227030""
","
",930,,48,,,3000,1,,,images/earth.jpg,images/tutrocket1,images/tutrocket2,null,images/tutrocket1,,1,practice,null,,,2,
d3-animate-choice,104,781012,0.0-61.0-1.14,1463,1657,8,Female,FALSE,TRUE,TRUE,FALSE,"""event"",""trial"",""time""
""focus"",""1"",""35905""
""blur"",""5"",""53201""
""focus"",""5"",""221911""
""blur"",""5"",""224679""
""focus"",""5"",""226201""
""fullscreenenter"",""5"",""227030""
","""event"",""trial"",""time""
""blur"",""5"",""53201""
""blur"",""5"",""224679""
","""event"",""trial"",""time""
""focus"",""1"",""35905""
""focus"",""5"",""221911""
""focus"",""5"",""226201""
","""event"",""trial"",""time""
""fullscreenenter"",""5"",""227030""
","
",813.6,,48,,,3000,1,,,images/tutgreenplanet.jpg,images/tutalien2,images/tutalien1,images/tutrocket1,images/tutalien2,images/t.png,2,practice,TRUE,1,24:45.1,2,common
two-step-fixation,105,782022,0.0-61.0-2.14,1463,1657,8,Female,FALSE,TRUE,TRUE,FALSE,"""event"",""trial"",""time""
""focus"",""1"",""35905""
""blur"",""5"",""53201""
""focus"",""5"",""221911""
""blur"",""5"",""224679""
""focus"",""5"",""226201""
""fullscreenenter"",""5"",""227030""
","""event"",""trial"",""time""
""blur"",""5"",""53201""
""blur"",""5"",""224679""
","""event"",""trial"",""time""
""focus"",""1"",""35905""
""focus"",""5"",""221911""
""focus"",""5"",""226201""
","""event"",""trial"",""time""
""fullscreenenter"",""5"",""227030""
","
",,images/earth.jpg,,,,,,,,,,,,,,fixation,,,,,,
d3-animate-choice,106,785874,0.0-61.0-0.15,1463,1657,8,Female,FALSE,TRUE,TRUE,FALSE,"""event"",""trial"",""time""
""focus"",""1"",""35905""
""blur"",""5"",""53201""
""focus"",""5"",""221911""
""blur"",""5"",""224679""
""focus"",""5"",""226201""
""fullscreenenter"",""5"",""227030""
","""event"",""trial"",""time""
""blur"",""5"",""53201""
""blur"",""5"",""224679""
","""event"",""trial"",""time""
""focus"",""1"",""35905""
""focus"",""5"",""221911""
""focus"",""5"",""226201""
","""event"",""trial"",""time""
""fullscreenenter"",""5"",""227030""
","
",1837.2,,49,,,3000,1,,,images/earth.jpg,images/tutrocket1,images/tutrocket2,null,images/tutrocket2,,1,practice,null,,,1,
d3-animate-choice,107,789214,0.0-61.0-1.15,1463,1657,8,Female,FALSE,TRUE,TRUE,FALSE,"""event"",""trial"",""time""
""focus"",""1"",""35905""
""blur"",""5"",""53201""
""focus"",""5"",""221911""
""blur"",""5"",""224679""
""focus"",""5"",""226201""
""fullscreenenter"",""5"",""227030""
","""event"",""trial"",""time""
""blur"",""5"",""53201""
""blur"",""5"",""224679""
","""event"",""trial"",""time""
""focus"",""1"",""35905""
""focus"",""5"",""221911""
""focus"",""5"",""226201""
","""event"",""trial"",""time""
""fullscreenenter"",""5"",""227030""
","
",1332.1,,49,,,3000,1,,,images/tutyellowplanet.jpg,images/tutalien4,images/tutalien3,images/tutrocket2,images/tutalien3,images/nothing.png,2,practice,TRUE,0,24:53.3,1,common
two-step-fixation,108,790219,0.0-61.0-2.15,1463,1657,8,Female,FALSE,TRUE,TRUE,FALSE,"""event"",""trial"",""time""
""focus"",""1"",""35905""
""blur"",""5"",""53201""
""focus"",""5"",""221911""
""blur"",""5"",""224679""
""focus"",""5"",""226201""
""fullscreenenter"",""5"",""227030""
","""event"",""trial"",""time""
""blur"",""5"",""53201""
""blur"",""5"",""224679""
","""event"",""trial"",""time""
""focus"",""1"",""35905""
""focus"",""5"",""221911""
""focus"",""5"",""226201""
","""event"",""trial"",""time""
""fullscreenenter"",""5"",""227030""
","
",,images/earth.jpg,,,,,,,,,,,,,,fixation,,,,,,
d3-animate-choice,109,794066,0.0-61.0-0.16,1463,1657,8,Female,FALSE,TRUE,TRUE,FALSE,"""event"",""trial"",""time""
""focus"",""1"",""35905""
""blur"",""5"",""53201""
""focus"",""5"",""221911""
""blur"",""5"",""224679""
""focus"",""5"",""226201""
""fullscreenenter"",""5"",""227030""
","""event"",""trial"",""time""
""blur"",""5"",""53201""
""blur"",""5"",""224679""
","""event"",""trial"",""time""
""focus"",""1"",""35905""
""focus"",""5"",""221911""
""focus"",""5"",""226201""
","""event"",""trial"",""time""
""fullscreenenter"",""5"",""227030""
","
",1836.3,,48,,,3000,1,,,images/earth.jpg,images/tutrocket1,images/tutrocket2,null,images/tutrocket1,,1,practice,null,,,2,
d3-animate-choice,110,797564,0.0-61.0-1.16,1463,1657,8,Female,FALSE,TRUE,TRUE,FALSE,"""event"",""trial"",""time""
""focus"",""1"",""35905""
""blur"",""5"",""53201""
""focus"",""5"",""221911""
""blur"",""5"",""224679""
""focus"",""5"",""226201""
""fullscreenenter"",""5"",""227030""
","""event"",""trial"",""time""
""blur"",""5"",""53201""
""blur"",""5"",""224679""
","""event"",""trial"",""time""
""focus"",""1"",""35905""
""focus"",""5"",""221911""
""focus"",""5"",""226201""
","""event"",""trial"",""time""
""fullscreenenter"",""5"",""227030""
","
",1485.9,,49,,,3000,1,,,images/tutyellowplanet.jpg,images/tutalien4,images/tutalien3,images/tutrocket1,images/tutalien3,images/nothing.png,2,practice,FALSE,0,25:01.6,1,rare
two-step-fixation,111,798574,0.0-61.0-2.16,1463,1657,8,Female,FALSE,TRUE,TRUE,FALSE,"""event"",""trial"",""time""
""focus"",""1"",""35905""
""blur"",""5"",""53201""
""focus"",""5"",""221911""
""blur"",""5"",""224679""
""focus"",""5"",""226201""
""fullscreenenter"",""5"",""227030""
","""event"",""trial"",""time""
""blur"",""5"",""53201""
""blur"",""5"",""224679""
","""event"",""trial"",""time""
""focus"",""1"",""35905""
""focus"",""5"",""221911""
""focus"",""5"",""226201""
","""event"",""trial"",""time""
""fullscreenenter"",""5"",""227030""
","
",,images/earth.jpg,,,,,,,,,,,,,,fixation,,,,,,
d3-animate-choice,112,802114,0.0-61.0-0.17,1463,1657,8,Female,FALSE,TRUE,TRUE,FALSE,"""event"",""trial"",""time""
""focus"",""1"",""35905""
""blur"",""5"",""53201""
""focus"",""5"",""221911""
""blur"",""5"",""224679""
""focus"",""5"",""226201""
""fullscreenenter"",""5"",""227030""
","""event"",""trial"",""time""
""blur"",""5"",""53201""
""blur"",""5"",""224679""
","""event"",""trial"",""time""
""focus"",""1"",""35905""
""focus"",""5"",""221911""
""focus"",""5"",""226201""
","""event"",""trial"",""time""
""fullscreenenter"",""5"",""227030""
","
",1528.2,,48,,,3000,1,2684.5,49,images/earth.jpg,images/tutrocket1,images/tutrocket2,null,images/tutrocket1,,1,practice,null,,,2,
d3-animate-choice,113,804503,0.0-61.0-1.17,1463,1657,8,Female,FALSE,TRUE,TRUE,FALSE,"""event"",""trial"",""time""
""focus"",""1"",""35905""
""blur"",""5"",""53201""
""focus"",""5"",""221911""
""blur"",""5"",""224679""
""focus"",""5"",""226201""
""fullscreenenter"",""5"",""227030""
","""event"",""trial"",""time""
""blur"",""5"",""53201""
""blur"",""5"",""224679""
","""event"",""trial"",""time""
""focus"",""1"",""35905""
""focus"",""5"",""221911""
""focus"",""5"",""226201""
","""event"",""trial"",""time""
""fullscreenenter"",""5"",""227030""
","
",377.1,,49,,,3000,1,,,images/tutgreenplanet.jpg,images/tutalien2,images/tutalien1,images/tutrocket1,images/tutalien1,images/nothing.png,2,practice,TRUE,0,25:08.6,1,common
two-step-fixation,114,805512,0.0-61.0-2.17,1463,1657,8,Female,FALSE,TRUE,TRUE,FALSE,"""event"",""trial"",""time""
""focus"",""1"",""35905""
""blur"",""5"",""53201""
""focus"",""5"",""221911""
""blur"",""5"",""224679""
""focus"",""5"",""226201""
""fullscreenenter"",""5"",""227030""
","""event"",""trial"",""time""
""blur"",""5"",""53201""
""blur"",""5"",""224679""
","""event"",""trial"",""time""
""focus"",""1"",""35905""
""focus"",""5"",""221911""
""focus"",""5"",""226201""
","""event"",""trial"",""time""
""fullscreenenter"",""5"",""227030""
","
",,images/earth.jpg,,,,,,,,,,,,,,fixation,,,,,,
d3-animate-choice,115,808260,0.0-61.0-0.18,1463,1657,8,Female,FALSE,TRUE,TRUE,FALSE,"""event"",""trial"",""time""
""focus"",""1"",""35905""
""blur"",""5"",""53201""
""focus"",""5"",""221911""
""blur"",""5"",""224679""
""focus"",""5"",""226201""
""fullscreenenter"",""5"",""227030""
","""event"",""trial"",""time""
""blur"",""5"",""53201""
""blur"",""5"",""224679""
","""event"",""trial"",""time""
""focus"",""1"",""35905""
""focus"",""5"",""221911""
""focus"",""5"",""226201""
","""event"",""trial"",""time""
""fullscreenenter"",""5"",""227030""
","
",741.6,,48,,,3000,1,,,images/earth.jpg,images/tutrocket1,images/tutrocket2,null,images/tutrocket1,,1,practice,null,,,2,
d3-animate-choice,116,810794,0.0-61.0-1.18,1463,1657,8,Female,FALSE,TRUE,TRUE,FALSE,"""event"",""trial"",""time""
""focus"",""1"",""35905""
""blur"",""5"",""53201""
""focus"",""5"",""221911""
""blur"",""5"",""224679""
""focus"",""5"",""226201""
""fullscreenenter"",""5"",""227030""
","""event"",""trial"",""time""
""blur"",""5"",""53201""
""blur"",""5"",""224679""
","""event"",""trial"",""time""
""focus"",""1"",""35905""
""focus"",""5"",""221911""
""focus"",""5"",""226201""
","""event"",""trial"",""time""
""fullscreenenter"",""5"",""227030""
","
",525.2,,48,,,3000,1,,,images/tutgreenplanet.jpg,images/tutalien2,images/tutalien1,images/tutrocket1,images/tutalien2,images/t.png,2,practice,TRUE,1,25:14.9,2,common
two-step-fixation,117,811802,0.0-61.0-2.18,1463,1657,8,Female,FALSE,TRUE,TRUE,FALSE,"""event"",""trial"",""time""
""focus"",""1"",""35905""
""blur"",""5"",""53201""
""focus"",""5"",""221911""
""blur"",""5"",""224679""
""focus"",""5"",""226201""
""fullscreenenter"",""5"",""227030""
","""event"",""trial"",""time""
""blur"",""5"",""53201""
""blur"",""5"",""224679""
","""event"",""trial"",""time""
""focus"",""1"",""35905""
""focus"",""5"",""221911""
""focus"",""5"",""226201""
","""event"",""trial"",""time""
""fullscreenenter"",""5"",""227030""
","
",,images/earth.jpg,,,,,,,,,,,,,,fixation,,,,,,
d3-animate-choice,118,813920,0.0-61.0-0.19,1463,1657,8,Female,FALSE,TRUE,TRUE,FALSE,"""event"",""trial"",""time""
""focus"",""1"",""35905""
""blur"",""5"",""53201""
""focus"",""5"",""221911""
""blur"",""5"",""224679""
""focus"",""5"",""226201""
""fullscreenenter"",""5"",""227030""
","""event"",""trial"",""time""
""blur"",""5"",""53201""
""blur"",""5"",""224679""
","""event"",""trial"",""time""
""focus"",""1"",""35905""
""focus"",""5"",""221911""
""focus"",""5"",""226201""
","""event"",""trial"",""time""
""fullscreenenter"",""5"",""227030""
","
",112.7,,48,,,3000,1,,,images/earth.jpg,images/tutrocket1,images/tutrocket2,null,images/tutrocket1,,1,practice,null,,,2,
d3-animate-choice,119,816264,0.0-61.0-1.19,1463,1657,8,Female,FALSE,TRUE,TRUE,FALSE,"""event"",""trial"",""time""
""focus"",""1"",""35905""
""blur"",""5"",""53201""
""focus"",""5"",""221911""
""blur"",""5"",""224679""
""focus"",""5"",""226201""
""fullscreenenter"",""5"",""227030""
","""event"",""trial"",""time""
""blur"",""5"",""53201""
""blur"",""5"",""224679""
","""event"",""trial"",""time""
""focus"",""1"",""35905""
""focus"",""5"",""221911""
""focus"",""5"",""226201""
","""event"",""trial"",""time""
""fullscreenenter"",""5"",""227030""
","
",334,,48,,,3000,1,,,images/tutyellowplanet.jpg,images/tutalien4,images/tutalien3,images/tutrocket1,images/tutalien4,images/nothing.png,2,practice,FALSE,0,25:20.3,2,rare
two-step-fixation,120,817267,0.0-61.0-2.19,1463,1657,8,Female,FALSE,TRUE,TRUE,FALSE,"""event"",""trial"",""time""
""focus"",""1"",""35905""
""blur"",""5"",""53201""
""focus"",""5"",""221911""
""blur"",""5"",""224679""
""focus"",""5"",""226201""
""fullscreenenter"",""5"",""227030""
","""event"",""trial"",""time""
""blur"",""5"",""53201""
""blur"",""5"",""224679""
","""event"",""trial"",""time""
""focus"",""1"",""35905""
""focus"",""5"",""221911""
""focus"",""5"",""226201""
","""event"",""trial"",""time""
""fullscreenenter"",""5"",""227030""
","
",,images/earth.jpg,,,,,,,,,,,,,,fixation,,,,,,
d3-instructions,121,826162,0.0-62.0,1463,1657,8,Female,FALSE,TRUE,TRUE,FALSE,"""event"",""trial"",""time""
""focus"",""1"",""35905""
""blur"",""5"",""53201""
""focus"",""5"",""221911""
""blur"",""5"",""224679""
""focus"",""5"",""226201""
""fullscreenenter"",""5"",""227030""
","""event"",""trial"",""time""
""blur"",""5"",""53201""
""blur"",""5"",""224679""
","""event"",""trial"",""time""
""focus"",""1"",""35905""
""focus"",""5"",""221911""
""focus"",""5"",""226201""
","""event"",""trial"",""time""
""fullscreenenter"",""5"",""227030""
","
",,,,,,,,,,,,,,,,,,,,,,
audio-keyboard-response,122,834116,0.0-63.0,1463,1657,8,Female,FALSE,TRUE,TRUE,FALSE,"""event"",""trial"",""time""
""focus"",""1"",""35905""
""blur"",""5"",""53201""
""focus"",""5"",""221911""
""blur"",""5"",""224679""
""focus"",""5"",""226201""
""fullscreenenter"",""5"",""227030""
","""event"",""trial"",""time""
""blur"",""5"",""53201""
""blur"",""5"",""224679""
","""event"",""trial"",""time""
""focus"",""1"",""35905""
""focus"",""5"",""221911""
""focus"",""5"",""226201""
","""event"",""trial"",""time""
""fullscreenenter"",""5"",""227030""
","
",7960,audio/instructions/treasure_feedback.wav,32,,,,,,,,,,,,,,,,,,,
d3-instructions,123,856992,0.0-64.0,1463,1657,8,Female,FALSE,TRUE,TRUE,FALSE,"""event"",""trial"",""time""
""focus"",""1"",""35905""
""blur"",""5"",""53201""
""focus"",""5"",""221911""
""blur"",""5"",""224679""
""focus"",""5"",""226201""
""fullscreenenter"",""5"",""227030""
","""event"",""trial"",""time""
""blur"",""5"",""53201""
""blur"",""5"",""224679""
","""event"",""trial"",""time""
""focus"",""1"",""35905""
""focus"",""5"",""221911""
""focus"",""5"",""226201""
","""event"",""trial"",""time""
""fullscreenenter"",""5"",""227030""
","
",,,,,,,,,,,,,,,,,,,,,,
d3-instructions,124,873722,0.0-65.0,1463,1657,8,Female,FALSE,TRUE,TRUE,FALSE,"""event"",""trial"",""time""
""focus"",""1"",""35905""
""blur"",""5"",""53201""
""focus"",""5"",""221911""
""blur"",""5"",""224679""
""focus"",""5"",""226201""
""fullscreenenter"",""5"",""227030""
","""event"",""trial"",""time""
""blur"",""5"",""53201""
""blur"",""5"",""224679""
","""event"",""trial"",""time""
""focus"",""1"",""35905""
""focus"",""5"",""221911""
""focus"",""5"",""226201""
","""event"",""trial"",""time""
""fullscreenenter"",""5"",""227030""
","
",,,,,,,,,,,,,,,,,,,,,,
d3-instructions,125,903698,0.0-66.0,1463,1657,8,Female,FALSE,TRUE,TRUE,FALSE,"""event"",""trial"",""time""
""focus"",""1"",""35905""
""blur"",""5"",""53201""
""focus"",""5"",""221911""
""blur"",""5"",""224679""
""focus"",""5"",""226201""
""fullscreenenter"",""5"",""227030""
","""event"",""trial"",""time""
""blur"",""5"",""53201""
""blur"",""5"",""224679""
","""event"",""trial"",""time""
""focus"",""1"",""35905""
""focus"",""5"",""221911""
""focus"",""5"",""226201""
","""event"",""trial"",""time""
""fullscreenenter"",""5"",""227030""
","
",,,,,,,,,,,,,,,,,,,,,,
d3-instructions,126,922204,0.0-67.0,1463,1657,8,Female,FALSE,TRUE,TRUE,FALSE,"""event"",""trial"",""time""
""focus"",""1"",""35905""
""blur"",""5"",""53201""
""focus"",""5"",""221911""
""blur"",""5"",""224679""
""focus"",""5"",""226201""
""fullscreenenter"",""5"",""227030""
","""event"",""trial"",""time""
""blur"",""5"",""53201""
""blur"",""5"",""224679""
","""event"",""trial"",""time""
""focus"",""1"",""35905""
""focus"",""5"",""221911""
""focus"",""5"",""226201""
","""event"",""trial"",""time""
""fullscreenenter"",""5"",""227030""
","
",,,,,,,,,,,,,,,,,,,,,,
d3-instructions,127,932190,0.0-68.0,1463,1657,8,Female,FALSE,TRUE,TRUE,FALSE,"""event"",""trial"",""time""
""focus"",""1"",""35905""
""blur"",""5"",""53201""
""focus"",""5"",""221911""
""blur"",""5"",""224679""
""focus"",""5"",""226201""
""fullscreenenter"",""5"",""227030""
","""event"",""trial"",""time""
""blur"",""5"",""53201""
""blur"",""5"",""224679""
","""event"",""trial"",""time""
""focus"",""1"",""35905""
""focus"",""5"",""221911""
""focus"",""5"",""226201""
","""event"",""trial"",""time""
""fullscreenenter"",""5"",""227030""
","
",,,,,,,,,,,,,,,,,,,,,,
instructions-quiz,128,938603,0.0-69.0,1463,1657,8,Female,FALSE,TRUE,TRUE,FALSE,"""event"",""trial"",""time""
""focus"",""1"",""35905""
""blur"",""5"",""53201""
""focus"",""5"",""221911""
""blur"",""5"",""224679""
""focus"",""5"",""226201""
""fullscreenenter"",""5"",""227030""
","""event"",""trial"",""time""
""blur"",""5"",""53201""
""blur"",""5"",""224679""
","""event"",""trial"",""time""
""focus"",""1"",""35905""
""focus"",""5"",""221911""
""focus"",""5"",""226201""
","""event"",""trial"",""time""
""fullscreenenter"",""5"",""227030""
","
",6408.5,audio/quiz/Q1_Prompt.wav,,1,,,,,,,,,,,,,,,,,,
audio-keyboard-response,129,947775,0.0-70.0,1463,1657,8,Female,FALSE,TRUE,TRUE,FALSE,"""event"",""trial"",""time""
""focus"",""1"",""35905""
""blur"",""5"",""53201""
""focus"",""5"",""221911""
""blur"",""5"",""224679""
""focus"",""5"",""226201""
""fullscreenenter"",""5"",""227030""
","""event"",""trial"",""time""
""blur"",""5"",""53201""
""blur"",""5"",""224679""
","""event"",""trial"",""time""
""focus"",""1"",""35905""
""focus"",""5"",""221911""
""focus"",""5"",""226201""
","""event"",""trial"",""time""
""fullscreenenter"",""5"",""227030""
","
",null,audio/quiz/Q1_Correct.wav,null,,,,,,,,,,,,,,,,,,,
instructions-quiz,130,957296,0.0-71.0,1463,1657,8,Female,FALSE,TRUE,TRUE,FALSE,"""event"",""trial"",""time""
""focus"",""1"",""35905""
""blur"",""5"",""53201""
""focus"",""5"",""221911""
""blur"",""5"",""224679""
""focus"",""5"",""226201""
""fullscreenenter"",""5"",""227030""
","""event"",""trial"",""time""
""blur"",""5"",""53201""
""blur"",""5"",""224679""
","""event"",""trial"",""time""
""focus"",""1"",""35905""
""focus"",""5"",""221911""
""focus"",""5"",""226201""
","""event"",""trial"",""time""
""fullscreenenter"",""5"",""227030""
","
",9519.3,audio/quiz/Q2_Prompt.wav,,1,,,,,,,,,,,,,,,,,,
audio-keyboard-response,131,971376,0.0-72.0,1463,1657,8,Female,FALSE,TRUE,TRUE,FALSE,"""event"",""trial"",""time""
""focus"",""1"",""35905""
""blur"",""5"",""53201""
""focus"",""5"",""221911""
""blur"",""5"",""224679""
""focus"",""5"",""226201""
""fullscreenenter"",""5"",""227030""
","""event"",""trial"",""time""
""blur"",""5"",""53201""
""blur"",""5"",""224679""
","""event"",""trial"",""time""
""focus"",""1"",""35905""
""focus"",""5"",""221911""
""focus"",""5"",""226201""
","""event"",""trial"",""time""
""fullscreenenter"",""5"",""227030""
","
",null,audio/quiz/Q2_Incorrect.wav,null,,,,,,,,,,,,,,,,,,,
instructions-quiz,132,977252,0.0-73.0,1463,1657,8,Female,FALSE,TRUE,TRUE,FALSE,"""event"",""trial"",""time""
""focus"",""1"",""35905""
""blur"",""5"",""53201""
""focus"",""5"",""221911""
""blur"",""5"",""224679""
""focus"",""5"",""226201""
""fullscreenenter"",""5"",""227030""
","""event"",""trial"",""time""
""blur"",""5"",""53201""
""blur"",""5"",""224679""
","""event"",""trial"",""time""
""focus"",""1"",""35905""
""focus"",""5"",""221911""
""focus"",""5"",""226201""
","""event"",""trial"",""time""
""fullscreenenter"",""5"",""227030""
","
",5874.5,audio/quiz/Q3_Prompt.wav,,1,,,,,,,,,,,,,,,,,,
audio-keyboard-response,133,983046,0.0-74.0,1463,1657,8,Female,FALSE,TRUE,TRUE,FALSE,"""event"",""trial"",""time""
""focus"",""1"",""35905""
""blur"",""5"",""53201""
""focus"",""5"",""221911""
""blur"",""5"",""224679""
""focus"",""5"",""226201""
""fullscreenenter"",""5"",""227030""
","""event"",""trial"",""time""
""blur"",""5"",""53201""
""blur"",""5"",""224679""
","""event"",""trial"",""time""
""focus"",""1"",""35905""
""focus"",""5"",""221911""
""focus"",""5"",""226201""
","""event"",""trial"",""time""
""fullscreenenter"",""5"",""227030""
","
",null,audio/quiz/Q3_Correct.wav,null,,,,,,,,,,,,,,,,,,,
d3-instructions,134,998628,0.0-75.0,1463,1657,8,Female,FALSE,TRUE,TRUE,FALSE,"""event"",""trial"",""time""
""focus"",""1"",""35905""
""blur"",""5"",""53201""
""focus"",""5"",""221911""
""blur"",""5"",""224679""
""focus"",""5"",""226201""
""fullscreenenter"",""5"",""227030""
","""event"",""trial"",""time""
""blur"",""5"",""53201""
""blur"",""5"",""224679""
","""event"",""trial"",""time""
""focus"",""1"",""35905""
""focus"",""5"",""221911""
""focus"",""5"",""226201""
","""event"",""trial"",""time""
""fullscreenenter"",""5"",""227030""
","
",,,,,,,,,,,,,,,,,,,,,,
d3-animate-choice,135,1002639,0.0-76.0-0.0,1463,1657,8,Female,FALSE,TRUE,TRUE,FALSE,"""event"",""trial"",""time""
""focus"",""1"",""35905""
""blur"",""5"",""53201""
""focus"",""5"",""221911""
""blur"",""5"",""224679""
""focus"",""5"",""226201""
""fullscreenenter"",""5"",""227030""
","""event"",""trial"",""time""
""blur"",""5"",""53201""
""blur"",""5"",""224679""
","""event"",""trial"",""time""
""focus"",""1"",""35905""
""focus"",""5"",""221911""
""focus"",""5"",""226201""
","""event"",""trial"",""time""
""fullscreenenter"",""5"",""227030""
","
",2166.4,,48,,,3000,1,,,images/earth.jpg,images/rocket1,images/rocket2,null,images/rocket1,,1,real,null,,,2,
d3-animate-choice,136,1006406,0.0-76.0-1.0,1463,1657,8,Female,FALSE,TRUE,TRUE,FALSE,"""event"",""trial"",""time""
""focus"",""1"",""35905""
""blur"",""5"",""53201""
""focus"",""5"",""221911""
""blur"",""5"",""224679""
""focus"",""5"",""226201""
""fullscreenenter"",""5"",""227030""
","""event"",""trial"",""time""
""blur"",""5"",""53201""
""blur"",""5"",""224679""
","""event"",""trial"",""time""
""focus"",""1"",""35905""
""focus"",""5"",""221911""
""focus"",""5"",""226201""
","""event"",""trial"",""time""
""fullscreenenter"",""5"",""227030""
","
",1757.8,,49,,,3000,1,,,images/redplanet1.jpg,images/alien2,images/alien1,images/rocket1,images/alien1,images/nothing.png,2,real,TRUE,0,28:30.5,1,common
two-step-fixation,137,1007413,0.0-76.0-2.0,1463,1657,8,Female,FALSE,TRUE,TRUE,FALSE,"""event"",""trial"",""time""
""focus"",""1"",""35905""
""blur"",""5"",""53201""
""focus"",""5"",""221911""
""blur"",""5"",""224679""
""focus"",""5"",""226201""
""fullscreenenter"",""5"",""227030""
","""event"",""trial"",""time""
""blur"",""5"",""53201""
""blur"",""5"",""224679""
","""event"",""trial"",""time""
""focus"",""1"",""35905""
""focus"",""5"",""221911""
""focus"",""5"",""226201""
","""event"",""trial"",""time""
""fullscreenenter"",""5"",""227030""
","
",,images/earth.jpg,,,,,,,,,,,,,,fixation,,,,,,
d3-animate-choice,138,1011419,0.0-76.0-0.1,1463,1657,8,Female,FALSE,TRUE,TRUE,FALSE,"""event"",""trial"",""time""
""focus"",""1"",""35905""
""blur"",""5"",""53201""
""focus"",""5"",""221911""
""blur"",""5"",""224679""
""focus"",""5"",""226201""
""fullscreenenter"",""5"",""227030""
","""event"",""trial"",""time""
""blur"",""5"",""53201""
""blur"",""5"",""224679""
","""event"",""trial"",""time""
""focus"",""1"",""35905""
""focus"",""5"",""221911""
""focus"",""5"",""226201""
","""event"",""trial"",""time""
""fullscreenenter"",""5"",""227030""
","
",1343.7,,57,,,3000,1,2039.7,48,images/earth.jpg,images/rocket1,images/rocket2,null,images/rocket1,,1,real,null,,,,
d3-animate-choice,139,1014783,0.0-76.0-1.1,1463,1657,8,Female,FALSE,TRUE,TRUE,FALSE,"""event"",""trial"",""time""
""focus"",""1"",""35905""
""blur"",""5"",""53201""
""focus"",""5"",""221911""
""blur"",""5"",""224679""
""focus"",""5"",""226201""
""fullscreenenter"",""5"",""227030""
","""event"",""trial"",""time""
""blur"",""5"",""53201""
""blur"",""5"",""224679""
","""event"",""trial"",""time""
""focus"",""1"",""35905""
""focus"",""5"",""221911""
""focus"",""5"",""226201""
","""event"",""trial"",""time""
""fullscreenenter"",""5"",""227030""
","
",1354.5,,48,,,3000,1,,,images/redplanet1.jpg,images/alien2,images/alien1,images/rocket1,images/alien2,images/t.png,2,real,TRUE,1,28:38.9,2,common
two-step-fixation,140,1015798,0.0-76.0-2.1,1463,1657,8,Female,FALSE,TRUE,TRUE,FALSE,"""event"",""trial"",""time""
""focus"",""1"",""35905""
""blur"",""5"",""53201""
""focus"",""5"",""221911""
""blur"",""5"",""224679""
""focus"",""5"",""226201""
""fullscreenenter"",""5"",""227030""
","""event"",""trial"",""time""
""blur"",""5"",""53201""
""blur"",""5"",""224679""
","""event"",""trial"",""time""
""focus"",""1"",""35905""
""focus"",""5"",""221911""
""focus"",""5"",""226201""
","""event"",""trial"",""time""
""fullscreenenter"",""5"",""227030""
","
",,images/earth.jpg,,,,,,,,,,,,,,fixation,,,,,,
d3-animate-choice,141,1018230,0.0-76.0-0.2,1463,1657,8,Female,FALSE,TRUE,TRUE,FALSE,"""event"",""trial"",""time""
""focus"",""1"",""35905""
""blur"",""5"",""53201""
""focus"",""5"",""221911""
""blur"",""5"",""224679""
""focus"",""5"",""226201""
""fullscreenenter"",""5"",""227030""
","""event"",""trial"",""time""
""blur"",""5"",""53201""
""blur"",""5"",""224679""
","""event"",""trial"",""time""
""focus"",""1"",""35905""
""focus"",""5"",""221911""
""focus"",""5"",""226201""
","""event"",""trial"",""time""
""fullscreenenter"",""5"",""227030""
","
",420.3,,48,,,3000,1,"1075,1843.5,2180.9000000059605","48,48,48",images/earth.jpg,images/rocket1,images/rocket2,null,images/rocket1,,1,real,null,,,2,
d3-animate-choice,142,1020362,0.0-76.0-1.2,1463,1657,8,Female,FALSE,TRUE,TRUE,FALSE,"""event"",""trial"",""time""
""focus"",""1"",""35905""
""blur"",""5"",""53201""
""focus"",""5"",""221911""
""blur"",""5"",""224679""
""focus"",""5"",""226201""
""fullscreenenter"",""5"",""227030""
","""event"",""trial"",""time""
""blur"",""5"",""53201""
""blur"",""5"",""224679""
","""event"",""trial"",""time""
""focus"",""1"",""35905""
""focus"",""5"",""221911""
""focus"",""5"",""226201""
","""event"",""trial"",""time""
""fullscreenenter"",""5"",""227030""
","
",119.7,,48,,,3000,1,,,images/redplanet1.jpg,images/alien2,images/alien1,images/rocket1,images/alien2,images/nothing.png,2,real,TRUE,0,28:44.4,2,common
two-step-fixation,143,1021372,0.0-76.0-2.2,1463,1657,8,Female,FALSE,TRUE,TRUE,FALSE,"""event"",""trial"",""time""
""focus"",""1"",""35905""
""blur"",""5"",""53201""
""focus"",""5"",""221911""
""blur"",""5"",""224679""
""focus"",""5"",""226201""
""fullscreenenter"",""5"",""227030""
","""event"",""trial"",""time""
""blur"",""5"",""53201""
""blur"",""5"",""224679""
","""event"",""trial"",""time""
""focus"",""1"",""35905""
""focus"",""5"",""221911""
""focus"",""5"",""226201""
","""event"",""trial"",""time""
""fullscreenenter"",""5"",""227030""
","
",,images/earth.jpg,,,,,,,,,,,,,,fixation,,,,,,
d3-animate-choice,144,1024016,0.0-76.0-0.3,1463,1657,8,Female,FALSE,TRUE,TRUE,FALSE,"""event"",""trial"",""time""
""focus"",""1"",""35905""
""blur"",""5"",""53201""
""focus"",""5"",""221911""
""blur"",""5"",""224679""
""focus"",""5"",""226201""
""fullscreenenter"",""5"",""227030""
","""event"",""trial"",""time""
""blur"",""5"",""53201""
""blur"",""5"",""224679""
","""event"",""trial"",""time""
""focus"",""1"",""35905""
""focus"",""5"",""221911""
""focus"",""5"",""226201""
","""event"",""trial"",""time""
""fullscreenenter"",""5"",""227030""
","
",629.2,,49,,,3000,1,"1499.7000000178814,2243.5","49,49",images/earth.jpg,images/rocket1,images/rocket2,null,images/rocket2,,1,real,null,,,1,
d3-animate-choice,145,1027319,0.0-76.0-1.3,1463,1657,8,Female,FALSE,TRUE,TRUE,FALSE,"""event"",""trial"",""time""
""focus"",""1"",""35905""
""blur"",""5"",""53201""
""focus"",""5"",""221911""
""blur"",""5"",""224679""
""focus"",""5"",""226201""
""fullscreenenter"",""5"",""227030""
","""event"",""trial"",""time""
""blur"",""5"",""53201""
""blur"",""5"",""224679""
","""event"",""trial"",""time""
""focus"",""1"",""35905""
""focus"",""5"",""221911""
""focus"",""5"",""226201""
","""event"",""trial"",""time""
""fullscreenenter"",""5"",""227030""
","
",1295.9,,49,,,3000,1,,,images/purpleplanet.jpg,images/alien4,images/alien3,images/rocket2,images/alien3,images/nothing.png,2,real,TRUE,0,28:51.4,1,common
two-step-fixation,146,1028328,0.0-76.0-2.3,1463,1657,8,Female,FALSE,TRUE,TRUE,FALSE,"""event"",""trial"",""time""
""focus"",""1"",""35905""
""blur"",""5"",""53201""
""focus"",""5"",""221911""
""blur"",""5"",""224679""
""focus"",""5"",""226201""
""fullscreenenter"",""5"",""227030""
","""event"",""trial"",""time""
""blur"",""5"",""53201""
""blur"",""5"",""224679""
","""event"",""trial"",""time""
""focus"",""1"",""35905""
""focus"",""5"",""221911""
""focus"",""5"",""226201""
","""event"",""trial"",""time""
""fullscreenenter"",""5"",""227030""
","
",,images/earth.jpg,,,,,,,,,,,,,,fixation,,,,,,
d3-animate-choice,147,1030798,0.0-76.0-0.4,1463,1657,8,Female,FALSE,TRUE,TRUE,FALSE,"""event"",""trial"",""time""
""focus"",""1"",""35905""
""blur"",""5"",""53201""
""focus"",""5"",""221911""
""blur"",""5"",""224679""
""focus"",""5"",""226201""
""fullscreenenter"",""5"",""227030""
","""event"",""trial"",""time""
""blur"",""5"",""53201""
""blur"",""5"",""224679""
","""event"",""trial"",""time""
""focus"",""1"",""35905""
""focus"",""5"",""221911""
""focus"",""5"",""226201""
","""event"",""trial"",""time""
""fullscreenenter"",""5"",""227030""
","
",461.6,,49,,,3000,1,2046.3,48,images/earth.jpg,images/rocket1,images/rocket2,null,images/rocket2,,1,real,null,,,1,
d3-animate-choice,148,1032942,0.0-76.0-1.4,1463,1657,8,Female,FALSE,TRUE,TRUE,FALSE,"""event"",""trial"",""time""
""focus"",""1"",""35905""
""blur"",""5"",""53201""
""focus"",""5"",""221911""
""blur"",""5"",""224679""
""focus"",""5"",""226201""
""fullscreenenter"",""5"",""227030""
","""event"",""trial"",""time""
""blur"",""5"",""53201""
""blur"",""5"",""224679""
","""event"",""trial"",""time""
""focus"",""1"",""35905""
""focus"",""5"",""221911""
""focus"",""5"",""226201""
","""event"",""trial"",""time""
""fullscreenenter"",""5"",""227030""
","
",139.3,,48,,,3000,1,,,images/purpleplanet.jpg,images/alien4,images/alien3,images/rocket2,images/alien4,images/t.png,2,real,TRUE,1,28:57.0,2,common
two-step-fixation,149,1033954,0.0-76.0-2.4,1463,1657,8,Female,FALSE,TRUE,TRUE,FALSE,"""event"",""trial"",""time""
""focus"",""1"",""35905""
""blur"",""5"",""53201""
""focus"",""5"",""221911""
""blur"",""5"",""224679""
""focus"",""5"",""226201""
""fullscreenenter"",""5"",""227030""
","""event"",""trial"",""time""
""blur"",""5"",""53201""
""blur"",""5"",""224679""
","""event"",""trial"",""time""
""focus"",""1"",""35905""
""focus"",""5"",""221911""
""focus"",""5"",""226201""
","""event"",""trial"",""time""
""fullscreenenter"",""5"",""227030""
","
",,images/earth.jpg,,,,,,,,,,,,,,fixation,,,,,,
d3-animate-choice,150,1036953,0.0-76.0-0.5,1463,1657,8,Female,FALSE,TRUE,TRUE,FALSE,"""event"",""trial"",""time""
""focus"",""1"",""35905""
""blur"",""5"",""53201""
""focus"",""5"",""221911""
""blur"",""5"",""224679""
""focus"",""5"",""226201""
""fullscreenenter"",""5"",""227030""
","""event"",""trial"",""time""
""blur"",""5"",""53201""
""blur"",""5"",""224679""
","""event"",""trial"",""time""
""focus"",""1"",""35905""
""focus"",""5"",""221911""
""focus"",""5"",""226201""
","""event"",""trial"",""time""
""fullscreenenter"",""5"",""227030""
","
",987.6,,49,,,3000,1,2895.7,48,images/earth.jpg,images/rocket1,images/rocket2,null,images/rocket2,,1,real,null,,,1,
d3-animate-choice,151,1040960,0.0-76.0-1.5,1463,1657,8,Female,FALSE,TRUE,TRUE,FALSE,"""event"",""trial"",""time""
""focus"",""1"",""35905""
""blur"",""5"",""53201""
""focus"",""5"",""221911""
""blur"",""5"",""224679""
""focus"",""5"",""226201""
""fullscreenenter"",""5"",""227030""
","""event"",""trial"",""time""
""blur"",""5"",""53201""
""blur"",""5"",""224679""
","""event"",""trial"",""time""
""focus"",""1"",""35905""
""focus"",""5"",""221911""
""focus"",""5"",""226201""
","""event"",""trial"",""time""
""fullscreenenter"",""5"",""227030""
","
",2336.4,,48,,,3000,1,,,images/purpleplanet.jpg,images/alien4,images/alien3,images/rocket2,images/alien4,images/t.png,2,real,TRUE,1,29:05.0,2,common
two-step-fixation,152,1041972,0.0-76.0-2.5,1463,1657,8,Female,FALSE,TRUE,TRUE,FALSE,"""event"",""trial"",""time""
""focus"",""1"",""35905""
""blur"",""5"",""53201""
""focus"",""5"",""221911""
""blur"",""5"",""224679""
""focus"",""5"",""226201""
""fullscreenenter"",""5"",""227030""
","""event"",""trial"",""time""
""blur"",""5"",""53201""
""blur"",""5"",""224679""
","""event"",""trial"",""time""
""focus"",""1"",""35905""
""focus"",""5"",""221911""
""focus"",""5"",""226201""
","""event"",""trial"",""time""
""fullscreenenter"",""5"",""227030""
","
",,images/earth.jpg,,,,,,,,,,,,,,fixation,,,,,,
d3-animate-choice,153,1044693,0.0-76.0-0.6,1463,1657,8,Female,FALSE,TRUE,TRUE,FALSE,"""event"",""trial"",""time""
""focus"",""1"",""35905""
""blur"",""5"",""53201""
""focus"",""5"",""221911""
""blur"",""5"",""224679""
""focus"",""5"",""226201""
""fullscreenenter"",""5"",""227030""
","""event"",""trial"",""time""
""blur"",""5"",""53201""
""blur"",""5"",""224679""
","""event"",""trial"",""time""
""focus"",""1"",""35905""
""focus"",""5"",""221911""
""focus"",""5"",""226201""
","""event"",""trial"",""time""
""fullscreenenter"",""5"",""227030""
","
",716.4,,49,,,3000,1,,,images/earth.jpg,images/rocket1,images/rocket2,null,images/rocket2,,1,real,null,,,1,
d3-animate-choice,154,1047074,0.0-76.0-1.6,1463,1657,8,Female,FALSE,TRUE,TRUE,FALSE,"""event"",""trial"",""time""
""focus"",""1"",""35905""
""blur"",""5"",""53201""
""focus"",""5"",""221911""
""blur"",""5"",""224679""
""focus"",""5"",""226201""
""fullscreenenter"",""5"",""227030""
","""event"",""trial"",""time""
""blur"",""5"",""53201""
""blur"",""5"",""224679""
","""event"",""trial"",""time""
""focus"",""1"",""35905""
""focus"",""5"",""221911""
""focus"",""5"",""226201""
","""event"",""trial"",""time""
""fullscreenenter"",""5"",""227030""
","
",370.4,,48,,,3000,1,,,images/purpleplanet.jpg,images/alien4,images/alien3,images/rocket2,images/alien4,images/nothing.png,2,real,TRUE,0,29:11.2,2,common
two-step-fixation,155,1048083,0.0-76.0-2.6,1463,1657,8,Female,FALSE,TRUE,TRUE,FALSE,"""event"",""trial"",""time""
""focus"",""1"",""35905""
""blur"",""5"",""53201""
""focus"",""5"",""221911""
""blur"",""5"",""224679""
""focus"",""5"",""226201""
""fullscreenenter"",""5"",""227030""
","""event"",""trial"",""time""
""blur"",""5"",""53201""
""blur"",""5"",""224679""
","""event"",""trial"",""time""
