"trial_type","trial_index","time_elapsed","internal_node_id","participant_id","subject_id","age","gender","rocket_sides","red_planet_first_rocket","red_display_order","purple_display_order","interactions","blur_events","focus_events","fullscreenenter_events","fullscreenexit_events","rt","stimulus","key_press","button_pressed","success","duration","valid_pressed","rts","keys","planet_text","right_text","left_text","center_text","chosen_text","reward_text","trial_stage","practice_trial","transition_type","choice","transition","reward","timestamp"
"pavlovia","0","3","0.0-0.0","2388","4983","21","Male","false","true","true","true","
","
","
","
","
","","","","","","","","","","","","","","","","","","","","","",""
"html-keyboard-response","1","1602","0.0-1.0","2388","4983","21","Male","false","true","true","true","
","
","
","
","
","1598.2000000178814","Welcome! Press the space bar to begin.","32","","","","","","","","","","","","","","","","","","",""
"audio-keyboard-response","2","6717","0.0-2.0","2388","4983","21","Male","false","true","true","true","
","
","
","
","
","5077","audio/beep_loop.wav","32","","","","","","","","","","","","","","","","","","",""
"audio-button-response","3","8784","0.0-3.0","2388","4983","21","Male","false","true","true","true","
","
","
","
","
","NaN","audio/fish.mp3","","1","","","","","","","","","","","","","","","","","",""
"audio-button-response","4","11368","0.0-4.0","2388","4983","21","Male","false","true","true","true","""event"",""trial"",""time""
""fullscreenenter"",""5"",""13892""
","
","
","""event"",""trial"",""time""
""fullscreenenter"",""5"",""13892""
","
","NaN","audio/tiger.mp3","","4","","","","","","","","","","","","","","","","","",""
"fullscreen","5","14882","0.0-5.0","2388","4983","21","Male","false","true","true","true","""event"",""trial"",""time""
""fullscreenenter"",""5"",""13892""
","
","
","""event"",""trial"",""time""
""fullscreenenter"",""5"",""13892""
","
","","","","","true","","","","","","","","","","","","","","","","",""
"d3-instructions","6","20939","0.0-6.0","2388","4983","21","Male","false","true","true","true","""event"",""trial"",""time""
""fullscreenenter"",""5"",""13892""
","
","
","""event"",""trial"",""time""
""fullscreenenter"",""5"",""13892""
","
","","","","","","","","","","","","","","","","","","","","","",""
"d3-instructions","7","23595","0.0-7.0","2388","4983","21","Male","false","true","true","true","""event"",""trial"",""time""
""fullscreenenter"",""5"",""13892""
","
","
","""event"",""trial"",""time""
""fullscreenenter"",""5"",""13892""
","
","","","","","","","","","","","","","","","","","","","","","",""
"d3-instructions","8","25999","0.0-8.0","2388","4983","21","Male","false","true","true","true","""event"",""trial"",""time""
""fullscreenenter"",""5"",""13892""
","
","
","""event"",""trial"",""time""
""fullscreenenter"",""5"",""13892""
","
","","","","","","","","","","","","","","","","","","","","","",""
"d3-instructions","9","27675","0.0-9.0","2388","4983","21","Male","false","true","true","true","""event"",""trial"",""time""
""fullscreenenter"",""5"",""13892""
","
","
","""event"",""trial"",""time""
""fullscreenenter"",""5"",""13892""
","
","","","","","","","","","","","","","","","","","","","","","",""
"d3-instructions","10","34842","0.0-10.0","2388","4983","21","Male","false","true","true","true","""event"",""trial"",""time""
""fullscreenenter"",""5"",""13892""
","
","
","""event"",""trial"",""time""
""fullscreenenter"",""5"",""13892""
","
","","","","","","","","","","","","","","","","","","","","","",""
"d3-animate-choice","11","37917","0.0-11.0","2388","4983","21","Male","false","true","true","true","""event"",""trial"",""time""
""fullscreenenter"",""5"",""13892""
","
","
","""event"",""trial"",""time""
""fullscreenenter"",""5"",""13892""
","
","1064.9000000059605","","49","","","3000","1","1581.6000000238419,2617.2000000178814,2741.100000023842,2831.100000023842,2955.2000000178814,3045","49,48,48,48,48,48","images/tutgreenplanet.jpg","images/tutalien1","images/tutalien2","null","images/tutalien2","","NA","practice","null","","","",""
"d3-animate-choice","12","40038","0.0-12.0","2388","4983","21","Male","false","true","true","true","""event"",""trial"",""time""
""fullscreenenter"",""5"",""13892""
","
","
","""event"",""trial"",""time""
""fullscreenenter"",""5"",""13892""
","
","116.40000000596046","","48","","","3000","1","333.7000000178814,445.80000001192093,768.9000000059605","48,48,48","images/tutgreenplanet.jpg","images/tutalien1","images/tutalien2","null","images/tutalien1","","NA","practice","null","","","",""
"d3-animate-choice","13","42580","0.0-13.0","2388","4983","21","Male","false","true","true","true","""event"",""trial"",""time""
""fullscreenenter"",""5"",""13892""
","
","
","""event"",""trial"",""time""
""fullscreenenter"",""5"",""13892""
","
","538.0999999940395","","49","","","3000","1","706.2999999821186,2383","49,49","images/tutgreenplanet.jpg","images/tutalien1","images/tutalien2","null","images/tutalien2","","NA","practice","null","","","",""
"d3-animate-choice","14","44721","0.0-14.0","2388","4983","21","Male","false","true","true","true","""event"",""trial"",""time""
""fullscreenenter"",""5"",""13892""
","
","
","""event"",""trial"",""time""
""fullscreenenter"",""5"",""13892""
","
","133.5","","49","","","3000","1","305.09999999403954,515.9000000059605,777.9000000059605,977,1168,1363.2999999821186,1595.4000000059605,1854.5999999940395,2090.7999999821186","49,49,49,49,49,49,49,49,49","images/tutgreenplanet.jpg","images/tutalien1","images/tutalien2","null","images/tutalien2","","NA","practice","null","","","",""
"d3-instructions","15","47464","0.0-15.0","2388","4983","21","Male","false","true","true","true","""event"",""trial"",""time""
""fullscreenenter"",""5"",""13892""
","
","
","""event"",""trial"",""time""
""fullscreenenter"",""5"",""13892""
","
","","","","","","","","","","","","","","","","","","","","","",""
"d3-instructions","16","48490","0.0-16.0","2388","4983","21","Male","false","true","true","true","""event"",""trial"",""time""
""fullscreenenter"",""5"",""13892""
","
","
","""event"",""trial"",""time""
""fullscreenenter"",""5"",""13892""
","
","","","","","","","","","","","","","","","","","","","","","",""
"d3-instructions","17","50107","0.0-17.0","2388","4983","21","Male","false","true","true","true","""event"",""trial"",""time""
""fullscreenenter"",""5"",""13892""
","
","
","""event"",""trial"",""time""
""fullscreenenter"",""5"",""13892""
","
","","","","","","","","","","","","","","","","","","","","","",""
"d3-instructions","18","51040","0.0-18.0","2388","4983","21","Male","false","true","true","true","""event"",""trial"",""time""
""fullscreenenter"",""5"",""13892""
","
","
","""event"",""trial"",""time""
""fullscreenenter"",""5"",""13892""
","
","","","","","","","","","","","","","","","","","","","","","",""
"d3-instructions","19","62627","0.0-19.0","2388","4983","21","Male","false","true","true","true","""event"",""trial"",""time""
""fullscreenenter"",""5"",""13892""
","
","
","""event"",""trial"",""time""
""fullscreenenter"",""5"",""13892""
","
","","","","","","","","","","","","","","","","","","","","","",""
"d3-animate-choice","20","65136","0.0-20.0","2388","4983","21","Male","false","true","true","true","""event"",""trial"",""time""
""fullscreenenter"",""5"",""13892""
","
","
","""event"",""trial"",""time""
""fullscreenenter"",""5"",""13892""
","
","506.30000001192093","","49","","","3000","1","932.8000000119209,1171.5999999940395,1462,1667.7000000178814,1865.7000000178814,2080.5999999940395,2339","49,49,49,49,49,49,49","images/tutyellowplanet.jpg","null","images/tutalien3","null","images/tutalien3","images/t.png","NA","practice","null","","","",""
"d3-animate-choice","21","67205","0.0-21.0","2388","4983","21","Male","false","true","true","true","""event"",""trial"",""time""
""fullscreenenter"",""5"",""13892""
","
","
","""event"",""trial"",""time""
""fullscreenenter"",""5"",""13892""
","
","66.40000000596046","","49","","","3000","1","268.59999999403954,482.7999999821186,763.5999999940395,1078.5,1349,1629.9000000059605","49,49,49,49,49,49","images/tutyellowplanet.jpg","null","images/tutalien3","null","images/tutalien3","images/t.png","NA","practice","null","","","",""
"d3-animate-choice","22","69941","0.0-22.0","2388","4983","21","Male","false","true","true","true","""event"",""trial"",""time""
""fullscreenenter"",""5"",""13892""
","
","
","""event"",""trial"",""time""
""fullscreenenter"",""5"",""13892""
","
","730.7000000178814","","49","","","3000","1","936.2000000178814,1168.800000011921,1428.300000011921,1889.2000000178814,2552.7000000178814","49,49,49,49,49","images/tutyellowplanet.jpg","null","images/tutalien3","null","images/tutalien3","images/nothing.png","NA","practice","null","","","",""
"d3-animate-choice","23","72002","0.0-23.0","2388","4983","21","Male","false","true","true","true","""event"",""trial"",""time""
""fullscreenenter"",""5"",""13892""
","
","
","""event"",""trial"",""time""
""fullscreenenter"",""5"",""13892""
","
","52.80000001192093","","49","","","3000","1","312.40000000596046,1504.300000011921","49,49","images/tutyellowplanet.jpg","null","images/tutalien3","null","images/tutalien3","images/t.png","NA","practice","null","","","",""
"d3-animate-choice","24","74326","0.0-24.0","2388","4983","21","Male","false","true","true","true","""event"",""trial"",""time""
""fullscreenenter"",""5"",""13892""
","
","
","""event"",""trial"",""time""
""fullscreenenter"",""5"",""13892""
","
","321.09999999403954","","49","","","3000","1","579.6999999880791,816.6999999880791,1108.7999999821186,1367.7999999821186,1663.699999988079,1918.8999999761581,2158.0999999940395","49,49,49,49,49,49,49","images/tutyellowplanet.jpg","null","images/tutalien3","null","images/tutalien3","images/t.png","NA","practice","null","","","",""
"d3-animate-choice","25","76368","0.0-25.0","2388","4983","21","Male","false","true","true","true","""event"",""trial"",""time""
""fullscreenenter"",""5"",""13892""
","
","
","""event"",""trial"",""time""
""fullscreenenter"",""5"",""13892""
","
","36.599999994039536","","49","","","3000","1","273.5,528.7999999821186,802.1999999880791,1057.5,1350,1755.5,2012.5999999940395","49,49,49,49,49,49,49","images/tutyellowplanet.jpg","null","images/tutalien3","null","images/tutalien3","images/t.png","NA","practice","null","","","",""
"d3-animate-choice","26","78549","0.0-26.0","2388","4983","21","Male","false","true","true","true","""event"",""trial"",""time""
""fullscreenenter"",""5"",""13892""
","
","
","""event"",""trial"",""time""
""fullscreenenter"",""5"",""13892""
","
","174.5","","49","","","3000","1","410.59999999403954,702.0999999940395,996.5,1498.699999988079","49,49,49,49","images/tutyellowplanet.jpg","null","images/tutalien3","null","images/tutalien3","images/t.png","NA","practice","null","","","",""
"d3-animate-choice","27","80609","0.0-27.0","2388","4983","21","Male","false","true","true","true","""event"",""trial"",""time""
""fullscreenenter"",""5"",""13892""
","
","
","""event"",""trial"",""time""
""fullscreenenter"",""5"",""13892""
","
","55","","49","","","3000","1","302.19999998807907,501,740.5,974,1232.5999999940395,1471.5999999940395,1708.5,2057.300000011921","49,49,49,49,49,49,49,49","images/tutyellowplanet.jpg","null","images/tutalien3","null","images/tutalien3","images/t.png","NA","practice","null","","","",""
"d3-animate-choice","28","82835","0.0-28.0","2388","4983","21","Male","false","true","true","true","""event"",""trial"",""time""
""fullscreenenter"",""5"",""13892""
","
","
","""event"",""trial"",""time""
""fullscreenenter"",""5"",""13892""
","
","219.10000002384186","","49","","","3000","1","568.1000000238419,829.9000000059605,1831.300000011921","49,49,49","images/tutyellowplanet.jpg","null","images/tutalien3","null","images/tutalien3","images/t.png","NA","practice","null","","","",""
"d3-animate-choice","29","85354","0.0-29.0","2388","4983","21","Male","false","true","true","true","""event"",""trial"",""time""
""fullscreenenter"",""5"",""13892""
","
","
","""event"",""trial"",""time""
""fullscreenenter"",""5"",""13892""
","
","515.7000000178814","","49","","","3000","1","887.7000000178814","49","images/tutyellowplanet.jpg","null","images/tutalien3","null","images/tutalien3","images/t.png","NA","practice","null","","","",""
"d3-instructions","30","91363","0.0-30.0","2388","4983","21","Male","false","true","true","true","""event"",""trial"",""time""
""fullscreenenter"",""5"",""13892""
","
","
","""event"",""trial"",""time""
""fullscreenenter"",""5"",""13892""
","
","","","","","","","","","","","","","","","","","","","","","",""
"d3-instructions","31","92316","0.0-31.0","2388","4983","21","Male","false","true","true","true","""event"",""trial"",""time""
""fullscreenenter"",""5"",""13892""
","
","
","""event"",""trial"",""time""
""fullscreenenter"",""5"",""13892""
","
","","","","","","","","","","","","","","","","","","","","","",""
"d3-instructions","32","94112","0.0-32.0","2388","4983","21","Male","false","true","true","true","""event"",""trial"",""time""
""fullscreenenter"",""5"",""13892""
","
","
","""event"",""trial"",""time""
""fullscreenenter"",""5"",""13892""
","
","","","","","","","","","","","","","","","","","","","","","",""
"d3-instructions","33","95174","0.0-33.0","2388","4983","21","Male","false","true","true","true","""event"",""trial"",""time""
""fullscreenenter"",""5"",""13892""
","
","
","""event"",""trial"",""time""
""fullscreenenter"",""5"",""13892""
","
","","","","","","","","","","","","","","","","","","","","","",""
"d3-animate-choice","34","97929","0.0-34.0","2388","4983","21","Male","false","true","true","true","""event"",""trial"",""time""
""fullscreenenter"",""5"",""13892""
","
","
","""event"",""trial"",""time""
""fullscreenenter"",""5"",""13892""
","
","751.3000000119209","","49","","","3000","1","2371.5,2607.9000000059605","49,49","images/tutgreenplanet.jpg","images/tutalien1","images/tutalien2","null","images/tutalien2","images/t.png","NA","practice","null","","","",""
"d3-animate-choice","35","100025","0.0-35.0","2388","4983","21","Male","false","true","true","true","""event"",""trial"",""time""
""fullscreenenter"",""5"",""13892""
","
","
","""event"",""trial"",""time""
""fullscreenenter"",""5"",""13892""
","
","88.59999999403954","","49","","","3000","1","313.5,934.5999999940395,1461.199999988079,1832.5999999940395","49,49,49,49","images/tutgreenplanet.jpg","images/tutalien1","images/tutalien2","null","images/tutalien2","images/t.png","NA","practice","null","","","",""
"d3-animate-choice","36","102286","0.0-36.0","2388","4983","21","Male","false","true","true","true","""event"",""trial"",""time""
""fullscreenenter"",""5"",""13892""
","
","
","""event"",""trial"",""time""
""fullscreenenter"",""5"",""13892""
","
","252.7999999821186","","49","","","3000","1","693,1063.199999988079,1704.9000000059605","49,49,49","images/tutgreenplanet.jpg","images/tutalien1","images/tutalien2","null","images/tutalien2","images/t.png","NA","practice","null","","","",""
"d3-animate-choice","37","104865","0.0-37.0","2388","4983","21","Male","false","true","true","true","""event"",""trial"",""time""
""fullscreenenter"",""5"",""13892""
","
","
","""event"",""trial"",""time""
""fullscreenenter"",""5"",""13892""
","
","573.4000000059605","","49","","","3000","1","807.7000000178814,1121,1383,1641.5,1908.4000000059605,2133.5999999940395,2369.5","49,49,49,49,49,49,49","images/tutgreenplanet.jpg","images/tutalien1","images/tutalien2","null","images/tutalien2","images/t.png","NA","practice","null","","","",""
"d3-animate-choice","38","106922","0.0-38.0","2388","4983","21","Male","false","true","true","true","""event"",""trial"",""time""
""fullscreenenter"",""5"",""13892""
","
","
","""event"",""trial"",""time""
""fullscreenenter"",""5"",""13892""
","
","49.599999994039536","","49","","","3000","1","284.69999998807907,893.0999999940395,1342,1634,2020.699999988079","49,49,49,49,49","images/tutgreenplanet.jpg","images/tutalien1","images/tutalien2","null","images/tutalien2","images/t.png","NA","practice","null","","","",""
"d3-animate-choice","39","109146","0.0-39.0","2388","4983","21","Male","false","true","true","true","""event"",""trial"",""time""
""fullscreenenter"",""5"",""13892""
","
","
","""event"",""trial"",""time""
""fullscreenenter"",""5"",""13892""
","
","219.30000001192093","","49","","","3000","1","1044.5,1333,1648.800000011921","49,49,49","images/tutgreenplanet.jpg","images/tutalien1","images/tutalien2","null","images/tutalien2","images/t.png","NA","practice","null","","","",""
"d3-animate-choice","40","111237","0.0-40.0","2388","4983","21","Male","false","true","true","true","""event"",""trial"",""time""
""fullscreenenter"",""5"",""13892""
","
","
","""event"",""trial"",""time""
""fullscreenenter"",""5"",""13892""
","
","88.2000000178814","","49","","","3000","1","1024.2000000178814,1338.7000000178814,1641,1921.5","49,49,49,49","images/tutgreenplanet.jpg","images/tutalien1","images/tutalien2","null","images/tutalien2","images/nothing.png","NA","practice","null","","","",""
"d3-animate-choice","41","113390","0.0-41.0","2388","4983","21","Male","false","true","true","true","""event"",""trial"",""time""
""fullscreenenter"",""5"",""13892""
","
","
","""event"",""trial"",""time""
""fullscreenenter"",""5"",""13892""
","
","145.59999999403954","","49","","","3000","1","472.80000001192093,730.5999999940395,1023,1282.2000000178814,1803.0999999940395,2058.2000000178814","49,49,49,49,49,49","images/tutgreenplanet.jpg","images/tutalien1","images/tutalien2","null","images/tutalien2","images/t.png","NA","practice","null","","","",""
"d3-animate-choice","42","115625","0.0-42.0","2388","4983","21","Male","false","true","true","true","""event"",""trial"",""time""
""fullscreenenter"",""5"",""13892""
","
","
","""event"",""trial"",""time""
""fullscreenenter"",""5"",""13892""
","
","231.2999999821186","","49","","","3000","1","455.90000000596046,671.0999999940395,954.7999999821186,1220.9000000059605,1446.0999999940395,1739,2009","49,49,49,49,49,49,49","images/tutgreenplanet.jpg","images/tutalien1","images/tutalien2","null","images/tutalien2","images/t.png","NA","practice","null","","","",""
"d3-animate-choice","43","117662","0.0-43.0","2388","4983","21","Male","false","true","true","true","""event"",""trial"",""time""
""fullscreenenter"",""5"",""13892""
","
","
","""event"",""trial"",""time""
""fullscreenenter"",""5"",""13892""
","
","31.599999994039536","","49","","","3000","1","279.5,526.9000000059605,763.0999999940395,1002.6999999880791,1258,1519.9000000059605,1753.4000000059605,1989.199999988079","49,49,49,49,49,49,49,49","images/tutgreenplanet.jpg","images/tutalien1","images/tutalien2","null","images/tutalien2","images/t.png","NA","practice","null","","","",""
"d3-instructions","44","120350","0.0-44.0","2388","4983","21","Male","false","true","true","true","""event"",""trial"",""time""
""fullscreenenter"",""5"",""13892""
","
","
","""event"",""trial"",""time""
""fullscreenenter"",""5"",""13892""
","
","","","","","","","","","","","","","","","","","","","","","",""
"d3-instructions","45","122407","0.0-45.0","2388","4983","21","Male","false","true","true","true","""event"",""trial"",""time""
""fullscreenenter"",""5"",""13892""
","
","
","""event"",""trial"",""time""
""fullscreenenter"",""5"",""13892""
","
","","","","","","","","","","","","","","","","","","","","","",""
"d3-instructions","46","123696","0.0-46.0","2388","4983","21","Male","false","true","true","true","""event"",""trial"",""time""
""fullscreenenter"",""5"",""13892""
","
","
","""event"",""trial"",""time""
""fullscreenenter"",""5"",""13892""
","
","","","","","","","","","","","","","","","","","","","","","",""
"d3-instructions","47","124832","0.0-47.0","2388","4983","21","Male","false","true","true","true","""event"",""trial"",""time""
""fullscreenenter"",""5"",""13892""
","
","
","""event"",""trial"",""time""
""fullscreenenter"",""5"",""13892""
","
","","","","","","","","","","","","","","","","","","","","","",""
"d3-instructions","48","125931","0.0-48.0","2388","4983","21","Male","false","true","true","true","""event"",""trial"",""time""
""fullscreenenter"",""5"",""13892""
","
","
","""event"",""trial"",""time""
""fullscreenenter"",""5"",""13892""
","
","","","","","","","","","","","","","","","","","","","","","",""
"d3-instructions","49","127102","0.0-49.0","2388","4983","21","Male","false","true","true","true","""event"",""trial"",""time""
""fullscreenenter"",""5"",""13892""
","
","
","""event"",""trial"",""time""
""fullscreenenter"",""5"",""13892""
","
","","","","","","","","","","","","","","","","","","","","","",""
"d3-instructions","50","129815","0.0-50.0","2388","4983","21","Male","false","true","true","true","""event"",""trial"",""time""
""fullscreenenter"",""5"",""13892""
","
","
","""event"",""trial"",""time""
""fullscreenenter"",""5"",""13892""
","
","","","","","","","","","","","","","","","","","","","","","",""
"d3-instructions","51","130837","0.0-51.0","2388","4983","21","Male","false","true","true","true","""event"",""trial"",""time""
""fullscreenenter"",""5"",""13892""
","
","
","""event"",""trial"",""time""
""fullscreenenter"",""5"",""13892""
","
","","","","","","","","","","","","","","","","","","","","","",""
"d3-instructions","52","131443","0.0-52.0","2388","4983","21","Male","false","true","true","true","""event"",""trial"",""time""
""fullscreenenter"",""5"",""13892""
","
","
","""event"",""trial"",""time""
""fullscreenenter"",""5"",""13892""
","
","","","","","","","","","","","","","","","","","","","","","",""
"d3-instructions","53","133629","0.0-53.0","2388","4983","21","Male","false","true","true","true","""event"",""trial"",""time""
""fullscreenenter"",""5"",""13892""
","
","
","""event"",""trial"",""time""
""fullscreenenter"",""5"",""13892""
","
","","","","","","","","","","","","","","","","","","","","","",""
"d3-instructions","54","135046","0.0-54.0","2388","4983","21","Male","false","true","true","true","""event"",""trial"",""time""
""fullscreenenter"",""5"",""13892""
","
","
","""event"",""trial"",""time""
""fullscreenenter"",""5"",""13892""
","
","","","","","","","","","","","","","","","","","","","","","",""
"d3-instructions","55","136573","0.0-55.0","2388","4983","21","Male","false","true","true","true","""event"",""trial"",""time""
""fullscreenenter"",""5"",""13892""
","
","
","""event"",""trial"",""time""
""fullscreenenter"",""5"",""13892""
","
","","","","","","","","","","","","","","","","","","","","","",""
"d3-instructions","56","137732","0.0-56.0","2388","4983","21","Male","false","true","true","true","""event"",""trial"",""time""
""fullscreenenter"",""5"",""13892""
","
","
","""event"",""trial"",""time""
""fullscreenenter"",""5"",""13892""
","
","","","","","","","","","","","","","","","","","","","","","",""
"d3-instructions","57","140589","0.0-57.0","2388","4983","21","Male","false","true","true","true","""event"",""trial"",""time""
""fullscreenenter"",""5"",""13892""
","
","
","""event"",""trial"",""time""
""fullscreenenter"",""5"",""13892""
","
","","","","","","","","","","","","","","","","","","","","","",""
"d3-instructions","58","143334","0.0-58.0","2388","4983","21","Male","false","true","true","true","""event"",""trial"",""time""
""fullscreenenter"",""5"",""13892""
","
","
","""event"",""trial"",""time""
""fullscreenenter"",""5"",""13892""
","
","","","","","","","","","","","","","","","","","","","","","",""
"d3-instructions","59","144923","0.0-59.0","2388","4983","21","Male","false","true","true","true","""event"",""trial"",""time""
""fullscreenenter"",""5"",""13892""
","
","
","""event"",""trial"",""time""
""fullscreenenter"",""5"",""13892""
","
","","","","","","","","","","","","","","","","","","","","","",""
"d3-instructions","60","146147","0.0-60.0","2388","4983","21","Male","false","true","true","true","""event"",""trial"",""time""
""fullscreenenter"",""5"",""13892""
","
","
","""event"",""trial"",""time""
""fullscreenenter"",""5"",""13892""
","
","","","","","","","","","","","","","","","","","","","","","",""
"d3-animate-choice","61","148628","0.0-61.0-0.0","2388","4983","21","Male","false","true","true","true","""event"",""trial"",""time""
""fullscreenenter"",""5"",""13892""
","
","
","""event"",""trial"",""time""
""fullscreenenter"",""5"",""13892""
","
","473","","49","","","3000","1","","","images/earth.jpg","images/tutrocket2","images/tutrocket1","null","images/tutrocket1","","1","practice","null","1","","",""
"d3-animate-choice","62","150902","0.0-61.0-1.0","2388","4983","21","Male","false","true","true","true","""event"",""trial"",""time""
""fullscreenenter"",""5"",""13892""
","
","
","""event"",""trial"",""time""
""fullscreenenter"",""5"",""13892""
","
","264.2999999821186","","49","","","3000","1","","","images/tutgreenplanet.jpg","images/tutalien2","images/tutalien1","images/tutrocket1","images/tutalien1","images/nothing.png","2","practice","true","1","common","0","2022-12-09 19:32:37.130"
"two-step-fixation","63","151908","0.0-61.0-2.0","2388","4983","21","Male","false","true","true","true","""event"",""trial"",""time""
""fullscreenenter"",""5"",""13892""
","
","
","""event"",""trial"",""time""
""fullscreenenter"",""5"",""13892""
","
","","images/earth.jpg","","","","","","","","","","","","","","fixation","","","","","",""
"d3-animate-choice","64","154478","0.0-61.0-0.1","2388","4983","21","Male","false","true","true","true","""event"",""trial"",""time""
""fullscreenenter"",""5"",""13892""
","
","
","""event"",""trial"",""time""
""fullscreenenter"",""5"",""13892""
","
","566.1000000238419","","49","","","3000","1","","","images/earth.jpg","images/tutrocket2","images/tutrocket1","null","images/tutrocket1","","1","practice","null","1","","",""
"d3-animate-choice","65","157230","0.0-61.0-1.1","2388","4983","21","Male","false","true","true","true","""event"",""trial"",""time""
""fullscreenenter"",""5"",""13892""
","
","
","""event"",""trial"",""time""
""fullscreenenter"",""5"",""13892""
","
","744.9000000059605","","49","","","3000","1","","","images/tutyellowplanet.jpg","images/tutalien4","images/tutalien3","images/tutrocket1","images/tutalien3","images/nothing.png","2","practice","false","1","rare","0","2022-12-09 19:32:43.457"
"two-step-fixation","66","158234","0.0-61.0-2.1","2388","4983","21","Male","false","true","true","true","""event"",""trial"",""time""
""fullscreenenter"",""5"",""13892""
","
","
","""event"",""trial"",""time""
""fullscreenenter"",""5"",""13892""
","
","","images/earth.jpg","","","","","","","","","","","","","","fixation","","","","","",""
"d3-animate-choice","67","160435","0.0-61.0-0.2","2388","4983","21","Male","false","true","true","true","""event"",""trial"",""time""
""fullscreenenter"",""5"",""13892""
","
","
","""event"",""trial"",""time""
""fullscreenenter"",""5"",""13892""
","
","194.30000001192093","","49","","","3000","1","","","images/earth.jpg","images/tutrocket2","images/tutrocket1","null","images/tutrocket1","","1","practice","null","1","","",""
"d3-animate-choice","68","162831","0.0-61.0-1.2","2388","4983","21","Male","false","true","true","true","""event"",""trial"",""time""
""fullscreenenter"",""5"",""13892""
","
","
","""event"",""trial"",""time""
""fullscreenenter"",""5"",""13892""
","
","390.30000001192093","","48","","","3000","1","","","images/tutgreenplanet.jpg","images/tutalien2","images/tutalien1","images/tutrocket1","images/tutalien2","images/nothing.png","2","practice","true","2","common","0","2022-12-09 19:32:49.058"
"two-step-fixation","69","163838","0.0-61.0-2.2","2388","4983","21","Male","false","true","true","true","""event"",""trial"",""time""
""fullscreenenter"",""5"",""13892""
","
","
","""event"",""trial"",""time""
""fullscreenenter"",""5"",""13892""
","
","","images/earth.jpg","","","","","","","","","","","","","","fixation","","","","","",""
"d3-animate-choice","70","166474","0.0-61.0-0.3","2388","4983","21","Male","false","true","true","true","""event"",""trial"",""time""
""fullscreenenter"",""5"",""13892""
","
","
","""event"",""trial"",""time""
""fullscreenenter"",""5"",""13892""
","
","631.9000000059605","","48","","","3000","1","","","images/earth.jpg","images/tutrocket2","images/tutrocket1","null","images/tutrocket2","","1","practice","null","2","","",""
"d3-animate-choice","71","168793","0.0-61.0-1.3","2388","4983","21","Male","false","true","true","true","""event"",""trial"",""time""
""fullscreenenter"",""5"",""13892""
","
","
","""event"",""trial"",""time""
""fullscreenenter"",""5"",""13892""
","
","313.90000000596046","","48","","","3000","1","","","images/tutyellowplanet.jpg","images/tutalien4","images/tutalien3","images/tutrocket2","images/tutalien4","images/t.png","2","practice","true","2","common","1","2022-12-09 19:32:55.021"
"two-step-fixation","72","169799","0.0-61.0-2.3","2388","4983","21","Male","false","true","true","true","""event"",""trial"",""time""
""fullscreenenter"",""5"",""13892""
","
","
","""event"",""trial"",""time""
""fullscreenenter"",""5"",""13892""
","
","","images/earth.jpg","","","","","","","","","","","","","","fixation","","","","","",""
"d3-animate-choice","73","172247","0.0-61.0-0.4","2388","4983","21","Male","false","true","true","true","""event"",""trial"",""time""
""fullscreenenter"",""5"",""13892""
","
","
","""event"",""trial"",""time""
""fullscreenenter"",""5"",""13892""
","
","444.30000001192093","","48","","","3000","1","","","images/earth.jpg","images/tutrocket2","images/tutrocket1","null","images/tutrocket2","","1","practice","null","2","","",""
"d3-animate-choice","74","175064","0.0-61.0-1.4","2388","4983","21","Male","false","true","true","true","""event"",""trial"",""time""
""fullscreenenter"",""5"",""13892""
","
","
","""event"",""trial"",""time""
""fullscreenenter"",""5"",""13892""
","
","810.2000000178814","","49","","","3000","1","","","images/tutgreenplanet.jpg","images/tutalien2","images/tutalien1","images/tutrocket2","images/tutalien1","images/nothing.png","2","practice","false","1","rare","0","2022-12-09 19:33:01.292"
"two-step-fixation","75","176072","0.0-61.0-2.4","2388","4983","21","Male","false","true","true","true","""event"",""trial"",""time""
""fullscreenenter"",""5"",""13892""
","
","
","""event"",""trial"",""time""
""fullscreenenter"",""5"",""13892""
","
","","images/earth.jpg","","","","","","","","","","","","","","fixation","","","","","",""
"d3-animate-choice","76","178489","0.0-61.0-0.5","2388","4983","21","Male","false","true","true","true","""event"",""trial"",""time""
""fullscreenenter"",""5"",""13892""
","
","
","""event"",""trial"",""time""
""fullscreenenter"",""5"",""13892""
","
","413.09999999403954","","48","","","3000","1","","","images/earth.jpg","images/tutrocket2","images/tutrocket1","null","images/tutrocket2","","1","practice","null","2","","",""
"d3-animate-choice","77","180955","0.0-61.0-1.5","2388","4983","21","Male","false","true","true","true","""event"",""trial"",""time""
""fullscreenenter"",""5"",""13892""
","
","
","""event"",""trial"",""time""
""fullscreenenter"",""5"",""13892""
","
","459","","48","","","3000","1","","","images/tutyellowplanet.jpg","images/tutalien4","images/tutalien3","images/tutrocket2","images/tutalien4","images/nothing.png","2","practice","true","2","common","0","2022-12-09 19:33:07.182"
"two-step-fixation","78","181960","0.0-61.0-2.5","2388","4983","21","Male","false","true","true","true","""event"",""trial"",""time""
""fullscreenenter"",""5"",""13892""
","
","
","""event"",""trial"",""time""
""fullscreenenter"",""5"",""13892""
","
","","images/earth.jpg","","","","","","","","","","","","","","fixation","","","","","",""
"d3-animate-choice","79","184228","0.0-61.0-0.6","2388","4983","21","Male","false","true","true","true","""event"",""trial"",""time""
""fullscreenenter"",""5"",""13892""
","
","
","""event"",""trial"",""time""
""fullscreenenter"",""5"",""13892""
","
","261.80000001192093","","48","","","3000","1","","","images/earth.jpg","images/tutrocket2","images/tutrocket1","null","images/tutrocket2","","1","practice","null","2","","",""
"d3-animate-choice","80","186868","0.0-61.0-1.6","2388","4983","21","Male","false","true","true","true","""event"",""trial"",""time""
""fullscreenenter"",""5"",""13892""
","
","
","""event"",""trial"",""time""
""fullscreenenter"",""5"",""13892""
","
","634.8000000119209","","49","","","3000","1","","","images/tutyellowplanet.jpg","images/tutalien4","images/tutalien3","images/tutrocket2","images/tutalien3","images/nothing.png","2","practice","true","1","common","0","2022-12-09 19:33:13.095"
"two-step-fixation","81","187873","0.0-61.0-2.6","2388","4983","21","Male","false","true","true","true","""event"",""trial"",""time""
""fullscreenenter"",""5"",""13892""
","
","
","""event"",""trial"",""time""
""fullscreenenter"",""5"",""13892""
","
","","images/earth.jpg","","","","","","","","","","","","","","fixation","","","","","",""
"d3-animate-choice","82","190103","0.0-61.0-0.7","2388","4983","21","Male","false","true","true","true","""event"",""trial"",""time""
""fullscreenenter"",""5"",""13892""
","
","
","""event"",""trial"",""time""
""fullscreenenter"",""5"",""13892""
","
","225","","49","","","3000","1","","","images/earth.jpg","images/tutrocket2","images/tutrocket1","null","images/tutrocket1","","1","practice","null","1","","",""
"d3-animate-choice","83","192847","0.0-61.0-1.7","2388","4983","21","Male","false","true","true","true","""event"",""trial"",""time""
""fullscreenenter"",""5"",""13892""
","
","
","""event"",""trial"",""time""
""fullscreenenter"",""5"",""13892""
","
","737.2999999821186","","49","","","3000","1","","","images/tutgreenplanet.jpg","images/tutalien2","images/tutalien1","images/tutrocket1","images/tutalien1","images/nothing.png","2","practice","true","1","common","0","2022-12-09 19:33:19.074"
"two-step-fixation","84","193855","0.0-61.0-2.7","2388","4983","21","Male","false","true","true","true","""event"",""trial"",""time""
""fullscreenenter"",""5"",""13892""
","
","
","""event"",""trial"",""time""
""fullscreenenter"",""5"",""13892""
","
","","images/earth.jpg","","","","","","","","","","","","","","fixation","","","","","",""
"d3-animate-choice","85","196153","0.0-61.0-0.8","2388","4983","21","Male","false","true","true","true","""event"",""trial"",""time""
""fullscreenenter"",""5"",""13892""
","
","
","""event"",""trial"",""time""
""fullscreenenter"",""5"",""13892""
","
","291.40000000596046","","49","","","3000","1","","","images/earth.jpg","images/tutrocket2","images/tutrocket1","null","images/tutrocket1","","1","practice","null","1","","",""
"d3-animate-choice","86","198553","0.0-61.0-1.8","2388","4983","21","Male","false","true","true","true","""event"",""trial"",""time""
""fullscreenenter"",""5"",""13892""
","
","
","""event"",""trial"",""time""
""fullscreenenter"",""5"",""13892""
","
","393.2000000178814","","48","","","3000","1","","","images/tutgreenplanet.jpg","images/tutalien2","images/tutalien1","images/tutrocket1","images/tutalien2","images/nothing.png","2","practice","true","2","common","0","2022-12-09 19:33:24.780"
"two-step-fixation","87","199561","0.0-61.0-2.8","2388","4983","21","Male","false","true","true","true","""event"",""trial"",""time""
""fullscreenenter"",""5"",""13892""
","
","
","""event"",""trial"",""time""
""fullscreenenter"",""5"",""13892""
","
","","images/earth.jpg","","","","","","","","","","","","","","fixation","","","","","",""
"d3-animate-choice","88","201620","0.0-61.0-0.9","2388","4983","21","Male","false","true","true","true","""event"",""trial"",""time""
""fullscreenenter"",""5"",""13892""
","
","
","""event"",""trial"",""time""
""fullscreenenter"",""5"",""13892""
","
","53.30000001192093","","48","","","3000","1","221","48","images/earth.jpg","images/tutrocket2","images/tutrocket1","null","images/tutrocket2","","1","practice","null","2","","",""
"d3-animate-choice","89","203917","0.0-61.0-1.9","2388","4983","21","Male","false","true","true","true","""event"",""trial"",""time""
""fullscreenenter"",""5"",""13892""
","
","
","""event"",""trial"",""time""
""fullscreenenter"",""5"",""13892""
","
","289.5","","48","","","3000","1","","","images/tutyellowplanet.jpg","images/tutalien4","images/tutalien3","images/tutrocket2","images/tutalien4","images/nothing.png","2","practice","true","2","common","0","2022-12-09 19:33:30.144"
"two-step-fixation","90","204921","0.0-61.0-2.9","2388","4983","21","Male","false","true","true","true","""event"",""trial"",""time""
""fullscreenenter"",""5"",""13892""
","
","
","""event"",""trial"",""time""
""fullscreenenter"",""5"",""13892""
","
","","images/earth.jpg","","","","","","","","","","","","","","fixation","","","","","",""
"d3-animate-choice","91","207108","0.0-61.0-0.10","2388","4983","21","Male","false","true","true","true","""event"",""trial"",""time""
""fullscreenenter"",""5"",""13892""
","
","
","""event"",""trial"",""time""
""fullscreenenter"",""5"",""13892""
","
","183.59999999403954","","48","","","3000","1","","","images/earth.jpg","images/tutrocket2","images/tutrocket1","null","images/tutrocket2","","1","practice","null","2","","",""
"d3-animate-choice","92","209442","0.0-61.0-1.10","2388","4983","21","Male","false","true","true","true","""event"",""trial"",""time""
""fullscreenenter"",""5"",""13892""
","
","
","""event"",""trial"",""time""
""fullscreenenter"",""5"",""13892""
","
","328.5","","49","","","3000","1","","","images/tutyellowplanet.jpg","images/tutalien4","images/tutalien3","images/tutrocket2","images/tutalien3","images/nothing.png","2","practice","true","1","common","0","2022-12-09 19:33:35.669"
"two-step-fixation","93","210447","0.0-61.0-2.10","2388","4983","21","Male","false","true","true","true","""event"",""trial"",""time""
""fullscreenenter"",""5"",""13892""
","
","
","""event"",""trial"",""time""
""fullscreenenter"",""5"",""13892""
","
","","images/earth.jpg","","","","","","","","","","","","","","fixation","","","","","",""
"d3-animate-choice","94","212794","0.0-61.0-0.11","2388","4983","21","Male","false","true","true","true","""event"",""trial"",""time""
""fullscreenenter"",""5"",""13892""
","
","
","""event"",""trial"",""time""
""fullscreenenter"",""5"",""13892""
","
","338.59999999403954","","48","","","3000","1","","","images/earth.jpg","images/tutrocket2","images/tutrocket1","null","images/tutrocket2","","1","practice","null","2","","",""
"d3-animate-choice","95","215182","0.0-61.0-1.11","2388","4983","21","Male","false","true","true","true","""event"",""trial"",""time""
""fullscreenenter"",""5"",""13892""
","
","
","""event"",""trial"",""time""
""fullscreenenter"",""5"",""13892""
","
","385.09999999403954","","49","","","3000","1","","","images/tutyellowplanet.jpg","images/tutalien4","images/tutalien3","images/tutrocket2","images/tutalien3","images/t.png","2","practice","true","1","common","1","2022-12-09 19:33:41.409"
"two-step-fixation","96","216187","0.0-61.0-2.11","2388","4983","21","Male","false","true","true","true","""event"",""trial"",""time""
""fullscreenenter"",""5"",""13892""
","
","
","""event"",""trial"",""time""
""fullscreenenter"",""5"",""13892""
","
","","images/earth.jpg","","","","","","","","","","","","","","fixation","","","","","",""
"d3-animate-choice","97","218313","0.0-61.0-0.12","2388","4983","21","Male","false","true","true","true","""event"",""trial"",""time""
""fullscreenenter"",""5"",""13892""
","
","
","""event"",""trial"",""time""
""fullscreenenter"",""5"",""13892""
","
","123","","48","","","3000","1","303.5","48","images/earth.jpg","images/tutrocket2","images/tutrocket1","null","images/tutrocket2","","1","practice","null","2","","",""
"d3-animate-choice","98","220980","0.0-61.0-1.12","2388","4983","21","Male","false","true","true","true","""event"",""trial"",""time""
""fullscreenenter"",""5"",""13892""
","
","
","""event"",""trial"",""time""
""fullscreenenter"",""5"",""13892""
","
","661.5","","48","","","3000","1","","","images/tutgreenplanet.jpg","images/tutalien2","images/tutalien1","images/tutrocket2","images/tutalien2","images/t.png","2","practice","false","2","rare","1","2022-12-09 19:33:47.207"
"two-step-fixation","99","221987","0.0-61.0-2.12","2388","4983","21","Male","false","true","true","true","""event"",""trial"",""time""
""fullscreenenter"",""5"",""13892""
","
","
","""event"",""trial"",""time""
""fullscreenenter"",""5"",""13892""
","
","","images/earth.jpg","","","","","","","","","","","","","","fixation","","","","","",""
"d3-animate-choice","100","224039","0.0-61.0-0.13","2388","4983","21","Male","false","true","true","true","""event"",""trial"",""time""
""fullscreenenter"",""5"",""13892""
","
","
","""event"",""trial"",""time""
""fullscreenenter"",""5"",""13892""
","
","48","","48","","","3000","1","261.60000002384186","48","images/earth.jpg","images/tutrocket2","images/tutrocket1","null","images/tutrocket2","","1","practice","null","2","","",""
"d3-animate-choice","101","226484","0.0-61.0-1.13","2388","4983","21","Male","false","true","true","true","""event"",""trial"",""time""
""fullscreenenter"",""5"",""13892""
","
","
","""event"",""trial"",""time""
""fullscreenenter"",""5"",""13892""
","
","440.90000000596046","","49","","","3000","1","","","images/tutyellowplanet.jpg","images/tutalien4","images/tutalien3","images/tutrocket2","images/tutalien3","images/nothing.png","2","practice","true","1","common","0","2022-12-09 19:33:52.711"
"two-step-fixation","102","227489","0.0-61.0-2.13","2388","4983","21","Male","false","true","true","true","""event"",""trial"",""time""
""fullscreenenter"",""5"",""13892""
","
","
","""event"",""trial"",""time""
""fullscreenenter"",""5"",""13892""
","
","","images/earth.jpg","","","","","","","","","","","","","","fixation","","","","","",""
"d3-animate-choice","103","229818","0.0-61.0-0.14","2388","4983","21","Male","false","true","true","true","""event"",""trial"",""time""
""fullscreenenter"",""5"",""13892""
","
","
","""event"",""trial"",""time""
""fullscreenenter"",""5"",""13892""
","
","320.60000002384186","","49","","","3000","1","","","images/earth.jpg","images/tutrocket2","images/tutrocket1","null","images/tutrocket1","","1","practice","null","1","","",""
"d3-animate-choice","104","232207","0.0-61.0-1.14","2388","4983","21","Male","false","true","true","true","""event"",""trial"",""time""
""fullscreenenter"",""5"",""13892""
","
","
","""event"",""trial"",""time""
""fullscreenenter"",""5"",""13892""
","
","385","","48","","","3000","1","","","images/tutgreenplanet.jpg","images/tutalien2","images/tutalien1","images/tutrocket1","images/tutalien2","images/t.png","2","practice","true","2","common","1","2022-12-09 19:33:58.434"
"two-step-fixation","105","233211","0.0-61.0-2.14","2388","4983","21","Male","false","true","true","true","""event"",""trial"",""time""
""fullscreenenter"",""5"",""13892""
","
","
","""event"",""trial"",""time""
""fullscreenenter"",""5"",""13892""
","
","","images/earth.jpg","","","","","","","","","","","","","","fixation","","","","","",""
"d3-animate-choice","106","235337","0.0-61.0-0.15","2388","4983","21","Male","false","true","true","true","""event"",""trial"",""time""
""fullscreenenter"",""5"",""13892""
","
","
","""event"",""trial"",""time""
""fullscreenenter"",""5"",""13892""
","
","121.5","","49","","","3000","1","335.09999999403954","49","images/earth.jpg","images/tutrocket2","images/tutrocket1","null","images/tutrocket1","","1","practice","null","1","","",""
"d3-animate-choice","107","237449","0.0-61.0-1.15","2388","4983","21","Male","false","true","true","true","""event"",""trial"",""time""
""fullscreenenter"",""5"",""13892""
","
","
","""event"",""trial"",""time""
""fullscreenenter"",""5"",""13892""
","
","108.19999998807907","","48","","","3000","1","287.5","48","images/tutyellowplanet.jpg","images/tutalien4","images/tutalien3","images/tutrocket1","images/tutalien4","images/nothing.png","2","practice","false","2","rare","0","2022-12-09 19:34:03.677"
"two-step-fixation","108","238456","0.0-61.0-2.15","2388","4983","21","Male","false","true","true","true","""event"",""trial"",""time""
""fullscreenenter"",""5"",""13892""
","
","
","""event"",""trial"",""time""
""fullscreenenter"",""5"",""13892""
","
","","images/earth.jpg","","","","","","","","","","","","","","fixation","","","","","",""
"d3-animate-choice","109","240634","0.0-61.0-0.16","2388","4983","21","Male","false","true","true","true","""event"",""trial"",""time""
""fullscreenenter"",""5"",""13892""
","
","
","""event"",""trial"",""time""
""fullscreenenter"",""5"",""13892""
","
","172.40000000596046","","49","","","3000","1","","","images/earth.jpg","images/tutrocket2","images/tutrocket1","null","images/tutrocket1","","1","practice","null","1","","",""
"d3-animate-choice","110","242999","0.0-61.0-1.16","2388","4983","21","Male","false","true","true","true","""event"",""trial"",""time""
""fullscreenenter"",""5"",""13892""
","
","
","""event"",""trial"",""time""
""fullscreenenter"",""5"",""13892""
","
","357.80000001192093","","48","","","3000","1","","","images/tutgreenplanet.jpg","images/tutalien2","images/tutalien1","images/tutrocket1","images/tutalien2","images/t.png","2","practice","true","2","common","1","2022-12-09 19:34:09.226"
"two-step-fixation","111","244004","0.0-61.0-2.16","2388","4983","21","Male","false","true","true","true","""event"",""trial"",""time""
""fullscreenenter"",""5"",""13892""
","
","
","""event"",""trial"",""time""
""fullscreenenter"",""5"",""13892""
","
","","images/earth.jpg","","","","","","","","","","","","","","fixation","","","","","",""
"d3-animate-choice","112","246136","0.0-61.0-0.17","2388","4983","21","Male","false","true","true","true","""event"",""trial"",""time""
""fullscreenenter"",""5"",""13892""
","
","
","""event"",""trial"",""time""
""fullscreenenter"",""5"",""13892""
","
","125.40000000596046","","49","","","3000","1","","","images/earth.jpg","images/tutrocket2","images/tutrocket1","null","images/tutrocket1","","1","practice","null","1","","",""
"d3-animate-choice","113","248463","0.0-61.0-1.17","2388","4983","21","Male","false","true","true","true","""event"",""trial"",""time""
""fullscreenenter"",""5"",""13892""
","
","
","""event"",""trial"",""time""
""fullscreenenter"",""5"",""13892""
","
","323.40000000596046","","48","","","3000","1","","","images/tutgreenplanet.jpg","images/tutalien2","images/tutalien1","images/tutrocket1","images/tutalien2","images/nothing.png","2","practice","true","2","common","0","2022-12-09 19:34:14.690"
"two-step-fixation","114","249469","0.0-61.0-2.17","2388","4983","21","Male","false","true","true","true","""event"",""trial"",""time""
""fullscreenenter"",""5"",""13892""
","
","
","""event"",""trial"",""time""
""fullscreenenter"",""5"",""13892""
","
","","images/earth.jpg","","","","","","","","","","","","","","fixation","","","","","",""
"d3-animate-choice","115","251540","0.0-61.0-0.18","2388","4983","21","Male","false","true","true","true","""event"",""trial"",""time""
""fullscreenenter"",""5"",""13892""
","
","
","""event"",""trial"",""time""
""fullscreenenter"",""5"",""13892""
","
","63.900000005960464","","48","","","3000","1","221.5","48","images/earth.jpg","images/tutrocket2","images/tutrocket1","null","images/tutrocket2","","1","practice","null","2","","",""
"d3-animate-choice","116","254136","0.0-61.0-1.18","2388","4983","21","Male","false","true","true","true","""event"",""trial"",""time""
""fullscreenenter"",""5"",""13892""
","
","
","""event"",""trial"",""time""
""fullscreenenter"",""5"",""13892""
","
","589.5","","49","","","3000","1","","","images/tutgreenplanet.jpg","images/tutalien2","images/tutalien1","images/tutrocket2","images/tutalien1","images/nothing.png","2","practice","false","1","rare","0","2022-12-09 19:34:20.363"
"two-step-fixation","117","255140","0.0-61.0-2.18","2388","4983","21","Male","false","true","true","true","""event"",""trial"",""time""
""fullscreenenter"",""5"",""13892""
","
","
","""event"",""trial"",""time""
""fullscreenenter"",""5"",""13892""
","
","","images/earth.jpg","","","","","","","","","","","","","","fixation","","","","","",""
"d3-animate-choice","118","258523","0.0-61.0-0.19","2388","4983","21","Male","false","true","true","true","""event"",""trial"",""time""
""fullscreenenter"",""5"",""13892""
","
","
","""event"",""trial"",""time""
""fullscreenenter"",""5"",""13892""
","
","1375.5","","49","","","3000","1","1378.4000000059605","50","images/earth.jpg","images/tutrocket2","images/tutrocket1","null","images/tutrocket1","","1","practice","null","1","","",""
"d3-animate-choice","119","260886","0.0-61.0-1.19","2388","4983","21","Male","false","true","true","true","""event"",""trial"",""time""
""fullscreenenter"",""5"",""13892""
","
","
","""event"",""trial"",""time""
""fullscreenenter"",""5"",""13892""
","
","357.19999998807907","","48","","","3000","1","","","images/tutgreenplanet.jpg","images/tutalien2","images/tutalien1","images/tutrocket1","images/tutalien2","images/nothing.png","2","practice","true","2","common","0","2022-12-09 19:34:27.113"
"two-step-fixation","120","261892","0.0-61.0-2.19","2388","4983","21","Male","false","true","true","true","""event"",""trial"",""time""
""fullscreenenter"",""5"",""13892""
","
","
","""event"",""trial"",""time""
""fullscreenenter"",""5"",""13892""
","
","","images/earth.jpg","","","","","","","","","","","","","","fixation","","","","","",""
"d3-instructions","121","264506","0.0-62.0","2388","4983","21","Male","false","true","true","true","""event"",""trial"",""time""
""fullscreenenter"",""5"",""13892""
","
","
","""event"",""trial"",""time""
""fullscreenenter"",""5"",""13892""
","
","","","","","","","","","","","","","","","","","","","","","",""
"audio-keyboard-response","122","264528","0.0-63.0","2388","4983","21","Male","false","true","true","true","""event"",""trial"",""time""
""fullscreenenter"",""5"",""13892""
","
","
","""event"",""trial"",""time""
""fullscreenenter"",""5"",""13892""
","
","16","audio/instructions/treasure_feedback.wav","91","","","","","","","","","","","","","","","","","","",""
"d3-instructions","123","267401","0.0-64.0","2388","4983","21","Male","false","true","true","true","""event"",""trial"",""time""
""fullscreenenter"",""5"",""13892""
","
","
","""event"",""trial"",""time""
""fullscreenenter"",""5"",""13892""
","
","","","","","","","","","","","","","","","","","","","","","",""
"d3-instructions","124","268106","0.0-65.0","2388","4983","21","Male","false","true","true","true","""event"",""trial"",""time""
""fullscreenenter"",""5"",""13892""
","
","
","""event"",""trial"",""time""
""fullscreenenter"",""5"",""13892""
","
","","","","","","","","","","","","","","","","","","","","","",""
"d3-instructions","125","268548","0.0-66.0","2388","4983","21","Male","false","true","true","true","""event"",""trial"",""time""
""fullscreenenter"",""5"",""13892""
","
","
","""event"",""trial"",""time""
""fullscreenenter"",""5"",""13892""
","
","","","","","","","","","","","","","","","","","","","","","",""
"d3-instructions","126","269155","0.0-67.0","2388","4983","21","Male","false","true","true","true","""event"",""trial"",""time""
""fullscreenenter"",""5"",""13892""
","
","
","""event"",""trial"",""time""
""fullscreenenter"",""5"",""13892""
","
","","","","","","","","","","","","","","","","","","","","","",""
"d3-instructions","127","270067","0.0-68.0","2388","4983","21","Male","false","true","true","true","""event"",""trial"",""time""
""fullscreenenter"",""5"",""13892""
","
","
","""event"",""trial"",""time""
""fullscreenenter"",""5"",""13892""
","
","","","","","","","","","","","","","","","","","","","","","",""
"instructions-quiz","128","272095","0.0-69.0","2388","4983","21","Male","false","true","true","true","""event"",""trial"",""time""
""fullscreenenter"",""5"",""13892""
","
","
","""event"",""trial"",""time""
""fullscreenenter"",""5"",""13892""
","
","2025.5","audio/quiz/Q1_Prompt.wav","","1","","","","","","","","","","","","","","","","","",""
"audio-keyboard-response","129","279135","0.0-70.0","2388","4983","21","Male","false","true","true","true","""event"",""trial"",""time""
""fullscreenenter"",""5"",""13892""
","
","
","""event"",""trial"",""time""
""fullscreenenter"",""5"",""13892""
","
","7035","audio/quiz/Q1_Correct.wav","32","","","","","","","","","","","","","","","","","","",""
"instructions-quiz","130","282343","0.0-71.0","2388","4983","21","Male","false","true","true","true","""event"",""trial"",""time""
""fullscreenenter"",""5"",""13892""
","
","
","""event"",""trial"",""time""
""fullscreenenter"",""5"",""13892""
","
","3206.0999999940395","audio/quiz/Q2_Prompt.wav","","0","","","","","","","","","","","","","","","","","",""
"audio-keyboard-response","131","282403","0.0-72.0","2388","4983","21","Male","false","true","true","true","""event"",""trial"",""time""
""fullscreenenter"",""5"",""13892""
","
","
","""event"",""trial"",""time""
""fullscreenenter"",""5"",""13892""
","
","59","audio/quiz/Q2_Correct.wav","32","","","","","","","","","","","","","","","","","","",""
"instructions-quiz","132","284323","0.0-73.0","2388","4983","21","Male","false","true","true","true","""event"",""trial"",""time""
""fullscreenenter"",""5"",""13892""
","
","
","""event"",""trial"",""time""
""fullscreenenter"",""5"",""13892""
","
","1919.0999999940395","audio/quiz/Q3_Prompt.wav","","1","","","","","","","","","","","","","","","","","",""
"audio-keyboard-response","133","284430","0.0-74.0","2388","4983","21","Male","false","true","true","true","""event"",""trial"",""time""
""fullscreenenter"",""5"",""13892""
","
","
","""event"",""trial"",""time""
""fullscreenenter"",""5"",""13892""
","
","107","audio/quiz/Q3_Correct.wav","32","","","","","","","","","","","","","","","","","","",""
"d3-instructions","134","285721","0.0-75.0","2388","4983","21","Male","false","true","true","true","""event"",""trial"",""time""
""fullscreenenter"",""5"",""13892""
","
","
","""event"",""trial"",""time""
""fullscreenenter"",""5"",""13892""
","
","","","","","","","","","","","","","","","","","","","","","",""
"d3-animate-choice","135","288805","0.0-76.0-0.0","2388","4983","21","Male","false","true","true","true","""event"",""trial"",""time""
""fullscreenenter"",""5"",""13892""
","
","
","""event"",""trial"",""time""
""fullscreenenter"",""5"",""13892""
","
","1079.5999999940395","","49","","","3000","1","","","images/earth.jpg","images/rocket1","images/rocket2","null","images/rocket2","","1","real","null","1","","",""
"d3-animate-choice","136","291120","0.0-76.0-1.0","2388","4983","21","Male","false","true","true","true","""event"",""trial"",""time""
""fullscreenenter"",""5"",""13892""
","
","
","""event"",""trial"",""time""
""fullscreenenter"",""5"",""13892""
","
","306","","48","","","3000","1","","","images/purpleplanet.jpg","images/alien4","images/alien3","images/rocket2","images/alien4","images/nothing.png","2","real","true","2","common","0","2022-12-09 19:34:57.347"
"two-step-fixation","137","292124","0.0-76.0-2.0","2388","4983","21","Male","false","true","true","true","""event"",""trial"",""time""
""fullscreenenter"",""5"",""13892""
","
","
","""event"",""trial"",""time""
""fullscreenenter"",""5"",""13892""
","
","","images/earth.jpg","","","","","","","","","","","","","","fixation","","","","","",""
"d3-animate-choice","138","294274","0.0-76.0-0.1","2388","4983","21","Male","false","true","true","true","""event"",""trial"",""time""
""fullscreenenter"",""5"",""13892""
","
","
","""event"",""trial"",""time""
""fullscreenenter"",""5"",""13892""
","
","146.40000000596046","","48","","","3000","1","327.19999998807907,2060","48,48","images/earth.jpg","images/rocket1","images/rocket2","null","images/rocket1","","1","real","null","2","","",""
"d3-animate-choice","139","296392","0.0-76.0-1.1","2388","4983","21","Male","false","true","true","true","""event"",""trial"",""time""
""fullscreenenter"",""5"",""13892""
","
","
","""event"",""trial"",""time""
""fullscreenenter"",""5"",""13892""
","
","112.09999999403954","","48","","","3000","1","255.2000000178814","48","images/redplanet1.jpg","images/alien2","images/alien1","images/rocket1","images/alien2","images/nothing.png","2","real","true","2","common","0","2022-12-09 19:35:02.620"
"two-step-fixation","140","297397","0.0-76.0-2.1","2388","4983","21","Male","false","true","true","true","""event"",""trial"",""time""
""fullscreenenter"",""5"",""13892""
","
","
","""event"",""trial"",""time""
""fullscreenenter"",""5"",""13892""
","
","","images/earth.jpg","","","","","","","","","","","","","","fixation","","","","","",""
"d3-animate-choice","141","299480","0.0-76.0-0.2","2388","4983","21","Male","false","true","true","true","""event"",""trial"",""time""
""fullscreenenter"",""5"",""13892""
","
","
","""event"",""trial"",""time""
""fullscreenenter"",""5"",""13892""
","
","78.60000002384186","","49","","","3000","1","292.60000002384186","49","images/earth.jpg","images/rocket1","images/rocket2","null","images/rocket2","","1","real","null","1","","",""
"d3-animate-choice","142","301899","0.0-76.0-1.2","2388","4983","21","Male","false","true","true","true","""event"",""trial"",""time""
""fullscreenenter"",""5"",""13892""
","
","
","""event"",""trial"",""time""
""fullscreenenter"",""5"",""13892""
","
","415.69999998807907","","49","","","3000","1","","","images/purpleplanet.jpg","images/alien4","images/alien3","images/rocket2","images/alien3","images/t.png","2","real","true","1","common","1","2022-12-09 19:35:08.126"
"two-step-fixation","143","302908","0.0-76.0-2.2","2388","4983","21","Male","false","true","true","true","""event"",""trial"",""time""
""fullscreenenter"",""5"",""13892""
","
","
","""event"",""trial"",""time""
""fullscreenenter"",""5"",""13892""
","
","","images/earth.jpg","","","","","","","","","","","","","","fixation","","","","","",""
"d3-animate-choice","144","305061","0.0-76.0-0.3","2388","4983","21","Male","false","true","true","true","""event"",""trial"",""time""
""fullscreenenter"",""5"",""13892""
","
","
","""event"",""trial"",""time""
""fullscreenenter"",""5"",""13892""
","
","148.19999998807907","","49","","","3000","1","530.7999999821186","49","images/earth.jpg","images/rocket1","images/rocket2","null","images/rocket2","","1","real","null","1","","",""
"d3-animate-choice","145","307453","0.0-76.0-1.3","2388","4983","21","Male","false","true","true","true","""event"",""trial"",""time""
""fullscreenenter"",""5"",""13892""
","
","
","""event"",""trial"",""time""
""fullscreenenter"",""5"",""13892""
","
","386.90000000596046","","49","","","3000","1","","","images/redplanet1.jpg","images/alien2","images/alien1","images/rocket2","images/alien1","images/nothing.png","2","real","false","1","rare","0","2022-12-09 19:35:13.680"
"two-step-fixation","146","308459","0.0-76.0-2.3","2388","4983","21","Male","false","true","true","true","""event"",""trial"",""time""
""fullscreenenter"",""5"",""13892""
","
","
","""event"",""trial"",""time""
""fullscreenenter"",""5"",""13892""
","
","","images/earth.jpg","","","","","","","","","","","","","","fixation","","","","","",""
"d3-animate-choice","147","310588","0.0-76.0-0.4","2388","4983","21","Male","false","true","true","true","""event"",""trial"",""time""
""fullscreenenter"",""5"",""13892""
","
","
","""event"",""trial"",""time""
""fullscreenenter"",""5"",""13892""
","
","123.90000000596046","","49","","","3000","1","","","images/earth.jpg","images/rocket1","images/rocket2","null","images/rocket2","","1","real","null","1","","",""
"d3-animate-choice","148","312936","0.0-76.0-1.4","2388","4983","21","Male","false","true","true","true","""event"",""trial"",""time""
""fullscreenenter"",""5"",""13892""
","
","
","""event"",""trial"",""time""
""fullscreenenter"",""5"",""13892""
","
","344.30000001192093","","49","","","3000","1","","","images/purpleplanet.jpg","images/alien4","images/alien3","images/rocket2","images/alien3","images/nothing.png","2","real","true","1","common","0","2022-12-09 19:35:19.164"
"two-step-fixation","149","313940","0.0-76.0-2.4","2388","4983","21","Male","false","true","true","true","""event"",""trial"",""time""
""fullscreenenter"",""5"",""13892""
","
","
","""event"",""trial"",""time""
""fullscreenenter"",""5"",""13892""
","
","","images/earth.jpg","","","","","","","","","","","","","","fixation","","","","","",""
"d3-animate-choice","150","316181","0.0-76.0-0.5","2388","4983","21","Male","false","true","true","true","""event"",""trial"",""time""
""fullscreenenter"",""5"",""13892""
","
","
","""event"",""trial"",""time""
""fullscreenenter"",""5"",""13892""
","
","234.89999997615814","","49","","","3000","1","","","images/earth.jpg","images/rocket1","images/rocket2","null","images/rocket2","","1","real","null","1","","",""
"d3-animate-choice","151","318618","0.0-76.0-1.5","2388","4983","21","Male","false","true","true","true","""event"",""trial"",""time""
""fullscreenenter"",""5"",""13892""
","
","
","""event"",""trial"",""time""
""fullscreenenter"",""5"",""13892""
","
","433","","49","","","3000","1","","","images/purpleplanet.jpg","images/alien4","images/alien3","images/rocket2","images/alien3","images/t.png","2","real","true","1","common","1","2022-12-09 19:35:24.845"
"two-step-fixation","152","319620","0.0-76.0-2.5","2388","4983","21","Male","false","true","true","true","""event"",""trial"",""time""
""fullscreenenter"",""5"",""13892""
","
","
","""event"",""trial"",""time""
""fullscreenenter"",""5"",""13892""
","
","","images/earth.jpg","","","","","","","","","","","","","","fixation","","","","","",""
"d3-animate-choice","153","321664","0.0-76.0-0.6","2388","4983","21","Male","false","true","true","true","""event"",""trial"",""time""
""fullscreenenter"",""5"",""13892""
","
","
","""event"",""trial"",""time""
""fullscreenenter"",""5"",""13892""
","
","40.70000001788139","","49","","","3000","1","","","images/earth.jpg","images/rocket1","images/rocket2","null","images/rocket2","","1","real","null","1","","",""
"d3-animate-choice","154","323757","0.0-76.0-1.6","2388","4983","21","Male","false","true","true","true","""event"",""trial"",""time""
""fullscreenenter"",""5"",""13892""
","
","
","""event"",""trial"",""time""
""fullscreenenter"",""5"",""13892""
","
","89.59999999403954","","49","","","3000","1","354.69999998807907","49","images/purpleplanet.jpg","images/alien4","images/alien3","images/rocket2","images/alien3","images/t.png","2","real","true","1","common","1","2022-12-09 19:35:29.984"
"two-step-fixation","155","324759","0.0-76.0-2.6","2388","4983","21","Male","false","true","true","true","""event"",""trial"",""time""
""fullscreenenter"",""5"",""13892""
","
","
","""event"",""trial"",""time""
""fullscreenenter"",""5"",""13892""
","
","","images/earth.jpg","","","","","","","","","","","","","","fixation","","","","","",""
"d3-animate-choice","156","326811","0.0-76.0-0.7","2388","4983","21","Male","false","true","true","true","""event"",""trial"",""time""
""fullscreenenter"",""5"",""13892""
","
","
","""event"",""trial"",""time""
""fullscreenenter"",""5"",""13892""
","
","51","","49","","","3000","1","253.2999999821186,1877","49,49","images/earth.jpg","images/rocket1","images/rocket2","null","images/rocket2","","1","real","null","1","","",""
"d3-animate-choice","157","328927","0.0-76.0-1.7","2388","4983","21","Male","false","true","true","true","""event"",""trial"",""time""
""fullscreenenter"",""5"",""13892""
","
","
","""event"",""trial"",""time""
""fullscreenenter"",""5"",""13892""
","
","113.10000002384186","","49","","","3000","1","","","images/purpleplanet.jpg","images/alien4","images/alien3","images/rocket2","images/alien3","images/t.png","2","real","true","1","common","1","2022-12-09 19:35:35.154"
"two-step-fixation","158","329931","0.0-76.0-2.7","2388","4983","21","Male","false","true","true","true","""event"",""trial"",""time""
""fullscreenenter"",""5"",""13892""
","
","
","""event"",""trial"",""time""
""fullscreenenter"",""5"",""13892""
","
","","images/earth.jpg","","","","","","","","","","","","","","fixation","","","","","",""
"d3-animate-choice","159","332211","0.0-76.0-0.8","2388","4983","21","Male","false","true","true","true","""event"",""trial"",""time""
""fullscreenenter"",""5"",""13892""
","
","
","""event"",""trial"",""time""
""fullscreenenter"",""5"",""13892""
","
","274.5","","49","","","3000","1","","","images/earth.jpg","images/rocket1","images/rocket2","null","images/rocket2","","1","real","null","1","","",""
"d3-animate-choice","160","334710","0.0-76.0-1.8","2388","4983","21","Male","false","true","true","true","""event"",""trial"",""time""
""fullscreenenter"",""5"",""13892""
","
","
","""event"",""trial"",""time""
""fullscreenenter"",""5"",""13892""
","
","492.19999998807907","","49","","","3000","1","","","images/purpleplanet.jpg","images/alien4","images/alien3","images/rocket2","images/alien3","images/nothing.png","2","real","true","1","common","0","2022-12-09 19:35:40.937"
"two-step-fixation","161","335714","0.0-76.0-2.8","2388","4983","21","Male","false","true","true","true","""event"",""trial"",""time""
""fullscreenenter"",""5"",""13892""
","
","
","""event"",""trial"",""time""
""fullscreenenter"",""5"",""13892""
","
","","images/earth.jpg","","","","","","","","","","","","","","fixation","","","","","",""
"d3-animate-choice","162","337743","0.0-76.0-0.9","2388","4983","21","Male","false","true","true","true","""event"",""trial"",""time""
""fullscreenenter"",""5"",""13892""
","
","
","""event"",""trial"",""time""
""fullscreenenter"",""5"",""13892""
","
","24.700000017881393","","49","","","3000","1","190","49","images/earth.jpg","images/rocket1","images/rocket2","null","images/rocket2","","1","real","null","1","","",""
"d3-animate-choice","163","340171","0.0-76.0-1.9","2388","4983","21","Male","false","true","true","true","""event"",""trial"",""time""
""fullscreenenter"",""5"",""13892""
","
","
","""event"",""trial"",""time""
""fullscreenenter"",""5"",""13892""
","
","423.69999998807907","","48","","","3000","1","","","images/redplanet1.jpg","images/alien2","images/alien1","images/rocket2","images/alien2","images/t.png","2","real","false","2","rare","1","2022-12-09 19:35:46.398"
"two-step-fixation","164","341179","0.0-76.0-2.9","2388","4983","21","Male","false","true","true","true","""event"",""trial"",""time""
""fullscreenenter"",""5"",""13892""
","
","
","""event"",""trial"",""time""
""fullscreenenter"",""5"",""13892""
","
","","images/earth.jpg","","","","","","","","","","","","","","fixation","","","","","",""
"d3-animate-choice","165","343570","0.0-76.0-0.10","2388","4983","21","Male","false","true","true","true","""event"",""trial"",""time""
""fullscreenenter"",""5"",""13892""
","
","
","""event"",""trial"",""time""
""fullscreenenter"",""5"",""13892""
","
","385","","48","","","3000","1","","","images/earth.jpg","images/rocket1","images/rocket2","null","images/rocket1","","1","real","null","2","","",""
"d3-animate-choice","166","345840","0.0-76.0-1.10","2388","4983","21","Male","false","true","true","true","""event"",""trial"",""time""
""fullscreenenter"",""5"",""13892""
","
","
","""event"",""trial"",""time""
""fullscreenenter"",""5"",""13892""
","
","267.09999999403954","","48","","","3000","1","","","images/purpleplanet.jpg","images/alien4","images/alien3","images/rocket1","images/alien4","images/t.png","2","real","false","2","rare","1","2022-12-09 19:35:52.067"
"two-step-fixation","167","346846","0.0-76.0-2.10","2388","4983","21","Male","false","true","true","true","""event"",""trial"",""time""
""fullscreenenter"",""5"",""13892""
","
","
","""event"",""trial"",""time""
""fullscreenenter"",""5"",""13892""
","
","","images/earth.jpg","","","","","","","","","","","","","","fixation","","","","","",""
"d3-animate-choice","168","348904","0.0-76.0-0.11","2388","4983","21","Male","false","true","true","true","""event"",""trial"",""time""
""fullscreenenter"",""5"",""13892""
","
","
","""event"",""trial"",""time""
""fullscreenenter"",""5"",""13892""
","
","50.29999998211861","","48","","","3000","1","590.0999999940395","48","images/earth.jpg","images/rocket1","images/rocket2","null","images/rocket1","","1","real","null","2","","",""
"d3-animate-choice","169","351264","0.0-76.0-1.11","2388","4983","21","Male","false","true","true","true","""event"",""trial"",""time""
""fullscreenenter"",""5"",""13892""
","
","
","""event"",""trial"",""time""
""fullscreenenter"",""5"",""13892""
","
","356","","48","","","3000","1","","","images/redplanet1.jpg","images/alien2","images/alien1","images/rocket1","images/alien2","images/t.png","2","real","true","2","common","1","2022-12-09 19:35:57.491"
"two-step-fixation","170","352269","0.0-76.0-2.11","2388","4983","21","Male","false","true","true","true","""event"",""trial"",""time""
""fullscreenenter"",""5"",""13892""
","
","
","""event"",""trial"",""time""
""fullscreenenter"",""5"",""13892""
","
","","images/earth.jpg","","","","","","","","","","","","","","fixation","","","","","",""
"d3-animate-choice","171","354361","0.0-76.0-0.12","2388","4983","21","Male","false","true","true","true","""event"",""trial"",""time""
""fullscreenenter"",""5"",""13892""
","
","
","""event"",""trial"",""time""
""fullscreenenter"",""5"",""13892""
","
","86.2000000178814","","48","","","3000","1","233.59999999403954","48","images/earth.jpg","images/rocket1","images/rocket2","null","images/rocket1","","1","real","null","2","","",""
"d3-animate-choice","172","356694","0.0-76.0-1.12","2388","4983","21","Male","false","true","true","true","""event"",""trial"",""time""
""fullscreenenter"",""5"",""13892""
","
","
","""event"",""trial"",""time""
""fullscreenenter"",""5"",""13892""
","
","324.5","","48","","","3000","1","","","images/redplanet1.jpg","images/alien2","images/alien1","images/rocket1","images/alien2","images/nothing.png","2","real","true","2","common","0","2022-12-09 19:36:02.921"
"two-step-fixation","173","357702","0.0-76.0-2.12","2388","4983","21","Male","false","true","true","true","""event"",""trial"",""time""
""fullscreenenter"",""5"",""13892""
","
","
","""event"",""trial"",""time""
""fullscreenenter"",""5"",""13892""
","
","","images/earth.jpg","","","","","","","","","","","","","","fixation","","","","","",""
"d3-animate-choice","174","359780","0.0-76.0-0.13","2388","4983","21","Male","false","true","true","true","""event"",""trial"",""time""
""fullscreenenter"",""5"",""13892""
","
","
","""event"",""trial"",""time""
""fullscreenenter"",""5"",""13892""
","
","72.80000001192093","","48","","","3000","1","185.90000000596046","48","images/earth.jpg","images/rocket1","images/rocket2","null","images/rocket1","","1","real","null","2","","",""
"d3-animate-choice","175","362109","0.0-76.0-1.13","2388","4983","21","Male","false","true","true","true","""event"",""trial"",""time""
""fullscreenenter"",""5"",""13892""
","
","
","""event"",""trial"",""time""
""fullscreenenter"",""5"",""13892""
","
","324.2999999821186","","48","","","3000","1","","","images/redplanet1.jpg","images/alien2","images/alien1","images/rocket1","images/alien2","images/t.png","2","real","true","2","common","1","2022-12-09 19:36:08.336"
"two-step-fixation","176","363114","0.0-76.0-2.13","2388","4983","21","Male","false","true","true","true","""event"",""trial"",""time""
""fullscreenenter"",""5"",""13892""
","
","
","""event"",""trial"",""time""
""fullscreenenter"",""5"",""13892""
","
","","images/earth.jpg","","","","","","","","","","","","","","fixation","","","","","",""
"d3-animate-choice","177","365235","0.0-76.0-0.14","2388","4983","21","Male","false","true","true","true","""event"",""trial"",""time""
""fullscreenenter"",""5"",""13892""
","
","
","""event"",""trial"",""time""
""fullscreenenter"",""5"",""13892""
","
","117.59999999403954","","48","","","3000","1","2040.9000000059605","48","images/earth.jpg","images/rocket1","images/rocket2","null","images/rocket1","","1","real","null","2","","",""
"d3-animate-choice","178","367280","0.0-76.0-1.14","2388","4983","21","Male","false","true","true","true","""event"",""trial"",""time""
""fullscreenenter"",""5"",""13892""
","
","
","""event"",""trial"",""time""
""fullscreenenter"",""5"",""13892""
","
","42.80000001192093","","48","","","3000","1","446.90000000596046","48","images/redplanet1.jpg","images/alien2","images/alien1","images/rocket1","images/alien2","images/nothing.png","2","real","true","2","common","0","2022-12-09 19:36:13.507"
"two-step-fixation","179","368284","0.0-76.0-2.14","2388","4983","21","Male","false","true","true","true","""event"",""trial"",""time""
""fullscreenenter"",""5"",""13892""
","
","
","""event"",""trial"",""time""
""fullscreenenter"",""5"",""13892""
","
","","images/earth.jpg","","","","","","","","","","","","","","fixation","","","","","",""
"d3-animate-choice","180","370368","0.0-76.0-0.15","2388","4983","21","Male","false","true","true","true","""event"",""trial"",""time""
""fullscreenenter"",""5"",""13892""
","
","
","""event"",""trial"",""time""
""fullscreenenter"",""5"",""13892""
","
","77.7000000178814","","49","","","3000","1","","","images/earth.jpg","images/rocket1","images/rocket2","null","images/rocket2","","1","real","null","1","","",""
"d3-animate-choice","181","372693","0.0-76.0-1.15","2388","4983","21","Male","false","true","true","true","""event"",""trial"",""time""
""fullscreenenter"",""5"",""13892""
","
","
","""event"",""trial"",""time""
""fullscreenenter"",""5"",""13892""
","
","320","","49","","","3000","1","","","images/purpleplanet.jpg","images/alien4","images/alien3","images/rocket2","images/alien3","images/nothing.png","2","real","true","1","common","0","2022-12-09 19:36:18.921"
"two-step-fixation","182","373701","0.0-76.0-2.15","2388","4983","21","Male","false","true","true","true","""event"",""trial"",""time""
""fullscreenenter"",""5"",""13892""
","
","
","""event"",""trial"",""time""
""fullscreenenter"",""5"",""13892""
","
","","images/earth.jpg","","","","","","","","","","","","","","fixation","","","","","",""
"d3-animate-choice","183","375915","0.0-76.0-0.16","2388","4983","21","Male","false","true","true","true","""event"",""trial"",""time""
""fullscreenenter"",""5"",""13892""
","
","
","""event"",""trial"",""time""
""fullscreenenter"",""5"",""13892""
","
","207.40000000596046","","49","","","3000","1","","","images/earth.jpg","images/rocket1","images/rocket2","null","images/rocket2","","1","real","null","1","","",""
"d3-animate-choice","184","378276","0.0-76.0-1.16","2388","4983","21","Male","false","true","true","true","""event"",""trial"",""time""
""fullscreenenter"",""5"",""13892""
","
","
","""event"",""trial"",""time""
""fullscreenenter"",""5"",""13892""
","
","357","","48","","","3000","1","","","images/purpleplanet.jpg","images/alien4","images/alien3","images/rocket2","images/alien4","images/nothing.png","2","real","true","2","common","0","2022-12-09 19:36:24.503"
"two-step-fixation","185","379280","0.0-76.0-2.16","2388","4983","21","Male","false","true","true","true","""event"",""trial"",""time""
""fullscreenenter"",""5"",""13892""
","
","
","""event"",""trial"",""time""
""fullscreenenter"",""5"",""13892""
","
","","images/earth.jpg","","","","","","","","","","","","","","fixation","","","","","",""
"d3-animate-choice","186","381447","0.0-76.0-0.17","2388","4983","21","Male","false","true","true","true","""event"",""trial"",""time""
""fullscreenenter"",""5"",""13892""
","
","
","""event"",""trial"",""time""
""fullscreenenter"",""5"",""13892""
","
","162.89999997615814","","48","","","3000","1","330.5,2055","48,49","images/earth.jpg","images/rocket1","images/rocket2","null","images/rocket1","","1","real","null","2","","",""
"d3-animate-choice","187","383600","0.0-76.0-1.17","2388","4983","21","Male","false","true","true","true","""event"",""trial"",""time""
""fullscreenenter"",""5"",""13892""
","
","
","""event"",""trial"",""time""
""fullscreenenter"",""5"",""13892""
","
","147.2000000178814","","49","","","3000","1","324.5","49","images/redplanet1.jpg","images/alien2","images/alien1","images/rocket1","images/alien1","images/nothing.png","2","real","true","1","common","0","2022-12-09 19:36:29.827"
"two-step-fixation","188","384605","0.0-76.0-2.17","2388","4983","21","Male","false","true","true","true","""event"",""trial"",""time""
""fullscreenenter"",""5"",""13892""
","
","
","""event"",""trial"",""time""
""fullscreenenter"",""5"",""13892""
","
","","images/earth.jpg","","","","","","","","","","","","","","fixation","","","","","",""
"d3-animate-choice","189","386880","0.0-76.0-0.18","2388","4983","21","Male","false","true","true","true","""event"",""trial"",""time""
""fullscreenenter"",""5"",""13892""
","
","
","""event"",""trial"",""time""
""fullscreenenter"",""5"",""13892""
","
","271.2000000178814","","48","","","3000","1","","","images/earth.jpg","images/rocket1","images/rocket2","null","images/rocket1","","1","real","null","2","","",""
"d3-animate-choice","190","389378","0.0-76.0-1.18","2388","4983","21","Male","false","true","true","true","""event"",""trial"",""time""
""fullscreenenter"",""5"",""13892""
","
","
","""event"",""trial"",""time""
""fullscreenenter"",""5"",""13892""
","
","493.7000000178814","","48","","","3000","1","","","images/purpleplanet.jpg","images/alien4","images/alien3","images/rocket1","images/alien4","images/t.png","2","real","false","2","rare","1","2022-12-09 19:36:35.605"
"two-step-fixation","191","390384","0.0-76.0-2.18","2388","4983","21","Male","false","true","true","true","""event"",""trial"",""time""
""fullscreenenter"",""5"",""13892""
","
","
","""event"",""trial"",""time""
""fullscreenenter"",""5"",""13892""
","
","","images/earth.jpg","","","","","","","","","","","","","","fixation","","","","","",""
"d3-animate-choice","192","392767","0.0-76.0-0.19","2388","4983","21","Male","false","true","true","true","""event"",""trial"",""time""
""fullscreenenter"",""5"",""13892""
","
","
","""event"",""trial"",""time""
""fullscreenenter"",""5"",""13892""
","
","376.40000000596046","","49","","","3000","1","","","images/earth.jpg","images/rocket1","images/rocket2","null","images/rocket2","","1","real","null","1","","",""
"d3-animate-choice","193","395073","0.0-76.0-1.19","2388","4983","21","Male","false","true","true","true","""event"",""trial"",""time""
""fullscreenenter"",""5"",""13892""
","
","
","""event"",""trial"",""time""
""fullscreenenter"",""5"",""13892""
","
","302.59999999403954","","48","","","3000","1","","","images/purpleplanet.jpg","images/alien4","images/alien3","images/rocket2","images/alien4","images/t.png","2","real","true","2","common","1","2022-12-09 19:36:41.300"
"two-step-fixation","194","396077","0.0-76.0-2.19","2388","4983","21","Male","false","true","true","true","""event"",""trial"",""time""
""fullscreenenter"",""5"",""13892""
","
","
","""event"",""trial"",""time""
""fullscreenenter"",""5"",""13892""
","
","","images/earth.jpg","","","","","","","","","","","","","","fixation","","","","","",""
"d3-animate-choice","195","398121","0.0-76.0-0.20","2388","4983","21","Male","false","true","true","true","""event"",""trial"",""time""
""fullscreenenter"",""5"",""13892""
","
","
","""event"",""trial"",""time""
""fullscreenenter"",""5"",""13892""
","
","39.69999998807907","","49","","","3000","1","217.7999999821186","49","images/earth.jpg","images/rocket1","images/rocket2","null","images/rocket2","","1","real","null","1","","",""
"d3-animate-choice","196","400436","0.0-76.0-1.20","2388","4983","21","Male","false","true","true","true","""event"",""trial"",""time""
""fullscreenenter"",""5"",""13892""
","
","
","""event"",""trial"",""time""
""fullscreenenter"",""5"",""13892""
","
","311.2000000178814","","48","","","3000","1","","","images/redplanet1.jpg","images/alien2","images/alien1","images/rocket2","images/alien2","images/nothing.png","2","real","false","2","rare","0","2022-12-09 19:36:46.663"
"two-step-fixation","197","401440","0.0-76.0-2.20","2388","4983","21","Male","false","true","true","true","""event"",""trial"",""time""
""fullscreenenter"",""5"",""13892""
","
","
","""event"",""trial"",""time""
""fullscreenenter"",""5"",""13892""
","
","","images/earth.jpg","","","","","","","","","","","","","","fixation","","","","","",""
"d3-animate-choice","198","403509","0.0-76.0-0.21","2388","4983","21","Male","false","true","true","true","""event"",""trial"",""time""
""fullscreenenter"",""5"",""13892""
","
","
","""event"",""trial"",""time""
""fullscreenenter"",""5"",""13892""
","
","63.900000005960464","","49","","","3000","1","321.59999999403954","49","images/earth.jpg","images/rocket1","images/rocket2","null","images/rocket2","","1","real","null","1","","",""
"d3-animate-choice","199","405829","0.0-76.0-1.21","2388","4983","21","Male","false","true","true","true","""event"",""trial"",""time""
""fullscreenenter"",""5"",""13892""
","
","
","""event"",""trial"",""time""
""fullscreenenter"",""5"",""13892""
","
","315.69999998807907","","48","","","3000","1","","","images/purpleplanet.jpg","images/alien4","images/alien3","images/rocket2","images/alien4","images/nothing.png","2","real","true","2","common","0","2022-12-09 19:36:52.056"
"two-step-fixation","200","406835","0.0-76.0-2.21","2388","4983","21","Male","false","true","true","true","""event"",""trial"",""time""
""fullscreenenter"",""5"",""13892""
","
","
","""event"",""trial"",""time""
""fullscreenenter"",""5"",""13892""
","
","","images/earth.jpg","","","","","","","","","","","","","","fixation","","","","","",""
"d3-animate-choice","201","408960","0.0-76.0-0.22","2388","4983","21","Male","false","true","true","true","""event"",""trial"",""time""
""fullscreenenter"",""5"",""13892""
","
","
","""event"",""trial"",""time""
""fullscreenenter"",""5"",""13892""
","
","121.5","","48","","","3000","1","","","images/earth.jpg","images/rocket1","images/rocket2","null","images/rocket1","","1","real","null","2","","",""
"d3-animate-choice","202","411202","0.0-76.0-1.22","2388","4983","21","Male","false","true","true","true","""event"",""trial"",""time""
""fullscreenenter"",""5"",""13892""
","
","
","""event"",""trial"",""time""
""fullscreenenter"",""5"",""13892""
","
","238","","48","","","3000","1","","","images/redplanet1.jpg","images/alien2","images/alien1","images/rocket1","images/alien2","images/nothing.png","2","real","true","2","common","0","2022-12-09 19:36:57.430"
"two-step-fixation","203","412206","0.0-76.0-2.22","2388","4983","21","Male","false","true","true","true","""event"",""trial"",""time""
""fullscreenenter"",""5"",""13892""
","
","
","""event"",""trial"",""time""
""fullscreenenter"",""5"",""13892""
","
","","images/earth.jpg","","","","","","","","","","","","","","fixation","","","","","",""
"d3-animate-choice","204","414212","0.0-76.0-0.23","2388","4983","21","Male","false","true","true","true","""event"",""trial"",""time""
""fullscreenenter"",""5"",""13892""
","
","
","""event"",""trial"",""time""
""fullscreenenter"",""5"",""13892""
","
","0.29999998211860657","","49","","","3000","1","246.2999999821186","49","images/earth.jpg","images/rocket1","images/rocket2","null","images/rocket2","","1","real","null","1","","",""
"d3-animate-choice","205","416379","0.0-76.0-1.23","2388","4983","21","Male","false","true","true","true","""event"",""trial"",""time""
""fullscreenenter"",""5"",""13892""
","
","
","""event"",""trial"",""time""
""fullscreenenter"",""5"",""13892""
","
","161.7000000178814","","49","","","3000","1","","","images/purpleplanet.jpg","images/alien4","images/alien3","images/rocket2","images/alien3","images/nothing.png","2","real","true","1","common","0","2022-12-09 19:37:02.606"
"two-step-fixation","206","417385","0.0-76.0-2.23","2388","4983","21","Male","false","true","true","true","""event"",""trial"",""time""
""fullscreenenter"",""5"",""13892""
","
","
","""event"",""trial"",""time""
""fullscreenenter"",""5"",""13892""
","
","","images/earth.jpg","","","","","","","","","","","","","","fixation","","","","","",""
"d3-animate-choice","207","419419","0.0-76.0-0.24","2388","4983","21","Male","false","true","true","true","""event"",""trial"",""time""
""fullscreenenter"",""5"",""13892""
","
","
","""event"",""trial"",""time""
""fullscreenenter"",""5"",""13892""
","
","29.600000023841858","","48","","","3000","1","242,1929.6000000238419","48,49","images/earth.jpg","images/rocket1","images/rocket2","null","images/rocket1","","1","real","null","2","","",""
"d3-animate-choice","208","421631","0.0-76.0-1.24","2388","4983","21","Male","false","true","true","true","""event"",""trial"",""time""
""fullscreenenter"",""5"",""13892""
","
","
","""event"",""trial"",""time""
""fullscreenenter"",""5"",""13892""
","
","208.2000000178814","","49","","","3000","1","","","images/redplanet1.jpg","images/alien2","images/alien1","images/rocket1","images/alien1","images/t.png","2","real","true","1","common","1","2022-12-09 19:37:07.858"
"two-step-fixation","209","422635","0.0-76.0-2.24","2388","4983","21","Male","false","true","true","true","""event"",""trial"",""time""
""fullscreenenter"",""5"",""13892""
","
","
","""event"",""trial"",""time""
""fullscreenenter"",""5"",""13892""
","
","","images/earth.jpg","","","","","","","","","","","","","","fixation","","","","","",""
"d3-animate-choice","210","424694","0.0-76.0-0.25","2388","4983","21","Male","false","true","true","true","""event"",""trial"",""time""
""fullscreenenter"",""5"",""13892""
","
","
","""event"",""trial"",""time""
""fullscreenenter"",""5"",""13892""
","
","54.80000001192093","","48","","","3000","1","198","48","images/earth.jpg","images/rocket1","images/rocket2","null","images/rocket1","","1","real","null","2","","",""
"d3-animate-choice","211","426975","0.0-76.0-1.25","2388","4983","21","Male","false","true","true","true","""event"",""trial"",""time""
""fullscreenenter"",""5"",""13892""
","
","
","""event"",""trial"",""time""
""fullscreenenter"",""5"",""13892""
","
","276.7999999821186","","49","","","3000","1","","","images/purpleplanet.jpg","images/alien4","images/alien3","images/rocket1","images/alien3","images/nothing.png","2","real","false","1","rare","0","2022-12-09 19:37:13.202"
"two-step-fixation","212","427979","0.0-76.0-2.25","2388","4983","21","Male","false","true","true","true","""event"",""trial"",""time""
""fullscreenenter"",""5"",""13892""
","
","
","""event"",""trial"",""time""
""fullscreenenter"",""5"",""13892""
","
","","images/earth.jpg","","","","","","","","","","","","","","fixation","","","","","",""
"d3-animate-choice","213","430059","0.0-76.0-0.26","2388","4983","21","Male","false","true","true","true","""event"",""trial"",""time""
""fullscreenenter"",""5"",""13892""
","
","
","""event"",""trial"",""time""
""fullscreenenter"",""5"",""13892""
","
","73.5","","48","","","3000","1","219.80000001192093","48","images/earth.jpg","images/rocket1","images/rocket2","null","images/rocket1","","1","real","null","2","","",""
"d3-animate-choice","214","432407","0.0-76.0-1.26","2388","4983","21","Male","false","true","true","true","""event"",""trial"",""time""
""fullscreenenter"",""5"",""13892""
","
","
","""event"",""trial"",""time""
""fullscreenenter"",""5"",""13892""
","
","345.2000000178814","","49","","","3000","1","","","images/redplanet1.jpg","images/alien2","images/alien1","images/rocket1","images/alien1","images/t.png","2","real","true","1","common","1","2022-12-09 19:37:18.635"
"two-step-fixation","215","433413","0.0-76.0-2.26","2388","4983","21","Male","false","true","true","true","""event"",""trial"",""time""
""fullscreenenter"",""5"",""13892""
","
","
","""event"",""trial"",""time""
""fullscreenenter"",""5"",""13892""
","
","","images/earth.jpg","","","","","","","","","","","","","","fixation","","","","","",""
"d3-animate-choice","216","435563","0.0-76.0-0.27","2388","4983","21","Male","false","true","true","true","""event"",""trial"",""time""
""fullscreenenter"",""5"",""13892""
","
","
","""event"",""trial"",""time""
""fullscreenenter"",""5"",""13892""
","
","144.40000000596046","","48","","","3000","1","311.40000000596046","48","images/earth.jpg","images/rocket1","images/rocket2","null","images/rocket1","","1","real","null","2","","",""
"d3-animate-choice","217","437846","0.0-76.0-1.27","2388","4983","21","Male","false","true","true","true","""event"",""trial"",""time""
""fullscreenenter"",""5"",""13892""
","
","
","""event"",""trial"",""time""
""fullscreenenter"",""5"",""13892""
","
","278.39999997615814","","49","","","3000","1","","","images/redplanet1.jpg","images/alien2","images/alien1","images/rocket1","images/alien1","images/nothing.png","2","real","true","1","common","0","2022-12-09 19:37:24.073"
"two-step-fixation","218","438851","0.0-76.0-2.27","2388","4983","21","Male","false","true","true","true","""event"",""trial"",""time""
""fullscreenenter"",""5"",""13892""
","
","
","""event"",""trial"",""time""
""fullscreenenter"",""5"",""13892""
","
","","images/earth.jpg","","","","","","","","","","","","","","fixation","","","","","",""
"d3-animate-choice","219","440937","0.0-76.0-0.28","2388","4983","21","Male","false","true","true","true","""event"",""trial"",""time""
""fullscreenenter"",""5"",""13892""
","
","
","""event"",""trial"",""time""
""fullscreenenter"",""5"",""13892""
","
","79.89999997615814","","49","","","3000","1","","","images/earth.jpg","images/rocket1","images/rocket2","null","images/rocket2","","1","real","null","1","","",""
"d3-animate-choice","220","443579","0.0-76.0-1.28","2388","4983","21","Male","false","true","true","true","""event"",""trial"",""time""
""fullscreenenter"",""5"",""13892""
","
","
","""event"",""trial"",""time""
""fullscreenenter"",""5"",""13892""
","
","638.5","","48","","","3000","1","","","images/purpleplanet.jpg","images/alien4","images/alien3","images/rocket2","images/alien4","images/t.png","2","real","true","2","common","1","2022-12-09 19:37:29.806"
"two-step-fixation","221","444583","0.0-76.0-2.28","2388","4983","21","Male","false","true","true","true","""event"",""trial"",""time""
""fullscreenenter"",""5"",""13892""
","
","
","""event"",""trial"",""time""
""fullscreenenter"",""5"",""13892""
","
","","images/earth.jpg","","","","","","","","","","","","","","fixation","","","","","",""
"d3-animate-choice","222","446731","0.0-76.0-0.29","2388","4983","21","Male","false","true","true","true","""event"",""trial"",""time""
""fullscreenenter"",""5"",""13892""
","
","
","""event"",""trial"",""time""
""fullscreenenter"",""5"",""13892""
","
","142.80000001192093","","49","","","3000","1","347.09999999403954","49","images/earth.jpg","images/rocket1","images/rocket2","null","images/rocket2","","1","real","null","1","","",""
"d3-animate-choice","223","449317","0.0-76.0-1.29","2388","4983","21","Male","false","true","true","true","""event"",""trial"",""time""
""fullscreenenter"",""5"",""13892""
","
","
","""event"",""trial"",""time""
""fullscreenenter"",""5"",""13892""
","
","581.8000000119209","","49","","","3000","1","","","images/redplanet1.jpg","images/alien2","images/alien1","images/rocket2","images/alien1","images/nothing.png","2","real","false","1","rare","0","2022-12-09 19:37:35.544"
"two-step-fixation","224","450321","0.0-76.0-2.29","2388","4983","21","Male","false","true","true","true","""event"",""trial"",""time""
""fullscreenenter"",""5"",""13892""
","
","
","""event"",""trial"",""time""
""fullscreenenter"",""5"",""13892""
","
","","images/earth.jpg","","","","","","","","","","","","","","fixation","","","","","",""
"d3-animate-choice","225","452672","0.0-76.0-0.30","2388","4983","21","Male","false","true","true","true","""event"",""trial"",""time""
""fullscreenenter"",""5"",""13892""
","
","
","""event"",""trial"",""time""
""fullscreenenter"",""5"",""13892""
","
","345.09999999403954","","49","","","3000","1","","","images/earth.jpg","images/rocket1","images/rocket2","null","images/rocket2","","1","real","null","1","","",""
"d3-animate-choice","226","455347","0.0-76.0-1.30","2388","4983","21","Male","false","true","true","true","""event"",""trial"",""time""
""fullscreenenter"",""5"",""13892""
","
","
","""event"",""trial"",""time""
""fullscreenenter"",""5"",""13892""
","
","671.9000000059605","","49","","","3000","1","","","images/redplanet1.jpg","images/alien2","images/alien1","images/rocket2","images/alien1","images/t.png","2","real","false","1","rare","1","2022-12-09 19:37:41.574"
"two-step-fixation","227","456351","0.0-76.0-2.30","2388","4983","21","Male","false","true","true","true","""event"",""trial"",""time""
""fullscreenenter"",""5"",""13892""
","
","
","""event"",""trial"",""time""
""fullscreenenter"",""5"",""13892""
","
","","images/earth.jpg","","","","","","","","","","","","","","fixation","","","","","",""
"d3-animate-choice","228","458580","0.0-76.0-0.31","2388","4983","21","Male","false","true","true","true","""event"",""trial"",""time""
""fullscreenenter"",""5"",""13892""
","
","
","""event"",""trial"",""time""
""fullscreenenter"",""5"",""13892""
","
","223","","49","","","3000","1","","","images/earth.jpg","images/rocket1","images/rocket2","null","images/rocket2","","1","real","null","1","","",""
"d3-animate-choice","229","460985","0.0-76.0-1.31","2388","4983","21","Male","false","true","true","true","""event"",""trial"",""time""
""fullscreenenter"",""5"",""13892""
","
","
","""event"",""trial"",""time""
""fullscreenenter"",""5"",""13892""
","
","396.19999998807907","","49","","","3000","1","","","images/redplanet1.jpg","images/alien2","images/alien1","images/rocket2","images/alien1","images/t.png","2","real","false","1","rare","1","2022-12-09 19:37:47.212"
"two-step-fixation","230","461990","0.0-76.0-2.31","2388","4983","21","Male","false","true","true","true","""event"",""trial"",""time""
""fullscreenenter"",""5"",""13892""
","
","
","""event"",""trial"",""time""
""fullscreenenter"",""5"",""13892""
","
","","images/earth.jpg","","","","","","","","","","","","","","fixation","","","","","",""
"d3-animate-choice","231","464054","0.0-76.0-0.32","2388","4983","21","Male","false","true","true","true","""event"",""trial"",""time""
""fullscreenenter"",""5"",""13892""
","
","
","""event"",""trial"",""time""
""fullscreenenter"",""5"",""13892""
","
","60.900000005960464","","49","","","3000","1","231.90000000596046","49","images/earth.jpg","images/rocket1","images/rocket2","null","images/rocket2","","1","real","null","1","","",""
"d3-animate-choice","232","466702","0.0-76.0-1.32","2388","4983","21","Male","false","true","true","true","""event"",""trial"",""time""
""fullscreenenter"",""5"",""13892""
","
","
","""event"",""trial"",""time""
""fullscreenenter"",""5"",""13892""
","
","642.9000000059605","","48","","","3000","1","","","images/purpleplanet.jpg","images/alien4","images/alien3","images/rocket2","images/alien4","images/t.png","2","real","true","2","common","1","2022-12-09 19:37:52.929"
"two-step-fixation","233","467707","0.0-76.0-2.32","2388","4983","21","Male","false","true","true","true","""event"",""trial"",""time""
""fullscreenenter"",""5"",""13892""
","
","
","""event"",""trial"",""time""
""fullscreenenter"",""5"",""13892""
","
","","images/earth.jpg","","","","","","","","","","","","","","fixation","","","","","",""
"d3-animate-choice","234","469948","0.0-76.0-0.33","2388","4983","21","Male","false","true","true","true","""event"",""trial"",""time""
""fullscreenenter"",""5"",""13892""
","
","
","""event"",""trial"",""time""
""fullscreenenter"",""5"",""13892""
","
","237","","49","","","3000","1","","","images/earth.jpg","images/rocket1","images/rocket2","null","images/rocket2","","1","real","null","1","","",""
"d3-animate-choice","235","472413","0.0-76.0-1.33","2388","4983","21","Male","false","true","true","true","""event"",""trial"",""time""
""fullscreenenter"",""5"",""13892""
","
","
","""event"",""trial"",""time""
""fullscreenenter"",""5"",""13892""
","
","460.40000000596046","","49","","","3000","1","","","images/redplanet1.jpg","images/alien2","images/alien1","images/rocket2","images/alien1","images/nothing.png","2","real","false","1","rare","0","2022-12-09 19:37:58.641"
"two-step-fixation","236","473419","0.0-76.0-2.33","2388","4983","21","Male","false","true","true","true","""event"",""trial"",""time""
""fullscreenenter"",""5"",""13892""
","
","
","""event"",""trial"",""time""
""fullscreenenter"",""5"",""13892""
","
","","images/earth.jpg","","","","","","","","","","","","","","fixation","","","","","",""
"d3-animate-choice","237","475587","0.0-76.0-0.34","2388","4983","21","Male","false","true","true","true","""event"",""trial"",""time""
""fullscreenenter"",""5"",""13892""
","
","
","""event"",""trial"",""time""
""fullscreenenter"",""5"",""13892""
","
","163.5","","49","","","3000","1","","","images/earth.jpg","images/rocket1","images/rocket2","null","images/rocket2","","1","real","null","1","","",""
"d3-animate-choice","238","477980","0.0-76.0-1.34","2388","4983","21","Male","false","true","true","true","""event"",""trial"",""time""
""fullscreenenter"",""5"",""13892""
","
","
","""event"",""trial"",""time""
""fullscreenenter"",""5"",""13892""
","
","386.7000000178814","","48","","","3000","1","","","images/purpleplanet.jpg","images/alien4","images/alien3","images/rocket2","images/alien4","images/t.png","2","real","true","2","common","1","2022-12-09 19:38:04.207"
"two-step-fixation","239","478987","0.0-76.0-2.34","2388","4983","21","Male","false","true","true","true","""event"",""trial"",""time""
""fullscreenenter"",""5"",""13892""
","
","
","""event"",""trial"",""time""
""fullscreenenter"",""5"",""13892""
","
","","images/earth.jpg","","","","","","","","","","","","","","fixation","","","","","",""
"d3-animate-choice","240","481078","0.0-76.0-0.35","2388","4983","21","Male","false","true","true","true","""event"",""trial"",""time""
""fullscreenenter"",""5"",""13892""
","
","
","""event"",""trial"",""time""
""fullscreenenter"",""5"",""13892""
","
","86.5","","49","","","3000","1","","","images/earth.jpg","images/rocket1","images/rocket2","null","images/rocket2","","1","real","null","1","","",""
"d3-animate-choice","241","483474","0.0-76.0-1.35","2388","4983","21","Male","false","true","true","true","""event"",""trial"",""time""
""fullscreenenter"",""5"",""13892""
","
","
","""event"",""trial"",""time""
