"trial_type","trial_index","time_elapsed","internal_node_id","participant_id","subject_id","age","gender","rocket_sides","red_planet_first_rocket","red_display_order","purple_display_order","interactions","blur_events","focus_events","fullscreenenter_events","fullscreenexit_events","rt","stimulus","key_press","button_pressed","success","duration","valid_pressed","rts","keys","planet_text","right_text","left_text","center_text","chosen_text","reward_text","trial_stage","practice_trial","transition_type","choice","transition","reward","timestamp"
"pavlovia","0","3","0.0-0.0","1059","1304","22","Male","true","false","false","false","
","
","
","
","
","","","","","","","","","","","","","","","","","","","","","",""
"html-keyboard-response","1","1583","0.0-1.0","1059","1304","22","Male","true","false","false","false","
","
","
","
","
","1580.0999999999767","Welcome! Press the space bar to begin.","32","","","","","","","","","","","","","","","","","","",""
"audio-keyboard-response","2","6162","0.0-2.0","1059","1304","22","Male","true","false","false","false","
","
","
","
","
","4447","audio/beep_loop.wav","32","","","","","","","","","","","","","","","","","","",""
"audio-button-response","3","9605","0.0-3.0","1059","1304","22","Male","true","false","false","false","
","
","
","
","
","NaN","audio/fish.mp3","","1","","","","","","","","","","","","","","","","","",""
"audio-button-response","4","13054","0.0-4.0","1059","1304","22","Male","true","false","false","false","""event"",""trial"",""time""
""fullscreenenter"",""5"",""16159""
","
","
","""event"",""trial"",""time""
""fullscreenenter"",""5"",""16159""
","
","NaN","audio/tiger.mp3","","4","","","","","","","","","","","","","","","","","",""
"fullscreen","5","17124","0.0-5.0","1059","1304","22","Male","true","false","false","false","""event"",""trial"",""time""
""fullscreenenter"",""5"",""16159""
","
","
","""event"",""trial"",""time""
""fullscreenenter"",""5"",""16159""
","
","","","","","true","","","","","","","","","","","","","","","","",""
"d3-instructions","6","30974","0.0-6.0","1059","1304","22","Male","true","false","false","false","""event"",""trial"",""time""
""fullscreenenter"",""5"",""16159""
","
","
","""event"",""trial"",""time""
""fullscreenenter"",""5"",""16159""
","
","","","","","","","","","","","","","","","","","","","","","",""
"d3-instructions","7","40630","0.0-7.0","1059","1304","22","Male","true","false","false","false","""event"",""trial"",""time""
""fullscreenenter"",""5"",""16159""
","
","
","""event"",""trial"",""time""
""fullscreenenter"",""5"",""16159""
","
","","","","","","","","","","","","","","","","","","","","","",""
"d3-instructions","8","47446","0.0-8.0","1059","1304","22","Male","true","false","false","false","""event"",""trial"",""time""
""fullscreenenter"",""5"",""16159""
","
","
","""event"",""trial"",""time""
""fullscreenenter"",""5"",""16159""
","
","","","","","","","","","","","","","","","","","","","","","",""
"d3-instructions","9","59878","0.0-9.0","1059","1304","22","Male","true","false","false","false","""event"",""trial"",""time""
""fullscreenenter"",""5"",""16159""
","
","
","""event"",""trial"",""time""
""fullscreenenter"",""5"",""16159""
","
","","","","","","","","","","","","","","","","","","","","","",""
"d3-instructions","10","75149","0.0-10.0","1059","1304","22","Male","true","false","false","false","""event"",""trial"",""time""
""fullscreenenter"",""5"",""16159""
","
","
","""event"",""trial"",""time""
""fullscreenenter"",""5"",""16159""
","
","","","","","","","","","","","","","","","","","","","","","",""
"d3-animate-choice","11","78372","0.0-11.0","1059","1304","22","Male","true","false","false","false","""event"",""trial"",""time""
""fullscreenenter"",""5"",""16159""
","
","
","""event"",""trial"",""time""
""fullscreenenter"",""5"",""16159""
","
","1213.5","","49","","","3000","1","2189.4000000000233,3093.5","48,48","images/tutgreenplanet.jpg","images/tutalien1","images/tutalien2","null","images/tutalien2","","NA","practice","null","","","",""
"d3-animate-choice","12","81547","0.0-12.0","1059","1304","22","Male","true","false","false","false","""event"",""trial"",""time""
""fullscreenenter"",""5"",""16159""
","
","
","""event"",""trial"",""time""
""fullscreenenter"",""5"",""16159""
","
","1166.899999999965","","48","","","3000","1","","","images/tutgreenplanet.jpg","images/tutalien1","images/tutalien2","null","images/tutalien1","","NA","practice","null","","","",""
"d3-animate-choice","13","84282","0.0-13.0","1059","1304","22","Male","true","false","false","false","""event"",""trial"",""time""
""fullscreenenter"",""5"",""16159""
","
","
","""event"",""trial"",""time""
""fullscreenenter"",""5"",""16159""
","
","728.0999999999767","","48","","","3000","1","","","images/tutgreenplanet.jpg","images/tutalien1","images/tutalien2","null","images/tutalien1","","NA","practice","null","","","",""
"d3-animate-choice","14","86702","0.0-14.0","1059","1304","22","Male","true","false","false","false","""event"",""trial"",""time""
""fullscreenenter"",""5"",""16159""
","
","
","""event"",""trial"",""time""
""fullscreenenter"",""5"",""16159""
","
","418.4000000000233","","49","","","3000","1","","","images/tutgreenplanet.jpg","images/tutalien1","images/tutalien2","null","images/tutalien2","","NA","practice","null","","","",""
"d3-instructions","15","96661","0.0-15.0","1059","1304","22","Male","true","false","false","false","""event"",""trial"",""time""
""fullscreenenter"",""5"",""16159""
","
","
","""event"",""trial"",""time""
""fullscreenenter"",""5"",""16159""
","
","","","","","","","","","","","","","","","","","","","","","",""
"d3-instructions","16","103965","0.0-16.0","1059","1304","22","Male","true","false","false","false","""event"",""trial"",""time""
""fullscreenenter"",""5"",""16159""
","
","
","""event"",""trial"",""time""
""fullscreenenter"",""5"",""16159""
","
","","","","","","","","","","","","","","","","","","","","","",""
"d3-instructions","17","114037","0.0-17.0","1059","1304","22","Male","true","false","false","false","""event"",""trial"",""time""
""fullscreenenter"",""5"",""16159""
","
","
","""event"",""trial"",""time""
""fullscreenenter"",""5"",""16159""
","
","","","","","","","","","","","","","","","","","","","","","",""
"d3-instructions","18","129395","0.0-18.0","1059","1304","22","Male","true","false","false","false","""event"",""trial"",""time""
""fullscreenenter"",""5"",""16159""
","
","
","""event"",""trial"",""time""
""fullscreenenter"",""5"",""16159""
","
","","","","","","","","","","","","","","","","","","","","","",""
"d3-instructions","19","143364","0.0-19.0","1059","1304","22","Male","true","false","false","false","""event"",""trial"",""time""
""fullscreenenter"",""5"",""16159""
","
","
","""event"",""trial"",""time""
""fullscreenenter"",""5"",""16159""
","
","","","","","","","","","","","","","","","","","","","","","",""
"d3-animate-choice","20","150602","0.0-20.0","1059","1304","22","Male","true","false","false","false","""event"",""trial"",""time""
""fullscreenenter"",""5"",""16159""
","
","
","""event"",""trial"",""time""
""fullscreenenter"",""5"",""16159""
","
","5231.100000000035","","49","","","3000","1","","","images/tutyellowplanet.jpg","null","images/tutalien3","null","images/tutalien3","images/t.png","NA","practice","null","","","",""
"d3-animate-choice","21","155090","0.0-21.0","1059","1304","22","Male","true","false","false","false","""event"",""trial"",""time""
""fullscreenenter"",""5"",""16159""
","
","
","""event"",""trial"",""time""
""fullscreenenter"",""5"",""16159""
","
","865.2000000000116","","48","","","3000","1","2481.100000000035","49","images/tutyellowplanet.jpg","null","images/tutalien3","null","images/tutalien3","images/t.png","NA","practice","null","","","",""
"d3-animate-choice","22","158881","0.0-22.0","1059","1304","22","Male","true","false","false","false","""event"",""trial"",""time""
""fullscreenenter"",""5"",""16159""
","
","
","""event"",""trial"",""time""
""fullscreenenter"",""5"",""16159""
","
","1504.5999999999767","","48","","","3000","1","1784.6999999999534","49","images/tutyellowplanet.jpg","null","images/tutalien3","null","images/tutalien3","images/t.png","NA","practice","null","","","",""
"d3-animate-choice","23","161261","0.0-23.0","1059","1304","22","Male","true","false","false","false","""event"",""trial"",""time""
""fullscreenenter"",""5"",""16159""
","
","
","""event"",""trial"",""time""
""fullscreenenter"",""5"",""16159""
","
","378.5","","49","","","3000","1","","","images/tutyellowplanet.jpg","null","images/tutalien3","null","images/tutalien3","images/t.png","NA","practice","null","","","",""
"d3-animate-choice","24","163913","0.0-24.0","1059","1304","22","Male","true","false","false","false","""event"",""trial"",""time""
""fullscreenenter"",""5"",""16159""
","
","
","""event"",""trial"",""time""
""fullscreenenter"",""5"",""16159""
","
","301.79999999998836","","48","","","3000","1","645.9000000000233","49","images/tutyellowplanet.jpg","null","images/tutalien3","null","images/tutalien3","images/nothing.png","NA","practice","null","","","",""
"d3-animate-choice","25","166334","0.0-25.0","1059","1304","22","Male","true","false","false","false","""event"",""trial"",""time""
""fullscreenenter"",""5"",""16159""
","
","
","""event"",""trial"",""time""
""fullscreenenter"",""5"",""16159""
","
","417.70000000001164","","49","","","3000","1","","","images/tutyellowplanet.jpg","null","images/tutalien3","null","images/tutalien3","images/t.png","NA","practice","null","","","",""
"d3-animate-choice","26","168673","0.0-26.0","1059","1304","22","Male","true","false","false","false","""event"",""trial"",""time""
""fullscreenenter"",""5"",""16159""
","
","
","""event"",""trial"",""time""
""fullscreenenter"",""5"",""16159""
","
","332.5","","49","","","3000","1","","","images/tutyellowplanet.jpg","null","images/tutalien3","null","images/tutalien3","images/t.png","NA","practice","null","","","",""
"d3-animate-choice","27","170984","0.0-27.0","1059","1304","22","Male","true","false","false","false","""event"",""trial"",""time""
""fullscreenenter"",""5"",""16159""
","
","
","""event"",""trial"",""time""
""fullscreenenter"",""5"",""16159""
","
","305.29999999998836","","49","","","3000","1","","","images/tutyellowplanet.jpg","null","images/tutalien3","null","images/tutalien3","images/t.png","NA","practice","null","","","",""
"d3-animate-choice","28","173264","0.0-28.0","1059","1304","22","Male","true","false","false","false","""event"",""trial"",""time""
""fullscreenenter"",""5"",""16159""
","
","
","""event"",""trial"",""time""
""fullscreenenter"",""5"",""16159""
","
","274.79999999998836","","49","","","3000","1","","","images/tutyellowplanet.jpg","null","images/tutalien3","null","images/tutalien3","images/t.png","NA","practice","null","","","",""
"d3-animate-choice","29","175658","0.0-29.0","1059","1304","22","Male","true","false","false","false","""event"",""trial"",""time""
""fullscreenenter"",""5"",""16159""
","
","
","""event"",""trial"",""time""
""fullscreenenter"",""5"",""16159""
","
","386.4000000000233","","49","","","3000","1","","","images/tutyellowplanet.jpg","null","images/tutalien3","null","images/tutalien3","images/nothing.png","NA","practice","null","","","",""
"d3-instructions","30","183820","0.0-30.0","1059","1304","22","Male","true","false","false","false","""event"",""trial"",""time""
""fullscreenenter"",""5"",""16159""
","
","
","""event"",""trial"",""time""
""fullscreenenter"",""5"",""16159""
","
","","","","","","","","","","","","","","","","","","","","","",""
"d3-instructions","31","197084","0.0-31.0","1059","1304","22","Male","true","false","false","false","""event"",""trial"",""time""
""fullscreenenter"",""5"",""16159""
","
","
","""event"",""trial"",""time""
""fullscreenenter"",""5"",""16159""
","
","","","","","","","","","","","","","","","","","","","","","",""
"d3-instructions","32","204852","0.0-32.0","1059","1304","22","Male","true","false","false","false","""event"",""trial"",""time""
""fullscreenenter"",""5"",""16159""
","
","
","""event"",""trial"",""time""
""fullscreenenter"",""5"",""16159""
","
","","","","","","","","","","","","","","","","","","","","","",""
"d3-instructions","33","218484","0.0-33.0","1059","1304","22","Male","true","false","false","false","""event"",""trial"",""time""
""fullscreenenter"",""5"",""16159""
","
","
","""event"",""trial"",""time""
""fullscreenenter"",""5"",""16159""
","
","","","","","","","","","","","","","","","","","","","","","",""
"d3-animate-choice","34","222625","0.0-34.0","1059","1304","22","Male","true","false","false","false","""event"",""trial"",""time""
""fullscreenenter"",""5"",""16159""
","
","
","""event"",""trial"",""time""
""fullscreenenter"",""5"",""16159""
","
","2134.4000000000233","","48","","","3000","1","","","images/tutgreenplanet.jpg","images/tutalien1","images/tutalien2","null","images/tutalien1","images/nothing.png","NA","practice","null","","","",""
"d3-animate-choice","35","225127","0.0-35.0","1059","1304","22","Male","true","false","false","false","""event"",""trial"",""time""
""fullscreenenter"",""5"",""16159""
","
","
","""event"",""trial"",""time""
""fullscreenenter"",""5"",""16159""
","
","497.5","","48","","","3000","1","","","images/tutgreenplanet.jpg","images/tutalien1","images/tutalien2","null","images/tutalien1","images/nothing.png","NA","practice","null","","","",""
"d3-animate-choice","36","227407","0.0-36.0","1059","1304","22","Male","true","false","false","false","""event"",""trial"",""time""
""fullscreenenter"",""5"",""16159""
","
","
","""event"",""trial"",""time""
""fullscreenenter"",""5"",""16159""
","
","275.5","","48","","","3000","1","","","images/tutgreenplanet.jpg","images/tutalien1","images/tutalien2","null","images/tutalien1","images/nothing.png","NA","practice","null","","","",""
"d3-animate-choice","37","229655","0.0-37.0","1059","1304","22","Male","true","false","false","false","""event"",""trial"",""time""
""fullscreenenter"",""5"",""16159""
","
","
","""event"",""trial"",""time""
""fullscreenenter"",""5"",""16159""
","
","242.69999999995343","","48","","","3000","1","","","images/tutgreenplanet.jpg","images/tutalien1","images/tutalien2","null","images/tutalien1","images/nothing.png","NA","practice","null","","","",""
"d3-animate-choice","38","231764","0.0-38.0","1059","1304","22","Male","true","false","false","false","""event"",""trial"",""time""
""fullscreenenter"",""5"",""16159""
","
","
","""event"",""trial"",""time""
""fullscreenenter"",""5"",""16159""
","
","107.20000000006985","","49","","","3000","1","","","images/tutgreenplanet.jpg","images/tutalien1","images/tutalien2","null","images/tutalien2","images/t.png","NA","practice","null","","","",""
"d3-animate-choice","39","234094","0.0-39.0","1059","1304","22","Male","true","false","false","false","""event"",""trial"",""time""
""fullscreenenter"",""5"",""16159""
","
","
","""event"",""trial"",""time""
""fullscreenenter"",""5"",""16159""
","
","325.5999999999767","","49","","","3000","1","","","images/tutgreenplanet.jpg","images/tutalien1","images/tutalien2","null","images/tutalien2","images/t.png","NA","practice","null","","","",""
"d3-animate-choice","40","236406","0.0-40.0","1059","1304","22","Male","true","false","false","false","""event"",""trial"",""time""
""fullscreenenter"",""5"",""16159""
","
","
","""event"",""trial"",""time""
""fullscreenenter"",""5"",""16159""
","
","308.0999999999767","","48","","","3000","1","","","images/tutgreenplanet.jpg","images/tutalien1","images/tutalien2","null","images/tutalien1","images/nothing.png","NA","practice","null","","","",""
"d3-animate-choice","41","238664","0.0-41.0","1059","1304","22","Male","true","false","false","false","""event"",""trial"",""time""
""fullscreenenter"",""5"",""16159""
","
","
","""event"",""trial"",""time""
""fullscreenenter"",""5"",""16159""
","
","252.59999999997672","","49","","","3000","1","","","images/tutgreenplanet.jpg","images/tutalien1","images/tutalien2","null","images/tutalien2","images/t.png","NA","practice","null","","","",""
"d3-animate-choice","42","240781","0.0-42.0","1059","1304","22","Male","true","false","false","false","""event"",""trial"",""time""
""fullscreenenter"",""5"",""16159""
","
","
","""event"",""trial"",""time""
""fullscreenenter"",""5"",""16159""
","
","114.09999999997672","","49","","","3000","1","","","images/tutgreenplanet.jpg","images/tutalien1","images/tutalien2","null","images/tutalien2","images/t.png","NA","practice","null","","","",""
"d3-animate-choice","43","242877","0.0-43.0","1059","1304","22","Male","true","false","false","false","""event"",""trial"",""time""
""fullscreenenter"",""5"",""16159""
","
","
","""event"",""trial"",""time""
""fullscreenenter"",""5"",""16159""
","
","93.09999999997672","","48","","","3000","1","","","images/tutgreenplanet.jpg","images/tutalien1","images/tutalien2","null","images/tutalien1","images/nothing.png","NA","practice","null","","","",""
"d3-instructions","44","258035","0.0-44.0","1059","1304","22","Male","true","false","false","false","""event"",""trial"",""time""
""fullscreenenter"",""5"",""16159""
","
","
","""event"",""trial"",""time""
""fullscreenenter"",""5"",""16159""
","
","","","","","","","","","","","","","","","","","","","","","",""
"d3-instructions","45","265107","0.0-45.0","1059","1304","22","Male","true","false","false","false","""event"",""trial"",""time""
""fullscreenenter"",""5"",""16159""
","
","
","""event"",""trial"",""time""
""fullscreenenter"",""5"",""16159""
","
","","","","","","","","","","","","","","","","","","","","","",""
"d3-instructions","46","272110","0.0-46.0","1059","1304","22","Male","true","false","false","false","""event"",""trial"",""time""
""fullscreenenter"",""5"",""16159""
","
","
","""event"",""trial"",""time""
""fullscreenenter"",""5"",""16159""
","
","","","","","","","","","","","","","","","","","","","","","",""
"d3-instructions","47","289323","0.0-47.0","1059","1304","22","Male","true","false","false","false","""event"",""trial"",""time""
""fullscreenenter"",""5"",""16159""
","
","
","""event"",""trial"",""time""
""fullscreenenter"",""5"",""16159""
","
","","","","","","","","","","","","","","","","","","","","","",""
"d3-instructions","48","297259","0.0-48.0","1059","1304","22","Male","true","false","false","false","""event"",""trial"",""time""
""fullscreenenter"",""5"",""16159""
","
","
","""event"",""trial"",""time""
""fullscreenenter"",""5"",""16159""
","
","","","","","","","","","","","","","","","","","","","","","",""
"d3-instructions","49","310179","0.0-49.0","1059","1304","22","Male","true","false","false","false","""event"",""trial"",""time""
""fullscreenenter"",""5"",""16159""
","
","
","""event"",""trial"",""time""
""fullscreenenter"",""5"",""16159""
","
","","","","","","","","","","","","","","","","","","","","","",""
"d3-instructions","50","322234","0.0-50.0","1059","1304","22","Male","true","false","false","false","""event"",""trial"",""time""
""fullscreenenter"",""5"",""16159""
","
","
","""event"",""trial"",""time""
""fullscreenenter"",""5"",""16159""
","
","","","","","","","","","","","","","","","","","","","","","",""
"d3-instructions","51","328027","0.0-51.0","1059","1304","22","Male","true","false","false","false","""event"",""trial"",""time""
""fullscreenenter"",""5"",""16159""
","
","
","""event"",""trial"",""time""
""fullscreenenter"",""5"",""16159""
","
","","","","","","","","","","","","","","","","","","","","","",""
"d3-instructions","52","331083","0.0-52.0","1059","1304","22","Male","true","false","false","false","""event"",""trial"",""time""
""fullscreenenter"",""5"",""16159""
","
","
","""event"",""trial"",""time""
""fullscreenenter"",""5"",""16159""
","
","","","","","","","","","","","","","","","","","","","","","",""
"d3-instructions","53","342939","0.0-53.0","1059","1304","22","Male","true","false","false","false","""event"",""trial"",""time""
""fullscreenenter"",""5"",""16159""
","
","
","""event"",""trial"",""time""
""fullscreenenter"",""5"",""16159""
","
","","","","","","","","","","","","","","","","","","","","","",""
"d3-instructions","54","355419","0.0-54.0","1059","1304","22","Male","true","false","false","false","""event"",""trial"",""time""
""fullscreenenter"",""5"",""16159""
","
","
","""event"",""trial"",""time""
""fullscreenenter"",""5"",""16159""
","
","","","","","","","","","","","","","","","","","","","","","",""
"d3-instructions","55","365746","0.0-55.0","1059","1304","22","Male","true","false","false","false","""event"",""trial"",""time""
""fullscreenenter"",""5"",""16159""
","
","
","""event"",""trial"",""time""
""fullscreenenter"",""5"",""16159""
","
","","","","","","","","","","","","","","","","","","","","","",""
"d3-instructions","56","375930","0.0-56.0","1059","1304","22","Male","true","false","false","false","""event"",""trial"",""time""
""fullscreenenter"",""5"",""16159""
","
","
","""event"",""trial"",""time""
""fullscreenenter"",""5"",""16159""
","
","","","","","","","","","","","","","","","","","","","","","",""
"d3-instructions","57","389330","0.0-57.0","1059","1304","22","Male","true","false","false","false","""event"",""trial"",""time""
""fullscreenenter"",""5"",""16159""
","
","
","""event"",""trial"",""time""
""fullscreenenter"",""5"",""16159""
","
","","","","","","","","","","","","","","","","","","","","","",""
"d3-instructions","58","400994","0.0-58.0","1059","1304","22","Male","true","false","false","false","""event"",""trial"",""time""
""fullscreenenter"",""5"",""16159""
","
","
","""event"",""trial"",""time""
""fullscreenenter"",""5"",""16159""
","
","","","","","","","","","","","","","","","","","","","","","",""
"d3-instructions","59","405906","0.0-59.0","1059","1304","22","Male","true","false","false","false","""event"",""trial"",""time""
""fullscreenenter"",""5"",""16159""
","
","
","""event"",""trial"",""time""
""fullscreenenter"",""5"",""16159""
","
","","","","","","","","","","","","","","","","","","","","","",""
"d3-instructions","60","413049","0.0-60.0","1059","1304","22","Male","true","false","false","false","""event"",""trial"",""time""
""fullscreenenter"",""5"",""16159""
","
","
","""event"",""trial"",""time""
""fullscreenenter"",""5"",""16159""
","
","","","","","","","","","","","","","","","","","","","","","",""
"d3-animate-choice","61","415694","0.0-61.0-0.0","1059","1304","22","Male","true","false","false","false","""event"",""trial"",""time""
""fullscreenenter"",""5"",""16159""
","
","
","""event"",""trial"",""time""
""fullscreenenter"",""5"",""16159""
","
","637.5999999999767","","49","","","3000","1","","","images/earth.jpg","images/tutrocket2","images/tutrocket1","null","images/tutrocket1","","1","practice","null","1","","",""
"d3-animate-choice","62","418959","0.0-61.0-1.0","1059","1304","22","Male","true","false","false","false","""event"",""trial"",""time""
""fullscreenenter"",""5"",""16159""
","
","
","""event"",""trial"",""time""
""fullscreenenter"",""5"",""16159""
","
","1256.5999999999767","","49","","","3000","1","","","images/tutgreenplanet.jpg","images/tutalien2","images/tutalien1","images/tutrocket1","images/tutalien1","images/nothing.png","2","practice","false","1","rare","0","2022-03-31 12:38:44.103"
"two-step-fixation","63","419965","0.0-61.0-2.0","1059","1304","22","Male","true","false","false","false","""event"",""trial"",""time""
""fullscreenenter"",""5"",""16159""
","
","
","""event"",""trial"",""time""
""fullscreenenter"",""5"",""16159""
","
","","images/earth.jpg","","","","","","","","","","","","","","fixation","","","","","",""
"d3-animate-choice","64","422670","0.0-61.0-0.1","1059","1304","22","Male","true","false","false","false","""event"",""trial"",""time""
""fullscreenenter"",""5"",""16159""
","
","
","""event"",""trial"",""time""
""fullscreenenter"",""5"",""16159""
","
","699.2000000000698","","48","","","3000","1","","","images/earth.jpg","images/tutrocket2","images/tutrocket1","null","images/tutrocket2","","1","practice","null","2","","",""
"d3-animate-choice","65","425221","0.0-61.0-1.1","1059","1304","22","Male","true","false","false","false","""event"",""trial"",""time""
""fullscreenenter"",""5"",""16159""
","
","
","""event"",""trial"",""time""
""fullscreenenter"",""5"",""16159""
","
","545.0999999999767","","48","","","3000","1","","","images/tutgreenplanet.jpg","images/tutalien2","images/tutalien1","images/tutrocket2","images/tutalien2","images/nothing.png","2","practice","true","2","common","0","2022-03-31 12:38:50.365"
"two-step-fixation","66","426224","0.0-61.0-2.1","1059","1304","22","Male","true","false","false","false","""event"",""trial"",""time""
""fullscreenenter"",""5"",""16159""
","
","
","""event"",""trial"",""time""
""fullscreenenter"",""5"",""16159""
","
","","images/earth.jpg","","","","","","","","","","","","","","fixation","","","","","",""
"d3-animate-choice","67","428636","0.0-61.0-0.2","1059","1304","22","Male","true","false","false","false","""event"",""trial"",""time""
""fullscreenenter"",""5"",""16159""
","
","
","""event"",""trial"",""time""
""fullscreenenter"",""5"",""16159""
","
","407","","49","","","3000","1","","","images/earth.jpg","images/tutrocket2","images/tutrocket1","null","images/tutrocket1","","1","practice","null","1","","",""
"d3-animate-choice","68","431167","0.0-61.0-1.2","1059","1304","22","Male","true","false","false","false","""event"",""trial"",""time""
""fullscreenenter"",""5"",""16159""
","
","
","""event"",""trial"",""time""
""fullscreenenter"",""5"",""16159""
","
","523.3000000000466","","48","","","3000","1","","","images/tutyellowplanet.jpg","images/tutalien4","images/tutalien3","images/tutrocket1","images/tutalien4","images/nothing.png","2","practice","true","2","common","0","2022-03-31 12:38:56.311"
"two-step-fixation","69","432171","0.0-61.0-2.2","1059","1304","22","Male","true","false","false","false","""event"",""trial"",""time""
""fullscreenenter"",""5"",""16159""
","
","
","""event"",""trial"",""time""
""fullscreenenter"",""5"",""16159""
","
","","images/earth.jpg","","","","","","","","","","","","","","fixation","","","","","",""
"d3-animate-choice","70","434459","0.0-61.0-0.3","1059","1304","22","Male","true","false","false","false","""event"",""trial"",""time""
""fullscreenenter"",""5"",""16159""
","
","
","""event"",""trial"",""time""
""fullscreenenter"",""5"",""16159""
","
","284.19999999995343","","49","","","3000","1","","","images/earth.jpg","images/tutrocket2","images/tutrocket1","null","images/tutrocket1","","1","practice","null","1","","",""
"d3-animate-choice","71","437366","0.0-61.0-1.3","1059","1304","22","Male","true","false","false","false","""event"",""trial"",""time""
""fullscreenenter"",""5"",""16159""
","
","
","""event"",""trial"",""time""
""fullscreenenter"",""5"",""16159""
","
","900.2000000000698","","49","","","3000","1","","","images/tutgreenplanet.jpg","images/tutalien2","images/tutalien1","images/tutrocket1","images/tutalien1","images/t.png","2","practice","false","1","rare","1","2022-03-31 12:39:02.510"
"two-step-fixation","72","438370","0.0-61.0-2.3","1059","1304","22","Male","true","false","false","false","""event"",""trial"",""time""
""fullscreenenter"",""5"",""16159""
","
","
","""event"",""trial"",""time""
""fullscreenenter"",""5"",""16159""
","
","","images/earth.jpg","","","","","","","","","","","","","","fixation","","","","","",""
"d3-animate-choice","73","440900","0.0-61.0-0.4","1059","1304","22","Male","true","false","false","false","""event"",""trial"",""time""
""fullscreenenter"",""5"",""16159""
","
","
","""event"",""trial"",""time""
""fullscreenenter"",""5"",""16159""
","
","524.8000000000466","","48","","","3000","1","","","images/earth.jpg","images/tutrocket2","images/tutrocket1","null","images/tutrocket2","","1","practice","null","2","","",""
"d3-animate-choice","74","443294","0.0-61.0-1.4","1059","1304","22","Male","true","false","false","false","""event"",""trial"",""time""
""fullscreenenter"",""5"",""16159""
","
","
","""event"",""trial"",""time""
""fullscreenenter"",""5"",""16159""
","
","387.29999999993015","","49","","","3000","1","","","images/tutyellowplanet.jpg","images/tutalien4","images/tutalien3","images/tutrocket2","images/tutalien3","images/t.png","2","practice","false","1","rare","1","2022-03-31 12:39:08.438"
"two-step-fixation","75","444298","0.0-61.0-2.4","1059","1304","22","Male","true","false","false","false","""event"",""trial"",""time""
""fullscreenenter"",""5"",""16159""
","
","
","""event"",""trial"",""time""
""fullscreenenter"",""5"",""16159""
","
","","images/earth.jpg","","","","","","","","","","","","","","fixation","","","","","",""
"d3-animate-choice","76","446899","0.0-61.0-0.5","1059","1304","22","Male","true","false","false","false","""event"",""trial"",""time""
""fullscreenenter"",""5"",""16159""
","
","
","""event"",""trial"",""time""
""fullscreenenter"",""5"",""16159""
","
","596.4000000000233","","49","","","3000","1","","","images/earth.jpg","images/tutrocket2","images/tutrocket1","null","images/tutrocket1","","1","practice","null","1","","",""
"d3-animate-choice","77","449546","0.0-61.0-1.5","1059","1304","22","Male","true","false","false","false","""event"",""trial"",""time""
""fullscreenenter"",""5"",""16159""
","
","
","""event"",""trial"",""time""
""fullscreenenter"",""5"",""16159""
","
","644.2000000000698","","49","","","3000","1","","","images/tutyellowplanet.jpg","images/tutalien4","images/tutalien3","images/tutrocket1","images/tutalien3","images/nothing.png","2","practice","true","1","common","0","2022-03-31 12:39:14.690"
"two-step-fixation","78","450550","0.0-61.0-2.5","1059","1304","22","Male","true","false","false","false","""event"",""trial"",""time""
""fullscreenenter"",""5"",""16159""
","
","
","""event"",""trial"",""time""
""fullscreenenter"",""5"",""16159""
","
","","images/earth.jpg","","","","","","","","","","","","","","fixation","","","","","",""
"d3-animate-choice","79","452977","0.0-61.0-0.6","1059","1304","22","Male","true","false","false","false","""event"",""trial"",""time""
""fullscreenenter"",""5"",""16159""
","
","
","""event"",""trial"",""time""
""fullscreenenter"",""5"",""16159""
","
","424.5","","48","","","3000","1","","","images/earth.jpg","images/tutrocket2","images/tutrocket1","null","images/tutrocket2","","1","practice","null","2","","",""
"d3-animate-choice","80","455756","0.0-61.0-1.6","1059","1304","22","Male","true","false","false","false","""event"",""trial"",""time""
""fullscreenenter"",""5"",""16159""
","
","
","""event"",""trial"",""time""
""fullscreenenter"",""5"",""16159""
","
","773.7000000000698","","48","","","3000","1","","","images/tutgreenplanet.jpg","images/tutalien2","images/tutalien1","images/tutrocket2","images/tutalien2","images/t.png","2","practice","true","2","common","1","2022-03-31 12:39:20.900"
"two-step-fixation","81","456759","0.0-61.0-2.6","1059","1304","22","Male","true","false","false","false","""event"",""trial"",""time""
""fullscreenenter"",""5"",""16159""
","
","
","""event"",""trial"",""time""
""fullscreenenter"",""5"",""16159""
","
","","images/earth.jpg","","","","","","","","","","","","","","fixation","","","","","",""
"d3-animate-choice","82","459594","0.0-61.0-0.7","1059","1304","22","Male","true","false","false","false","""event"",""trial"",""time""
""fullscreenenter"",""5"",""16159""
","
","
","""event"",""trial"",""time""
""fullscreenenter"",""5"",""16159""
","
","832.3000000000466","","48","","","3000","1","","","images/earth.jpg","images/tutrocket2","images/tutrocket1","null","images/tutrocket2","","1","practice","null","2","","",""
"d3-animate-choice","83","462203","0.0-61.0-1.7","1059","1304","22","Male","true","false","false","false","""event"",""trial"",""time""
""fullscreenenter"",""5"",""16159""
","
","
","""event"",""trial"",""time""
""fullscreenenter"",""5"",""16159""
","
","604.5","","49","","","3000","1","","","images/tutgreenplanet.jpg","images/tutalien2","images/tutalien1","images/tutrocket2","images/tutalien1","images/t.png","2","practice","true","1","common","1","2022-03-31 12:39:27.347"
"two-step-fixation","84","463209","0.0-61.0-2.7","1059","1304","22","Male","true","false","false","false","""event"",""trial"",""time""
""fullscreenenter"",""5"",""16159""
","
","
","""event"",""trial"",""time""
""fullscreenenter"",""5"",""16159""
","
","","images/earth.jpg","","","","","","","","","","","","","","fixation","","","","","",""
"d3-animate-choice","85","465578","0.0-61.0-0.8","1059","1304","22","Male","true","false","false","false","""event"",""trial"",""time""
""fullscreenenter"",""5"",""16159""
","
","
","""event"",""trial"",""time""
""fullscreenenter"",""5"",""16159""
","
","365.5999999999767","","49","","","3000","1","","","images/earth.jpg","images/tutrocket2","images/tutrocket1","null","images/tutrocket1","","1","practice","null","1","","",""
"d3-animate-choice","86","468027","0.0-61.0-1.8","1059","1304","22","Male","true","false","false","false","""event"",""trial"",""time""
""fullscreenenter"",""5"",""16159""
","
","
","""event"",""trial"",""time""
""fullscreenenter"",""5"",""16159""
","
","444.9000000000233","","49","","","3000","1","","","images/tutyellowplanet.jpg","images/tutalien4","images/tutalien3","images/tutrocket1","images/tutalien3","images/nothing.png","2","practice","true","1","common","0","2022-03-31 12:39:33.172"
"two-step-fixation","87","469033","0.0-61.0-2.8","1059","1304","22","Male","true","false","false","false","""event"",""trial"",""time""
""fullscreenenter"",""5"",""16159""
","
","
","""event"",""trial"",""time""
""fullscreenenter"",""5"",""16159""
","
","","images/earth.jpg","","","","","","","","","","","","","","fixation","","","","","",""
"d3-animate-choice","88","471564","0.0-61.0-0.9","1059","1304","22","Male","true","false","false","false","""event"",""trial"",""time""
""fullscreenenter"",""5"",""16159""
","
","
","""event"",""trial"",""time""
""fullscreenenter"",""5"",""16159""
","
","525.8000000000466","","48","","","3000","1","","","images/earth.jpg","images/tutrocket2","images/tutrocket1","null","images/tutrocket2","","1","practice","null","2","","",""
"d3-animate-choice","89","473914","0.0-61.0-1.9","1059","1304","22","Male","true","false","false","false","""event"",""trial"",""time""
""fullscreenenter"",""5"",""16159""
","
","
","""event"",""trial"",""time""
""fullscreenenter"",""5"",""16159""
","
","346.5999999999767","","49","","","3000","1","","","images/tutgreenplanet.jpg","images/tutalien2","images/tutalien1","images/tutrocket2","images/tutalien1","images/nothing.png","2","practice","true","1","common","0","2022-03-31 12:39:39.058"
"two-step-fixation","90","474919","0.0-61.0-2.9","1059","1304","22","Male","true","false","false","false","""event"",""trial"",""time""
""fullscreenenter"",""5"",""16159""
","
","
","""event"",""trial"",""time""
""fullscreenenter"",""5"",""16159""
","
","","images/earth.jpg","","","","","","","","","","","","","","fixation","","","","","",""
"d3-animate-choice","91","477185","0.0-61.0-0.10","1059","1304","22","Male","true","false","false","false","""event"",""trial"",""time""
""fullscreenenter"",""5"",""16159""
","
","
","""event"",""trial"",""time""
""fullscreenenter"",""5"",""16159""
","
","263.80000000004657","","48","","","3000","1","","","images/earth.jpg","images/tutrocket2","images/tutrocket1","null","images/tutrocket2","","1","practice","null","2","","",""
"d3-animate-choice","92","479524","0.0-61.0-1.10","1059","1304","22","Male","true","false","false","false","""event"",""trial"",""time""
""fullscreenenter"",""5"",""16159""
","
","
","""event"",""trial"",""time""
""fullscreenenter"",""5"",""16159""
","
","335.9000000000233","","48","","","3000","1","","","images/tutgreenplanet.jpg","images/tutalien2","images/tutalien1","images/tutrocket2","images/tutalien2","images/nothing.png","2","practice","true","2","common","0","2022-03-31 12:39:44.668"
"two-step-fixation","93","480526","0.0-61.0-2.10","1059","1304","22","Male","true","false","false","false","""event"",""trial"",""time""
""fullscreenenter"",""5"",""16159""
","
","
","""event"",""trial"",""time""
""fullscreenenter"",""5"",""16159""
","
","","images/earth.jpg","","","","","","","","","","","","","","fixation","","","","","",""
"d3-animate-choice","94","483058","0.0-61.0-0.11","1059","1304","22","Male","true","false","false","false","""event"",""trial"",""time""
""fullscreenenter"",""5"",""16159""
","
","
","""event"",""trial"",""time""
""fullscreenenter"",""5"",""16159""
","
","528.0999999999767","","49","","","3000","1","","","images/earth.jpg","images/tutrocket2","images/tutrocket1","null","images/tutrocket1","","1","practice","null","1","","",""
"d3-animate-choice","95","485441","0.0-61.0-1.11","1059","1304","22","Male","true","false","false","false","""event"",""trial"",""time""
""fullscreenenter"",""5"",""16159""
","
","
","""event"",""trial"",""time""
""fullscreenenter"",""5"",""16159""
","
","381","","48","","","3000","1","","","images/tutyellowplanet.jpg","images/tutalien4","images/tutalien3","images/tutrocket1","images/tutalien4","images/nothing.png","2","practice","true","2","common","0","2022-03-31 12:39:50.585"
"two-step-fixation","96","486443","0.0-61.0-2.11","1059","1304","22","Male","true","false","false","false","""event"",""trial"",""time""
""fullscreenenter"",""5"",""16159""
","
","
","""event"",""trial"",""time""
""fullscreenenter"",""5"",""16159""
","
","","images/earth.jpg","","","","","","","","","","","","","","fixation","","","","","",""
"d3-animate-choice","97","488777","0.0-61.0-0.12","1059","1304","22","Male","true","false","false","false","""event"",""trial"",""time""
""fullscreenenter"",""5"",""16159""
","
","
","""event"",""trial"",""time""
""fullscreenenter"",""5"",""16159""
","
","330.79999999993015","","49","","","3000","1","","","images/earth.jpg","images/tutrocket2","images/tutrocket1","null","images/tutrocket1","","1","practice","null","1","","",""
"d3-animate-choice","98","491345","0.0-61.0-1.12","1059","1304","22","Male","true","false","false","false","""event"",""trial"",""time""
""fullscreenenter"",""5"",""16159""
","
","
","""event"",""trial"",""time""
""fullscreenenter"",""5"",""16159""
","
","564.7000000000698","","48","","","3000","1","","","images/tutyellowplanet.jpg","images/tutalien4","images/tutalien3","images/tutrocket1","images/tutalien4","images/nothing.png","2","practice","true","2","common","0","2022-03-31 12:39:56.489"
"two-step-fixation","99","492348","0.0-61.0-2.12","1059","1304","22","Male","true","false","false","false","""event"",""trial"",""time""
""fullscreenenter"",""5"",""16159""
","
","
","""event"",""trial"",""time""
""fullscreenenter"",""5"",""16159""
","
","","images/earth.jpg","","","","","","","","","","","","","","fixation","","","","","",""
"d3-animate-choice","100","494819","0.0-61.0-0.13","1059","1304","22","Male","true","false","false","false","""event"",""trial"",""time""
""fullscreenenter"",""5"",""16159""
","
","
","""event"",""trial"",""time""
""fullscreenenter"",""5"",""16159""
","
","465.89999999990687","","49","","","3000","1","","","images/earth.jpg","images/tutrocket2","images/tutrocket1","null","images/tutrocket1","","1","practice","null","1","","",""
"d3-animate-choice","101","498377","0.0-61.0-1.13","1059","1304","22","Male","true","false","false","false","""event"",""trial"",""time""
""fullscreenenter"",""5"",""16159""
","
","
","""event"",""trial"",""time""
""fullscreenenter"",""5"",""16159""
","
","1555.8999999999069","","49","","","3000","1","","","images/tutyellowplanet.jpg","images/tutalien4","images/tutalien3","images/tutrocket1","images/tutalien3","images/t.png","2","practice","true","1","common","1","2022-03-31 12:40:03.521"
"two-step-fixation","102","499381","0.0-61.0-2.13","1059","1304","22","Male","true","false","false","false","""event"",""trial"",""time""
""fullscreenenter"",""5"",""16159""
","
","
","""event"",""trial"",""time""
""fullscreenenter"",""5"",""16159""
","
","","images/earth.jpg","","","","","","","","","","","","","","fixation","","","","","",""
"d3-animate-choice","103","501726","0.0-61.0-0.14","1059","1304","22","Male","true","false","false","false","""event"",""trial"",""time""
""fullscreenenter"",""5"",""16159""
","
","
","""event"",""trial"",""time""
""fullscreenenter"",""5"",""16159""
","
","336.69999999995343","","49","","","3000","1","","","images/earth.jpg","images/tutrocket2","images/tutrocket1","null","images/tutrocket1","","1","practice","null","1","","",""
"d3-animate-choice","104","504461","0.0-61.0-1.14","1059","1304","22","Male","true","false","false","false","""event"",""trial"",""time""
""fullscreenenter"",""5"",""16159""
","
","
","""event"",""trial"",""time""
""fullscreenenter"",""5"",""16159""
","
","728.1999999999534","","48","","","3000","1","","","images/tutgreenplanet.jpg","images/tutalien2","images/tutalien1","images/tutrocket1","images/tutalien2","images/nothing.png","2","practice","false","2","rare","0","2022-03-31 12:40:09.605"
"two-step-fixation","105","505465","0.0-61.0-2.14","1059","1304","22","Male","true","false","false","false","""event"",""trial"",""time""
""fullscreenenter"",""5"",""16159""
","
","
","""event"",""trial"",""time""
""fullscreenenter"",""5"",""16159""
","
","","images/earth.jpg","","","","","","","","","","","","","","fixation","","","","","",""
"d3-animate-choice","106","507738","0.0-61.0-0.15","1059","1304","22","Male","true","false","false","false","""event"",""trial"",""time""
""fullscreenenter"",""5"",""16159""
","
","
","""event"",""trial"",""time""
""fullscreenenter"",""5"",""16159""
","
","269.5","","49","","","3000","1","","","images/earth.jpg","images/tutrocket2","images/tutrocket1","null","images/tutrocket1","","1","practice","null","1","","",""
"d3-animate-choice","107","510433","0.0-61.0-1.15","1059","1304","22","Male","true","false","false","false","""event"",""trial"",""time""
""fullscreenenter"",""5"",""16159""
","
","
","""event"",""trial"",""time""
""fullscreenenter"",""5"",""16159""
","
","692.6000000000931","","49","","","3000","1","","","images/tutgreenplanet.jpg","images/tutalien2","images/tutalien1","images/tutrocket1","images/tutalien1","images/t.png","2","practice","false","1","rare","1","2022-03-31 12:40:15.577"
"two-step-fixation","108","511437","0.0-61.0-2.15","1059","1304","22","Male","true","false","false","false","""event"",""trial"",""time""
""fullscreenenter"",""5"",""16159""
","
","
","""event"",""trial"",""time""
""fullscreenenter"",""5"",""16159""
","
","","images/earth.jpg","","","","","","","","","","","","","","fixation","","","","","",""
"d3-animate-choice","109","513754","0.0-61.0-0.16","1059","1304","22","Male","true","false","false","false","""event"",""trial"",""time""
""fullscreenenter"",""5"",""16159""
","
","
","""event"",""trial"",""time""
""fullscreenenter"",""5"",""16159""
","
","313.79999999993015","","48","","","3000","1","","","images/earth.jpg","images/tutrocket2","images/tutrocket1","null","images/tutrocket2","","1","practice","null","2","","",""
"d3-animate-choice","110","516308","0.0-61.0-1.16","1059","1304","22","Male","true","false","false","false","""event"",""trial"",""time""
""fullscreenenter"",""5"",""16159""
","
","
","""event"",""trial"",""time""
""fullscreenenter"",""5"",""16159""
","
","548.5","","49","","","3000","1","","","images/tutgreenplanet.jpg","images/tutalien2","images/tutalien1","images/tutrocket2","images/tutalien1","images/t.png","2","practice","true","1","common","1","2022-03-31 12:40:21.452"
"two-step-fixation","111","517313","0.0-61.0-2.16","1059","1304","22","Male","true","false","false","false","""event"",""trial"",""time""
""fullscreenenter"",""5"",""16159""
","
","
","""event"",""trial"",""time""
""fullscreenenter"",""5"",""16159""
","
","","images/earth.jpg","","","","","","","","","","","","","","fixation","","","","","",""
"d3-animate-choice","112","519649","0.0-61.0-0.17","1059","1304","22","Male","true","false","false","false","""event"",""trial"",""time""
""fullscreenenter"",""5"",""16159""
","
","
","""event"",""trial"",""time""
""fullscreenenter"",""5"",""16159""
","
","333.20000000006985","","48","","","3000","1","","","images/earth.jpg","images/tutrocket2","images/tutrocket1","null","images/tutrocket2","","1","practice","null","2","","",""
"d3-animate-choice","113","522520","0.0-61.0-1.17","1059","1304","22","Male","true","false","false","false","""event"",""trial"",""time""
""fullscreenenter"",""5"",""16159""
","
","
","""event"",""trial"",""time""
""fullscreenenter"",""5"",""16159""
","
","868.3999999999069","","49","","","3000","1","","","images/tutyellowplanet.jpg","images/tutalien4","images/tutalien3","images/tutrocket2","images/tutalien3","images/t.png","2","practice","false","1","rare","1","2022-03-31 12:40:27.664"
"two-step-fixation","114","523524","0.0-61.0-2.17","1059","1304","22","Male","true","false","false","false","""event"",""trial"",""time""
""fullscreenenter"",""5"",""16159""
","
","
","""event"",""trial"",""time""
""fullscreenenter"",""5"",""16159""
","
","","images/earth.jpg","","","","","","","","","","","","","","fixation","","","","","",""
"d3-animate-choice","115","525872","0.0-61.0-0.18","1059","1304","22","Male","true","false","false","false","""event"",""trial"",""time""
""fullscreenenter"",""5"",""16159""
","
","
","""event"",""trial"",""time""
""fullscreenenter"",""5"",""16159""
","
","345.5","","49","","","3000","1","","","images/earth.jpg","images/tutrocket2","images/tutrocket1","null","images/tutrocket1","","1","practice","null","1","","",""
"d3-animate-choice","116","528339","0.0-61.0-1.18","1059","1304","22","Male","true","false","false","false","""event"",""trial"",""time""
""fullscreenenter"",""5"",""16159""
","
","
","""event"",""trial"",""time""
""fullscreenenter"",""5"",""16159""
","
","461.5999999998603","","48","","","3000","1","","","images/tutyellowplanet.jpg","images/tutalien4","images/tutalien3","images/tutrocket1","images/tutalien4","images/t.png","2","practice","true","2","common","1","2022-03-31 12:40:33.483"
"two-step-fixation","117","529342","0.0-61.0-2.18","1059","1304","22","Male","true","false","false","false","""event"",""trial"",""time""
""fullscreenenter"",""5"",""16159""
","
","
","""event"",""trial"",""time""
""fullscreenenter"",""5"",""16159""
","
","","images/earth.jpg","","","","","","","","","","","","","","fixation","","","","","",""
"d3-animate-choice","118","531737","0.0-61.0-0.19","1059","1304","22","Male","true","false","false","false","""event"",""trial"",""time""
""fullscreenenter"",""5"",""16159""
","
","
","""event"",""trial"",""time""
""fullscreenenter"",""5"",""16159""
","
","392.5","","49","","","3000","1","","","images/earth.jpg","images/tutrocket2","images/tutrocket1","null","images/tutrocket1","","1","practice","null","1","","",""
"d3-animate-choice","119","534362","0.0-61.0-1.19","1059","1304","22","Male","true","false","false","false","""event"",""trial"",""time""
""fullscreenenter"",""5"",""16159""
","
","
","""event"",""trial"",""time""
""fullscreenenter"",""5"",""16159""
","
","621.0999999998603","","49","","","3000","1","","","images/tutgreenplanet.jpg","images/tutalien2","images/tutalien1","images/tutrocket1","images/tutalien1","images/nothing.png","2","practice","false","1","rare","0","2022-03-31 12:40:39.506"
"two-step-fixation","120","535366","0.0-61.0-2.19","1059","1304","22","Male","true","false","false","false","""event"",""trial"",""time""
""fullscreenenter"",""5"",""16159""
","
","
","""event"",""trial"",""time""
""fullscreenenter"",""5"",""16159""
","
","","images/earth.jpg","","","","","","","","","","","","","","fixation","","","","","",""
"d3-instructions","121","540096","0.0-62.0","1059","1304","22","Male","true","false","false","false","""event"",""trial"",""time""
""fullscreenenter"",""5"",""16159""
","
","
","""event"",""trial"",""time""
""fullscreenenter"",""5"",""16159""
","
","","","","","","","","","","","","","","","","","","","","","",""
"audio-keyboard-response","122","542744","0.0-63.0","1059","1304","22","Male","true","false","false","false","""event"",""trial"",""time""
""fullscreenenter"",""5"",""16159""
","
","
","""event"",""trial"",""time""
""fullscreenenter"",""5"",""16159""
","
","2647","audio/instructions/treasure_feedback.wav","32","","","","","","","","","","","","","","","","","","",""
"d3-instructions","123","562048","0.0-64.0","1059","1304","22","Male","true","false","false","false","""event"",""trial"",""time""
""fullscreenenter"",""5"",""16159""
","
","
","""event"",""trial"",""time""
""fullscreenenter"",""5"",""16159""
","
","","","","","","","","","","","","","","","","","","","","","",""
"d3-instructions","124","579928","0.0-65.0","1059","1304","22","Male","true","false","false","false","""event"",""trial"",""time""
""fullscreenenter"",""5"",""16159""
","
","
","""event"",""trial"",""time""
""fullscreenenter"",""5"",""16159""
","
","","","","","","","","","","","","","","","","","","","","","",""
"d3-instructions","125","605911","0.0-66.0","1059","1304","22","Male","true","false","false","false","""event"",""trial"",""time""
""fullscreenenter"",""5"",""16159""
","
","
","""event"",""trial"",""time""
""fullscreenenter"",""5"",""16159""
","
","","","","","","","","","","","","","","","","","","","","","",""
"d3-instructions","126","623167","0.0-67.0","1059","1304","22","Male","true","false","false","false","""event"",""trial"",""time""
""fullscreenenter"",""5"",""16159""
","
","
","""event"",""trial"",""time""
""fullscreenenter"",""5"",""16159""
","
","","","","","","","","","","","","","","","","","","","","","",""
"d3-instructions","127","631791","0.0-68.0","1059","1304","22","Male","true","false","false","false","""event"",""trial"",""time""
""fullscreenenter"",""5"",""16159""
","
","
","""event"",""trial"",""time""
""fullscreenenter"",""5"",""16159""
","
","","","","","","","","","","","","","","","","","","","","","",""
"instructions-quiz","128","635255","0.0-69.0","1059","1304","22","Male","true","false","false","false","""event"",""trial"",""time""
""fullscreenenter"",""5"",""16159""
","
","
","""event"",""trial"",""time""
""fullscreenenter"",""5"",""16159""
","
","3461.7999999998137","audio/quiz/Q1_Prompt.wav","","1","","","","","","","","","","","","","","","","","",""
"audio-keyboard-response","129","644427","0.0-70.0","1059","1304","22","Male","true","false","false","false","""event"",""trial"",""time""
""fullscreenenter"",""5"",""16159""
","
","
","""event"",""trial"",""time""
""fullscreenenter"",""5"",""16159""
","
","null","audio/quiz/Q1_Correct.wav","null","","","","","","","","","","","","","","","","","","",""
"instructions-quiz","130","649857","0.0-71.0","1059","1304","22","Male","true","false","false","false","""event"",""trial"",""time""
""fullscreenenter"",""5"",""16159""
","
","
","""event"",""trial"",""time""
""fullscreenenter"",""5"",""16159""
","
","5428.5","audio/quiz/Q2_Prompt.wav","","0","","","","","","","","","","","","","","","","","",""
"audio-keyboard-response","131","662724","0.0-72.0","1059","1304","22","Male","true","false","false","false","""event"",""trial"",""time""
""fullscreenenter"",""5"",""16159""
","
","
","""event"",""trial"",""time""
""fullscreenenter"",""5"",""16159""
","
","null","audio/quiz/Q2_Correct.wav","null","","","","","","","","","","","","","","","","","","",""
"instructions-quiz","132","666696","0.0-73.0","1059","1304","22","Male","true","false","false","false","""event"",""trial"",""time""
""fullscreenenter"",""5"",""16159""
","
","
","""event"",""trial"",""time""
""fullscreenenter"",""5"",""16159""
","
","3969.5","audio/quiz/Q3_Prompt.wav","","1","","","","","","","","","","","","","","","","","",""
"audio-keyboard-response","133","672494","0.0-74.0","1059","1304","22","Male","true","false","false","false","""event"",""trial"",""time""
""fullscreenenter"",""5"",""16159""
","
","
","""event"",""trial"",""time""
""fullscreenenter"",""5"",""16159""
","
","null","audio/quiz/Q3_Correct.wav","null","","","","","","","","","","","","","","","","","","",""
"d3-instructions","134","686263","0.0-75.0","1059","1304","22","Male","true","false","false","false","""event"",""trial"",""time""
""fullscreenenter"",""5"",""16159""
","
","
","""event"",""trial"",""time""
""fullscreenenter"",""5"",""16159""
","
","","","","","","","","","","","","","","","","","","","","","",""
"d3-animate-choice","135","689207","0.0-76.0-0.0","1059","1304","22","Male","true","false","false","false","""event"",""trial"",""time""
""fullscreenenter"",""5"",""16159""
","
","
","""event"",""trial"",""time""
""fullscreenenter"",""5"",""16159""
","
","940.8999999999069","","49","","","3000","1","","","images/earth.jpg","images/rocket2","images/rocket1","null","images/rocket1","","1","real","null","1","","",""
"d3-animate-choice","136","691784","0.0-76.0-1.0","1059","1304","22","Male","true","false","false","false","""event"",""trial"",""time""
""fullscreenenter"",""5"",""16159""
","
","
","""event"",""trial"",""time""
""fullscreenenter"",""5"",""16159""
","
","573.2000000001863","","49","","","3000","1","","","images/purpleplanet.jpg","images/alien4","images/alien3","images/rocket1","images/alien3","images/nothing.png","2","real","true","1","common","0","2022-03-31 12:43:16.928"
"two-step-fixation","137","692788","0.0-76.0-2.0","1059","1304","22","Male","true","false","false","false","""event"",""trial"",""time""
""fullscreenenter"",""5"",""16159""
","
","
","""event"",""trial"",""time""
""fullscreenenter"",""5"",""16159""
","
","","images/earth.jpg","","","","","","","","","","","","","","fixation","","","","","",""
"d3-animate-choice","138","695569","0.0-76.0-0.1","1059","1304","22","Male","true","false","false","false","""event"",""trial"",""time""
""fullscreenenter"",""5"",""16159""
","
","
","""event"",""trial"",""time""
""fullscreenenter"",""5"",""16159""
","
","775.8000000000466","","49","","","3000","1","","","images/earth.jpg","images/rocket2","images/rocket1","null","images/rocket1","","1","real","null","1","","",""
"d3-animate-choice","139","698123","0.0-76.0-1.1","1059","1304","22","Male","true","false","false","false","""event"",""trial"",""time""
""fullscreenenter"",""5"",""16159""
","
","
","""event"",""trial"",""time""
""fullscreenenter"",""5"",""16159""
","
","547.6000000000931","","48","","","3000","1","","","images/purpleplanet.jpg","images/alien4","images/alien3","images/rocket1","images/alien4","images/nothing.png","2","real","true","2","common","0","2022-03-31 12:43:23.267"
"two-step-fixation","140","699127","0.0-76.0-2.1","1059","1304","22","Male","true","false","false","false","""event"",""trial"",""time""
""fullscreenenter"",""5"",""16159""
","
","
","""event"",""trial"",""time""
""fullscreenenter"",""5"",""16159""
","
","","images/earth.jpg","","","","","","","","","","","","","","fixation","","","","","",""
"d3-animate-choice","141","701464","0.0-76.0-0.2","1059","1304","22","Male","true","false","false","false","""event"",""trial"",""time""
""fullscreenenter"",""5"",""16159""
","
","
","""event"",""trial"",""time""
""fullscreenenter"",""5"",""16159""
","
","332.80000000004657","","49","","","3000","1","","","images/earth.jpg","images/rocket2","images/rocket1","null","images/rocket1","","1","real","null","1","","",""
"d3-animate-choice","142","703835","0.0-76.0-1.2","1059","1304","22","Male","true","false","false","false","""event"",""trial"",""time""
""fullscreenenter"",""5"",""16159""
","
","
","""event"",""trial"",""time""
""fullscreenenter"",""5"",""16159""
","
","363.69999999995343","","48","","","3000","1","","","images/redplanet1.jpg","images/alien2","images/alien1","images/rocket1","images/alien2","images/t.png","2","real","false","2","rare","1","2022-03-31 12:43:28.979"
"two-step-fixation","143","704839","0.0-76.0-2.2","1059","1304","22","Male","true","false","false","false","""event"",""trial"",""time""
""fullscreenenter"",""5"",""16159""
","
","
","""event"",""trial"",""time""
""fullscreenenter"",""5"",""16159""
","
","","images/earth.jpg","","","","","","","","","","","","","","fixation","","","","","",""
"d3-animate-choice","144","707672","0.0-76.0-0.3","1059","1304","22","Male","true","false","false","false","""event"",""trial"",""time""
""fullscreenenter"",""5"",""16159""
","
","
","""event"",""trial"",""time""
""fullscreenenter"",""5"",""16159""
","
","828.8999999999069","","48","","","3000","1","","","images/earth.jpg","images/rocket2","images/rocket1","null","images/rocket2","","1","real","null","2","","",""
"d3-animate-choice","145","710127","0.0-76.0-1.3","1059","1304","22","Male","true","false","false","false","""event"",""trial"",""time""
""fullscreenenter"",""5"",""16159""
","
","
","""event"",""trial"",""time""
""fullscreenenter"",""5"",""16159""
","
","452.30000000004657","","48","","","3000","1","","","images/redplanet1.jpg","images/alien2","images/alien1","images/rocket2","images/alien2","images/nothing.png","2","real","true","2","common","0","2022-03-31 12:43:35.271"
"two-step-fixation","146","711132","0.0-76.0-2.3","1059","1304","22","Male","true","false","false","false","""event"",""trial"",""time""
""fullscreenenter"",""5"",""16159""
","
","
","""event"",""trial"",""time""
""fullscreenenter"",""5"",""16159""
","
","","images/earth.jpg","","","","","","","","","","","","","","fixation","","","","","",""
"d3-animate-choice","147","713825","0.0-76.0-0.4","1059","1304","22","Male","true","false","false","false","""event"",""trial"",""time""
""fullscreenenter"",""5"",""16159""
","
","
","""event"",""trial"",""time""
""fullscreenenter"",""5"",""16159""
","
","688.2000000001863","","48","","","3000","1","","","images/earth.jpg","images/rocket2","images/rocket1","null","images/rocket2","","1","real","null","2","","",""
"d3-animate-choice","148","716113","0.0-76.0-1.4","1059","1304","22","Male","true","false","false","false","""event"",""trial"",""time""
""fullscreenenter"",""5"",""16159""
","
","
","""event"",""trial"",""time""
""fullscreenenter"",""5"",""16159""
","
","282.69999999995343","","49","","","3000","1","","","images/redplanet1.jpg","images/alien2","images/alien1","images/rocket2","images/alien1","images/nothing.png","2","real","true","1","common","0","2022-03-31 12:43:41.257"
"two-step-fixation","149","717119","0.0-76.0-2.4","1059","1304","22","Male","true","false","false","false","""event"",""trial"",""time""
""fullscreenenter"",""5"",""16159""
","
","
","""event"",""trial"",""time""
""fullscreenenter"",""5"",""16159""
","
","","images/earth.jpg","","","","","","","","","","","","","","fixation","","","","","",""
"d3-animate-choice","150","719567","0.0-76.0-0.5","1059","1304","22","Male","true","false","false","false","""event"",""trial"",""time""
""fullscreenenter"",""5"",""16159""
","
","
","""event"",""trial"",""time""
""fullscreenenter"",""5"",""16159""
","
","445.10000000009313","","49","","","3000","1","","","images/earth.jpg","images/rocket2","images/rocket1","null","images/rocket1","","1","real","null","1","","",""
"d3-animate-choice","151","722000","0.0-76.0-1.5","1059","1304","22","Male","true","false","false","false","""event"",""trial"",""time""
""fullscreenenter"",""5"",""16159""
","
","
","""event"",""trial"",""time""
""fullscreenenter"",""5"",""16159""
","
","428.60000000009313","","48","","","3000","1","","","images/purpleplanet.jpg","images/alien4","images/alien3","images/rocket1","images/alien4","images/nothing.png","2","real","true","2","common","0","2022-03-31 12:43:47.144"
"two-step-fixation","152","723004","0.0-76.0-2.5","1059","1304","22","Male","true","false","false","false","""event"",""trial"",""time""
""fullscreenenter"",""5"",""16159""
","
","
","""event"",""trial"",""time""
""fullscreenenter"",""5"",""16159""
","
","","images/earth.jpg","","","","","","","","","","","","","","fixation","","","","","",""
"d3-animate-choice","153","725308","0.0-76.0-0.6","1059","1304","22","Male","true","false","false","false","""event"",""trial"",""time""
""fullscreenenter"",""5"",""16159""
","
","
","""event"",""trial"",""time""
""fullscreenenter"",""5"",""16159""
","
","295.80000000004657","","49","","","3000","1","","","images/earth.jpg","images/rocket2","images/rocket1","null","images/rocket1","","1","real","null","1","","",""
"d3-animate-choice","154","727793","0.0-76.0-1.6","1059","1304","22","Male","true","false","false","false","""event"",""trial"",""time""
""fullscreenenter"",""5"",""16159""
","
","
","""event"",""trial"",""time""
""fullscreenenter"",""5"",""16159""
","
","479.70000000018626","","48","","","3000","1","","","images/purpleplanet.jpg","images/alien4","images/alien3","images/rocket1","images/alien4","images/nothing.png","2","real","true","2","common","0","2022-03-31 12:43:52.937"
"two-step-fixation","155","728797","0.0-76.0-2.6","1059","1304","22","Male","true","false","false","false","""event"",""trial"",""time""
""fullscreenenter"",""5"",""16159""
","
","
","""event"",""trial"",""time""
""fullscreenenter"",""5"",""16159""
","
","","images/earth.jpg","","","","","","","","","","","","","","fixation","","","","","",""
"d3-animate-choice","156","731073","0.0-76.0-0.7","1059","1304","22","Male","true","false","false","false","""event"",""trial"",""time""
""fullscreenenter"",""5"",""16159""
","
","
","""event"",""trial"",""time""
""fullscreenenter"",""5"",""16159""
","
","270.70000000018626","","49","","","3000","1","","","images/earth.jpg","images/rocket2","images/rocket1","null","images/rocket1","","1","real","null","1","","",""
"d3-animate-choice","157","733567","0.0-76.0-1.7","1059","1304","22","Male","true","false","false","false","""event"",""trial"",""time""
""fullscreenenter"",""5"",""16159""
","
","
","""event"",""trial"",""time""
""fullscreenenter"",""5"",""16159""
","
","491","","48","","","3000","1","","","images/purpleplanet.jpg","images/alien4","images/alien3","images/rocket1","images/alien4","images/nothing.png","2","real","true","2","common","0","2022-03-31 12:43:58.711"
"two-step-fixation","158","734570","0.0-76.0-2.7","1059","1304","22","Male","true","false","false","false","""event"",""trial"",""time""
""fullscreenenter"",""5"",""16159""
","
","
","""event"",""trial"",""time""
""fullscreenenter"",""5"",""16159""
","
","","images/earth.jpg","","","","","","","","","","","","","","fixation","","","","","",""
"d3-animate-choice","159","737010","0.0-76.0-0.8","1059","1304","22","Male","true","false","false","false","""event"",""trial"",""time""
""fullscreenenter"",""5"",""16159""
","
","
","""event"",""trial"",""time""
""fullscreenenter"",""5"",""16159""
","
","433.30000000004657","","49","","","3000","1","","","images/earth.jpg","images/rocket2","images/rocket1","null","images/rocket1","","1","real","null","1","","",""
"d3-animate-choice","160","739675","0.0-76.0-1.8","1059","1304","22","Male","true","false","false","false","""event"",""trial"",""time""
""fullscreenenter"",""5"",""16159""
","
","
","""event"",""trial"",""time""
""fullscreenenter"",""5"",""16159""
","
","657.1000000000931","","48","","","3000","1","","","images/purpleplanet.jpg","images/alien4","images/alien3","images/rocket1","images/alien4","images/t.png","2","real","true","2","common","1","2022-03-31 12:44:04.819"
"two-step-fixation","161","740681","0.0-76.0-2.8","1059","1304","22","Male","true","false","false","false","""event"",""trial"",""time""
""fullscreenenter"",""5"",""16159""
","
","
","""event"",""trial"",""time""
""fullscreenenter"",""5"",""16159""
","
","","images/earth.jpg","","","","","","","","","","","","","","fixation","","","","","",""
"d3-animate-choice","162","743207","0.0-76.0-0.9","1059","1304","22","Male","true","false","false","false","""event"",""trial"",""time""
""fullscreenenter"",""5"",""16159""
","
","
","""event"",""trial"",""time""
""fullscreenenter"",""5"",""16159""
","
","523.1999999999534","","49","","","3000","1","","","images/earth.jpg","images/rocket2","images/rocket1","null","images/rocket1","","1","real","null","1","","",""
"d3-animate-choice","163","745863","0.0-76.0-1.9","1059","1304","22","Male","true","false","false","false","""event"",""trial"",""time""
""fullscreenenter"",""5"",""16159""
","
","
","""event"",""trial"",""time""
""fullscreenenter"",""5"",""16159""
","
","652.3000000000466","","49","","","3000","1","","","images/purpleplanet.jpg","images/alien4","images/alien3","images/rocket1","images/alien3","images/t.png","2","real","true","1","common","1","2022-03-31 12:44:11.007"
"two-step-fixation","164","746867","0.0-76.0-2.9","1059","1304","22","Male","true","false","false","false","""event"",""trial"",""time""
""fullscreenenter"",""5"",""16159""
","
","
","""event"",""trial"",""time""
""fullscreenenter"",""5"",""16159""
","
","","images/earth.jpg","","","","","","","","","","","","","","fixation","","","","","",""
"d3-animate-choice","165","749207","0.0-76.0-0.10","1059","1304","22","Male","true","false","false","false","""event"",""trial"",""time""
""fullscreenenter"",""5"",""16159""
","
","
","""event"",""trial"",""time""
""fullscreenenter"",""5"",""16159""
","
","336","","48","","","3000","1","","","images/earth.jpg","images/rocket2","images/rocket1","null","images/rocket2","","1","real","null","2","","",""
"d3-animate-choice","166","751610","0.0-76.0-1.10","1059","1304","22","Male","true","false","false","false","""event"",""trial"",""time""
""fullscreenenter"",""5"",""16159""
","
","
","""event"",""trial"",""time""
""fullscreenenter"",""5"",""16159""
","
","397.30000000004657","","48","","","3000","1","","","images/redplanet1.jpg","images/alien2","images/alien1","images/rocket2","images/alien2","images/t.png","2","real","true","2","common","1","2022-03-31 12:44:16.754"
"two-step-fixation","167","752614","0.0-76.0-2.10","1059","1304","22","Male","true","false","false","false","""event"",""trial"",""time""
""fullscreenenter"",""5"",""16159""
","
","
","""event"",""trial"",""time""
""fullscreenenter"",""5"",""16159""
","
","","images/earth.jpg","","","","","","","","","","","","","","fixation","","","","","",""
"d3-animate-choice","168","755766","0.0-76.0-0.11","1059","1304","22","Male","true","false","false","false","""event"",""trial"",""time""
""fullscreenenter"",""5"",""16159""
","
","
","""event"",""trial"",""time""
""fullscreenenter"",""5"",""16159""
","
","1149.3000000000466","","49","","","3000","1","","","images/earth.jpg","images/rocket2","images/rocket1","null","images/rocket1","","1","real","null","1","","",""
"d3-animate-choice","169","758111","0.0-76.0-1.11","1059","1304","22","Male","true","false","false","false","""event"",""trial"",""time""
""fullscreenenter"",""5"",""16159""
","
","
","""event"",""trial"",""time""
""fullscreenenter"",""5"",""16159""
","
","341.39999999990687","","49","","","3000","1","","","images/redplanet1.jpg","images/alien2","images/alien1","images/rocket1","images/alien1","images/t.png","2","real","false","1","rare","1","2022-03-31 12:44:23.255"
"two-step-fixation","170","759116","0.0-76.0-2.11","1059","1304","22","Male","true","false","false","false","""event"",""trial"",""time""
""fullscreenenter"",""5"",""16159""
","
","
","""event"",""trial"",""time""
""fullscreenenter"",""5"",""16159""
","
","","images/earth.jpg","","","","","","","","","","","","","","fixation","","","","","",""
"d3-animate-choice","171","761432","0.0-76.0-0.12","1059","1304","22","Male","true","false","false","false","""event"",""trial"",""time""
""fullscreenenter"",""5"",""16159""
","
","
","""event"",""trial"",""time""
""fullscreenenter"",""5"",""16159""
","
","311.60000000009313","","48","","","3000","1","","","images/earth.jpg","images/rocket2","images/rocket1","null","images/rocket2","","1","real","null","2","","",""
"d3-animate-choice","172","763838","0.0-76.0-1.12","1059","1304","22","Male","true","false","false","false","""event"",""trial"",""time""
""fullscreenenter"",""5"",""16159""
","
","
","""event"",""trial"",""time""
""fullscreenenter"",""5"",""16159""
","
","403.60000000009313","","48","","","3000","1","","","images/redplanet1.jpg","images/alien2","images/alien1","images/rocket2","images/alien2","images/t.png","2","real","true","2","common","1","2022-03-31 12:44:28.982"
"two-step-fixation","173","764841","0.0-76.0-2.12","1059","1304","22","Male","true","false","false","false","""event"",""trial"",""time""
""fullscreenenter"",""5"",""16159""
","
","
","""event"",""trial"",""time""
""fullscreenenter"",""5"",""16159""
","
","","images/earth.jpg","","","","","","","","","","","","","","fixation","","","","","",""
"d3-animate-choice","174","767223","0.0-76.0-0.13","1059","1304","22","Male","true","false","false","false","""event"",""trial"",""time""
""fullscreenenter"",""5"",""16159""
","
","
","""event"",""trial"",""time""
""fullscreenenter"",""5"",""16159""
","
","378.69999999995343","","48","","","3000","1","","","images/earth.jpg","images/rocket2","images/rocket1","null","images/rocket2","","1","real","null","2","","",""
"d3-animate-choice","175","769518","0.0-76.0-1.13","1059","1304","22","Male","true","false","false","false","""event"",""trial"",""time""
""fullscreenenter"",""5"",""16159""
","
","
","""event"",""trial"",""time""
""fullscreenenter"",""5"",""16159""
","
","293.10000000009313","","48","","","3000","1","","","images/purpleplanet.jpg","images/alien4","images/alien3","images/rocket2","images/alien4","images/nothing.png","2","real","false","2","rare","0","2022-03-31 12:44:34.662"
"two-step-fixation","176","770522","0.0-76.0-2.13","1059","1304","22","Male","true","false","false","false","""event"",""trial"",""time""
""fullscreenenter"",""5"",""16159""
","
","
","""event"",""trial"",""time""
""fullscreenenter"",""5"",""16159""
","
","","images/earth.jpg","","","","","","","","","","","","","","fixation","","","","","",""
"d3-animate-choice","177","772687","0.0-76.0-0.14","1059","1304","22","Male","true","false","false","false","""event"",""trial"",""time""
""fullscreenenter"",""5"",""16159""
","
","
","""event"",""trial"",""time""
""fullscreenenter"",""5"",""16159""
","
","160.80000000004657","","48","","","3000","1","","","images/earth.jpg","images/rocket2","images/rocket1","null","images/rocket2","","1","real","null","2","","",""
"d3-animate-choice","178","775010","0.0-76.0-1.14","1059","1304","22","Male","true","false","false","false","""event"",""trial"",""time""
""fullscreenenter"",""5"",""16159""
","
","
","""event"",""trial"",""time""
""fullscreenenter"",""5"",""16159""
","
","316.80000000004657","","49","","","3000","1","","","images/redplanet1.jpg","images/alien2","images/alien1","images/rocket2","images/alien1","images/t.png","2","real","true","1","common","1","2022-03-31 12:44:40.154"
"two-step-fixation","179","776013","0.0-76.0-2.14","1059","1304","22","Male","true","false","false","false","""event"",""trial"",""time""
""fullscreenenter"",""5"",""16159""
","
","
","""event"",""trial"",""time""
""fullscreenenter"",""5"",""16159""
","
","","images/earth.jpg","","","","","","","","","","","","","","fixation","","","","","",""
"d3-animate-choice","180","778278","0.0-76.0-0.15","1059","1304","22","Male","true","false","false","false","""event"",""trial"",""time""
""fullscreenenter"",""5"",""16159""
","
","
","""event"",""trial"",""time""
""fullscreenenter"",""5"",""16159""
","
","262.19999999995343","","49","","","3000","1","","","images/earth.jpg","images/rocket2","images/rocket1","null","images/rocket1","","1","real","null","1","","",""
"d3-animate-choice","181","780686","0.0-76.0-1.15","1059","1304","22","Male","true","false","false","false","""event"",""trial"",""time""
""fullscreenenter"",""5"",""16159""
","
","
","""event"",""trial"",""time""
""fullscreenenter"",""5"",""16159""
","
","405.30000000004657","","48","","","3000","1","","","images/redplanet1.jpg","images/alien2","images/alien1","images/rocket1","images/alien2","images/nothing.png","2","real","false","2","rare","0","2022-03-31 12:44:45.830"
"two-step-fixation","182","781689","0.0-76.0-2.15","1059","1304","22","Male","true","false","false","false","""event"",""trial"",""time""
""fullscreenenter"",""5"",""16159""
","
","
","""event"",""trial"",""time""
""fullscreenenter"",""5"",""16159""
","
","","images/earth.jpg","","","","","","","","","","","","","","fixation","","","","","",""
"d3-animate-choice","183","784078","0.0-76.0-0.16","1059","1304","22","Male","true","false","false","false","""event"",""trial"",""time""
""fullscreenenter"",""5"",""16159""
","
","
","""event"",""trial"",""time""
""fullscreenenter"",""5"",""16159""
","
","385.69999999995343","","49","","","3000","1","","","images/earth.jpg","images/rocket2","images/rocket1","null","images/rocket1","","1","real","null","1","","",""
"d3-animate-choice","184","786962","0.0-76.0-1.16","1059","1304","22","Male","true","false","false","false","""event"",""trial"",""time""
""fullscreenenter"",""5"",""16159""
","
","
","""event"",""trial"",""time""
""fullscreenenter"",""5"",""16159""
","
","877.3999999999069","","49","","","3000","1","","","images/purpleplanet.jpg","images/alien4","images/alien3","images/rocket1","images/alien3","images/nothing.png","2","real","true","1","common","0","2022-03-31 12:44:52.106"
"two-step-fixation","185","787969","0.0-76.0-2.16","1059","1304","22","Male","true","false","false","false","""event"",""trial"",""time""
""fullscreenenter"",""5"",""16159""
","
","
","""event"",""trial"",""time""
""fullscreenenter"",""5"",""16159""
","
","","images/earth.jpg","","","","","","","","","","","","","","fixation","","","","","",""
"d3-animate-choice","186","791478","0.0-76.0-0.17","1059","1304","22","Male","true","false","false","false","""event"",""trial"",""time""
""fullscreenenter"",""5"",""16159""
","
","
","""event"",""trial"",""time""
""fullscreenenter"",""5"",""16159""
","
","1506.5","","48","","","3000","1","","","images/earth.jpg","images/rocket2","images/rocket1","null","images/rocket2","","1","real","null","2","","",""
"d3-animate-choice","187","794305","0.0-76.0-1.17","1059","1304","22","Male","true","false","false","false","""event"",""trial"",""time""
""fullscreenenter"",""5"",""16159""
","
","
","""event"",""trial"",""time""
""fullscreenenter"",""5"",""16159""
","
","821.0999999998603","","48","","","3000","1","","","images/redplanet1.jpg","images/alien2","images/alien1","images/rocket2","images/alien2","images/t.png","2","real","true","2","common","1","2022-03-31 12:44:59.449"
"two-step-fixation","188","795311","0.0-76.0-2.17","1059","1304","22","Male","true","false","false","false","""event"",""trial"",""time""
""fullscreenenter"",""5"",""16159""
","
","
","""event"",""trial"",""time""
""fullscreenenter"",""5"",""16159""
","
","","images/earth.jpg","","","","","","","","","","","","","","fixation","","","","","",""
"d3-animate-choice","189","798038","0.0-76.0-0.18","1059","1304","22","Male","true","false","false","false","""event"",""trial"",""time""
""fullscreenenter"",""5"",""16159""
","
","
","""event"",""trial"",""time""
""fullscreenenter"",""5"",""16159""
","
","723.5999999998603","","49","","","3000","1","","","images/earth.jpg","images/rocket2","images/rocket1","null","images/rocket1","","1","real","null","1","","",""
"d3-animate-choice","190","800356","0.0-76.0-1.18","1059","1304","22","Male","true","false","false","false","""event"",""trial"",""time""
""fullscreenenter"",""5"",""16159""
","
","
","""event"",""trial"",""time""
""fullscreenenter"",""5"",""16159""
","
","317.5999999998603","","48","","","3000","1","","","images/redplanet1.jpg","images/alien2","images/alien1","images/rocket1","images/alien2","images/nothing.png","2","real","false","2","rare","0","2022-03-31 12:45:05.500"
"two-step-fixation","191","801358","0.0-76.0-2.18","1059","1304","22","Male","true","false","false","false","""event"",""trial"",""time""
""fullscreenenter"",""5"",""16159""
","
","
","""event"",""trial"",""time""
""fullscreenenter"",""5"",""16159""
","
","","images/earth.jpg","","","","","","","","","","","","","","fixation","","","","","",""
"d3-animate-choice","192","803666","0.0-76.0-0.19","1059","1304","22","Male","true","false","false","false","""event"",""trial"",""time""
""fullscreenenter"",""5"",""16159""
","
","
","""event"",""trial"",""time""
""fullscreenenter"",""5"",""16159""
","
","306","","49","","","3000","1","","","images/earth.jpg","images/rocket2","images/rocket1","null","images/rocket1","","1","real","null","1","","",""
"d3-animate-choice","193","805982","0.0-76.0-1.19","1059","1304","22","Male","true","false","false","false","""event"",""trial"",""time""
""fullscreenenter"",""5"",""16159""
","
","
","""event"",""trial"",""time""
""fullscreenenter"",""5"",""16159""
","
","315.20000000018626","","49","","","3000","1","","","images/purpleplanet.jpg","images/alien4","images/alien3","images/rocket1","images/alien3","images/nothing.png","2","real","true","1","common","0","2022-03-31 12:45:11.126"
"two-step-fixation","194","806985","0.0-76.0-2.19","1059","1304","22","Male","true","false","false","false","""event"",""trial"",""time""
""fullscreenenter"",""5"",""16159""
","
","
","""event"",""trial"",""time""
""fullscreenenter"",""5"",""16159""
","
","","images/earth.jpg","","","","","","","","","","","","","","fixation","","","","","",""
"d3-animate-choice","195","809299","0.0-76.0-0.20","1059","1304","22","Male","true","false","false","false","""event"",""trial"",""time""
""fullscreenenter"",""5"",""16159""
","
","
","""event"",""trial"",""time""
""fullscreenenter"",""5"",""16159""
","
","312.10000000009313","","48","","","3000","1","","","images/earth.jpg","images/rocket2","images/rocket1","null","images/rocket2","","1","real","null","2","","",""
"d3-animate-choice","196","811632","0.0-76.0-1.20","1059","1304","22","Male","true","false","false","false","""event"",""trial"",""time""
""fullscreenenter"",""5"",""16159""
","
","
","""event"",""trial"",""time""
""fullscreenenter"",""5"",""16159""
","
","331.89999999990687","","49","","","3000","1","","","images/purpleplanet.jpg","images/alien4","images/alien3","images/rocket2","images/alien3","images/t.png","2","real","false","1","rare","1","2022-03-31 12:45:16.776"
"two-step-fixation","197","812634","0.0-76.0-2.20","1059","1304","22","Male","true","false","false","false","""event"",""trial"",""time""
""fullscreenenter"",""5"",""16159""
","
","
","""event"",""trial"",""time""
""fullscreenenter"",""5"",""16159""
","
","","images/earth.jpg","","","","","","","","","","","","","","fixation","","","","","",""
"d3-animate-choice","198","815802","0.0-76.0-0.21","1059","1304","22","Male","true","false","false","false","""event"",""trial"",""time""
""fullscreenenter"",""5"",""16159""
","
","
","""event"",""trial"",""time""
""fullscreenenter"",""5"",""16159""
","
","1162.5999999998603","","48","","","3000","1","","","images/earth.jpg","images/rocket2","images/rocket1","null","images/rocket2","","1","real","null","2","","",""
"d3-animate-choice","199","818205","0.0-76.0-1.21","1059","1304","22","Male","true","false","false","false","""event"",""trial"",""time""
""fullscreenenter"",""5"",""16159""
","
","
","""event"",""trial"",""time""
""fullscreenenter"",""5"",""16159""
","
","400.80000000004657","","49","","","3000","1","","","images/redplanet1.jpg","images/alien2","images/alien1","images/rocket2","images/alien1","images/nothing.png","2","real","true","1","common","0","2022-03-31 12:45:23.349"
"two-step-fixation","200","819208","0.0-76.0-2.21","1059","1304","22","Male","true","false","false","false","""event"",""trial"",""time""
""fullscreenenter"",""5"",""16159""
","
","
","""event"",""trial"",""time""
""fullscreenenter"",""5"",""16159""
","
","","images/earth.jpg","","","","","","","","","","","","","","fixation","","","","","",""
"d3-animate-choice","201","821516","0.0-76.0-0.22","1059","1304","22","Male","true","false","false","false","""event"",""trial"",""time""
""fullscreenenter"",""5"",""16159""
","
","
","""event"",""trial"",""time""
""fullscreenenter"",""5"",""16159""
","
","305","","49","","","3000","1","","","images/earth.jpg","images/rocket2","images/rocket1","null","images/rocket1","","1","real","null","1","","",""
"d3-animate-choice","202","823955","0.0-76.0-1.22","1059","1304","22","Male","true","false","false","false","""event"",""trial"",""time""
""fullscreenenter"",""5"",""16159""
","
","
","""event"",""trial"",""time""
""fullscreenenter"",""5"",""16159""
","
","436.69999999995343","","48","","","3000","1","","","images/redplanet1.jpg","images/alien2","images/alien1","images/rocket1","images/alien2","images/t.png","2","real","false","2","rare","1","2022-03-31 12:45:29.099"
"two-step-fixation","203","824959","0.0-76.0-2.22","1059","1304","22","Male","true","false","false","false","""event"",""trial"",""time""
""fullscreenenter"",""5"",""16159""
","
","
","""event"",""trial"",""time""
""fullscreenenter"",""5"",""16159""
","
","","images/earth.jpg","","","","","","","","","","","","","","fixation","","","","","",""
"d3-animate-choice","204","827449","0.0-76.0-0.23","1059","1304","22","Male","true","false","false","false","""event"",""trial"",""time""
""fullscreenenter"",""5"",""16159""
","
","
","""event"",""trial"",""time""
""fullscreenenter"",""5"",""16159""
","
","488.0999999998603","","49","","","3000","1","","","images/earth.jpg","images/rocket2","images/rocket1","null","images/rocket1","","1","real","null","1","","",""
"d3-animate-choice","205","829891","0.0-76.0-1.23","1059","1304","22","Male","true","false","false","false","""event"",""trial"",""time""
""fullscreenenter"",""5"",""16159""
","
","
","""event"",""trial"",""time""
""fullscreenenter"",""5"",""16159""
","
","437.4000000001397","","48","","","3000","1","","","images/redplanet1.jpg","images/alien2","images/alien1","images/rocket1","images/alien2","images/t.png","2","real","false","2","rare","1","2022-03-31 12:45:35.035"
"two-step-fixation","206","830895","0.0-76.0-2.23","1059","1304","22","Male","true","false","false","false","""event"",""trial"",""time""
""fullscreenenter"",""5"",""16159""
","
","
","""event"",""trial"",""time""
""fullscreenenter"",""5"",""16159""
","
","","images/earth.jpg","","","","","","","","","","","","","","fixation","","","","","",""
"d3-animate-choice","207","833258","0.0-76.0-0.24","1059","1304","22","Male","true","false","false","false","""event"",""trial"",""time""
""fullscreenenter"",""5"",""16159""
","
","
","""event"",""trial"",""time""
""fullscreenenter"",""5"",""16159""
","
","358.69999999995343","","49","","","3000","1","","","images/earth.jpg","images/rocket2","images/rocket1","null","images/rocket1","","1","real","null","1","","",""
"d3-animate-choice","208","835624","0.0-76.0-1.24","1059","1304","22","Male","true","false","false","false","""event"",""trial"",""time""
""fullscreenenter"",""5"",""16159""
","
","
","""event"",""trial"",""time""
""fullscreenenter"",""5"",""16159""
","
","362.89999999990687","","48","","","3000","1","","","images/purpleplanet.jpg","images/alien4","images/alien3","images/rocket1","images/alien4","images/nothing.png","2","real","true","2","common","0","2022-03-31 12:45:40.768"
"two-step-fixation","209","836627","0.0-76.0-2.24","1059","1304","22","Male","true","false","false","false","""event"",""trial"",""time""
""fullscreenenter"",""5"",""16159""
","
","
","""event"",""trial"",""time""
""fullscreenenter"",""5"",""16159""
","
","","images/earth.jpg","","","","","","","","","","","","","","fixation","","","","","",""
"d3-animate-choice","210","838961","0.0-76.0-0.25","1059","1304","22","Male","true","false","false","false","""event"",""trial"",""time""
""fullscreenenter"",""5"",""16159""
","
","
","""event"",""trial"",""time""
""fullscreenenter"",""5"",""16159""
","
","329.5","","48","","","3000","1","","","images/earth.jpg","images/rocket2","images/rocket1","null","images/rocket2","","1","real","null","2","","",""
"d3-animate-choice","211","841314","0.0-76.0-1.25","1059","1304","22","Male","true","false","false","false","""event"",""trial"",""time""
""fullscreenenter"",""5"",""16159""
","
","
","""event"",""trial"",""time""
""fullscreenenter"",""5"",""16159""
","
","347.39999999990687","","48","","","3000","1","","","images/redplanet1.jpg","images/alien2","images/alien1","images/rocket2","images/alien2","images/t.png","2","real","true","2","common","1","2022-03-31 12:45:46.458"
"two-step-fixation","212","842318","0.0-76.0-2.25","1059","1304","22","Male","true","false","false","false","""event"",""trial"",""time""
""fullscreenenter"",""5"",""16159""
","
","
","""event"",""trial"",""time""
""fullscreenenter"",""5"",""16159""
","
","","images/earth.jpg","","","","","","","","","","","","","","fixation","","","","","",""
"d3-animate-choice","213","844662","0.0-76.0-0.26","1059","1304","22","Male","true","false","false","false","""event"",""trial"",""time""
""fullscreenenter"",""5"",""16159""
","
","
","""event"",""trial"",""time""
""fullscreenenter"",""5"",""16159""
","
","341.5999999998603","","48","","","3000","1","","","images/earth.jpg","images/rocket2","images/rocket1","null","images/rocket2","","1","real","null","2","","",""
"d3-animate-choice","214","846944","0.0-76.0-1.26","1059","1304","22","Male","true","false","false","false","""event"",""trial"",""time""
""fullscreenenter"",""5"",""16159""
","
","
","""event"",""trial"",""time""
""fullscreenenter"",""5"",""16159""
","
","277.19999999995343","","49","","","3000","1","","","images/redplanet1.jpg","images/alien2","images/alien1","images/rocket2","images/alien1","images/nothing.png","2","real","true","1","common","0","2022-03-31 12:45:52.088"
"two-step-fixation","215","847950","0.0-76.0-2.26","1059","1304","22","Male","true","false","false","false","""event"",""trial"",""time""
""fullscreenenter"",""5"",""16159""
","
","
","""event"",""trial"",""time""
""fullscreenenter"",""5"",""16159""
","
","","images/earth.jpg","","","","","","","","","","","","","","fixation","","","","","",""
"d3-animate-choice","216","850345","0.0-76.0-0.27","1059","1304","22","Male","true","false","false","false","""event"",""trial"",""time""
""fullscreenenter"",""5"",""16159""
","
","
","""event"",""trial"",""time""
""fullscreenenter"",""5"",""16159""
","
","389.60000000009313","","48","","","3000","1","","","images/earth.jpg","images/rocket2","images/rocket1","null","images/rocket2","","1","real","null","2","","",""
"d3-animate-choice","217","852687","0.0-76.0-1.27","1059","1304","22","Male","true","false","false","false","""event"",""trial"",""time""
""fullscreenenter"",""5"",""16159""
","
","
","""event"",""trial"",""time""
""fullscreenenter"",""5"",""16159""
","
","337.70000000018626","","48","","","3000","1","","","images/purpleplanet.jpg","images/alien4","images/alien3","images/rocket2","images/alien4","images/nothing.png","2","real","false","2","rare","0","2022-03-31 12:45:57.831"
"two-step-fixation","218","853692","0.0-76.0-2.27","1059","1304","22","Male","true","false","false","false","""event"",""trial"",""time""
""fullscreenenter"",""5"",""16159""
","
","
","""event"",""trial"",""time""
""fullscreenenter"",""5"",""16159""
","
","","images/earth.jpg","","","","","","","","","","","","","","fixation","","","","","",""
"d3-animate-choice","219","856005","0.0-76.0-0.28","1059","1304","22","Male","true","false","false","false","""event"",""trial"",""time""
""fullscreenenter"",""5"",""16159""
","
","
","""event"",""trial"",""time""
""fullscreenenter"",""5"",""16159""
","
","310","","48","","","3000","1","","","images/earth.jpg","images/rocket2","images/rocket1","null","images/rocket2","","1","real","null","2","","",""
"d3-animate-choice","220","858309","0.0-76.0-1.28","1059","1304","22","Male","true","false","false","false","""event"",""trial"",""time""
""fullscreenenter"",""5"",""16159""
","
","
","""event"",""trial"",""time""
""fullscreenenter"",""5"",""16159""
","
","301.10000000009313","","48","","","3000","1","","","images/redplanet1.jpg","images/alien2","images/alien1","images/rocket2","images/alien2","images/t.png","2","real","true","2","common","1","2022-03-31 12:46:03.454"
"two-step-fixation","221","859314","0.0-76.0-2.28","1059","1304","22","Male","true","false","false","false","""event"",""trial"",""time""
""fullscreenenter"",""5"",""16159""
","
","
","""event"",""trial"",""time""
""fullscreenenter"",""5"",""16159""
","
","","images/earth.jpg","","","","","","","","","","","","","","fixation","","","","","",""
"d3-animate-choice","222","862255","0.0-76.0-0.29","1059","1304","22","Male","true","false","false","false","""event"",""trial"",""time""
""fullscreenenter"",""5"",""16159""
","
","
","""event"",""trial"",""time""
""fullscreenenter"",""5"",""16159""
","
","936.5","","48","","","3000","1","","","images/earth.jpg","images/rocket2","images/rocket1","null","images/rocket2","","1","real","null","2","","",""
"d3-animate-choice","223","864620","0.0-76.0-1.29","1059","1304","22","Male","true","false","false","false","""event"",""trial"",""time""
""fullscreenenter"",""5"",""16159""
","
","
","""event"",""trial"",""time""
""fullscreenenter"",""5"",""16159""
","
","363.10000000009313","","48","","","3000","1","","","images/redplanet1.jpg","images/alien2","images/alien1","images/rocket2","images/alien2","images/t.png","2","real","true","2","common","1","2022-03-31 12:46:09.764"
"two-step-fixation","224","865623","0.0-76.0-2.29","1059","1304","22","Male","true","false","false","false","""event"",""trial"",""time""
""fullscreenenter"",""5"",""16159""
","
","
","""event"",""trial"",""time""
""fullscreenenter"",""5"",""16159""
","
","","images/earth.jpg","","","","","","","","","","","","","","fixation","","","","","",""
"d3-animate-choice","225","867945","0.0-76.0-0.30","1059","1304","22","Male","true","false","false","false","""event"",""trial"",""time""
""fullscreenenter"",""5"",""16159""
","
","
","""event"",""trial"",""time""
""fullscreenenter"",""5"",""16159""
","
","314.39999999990687","","48","","","3000","1","","","images/earth.jpg","images/rocket2","images/rocket1","null","images/rocket2","","1","real","null","2","","",""
"d3-animate-choice","226","870396","0.0-76.0-1.30","1059","1304","22","Male","true","false","false","false","""event"",""trial"",""time""
""fullscreenenter"",""5"",""16159""
","
","
","""event"",""trial"",""time""
""fullscreenenter"",""5"",""16159""
","
","448.69999999995343","","48","","","3000","1","","","images/purpleplanet.jpg","images/alien4","images/alien3","images/rocket2","images/alien4","images/t.png","2","real","false","2","rare","1","2022-03-31 12:46:15.541"
"two-step-fixation","227","871400","0.0-76.0-2.30","1059","1304","22","Male","true","false","false","false","""event"",""trial"",""time""
""fullscreenenter"",""5"",""16159""
","
","
","""event"",""trial"",""time""
""fullscreenenter"",""5"",""16159""
","
","","images/earth.jpg","","","","","","","","","","","","","","fixation","","","","","",""
"d3-animate-choice","228","873709","0.0-76.0-0.31","1059","1304","22","Male","true","false","false","false","""event"",""trial"",""time""
""fullscreenenter"",""5"",""16159""
","
","
","""event"",""trial"",""time""
""fullscreenenter"",""5"",""16159""
","
","306","","48","","","3000","1","","","images/earth.jpg","images/rocket2","images/rocket1","null","images/rocket2","","1","real","null","2","","",""
"d3-animate-choice","229","875967","0.0-76.0-1.31","1059","1304","22","Male","true","false","false","false","""event"",""trial"",""time""
""fullscreenenter"",""5"",""16159""
","
","
","""event"",""trial"",""time""
""fullscreenenter"",""5"",""16159""
","
","252.30000000004657","","48","","","3000","1","","","images/redplanet1.jpg","images/alien2","images/alien1","images/rocket2","images/alien2","images/t.png","2","real","true","2","common","1","2022-03-31 12:46:21.111"
"two-step-fixation","230","876971","0.0-76.0-2.31","1059","1304","22","Male","true","false","false","false","""event"",""trial"",""time""
""fullscreenenter"",""5"",""16159""
","
","
","""event"",""trial"",""time""
""fullscreenenter"",""5"",""16159""
","
","","images/earth.jpg","","","","","","","","","","","","","","fixation","","","","","",""
"d3-animate-choice","231","879078","0.0-76.0-0.32","1059","1304","22","Male","true","false","false","false","""event"",""trial"",""time""
""fullscreenenter"",""5"",""16159""
","
","
","""event"",""trial"",""time""
""fullscreenenter"",""5"",""16159""
","
","101","","48","","","3000","1","","","images/earth.jpg","images/rocket2","images/rocket1","null","images/rocket2","","1","real","null","2","","",""
"d3-animate-choice","232","881592","0.0-76.0-1.32","1059","1304","22","Male","true","false","false","false","""event"",""trial"",""time""
""fullscreenenter"",""5"",""16159""
","
","
","""event"",""trial"",""time""
""fullscreenenter"",""5"",""16159""
","
","507","","48","","","3000","1","","","images/purpleplanet.jpg","images/alien4","images/alien3","images/rocket2","images/alien4","images/t.png","2","real","false","2","rare","1","2022-03-31 12:46:26.736"
"two-step-fixation","233","882596","0.0-76.0-2.32","1059","1304","22","Male","true","false","false","false","""event"",""trial"",""time""
""fullscreenenter"",""5"",""16159""
","
","
","""event"",""trial"",""time""
""fullscreenenter"",""5"",""16159""
","
","","images/earth.jpg","","","","","","","","","","","","","","fixation","","","","","",""
"d3-animate-choice","234","884901","0.0-76.0-0.33","1059","1304","22","Male","true","false","false","false","""event"",""trial"",""time""
""fullscreenenter"",""5"",""16159""
","
","
","""event"",""trial"",""time""
""fullscreenenter"",""5"",""16159""
","
","300.69999999995343","","48","","","3000","1","","","images/earth.jpg","images/rocket2","images/rocket1","null","images/rocket2","","1","real","null","2","","",""
"d3-animate-choice","235","887268","0.0-76.0-1.33","1059","1304","22","Male","true","false","false","false","""event"",""trial"",""time""
""fullscreenenter"",""5"",""16159""
","
","
","""event"",""trial"",""time""
""fullscreenenter"",""5"",""16159""
","
","364.19999999995343","","48","","","3000","1","","","images/redplanet1.jpg","images/alien2","images/alien1","images/rocket2","images/alien2","images/nothing.png","2","real","true","2","common","0","2022-03-31 12:46:32.412"
"two-step-fixation","236","888272","0.0-76.0-2.33","1059","1304","22","Male","true","false","false","false","""event"",""trial"",""time""
""fullscreenenter"",""5"",""16159""
","
","
","""event"",""trial"",""time""
""fullscreenenter"",""5"",""16159""
","
","","images/earth.jpg","","","","","","","","","","","","","","fixation","","","","","",""
"d3-animate-choice","237","890607","0.0-76.0-0.34","1059","1304","22","Male","true","false","false","false","""event"",""trial"",""time""
""fullscreenenter"",""5"",""16159""
","
","
","""event"",""trial"",""time""
""fullscreenenter"",""5"",""16159""
","
","328.5","","49","","","3000","1","","","images/earth.jpg","images/rocket2","images/rocket1","null","images/rocket1","","1","real","null","1","","",""
"d3-animate-choice","238","893062","0.0-76.0-1.34","1059","1304","22","Male","true","false","false","false","""event"",""trial"",""time""
""fullscreenenter"",""5"",""16159""
","
","
","""event"",""trial"",""time""
""fullscreenenter"",""5"",""16159""
","
","449.60000000009313","","49","","","3000","1","","","images/purpleplanet.jpg","images/alien4","images/alien3","images/rocket1","images/alien3","images/nothing.png","2","real","true","1","common","0","2022-03-31 12:46:38.206"
"two-step-fixation","239","894065","0.0-76.0-2.34","1059","1304","22","Male","true","false","false","false","""event"",""trial"",""time""
""fullscreenenter"",""5"",""16159""
","
","
","""event"",""trial"",""time""
""fullscreenenter"",""5"",""16159""
","
","","images/earth.jpg","","","","","","","","","","","","","","fixation","","","","","",""
"d3-animate-choice","240","896423","0.0-76.0-0.35","1059","1304","22","Male","true","false","false","false","""event"",""trial"",""time""
""fullscreenenter"",""5"",""16159""
","
","
","""event"",""trial"",""time""
""fullscreenenter"",""5"",""16159""
","
","351.19999999995343","","49","","","3000","1","","","images/earth.jpg","images/rocket2","images/rocket1","null","images/rocket1","","1","real","null","1","","",""
"d3-animate-choice","241","898957","0.0-76.0-1.35","1059","1304","22","Male","true","false","false","false","""event"",""trial"",""time""
""fullscreenenter"",""5"",""16159""
","
","
","""event"",""trial"",""time""
""fullscreenenter"",""5"",""16159""
","
","529.5","","48","","","3000","1","","","images/redplanet1.jpg","images/alien2","images/alien1","images/rocket1","images/alien2","images/t.png","2","real","false","2","rare","1","2022-03-31 12:46:44.101"
"two-step-fixation","242","899963","0.0-76.0-2.35","1059","1304","22","Male","true","false","false","false","""event"",""trial"",""time""
""fullscreenenter"",""5"",""16159""
","
","
","""event"",""trial"",""time""
""fullscreenenter"",""5"",""16159""
","
","","images/earth.jpg","","","","","","","","","","","","","","fixation","","","","","",""
"d3-animate-choice","243","902292","0.0-76.0-0.36","1059","1304","22","Male","true","false","false","false","""event"",""trial"",""time""
""fullscreenenter"",""5"",""16159""
","
","
","""event"",""trial"",""time""
""fullscreenenter"",""5"",""16159""
","
","325.5","","49","","","3000","1","","","images/earth.jpg","images/rocket2","images/rocket1","null","images/rocket1","","1","real","null","1","","",""
"d3-animate-choice","244","905391","0.0-76.0-1.36","1059","1304","22","Male","true","false","false","false","""event"",""trial"",""time""
""fullscreenenter"",""5"",""16159""
","
","
","""event"",""trial"",""time""
""fullscreenenter"",""5"",""16159""
","
","1092.1000000000931","","49","","","3000","1","","","images/purpleplanet.jpg","images/alien4","images/alien3","images/rocket1","images/alien3","images/t.png","2","real","true","1","common","1","2022-03-31 12:46:50.535"
"two-step-fixation","245","906396","0.0-76.0-2.36","1059","1304","22","Male","true","false","false","false","""event"",""trial"",""time""
""fullscreenenter"",""5"",""16159""
","
","
","""event"",""trial"",""time""
""fullscreenenter"",""5"",""16159""
","
","","images/earth.jpg","","","","","","","","","","","","","","fixation","","","","","",""
