"trial_type","trial_index","time_elapsed","internal_node_id","participant_id","subject_id","age","gender","rocket_sides","red_planet_first_rocket","red_display_order","purple_display_order","interactions","blur_events","focus_events","fullscreenenter_events","fullscreenexit_events","rt","stimulus","key_press","button_pressed","success","duration","valid_pressed","rts","keys","planet_text","right_text","left_text","center_text","chosen_text","reward_text","trial_stage","practice_trial","transition_type","choice","transition","reward","timestamp"
"pavlovia","0","4","0.0-0.0","392","604","18","Female","true","true","true","false","
","
","
","
","
","","","","","","","","","","","","","","","","","","","","","",""
"html-keyboard-response","1","1320","0.0-1.0","392","604","18","Female","true","true","true","false","
","
","
","
","
","1314.800000011921","Welcome! Press the space bar to begin.","32","","","","","","","","","","","","","","","","","","",""
"audio-keyboard-response","2","5650","0.0-2.0","392","604","18","Female","true","true","true","false","
","
","
","
","
","4309","audio/beep_loop.wav","32","","","","","","","","","","","","","","","","","","",""
"audio-button-response","3","9365","0.0-3.0","392","604","18","Female","true","true","true","false","
","
","
","
","
","NaN","audio/fish.mp3","","1","","","","","","","","","","","","","","","","","",""
"audio-button-response","4","12658","0.0-4.0","392","604","18","Female","true","true","true","false","""event"",""trial"",""time""
""fullscreenenter"",""5"",""15875""
","
","
","""event"",""trial"",""time""
""fullscreenenter"",""5"",""15875""
","
","NaN","audio/tiger.mp3","","4","","","","","","","","","","","","","","","","","",""
"fullscreen","5","16837","0.0-5.0","392","604","18","Female","true","true","true","false","""event"",""trial"",""time""
""fullscreenenter"",""5"",""15875""
","
","
","""event"",""trial"",""time""
""fullscreenenter"",""5"",""15875""
","
","","","","","true","","","","","","","","","","","","","","","","",""
"d3-instructions","6","30128","0.0-6.0","392","604","18","Female","true","true","true","false","""event"",""trial"",""time""
""fullscreenenter"",""5"",""15875""
","
","
","""event"",""trial"",""time""
""fullscreenenter"",""5"",""15875""
","
","","","","","","","","","","","","","","","","","","","","","",""
"d3-instructions","7","38845","0.0-7.0","392","604","18","Female","true","true","true","false","""event"",""trial"",""time""
""fullscreenenter"",""5"",""15875""
","
","
","""event"",""trial"",""time""
""fullscreenenter"",""5"",""15875""
","
","","","","","","","","","","","","","","","","","","","","","",""
"d3-instructions","8","46092","0.0-8.0","392","604","18","Female","true","true","true","false","""event"",""trial"",""time""
""fullscreenenter"",""5"",""15875""
","
","
","""event"",""trial"",""time""
""fullscreenenter"",""5"",""15875""
","
","","","","","","","","","","","","","","","","","","","","","",""
"d3-instructions","9","56935","0.0-9.0","392","604","18","Female","true","true","true","false","""event"",""trial"",""time""
""fullscreenenter"",""5"",""15875""
","
","
","""event"",""trial"",""time""
""fullscreenenter"",""5"",""15875""
","
","","","","","","","","","","","","","","","","","","","","","",""
"d3-instructions","10","79150","0.0-10.0","392","604","18","Female","true","true","true","false","""event"",""trial"",""time""
""fullscreenenter"",""5"",""15875""
","
","
","""event"",""trial"",""time""
""fullscreenenter"",""5"",""15875""
","
","","","","","","","","","","","","","","","","","","","","","",""
"d3-animate-choice","11","82098","0.0-11.0","392","604","18","Female","true","true","true","false","""event"",""trial"",""time""
""fullscreenenter"",""5"",""15875""
","
","
","""event"",""trial"",""time""
""fullscreenenter"",""5"",""15875""
","
","938.8000000119209","","49","","","3000","1","","","images/tutgreenplanet.jpg","images/tutalien1","images/tutalien2","null","images/tutalien2","","NA","practice","null","","","",""
"d3-animate-choice","12","84812","0.0-12.0","392","604","18","Female","true","true","true","false","""event"",""trial"",""time""
""fullscreenenter"",""5"",""15875""
","
","
","""event"",""trial"",""time""
""fullscreenenter"",""5"",""15875""
","
","705.8999999761581","","48","","","3000","1","","","images/tutgreenplanet.jpg","images/tutalien1","images/tutalien2","null","images/tutalien1","","NA","practice","null","","","",""
"d3-animate-choice","13","87752","0.0-13.0","392","604","18","Female","true","true","true","false","""event"",""trial"",""time""
""fullscreenenter"",""5"",""15875""
","
","
","""event"",""trial"",""time""
""fullscreenenter"",""5"",""15875""
","
","931.3000000119209","","49","","","3000","1","","","images/tutgreenplanet.jpg","images/tutalien1","images/tutalien2","null","images/tutalien2","","NA","practice","null","","","",""
"d3-animate-choice","14","90191","0.0-14.0","392","604","18","Female","true","true","true","false","""event"",""trial"",""time""
""fullscreenenter"",""5"",""15875""
","
","
","""event"",""trial"",""time""
""fullscreenenter"",""5"",""15875""
","
","434","","49","","","3000","1","","","images/tutgreenplanet.jpg","images/tutalien1","images/tutalien2","null","images/tutalien2","","NA","practice","null","","","",""
"d3-instructions","15","96854","0.0-15.0","392","604","18","Female","true","true","true","false","""event"",""trial"",""time""
""fullscreenenter"",""5"",""15875""
","
","
","""event"",""trial"",""time""
""fullscreenenter"",""5"",""15875""
","
","","","","","","","","","","","","","","","","","","","","","",""
"d3-instructions","16","103169","0.0-16.0","392","604","18","Female","true","true","true","false","""event"",""trial"",""time""
""fullscreenenter"",""5"",""15875""
","
","
","""event"",""trial"",""time""
""fullscreenenter"",""5"",""15875""
","
","","","","","","","","","","","","","","","","","","","","","",""
"d3-instructions","17","111636","0.0-17.0","392","604","18","Female","true","true","true","false","""event"",""trial"",""time""
""fullscreenenter"",""5"",""15875""
","
","
","""event"",""trial"",""time""
""fullscreenenter"",""5"",""15875""
","
","","","","","","","","","","","","","","","","","","","","","",""
"d3-instructions","18","123963","0.0-18.0","392","604","18","Female","true","true","true","false","""event"",""trial"",""time""
""fullscreenenter"",""5"",""15875""
","
","
","""event"",""trial"",""time""
""fullscreenenter"",""5"",""15875""
","
","","","","","","","","","","","","","","","","","","","","","",""
"d3-instructions","19","137807","0.0-19.0","392","604","18","Female","true","true","true","false","""event"",""trial"",""time""
""fullscreenenter"",""5"",""15875""
","
","
","""event"",""trial"",""time""
""fullscreenenter"",""5"",""15875""
","
","","","","","","","","","","","","","","","","","","","","","",""
"d3-animate-choice","20","140513","0.0-20.0","392","604","18","Female","true","true","true","false","""event"",""trial"",""time""
""fullscreenenter"",""5"",""15875""
","
","
","""event"",""trial"",""time""
""fullscreenenter"",""5"",""15875""
","
","699.0999999940395","","49","","","3000","1","","","images/tutyellowplanet.jpg","null","images/tutalien3","null","images/tutalien3","images/t.png","NA","practice","null","","","",""
"d3-animate-choice","21","142887","0.0-21.0","392","604","18","Female","true","true","true","false","""event"",""trial"",""time""
""fullscreenenter"",""5"",""15875""
","
","
","""event"",""trial"",""time""
""fullscreenenter"",""5"",""15875""
","
","367.5","","49","","","3000","1","","","images/tutyellowplanet.jpg","null","images/tutalien3","null","images/tutalien3","images/t.png","NA","practice","null","","","",""
"d3-animate-choice","22","145206","0.0-22.0","392","604","18","Female","true","true","true","false","""event"",""trial"",""time""
""fullscreenenter"",""5"",""15875""
","
","
","""event"",""trial"",""time""
""fullscreenenter"",""5"",""15875""
","
","311.30000001192093","","49","","","3000","1","","","images/tutyellowplanet.jpg","null","images/tutalien3","null","images/tutalien3","images/t.png","NA","practice","null","","","",""
"d3-animate-choice","23","147491","0.0-23.0","392","604","18","Female","true","true","true","false","""event"",""trial"",""time""
""fullscreenenter"",""5"",""15875""
","
","
","""event"",""trial"",""time""
""fullscreenenter"",""5"",""15875""
","
","278","","49","","","3000","1","","","images/tutyellowplanet.jpg","null","images/tutalien3","null","images/tutalien3","images/t.png","NA","practice","null","","","",""
"d3-animate-choice","24","149785","0.0-24.0","392","604","18","Female","true","true","true","false","""event"",""trial"",""time""
""fullscreenenter"",""5"",""15875""
","
","
","""event"",""trial"",""time""
""fullscreenenter"",""5"",""15875""
","
","287.2999999821186","","49","","","3000","1","","","images/tutyellowplanet.jpg","null","images/tutalien3","null","images/tutalien3","images/t.png","NA","practice","null","","","",""
"d3-animate-choice","25","152149","0.0-25.0","392","604","18","Female","true","true","true","false","""event"",""trial"",""time""
""fullscreenenter"",""5"",""15875""
","
","
","""event"",""trial"",""time""
""fullscreenenter"",""5"",""15875""
","
","355.90000000596046","","49","","","3000","1","","","images/tutyellowplanet.jpg","null","images/tutalien3","null","images/tutalien3","images/t.png","NA","practice","null","","","",""
"d3-animate-choice","26","154504","0.0-26.0","392","604","18","Female","true","true","true","false","""event"",""trial"",""time""
""fullscreenenter"",""5"",""15875""
","
","
","""event"",""trial"",""time""
""fullscreenenter"",""5"",""15875""
","
","348.7000000178814","","49","","","3000","1","","","images/tutyellowplanet.jpg","null","images/tutalien3","null","images/tutalien3","images/nothing.png","NA","practice","null","","","",""
"d3-animate-choice","27","156830","0.0-27.0","392","604","18","Female","true","true","true","false","""event"",""trial"",""time""
""fullscreenenter"",""5"",""15875""
","
","
","""event"",""trial"",""time""
""fullscreenenter"",""5"",""15875""
","
","318.5","","49","","","3000","1","","","images/tutyellowplanet.jpg","null","images/tutalien3","null","images/tutalien3","images/t.png","NA","practice","null","","","",""
"d3-animate-choice","28","159144","0.0-28.0","392","604","18","Female","true","true","true","false","""event"",""trial"",""time""
""fullscreenenter"",""5"",""15875""
","
","
","""event"",""trial"",""time""
""fullscreenenter"",""5"",""15875""
","
","310.09999999403954","","49","","","3000","1","","","images/tutyellowplanet.jpg","null","images/tutalien3","null","images/tutalien3","images/t.png","NA","practice","null","","","",""
"d3-animate-choice","29","161428","0.0-29.0","392","604","18","Female","true","true","true","false","""event"",""trial"",""time""
""fullscreenenter"",""5"",""15875""
","
","
","""event"",""trial"",""time""
""fullscreenenter"",""5"",""15875""
","
","278.09999999403954","","49","","","3000","1","","","images/tutyellowplanet.jpg","null","images/tutalien3","null","images/tutalien3","images/t.png","NA","practice","null","","","",""
"d3-instructions","30","179493","0.0-30.0","392","604","18","Female","true","true","true","false","""event"",""trial"",""time""
""fullscreenenter"",""5"",""15875""
","
","
","""event"",""trial"",""time""
""fullscreenenter"",""5"",""15875""
","
","","","","","","","","","","","","","","","","","","","","","",""
"d3-instructions","31","189076","0.0-31.0","392","604","18","Female","true","true","true","false","""event"",""trial"",""time""
""fullscreenenter"",""5"",""15875""
","
","
","""event"",""trial"",""time""
""fullscreenenter"",""5"",""15875""
","
","","","","","","","","","","","","","","","","","","","","","",""
"d3-instructions","32","196962","0.0-32.0","392","604","18","Female","true","true","true","false","""event"",""trial"",""time""
""fullscreenenter"",""5"",""15875""
","
","
","""event"",""trial"",""time""
""fullscreenenter"",""5"",""15875""
","
","","","","","","","","","","","","","","","","","","","","","",""
"d3-instructions","33","202049","0.0-33.0","392","604","18","Female","true","true","true","false","""event"",""trial"",""time""
""fullscreenenter"",""5"",""15875""
","
","
","""event"",""trial"",""time""
""fullscreenenter"",""5"",""15875""
","
","","","","","","","","","","","","","","","","","","","","","",""
"d3-animate-choice","34","204786","0.0-34.0","392","604","18","Female","true","true","true","false","""event"",""trial"",""time""
""fullscreenenter"",""5"",""15875""
","
","
","""event"",""trial"",""time""
""fullscreenenter"",""5"",""15875""
","
","732.6999999880791","","49","","","3000","1","","","images/tutgreenplanet.jpg","images/tutalien1","images/tutalien2","null","images/tutalien2","images/t.png","NA","practice","null","","","",""
"d3-animate-choice","35","207152","0.0-35.0","392","604","18","Female","true","true","true","false","""event"",""trial"",""time""
""fullscreenenter"",""5"",""15875""
","
","
","""event"",""trial"",""time""
""fullscreenenter"",""5"",""15875""
","
","361.09999999403954","","49","","","3000","1","","","images/tutgreenplanet.jpg","images/tutalien1","images/tutalien2","null","images/tutalien2","images/t.png","NA","practice","null","","","",""
"d3-animate-choice","36","209266","0.0-36.0","392","604","18","Female","true","true","true","false","""event"",""trial"",""time""
""fullscreenenter"",""5"",""15875""
","
","
","""event"",""trial"",""time""
""fullscreenenter"",""5"",""15875""
","
","106.80000001192093","","49","","","3000","1","","","images/tutgreenplanet.jpg","images/tutalien1","images/tutalien2","null","images/tutalien2","images/t.png","NA","practice","null","","","",""
"d3-animate-choice","37","211591","0.0-37.0","392","604","18","Female","true","true","true","false","""event"",""trial"",""time""
""fullscreenenter"",""5"",""15875""
","
","
","""event"",""trial"",""time""
""fullscreenenter"",""5"",""15875""
","
","318.80000001192093","","48","","","3000","1","","","images/tutgreenplanet.jpg","images/tutalien1","images/tutalien2","null","images/tutalien1","images/nothing.png","NA","practice","null","","","",""
"d3-animate-choice","38","213979","0.0-38.0","392","604","18","Female","true","true","true","false","""event"",""trial"",""time""
""fullscreenenter"",""5"",""15875""
","
","
","""event"",""trial"",""time""
""fullscreenenter"",""5"",""15875""
","
","384","","49","","","3000","1","","","images/tutgreenplanet.jpg","images/tutalien1","images/tutalien2","null","images/tutalien2","images/nothing.png","NA","practice","null","","","",""
"d3-animate-choice","39","216230","0.0-39.0","392","604","18","Female","true","true","true","false","""event"",""trial"",""time""
""fullscreenenter"",""5"",""15875""
","
","
","""event"",""trial"",""time""
""fullscreenenter"",""5"",""15875""
","
","244.80000001192093","","49","","","3000","1","","","images/tutgreenplanet.jpg","images/tutalien1","images/tutalien2","null","images/tutalien2","images/t.png","NA","practice","null","","","",""
"d3-animate-choice","40","218522","0.0-40.0","392","604","18","Female","true","true","true","false","""event"",""trial"",""time""
""fullscreenenter"",""5"",""15875""
","
","
","""event"",""trial"",""time""
""fullscreenenter"",""5"",""15875""
","
","283.30000001192093","","48","","","3000","1","","","images/tutgreenplanet.jpg","images/tutalien1","images/tutalien2","null","images/tutalien1","images/nothing.png","NA","practice","null","","","",""
"d3-animate-choice","41","220890","0.0-41.0","392","604","18","Female","true","true","true","false","""event"",""trial"",""time""
""fullscreenenter"",""5"",""15875""
","
","
","""event"",""trial"",""time""
""fullscreenenter"",""5"",""15875""
","
","363.90000000596046","","49","","","3000","1","","","images/tutgreenplanet.jpg","images/tutalien1","images/tutalien2","null","images/tutalien2","images/t.png","NA","practice","null","","","",""
"d3-animate-choice","42","223141","0.0-42.0","392","604","18","Female","true","true","true","false","""event"",""trial"",""time""
""fullscreenenter"",""5"",""15875""
","
","
","""event"",""trial"",""time""
""fullscreenenter"",""5"",""15875""
","
","245.89999997615814","","49","","","3000","1","","","images/tutgreenplanet.jpg","images/tutalien1","images/tutalien2","null","images/tutalien2","images/t.png","NA","practice","null","","","",""
"d3-animate-choice","43","225637","0.0-43.0","392","604","18","Female","true","true","true","false","""event"",""trial"",""time""
""fullscreenenter"",""5"",""15875""
","
","
","""event"",""trial"",""time""
""fullscreenenter"",""5"",""15875""
","
","491.2000000178814","","49","","","3000","1","","","images/tutgreenplanet.jpg","images/tutalien1","images/tutalien2","null","images/tutalien2","images/nothing.png","NA","practice","null","","","",""
"d3-instructions","44","238377","0.0-44.0","392","604","18","Female","true","true","true","false","""event"",""trial"",""time""
""fullscreenenter"",""5"",""15875""
","
","
","""event"",""trial"",""time""
""fullscreenenter"",""5"",""15875""
","
","","","","","","","","","","","","","","","","","","","","","",""
"d3-instructions","45","243986","0.0-45.0","392","604","18","Female","true","true","true","false","""event"",""trial"",""time""
""fullscreenenter"",""5"",""15875""
","
","
","""event"",""trial"",""time""
""fullscreenenter"",""5"",""15875""
","
","","","","","","","","","","","","","","","","","","","","","",""
"d3-instructions","46","249485","0.0-46.0","392","604","18","Female","true","true","true","false","""event"",""trial"",""time""
""fullscreenenter"",""5"",""15875""
","
","
","""event"",""trial"",""time""
""fullscreenenter"",""5"",""15875""
","
","","","","","","","","","","","","","","","","","","","","","",""
"d3-instructions","47","265690","0.0-47.0","392","604","18","Female","true","true","true","false","""event"",""trial"",""time""
""fullscreenenter"",""5"",""15875""
","
","
","""event"",""trial"",""time""
""fullscreenenter"",""5"",""15875""
","
","","","","","","","","","","","","","","","","","","","","","",""
"d3-instructions","48","272574","0.0-48.0","392","604","18","Female","true","true","true","false","""event"",""trial"",""time""
""fullscreenenter"",""5"",""15875""
","
","
","""event"",""trial"",""time""
""fullscreenenter"",""5"",""15875""
","
","","","","","","","","","","","","","","","","","","","","","",""
"d3-instructions","49","283901","0.0-49.0","392","604","18","Female","true","true","true","false","""event"",""trial"",""time""
""fullscreenenter"",""5"",""15875""
","
","
","""event"",""trial"",""time""
""fullscreenenter"",""5"",""15875""
","
","","","","","","","","","","","","","","","","","","","","","",""
"d3-instructions","50","293042","0.0-50.0","392","604","18","Female","true","true","true","false","""event"",""trial"",""time""
""fullscreenenter"",""5"",""15875""
","
","
","""event"",""trial"",""time""
""fullscreenenter"",""5"",""15875""
","
","","","","","","","","","","","","","","","","","","","","","",""
"d3-instructions","51","296466","0.0-51.0","392","604","18","Female","true","true","true","false","""event"",""trial"",""time""
""fullscreenenter"",""5"",""15875""
","
","
","""event"",""trial"",""time""
""fullscreenenter"",""5"",""15875""
","
","","","","","","","","","","","","","","","","","","","","","",""
"d3-instructions","52","300206","0.0-52.0","392","604","18","Female","true","true","true","false","""event"",""trial"",""time""
""fullscreenenter"",""5"",""15875""
","
","
","""event"",""trial"",""time""
""fullscreenenter"",""5"",""15875""
","
","","","","","","","","","","","","","","","","","","","","","",""
"d3-instructions","53","312383","0.0-53.0","392","604","18","Female","true","true","true","false","""event"",""trial"",""time""
""fullscreenenter"",""5"",""15875""
","
","
","""event"",""trial"",""time""
""fullscreenenter"",""5"",""15875""
","
","","","","","","","","","","","","","","","","","","","","","",""
"d3-instructions","54","322956","0.0-54.0","392","604","18","Female","true","true","true","false","""event"",""trial"",""time""
""fullscreenenter"",""5"",""15875""
","
","
","""event"",""trial"",""time""
""fullscreenenter"",""5"",""15875""
","
","","","","","","","","","","","","","","","","","","","","","",""
"d3-instructions","55","327165","0.0-55.0","392","604","18","Female","true","true","true","false","""event"",""trial"",""time""
""fullscreenenter"",""5"",""15875""
","
","
","""event"",""trial"",""time""
""fullscreenenter"",""5"",""15875""
","
","","","","","","","","","","","","","","","","","","","","","",""
"d3-instructions","56","334992","0.0-56.0","392","604","18","Female","true","true","true","false","""event"",""trial"",""time""
""fullscreenenter"",""5"",""15875""
","
","
","""event"",""trial"",""time""
""fullscreenenter"",""5"",""15875""
","
","","","","","","","","","","","","","","","","","","","","","",""
"d3-instructions","57","341745","0.0-57.0","392","604","18","Female","true","true","true","false","""event"",""trial"",""time""
""fullscreenenter"",""5"",""15875""
","
","
","""event"",""trial"",""time""
""fullscreenenter"",""5"",""15875""
","
","","","","","","","","","","","","","","","","","","","","","",""
"d3-instructions","58","352673","0.0-58.0","392","604","18","Female","true","true","true","false","""event"",""trial"",""time""
""fullscreenenter"",""5"",""15875""
","
","
","""event"",""trial"",""time""
""fullscreenenter"",""5"",""15875""
","
","","","","","","","","","","","","","","","","","","","","","",""
"d3-instructions","59","356726","0.0-59.0","392","604","18","Female","true","true","true","false","""event"",""trial"",""time""
""fullscreenenter"",""5"",""15875""
","
","
","""event"",""trial"",""time""
""fullscreenenter"",""5"",""15875""
","
","","","","","","","","","","","","","","","","","","","","","",""
"d3-instructions","60","363078","0.0-60.0","392","604","18","Female","true","true","true","false","""event"",""trial"",""time""
""fullscreenenter"",""5"",""15875""
","
","
","""event"",""trial"",""time""
""fullscreenenter"",""5"",""15875""
","
","","","","","","","","","","","","","","","","","","","","","",""
"d3-animate-choice","61","365521","0.0-61.0-0.0","392","604","18","Female","true","true","true","false","""event"",""trial"",""time""
""fullscreenenter"",""5"",""15875""
","
","
","""event"",""trial"",""time""
""fullscreenenter"",""5"",""15875""
","
","435","","48","","","3000","1","","","images/earth.jpg","images/tutrocket1","images/tutrocket2","null","images/tutrocket1","","1","practice","null","2","","",""
"d3-animate-choice","62","368592","0.0-61.0-1.0","392","604","18","Female","true","true","true","false","""event"",""trial"",""time""
""fullscreenenter"",""5"",""15875""
","
","
","""event"",""trial"",""time""
""fullscreenenter"",""5"",""15875""
","
","1062.7999999821186","","49","","","3000","1","","","images/tutgreenplanet.jpg","images/tutalien2","images/tutalien1","images/tutrocket1","images/tutalien1","images/nothing.png","2","practice","true","1","common","0","2022-02-05 20:17:49.635"
"two-step-fixation","63","369595","0.0-61.0-2.0","392","604","18","Female","true","true","true","false","""event"",""trial"",""time""
""fullscreenenter"",""5"",""15875""
","
","
","""event"",""trial"",""time""
""fullscreenenter"",""5"",""15875""
","
","","images/earth.jpg","","","","","","","","","","","","","","fixation","","","","","",""
"d3-animate-choice","64","372107","0.0-61.0-0.1","392","604","18","Female","true","true","true","false","""event"",""trial"",""time""
""fullscreenenter"",""5"",""15875""
","
","
","""event"",""trial"",""time""
""fullscreenenter"",""5"",""15875""
","
","509.40000000596046","","48","","","3000","1","","","images/earth.jpg","images/tutrocket1","images/tutrocket2","null","images/tutrocket1","","1","practice","null","2","","",""
"d3-animate-choice","65","374479","0.0-61.0-1.1","392","604","18","Female","true","true","true","false","""event"",""trial"",""time""
""fullscreenenter"",""5"",""15875""
","
","
","""event"",""trial"",""time""
""fullscreenenter"",""5"",""15875""
","
","366.30000001192093","","48","","","3000","1","","","images/tutyellowplanet.jpg","images/tutalien4","images/tutalien3","images/tutrocket1","images/tutalien4","images/nothing.png","2","practice","false","2","rare","0","2022-02-05 20:17:55.522"
"two-step-fixation","66","375488","0.0-61.0-2.1","392","604","18","Female","true","true","true","false","""event"",""trial"",""time""
""fullscreenenter"",""5"",""15875""
","
","
","""event"",""trial"",""time""
""fullscreenenter"",""5"",""15875""
","
","","images/earth.jpg","","","","","","","","","","","","","","fixation","","","","","",""
"d3-animate-choice","67","377835","0.0-61.0-0.2","392","604","18","Female","true","true","true","false","""event"",""trial"",""time""
""fullscreenenter"",""5"",""15875""
","
","
","""event"",""trial"",""time""
""fullscreenenter"",""5"",""15875""
","
","340","","48","","","3000","1","","","images/earth.jpg","images/tutrocket1","images/tutrocket2","null","images/tutrocket1","","1","practice","null","2","","",""
"d3-animate-choice","68","380484","0.0-61.0-1.2","392","604","18","Female","true","true","true","false","""event"",""trial"",""time""
""fullscreenenter"",""5"",""15875""
","
","
","""event"",""trial"",""time""
""fullscreenenter"",""5"",""15875""
","
","643.8999999761581","","48","","","3000","1","","","images/tutgreenplanet.jpg","images/tutalien2","images/tutalien1","images/tutrocket1","images/tutalien2","images/nothing.png","2","practice","true","2","common","0","2022-02-05 20:18:01.527"
"two-step-fixation","69","381488","0.0-61.0-2.2","392","604","18","Female","true","true","true","false","""event"",""trial"",""time""
""fullscreenenter"",""5"",""15875""
","
","
","""event"",""trial"",""time""
""fullscreenenter"",""5"",""15875""
","
","","images/earth.jpg","","","","","","","","","","","","","","fixation","","","","","",""
"d3-animate-choice","70","383844","0.0-61.0-0.3","392","604","18","Female","true","true","true","false","""event"",""trial"",""time""
""fullscreenenter"",""5"",""15875""
","
","
","""event"",""trial"",""time""
""fullscreenenter"",""5"",""15875""
","
","352.40000000596046","","49","","","3000","1","","","images/earth.jpg","images/tutrocket1","images/tutrocket2","null","images/tutrocket2","","1","practice","null","1","","",""
"d3-animate-choice","71","386252","0.0-61.0-1.3","392","604","18","Female","true","true","true","false","""event"",""trial"",""time""
""fullscreenenter"",""5"",""15875""
","
","
","""event"",""trial"",""time""
""fullscreenenter"",""5"",""15875""
","
","402.30000001192093","","49","","","3000","1","","","images/tutyellowplanet.jpg","images/tutalien4","images/tutalien3","images/tutrocket2","images/tutalien3","images/nothing.png","2","practice","true","1","common","0","2022-02-05 20:18:07.295"
"two-step-fixation","72","387258","0.0-61.0-2.3","392","604","18","Female","true","true","true","false","""event"",""trial"",""time""
""fullscreenenter"",""5"",""15875""
","
","
","""event"",""trial"",""time""
""fullscreenenter"",""5"",""15875""
","
","","images/earth.jpg","","","","","","","","","","","","","","fixation","","","","","",""
"d3-animate-choice","73","389707","0.0-61.0-0.4","392","604","18","Female","true","true","true","false","""event"",""trial"",""time""
""fullscreenenter"",""5"",""15875""
","
","
","""event"",""trial"",""time""
""fullscreenenter"",""5"",""15875""
","
","443.09999999403954","","49","","","3000","1","","","images/earth.jpg","images/tutrocket1","images/tutrocket2","null","images/tutrocket2","","1","practice","null","1","","",""
"d3-animate-choice","74","392535","0.0-61.0-1.4","392","604","18","Female","true","true","true","false","""event"",""trial"",""time""
""fullscreenenter"",""5"",""15875""
","
","
","""event"",""trial"",""time""
""fullscreenenter"",""5"",""15875""
","
","822.6999999880791","","49","","","3000","1","","","images/tutgreenplanet.jpg","images/tutalien2","images/tutalien1","images/tutrocket2","images/tutalien1","images/t.png","2","practice","false","1","rare","1","2022-02-05 20:18:13.578"
"two-step-fixation","75","393539","0.0-61.0-2.4","392","604","18","Female","true","true","true","false","""event"",""trial"",""time""
""fullscreenenter"",""5"",""15875""
","
","
","""event"",""trial"",""time""
""fullscreenenter"",""5"",""15875""
","
","","images/earth.jpg","","","","","","","","","","","","","","fixation","","","","","",""
"d3-animate-choice","76","395920","0.0-61.0-0.5","392","604","18","Female","true","true","true","false","""event"",""trial"",""time""
""fullscreenenter"",""5"",""15875""
","
","
","""event"",""trial"",""time""
""fullscreenenter"",""5"",""15875""
","
","373.80000001192093","","49","","","3000","1","","","images/earth.jpg","images/tutrocket1","images/tutrocket2","null","images/tutrocket2","","1","practice","null","1","","",""
"d3-animate-choice","77","399870","0.0-61.0-1.5","392","604","18","Female","true","true","true","false","""event"",""trial"",""time""
""fullscreenenter"",""5"",""15875""
","
","
","""event"",""trial"",""time""
""fullscreenenter"",""5"",""15875""
","
","1068.9000000059605","","50","","","3000","1","1941.300000011921","48","images/tutyellowplanet.jpg","images/tutalien4","images/tutalien3","images/tutrocket2","images/tutalien4","images/t.png","2","practice","true","","common","1","2022-02-05 20:18:20.913"
"two-step-fixation","78","400873","0.0-61.0-2.5","392","604","18","Female","true","true","true","false","""event"",""trial"",""time""
""fullscreenenter"",""5"",""15875""
","
","
","""event"",""trial"",""time""
""fullscreenenter"",""5"",""15875""
","
","","images/earth.jpg","","","","","","","","","","","","","","fixation","","","","","",""
"d3-animate-choice","79","403399","0.0-61.0-0.6","392","604","18","Female","true","true","true","false","""event"",""trial"",""time""
""fullscreenenter"",""5"",""15875""
","
","
","""event"",""trial"",""time""
""fullscreenenter"",""5"",""15875""
","
","521.5","","49","","","3000","1","","","images/earth.jpg","images/tutrocket1","images/tutrocket2","null","images/tutrocket2","","1","practice","null","1","","",""
"d3-animate-choice","80","405972","0.0-61.0-1.6","392","604","18","Female","true","true","true","false","""event"",""trial"",""time""
""fullscreenenter"",""5"",""15875""
","
","
","""event"",""trial"",""time""
""fullscreenenter"",""5"",""15875""
","
","568.2999999821186","","49","","","3000","1","","","images/tutgreenplanet.jpg","images/tutalien2","images/tutalien1","images/tutrocket2","images/tutalien1","images/t.png","2","practice","false","1","rare","1","2022-02-05 20:18:27.015"
"two-step-fixation","81","406977","0.0-61.0-2.6","392","604","18","Female","true","true","true","false","""event"",""trial"",""time""
""fullscreenenter"",""5"",""15875""
","
","
","""event"",""trial"",""time""
""fullscreenenter"",""5"",""15875""
","
","","images/earth.jpg","","","","","","","","","","","","","","fixation","","","","","",""
"d3-animate-choice","82","409330","0.0-61.0-0.7","392","604","18","Female","true","true","true","false","""event"",""trial"",""time""
""fullscreenenter"",""5"",""15875""
","
","
","""event"",""trial"",""time""
""fullscreenenter"",""5"",""15875""
","
","347.2000000178814","","49","","","3000","1","","","images/earth.jpg","images/tutrocket1","images/tutrocket2","null","images/tutrocket2","","1","practice","null","1","","",""
"d3-animate-choice","83","412210","0.0-61.0-1.7","392","604","18","Female","true","true","true","false","""event"",""trial"",""time""
""fullscreenenter"",""5"",""15875""
","
","
","""event"",""trial"",""time""
""fullscreenenter"",""5"",""15875""
","
","871.4000000059605","","49","","","3000","1","","","images/tutgreenplanet.jpg","images/tutalien2","images/tutalien1","images/tutrocket2","images/tutalien1","images/nothing.png","2","practice","false","1","rare","0","2022-02-05 20:18:33.253"
"two-step-fixation","84","413218","0.0-61.0-2.7","392","604","18","Female","true","true","true","false","""event"",""trial"",""time""
""fullscreenenter"",""5"",""15875""
","
","
","""event"",""trial"",""time""
""fullscreenenter"",""5"",""15875""
","
","","images/earth.jpg","","","","","","","","","","","","","","fixation","","","","","",""
"d3-animate-choice","85","415560","0.0-61.0-0.8","392","604","18","Female","true","true","true","false","""event"",""trial"",""time""
""fullscreenenter"",""5"",""15875""
","
","
","""event"",""trial"",""time""
""fullscreenenter"",""5"",""15875""
","
","333.30000001192093","","49","","","3000","1","","","images/earth.jpg","images/tutrocket1","images/tutrocket2","null","images/tutrocket2","","1","practice","null","1","","",""
"d3-animate-choice","86","418708","0.0-61.0-1.8","392","604","18","Female","true","true","true","false","""event"",""trial"",""time""
""fullscreenenter"",""5"",""15875""
","
","
","""event"",""trial"",""time""
""fullscreenenter"",""5"",""15875""
","
","791.3000000119209","","50","","","3000","1","1142.5","48","images/tutyellowplanet.jpg","images/tutalien4","images/tutalien3","images/tutrocket2","images/tutalien4","images/nothing.png","2","practice","true","","common","0","2022-02-05 20:18:39.751"
"two-step-fixation","87","419713","0.0-61.0-2.8","392","604","18","Female","true","true","true","false","""event"",""trial"",""time""
""fullscreenenter"",""5"",""15875""
","
","
","""event"",""trial"",""time""
""fullscreenenter"",""5"",""15875""
","
","","images/earth.jpg","","","","","","","","","","","","","","fixation","","","","","",""
"d3-animate-choice","88","421991","0.0-61.0-0.9","392","604","18","Female","true","true","true","false","""event"",""trial"",""time""
""fullscreenenter"",""5"",""15875""
","
","
","""event"",""trial"",""time""
""fullscreenenter"",""5"",""15875""
","
","273.7000000178814","","48","","","3000","1","","","images/earth.jpg","images/tutrocket1","images/tutrocket2","null","images/tutrocket1","","1","practice","null","2","","",""
"d3-animate-choice","89","424412","0.0-61.0-1.9","392","604","18","Female","true","true","true","false","""event"",""trial"",""time""
""fullscreenenter"",""5"",""15875""
","
","
","""event"",""trial"",""time""
""fullscreenenter"",""5"",""15875""
","
","414.80000001192093","","48","","","3000","1","","","images/tutyellowplanet.jpg","images/tutalien4","images/tutalien3","images/tutrocket1","images/tutalien4","images/nothing.png","2","practice","false","2","rare","0","2022-02-05 20:18:45.456"
"two-step-fixation","90","425420","0.0-61.0-2.9","392","604","18","Female","true","true","true","false","""event"",""trial"",""time""
""fullscreenenter"",""5"",""15875""
","
","
","""event"",""trial"",""time""
""fullscreenenter"",""5"",""15875""
","
","","images/earth.jpg","","","","","","","","","","","","","","fixation","","","","","",""
"d3-animate-choice","91","427463","0.0-61.0-0.10","392","604","18","Female","true","true","true","false","""event"",""trial"",""time""
""fullscreenenter"",""5"",""15875""
","
","
","""event"",""trial"",""time""
""fullscreenenter"",""5"",""15875""
","
","39.5","","48","","","3000","1","","","images/earth.jpg","images/tutrocket1","images/tutrocket2","null","images/tutrocket1","","1","practice","null","2","","",""
"d3-animate-choice","92","430380","0.0-61.0-1.10","392","604","18","Female","true","true","true","false","""event"",""trial"",""time""
""fullscreenenter"",""5"",""15875""
","
","
","""event"",""trial"",""time""
""fullscreenenter"",""5"",""15875""
","
","912.6999999880791","","48","","","3000","1","","","images/tutgreenplanet.jpg","images/tutalien2","images/tutalien1","images/tutrocket1","images/tutalien2","images/nothing.png","2","practice","true","2","common","0","2022-02-05 20:18:51.423"
"two-step-fixation","93","431384","0.0-61.0-2.10","392","604","18","Female","true","true","true","false","""event"",""trial"",""time""
""fullscreenenter"",""5"",""15875""
","
","
","""event"",""trial"",""time""
""fullscreenenter"",""5"",""15875""
","
","","images/earth.jpg","","","","","","","","","","","","","","fixation","","","","","",""
"d3-animate-choice","94","433981","0.0-61.0-0.11","392","604","18","Female","true","true","true","false","""event"",""trial"",""time""
""fullscreenenter"",""5"",""15875""
","
","
","""event"",""trial"",""time""
""fullscreenenter"",""5"",""15875""
","
","591.9000000059605","","48","","","3000","1","","","images/earth.jpg","images/tutrocket1","images/tutrocket2","null","images/tutrocket1","","1","practice","null","2","","",""
"d3-animate-choice","95","436391","0.0-61.0-1.11","392","604","18","Female","true","true","true","false","""event"",""trial"",""time""
""fullscreenenter"",""5"",""15875""
","
","
","""event"",""trial"",""time""
""fullscreenenter"",""5"",""15875""
","
","403.90000000596046","","49","","","3000","1","","","images/tutgreenplanet.jpg","images/tutalien2","images/tutalien1","images/tutrocket1","images/tutalien1","images/t.png","2","practice","true","1","common","1","2022-02-05 20:18:57.434"
"two-step-fixation","96","437399","0.0-61.0-2.11","392","604","18","Female","true","true","true","false","""event"",""trial"",""time""
""fullscreenenter"",""5"",""15875""
","
","
","""event"",""trial"",""time""
""fullscreenenter"",""5"",""15875""
","
","","images/earth.jpg","","","","","","","","","","","","","","fixation","","","","","",""
"d3-animate-choice","97","440140","0.0-61.0-0.12","392","604","18","Female","true","true","true","false","""event"",""trial"",""time""
""fullscreenenter"",""5"",""15875""
","
","
","""event"",""trial"",""time""
""fullscreenenter"",""5"",""15875""
","
","733.6999999880791","","48","","","3000","1","","","images/earth.jpg","images/tutrocket1","images/tutrocket2","null","images/tutrocket1","","1","practice","null","2","","",""
"d3-animate-choice","98","442663","0.0-61.0-1.12","392","604","18","Female","true","true","true","false","""event"",""trial"",""time""
""fullscreenenter"",""5"",""15875""
","
","
","""event"",""trial"",""time""
""fullscreenenter"",""5"",""15875""
","
","518.2000000178814","","49","","","3000","1","","","images/tutgreenplanet.jpg","images/tutalien2","images/tutalien1","images/tutrocket1","images/tutalien1","images/nothing.png","2","practice","true","1","common","0","2022-02-05 20:19:03.706"
"two-step-fixation","99","443666","0.0-61.0-2.12","392","604","18","Female","true","true","true","false","""event"",""trial"",""time""
""fullscreenenter"",""5"",""15875""
","
","
","""event"",""trial"",""time""
""fullscreenenter"",""5"",""15875""
","
","","images/earth.jpg","","","","","","","","","","","","","","fixation","","","","","",""
"d3-animate-choice","100","446173","0.0-61.0-0.13","392","604","18","Female","true","true","true","false","""event"",""trial"",""time""
""fullscreenenter"",""5"",""15875""
","
","
","""event"",""trial"",""time""
""fullscreenenter"",""5"",""15875""
","
","499.90000000596046","","48","","","3000","1","","","images/earth.jpg","images/tutrocket1","images/tutrocket2","null","images/tutrocket1","","1","practice","null","2","","",""
"d3-animate-choice","101","448493","0.0-61.0-1.13","392","604","18","Female","true","true","true","false","""event"",""trial"",""time""
""fullscreenenter"",""5"",""15875""
","
","
","""event"",""trial"",""time""
""fullscreenenter"",""5"",""15875""
","
","312.10000002384186","","48","","","3000","1","","","images/tutgreenplanet.jpg","images/tutalien2","images/tutalien1","images/tutrocket1","images/tutalien2","images/nothing.png","2","practice","true","2","common","0","2022-02-05 20:19:09.536"
"two-step-fixation","102","449501","0.0-61.0-2.13","392","604","18","Female","true","true","true","false","""event"",""trial"",""time""
""fullscreenenter"",""5"",""15875""
","
","
","""event"",""trial"",""time""
""fullscreenenter"",""5"",""15875""
","
","","images/earth.jpg","","","","","","","","","","","","","","fixation","","","","","",""
"d3-animate-choice","103","451863","0.0-61.0-0.14","392","604","18","Female","true","true","true","false","""event"",""trial"",""time""
""fullscreenenter"",""5"",""15875""
","
","
","""event"",""trial"",""time""
""fullscreenenter"",""5"",""15875""
","
","356.19999998807907","","48","","","3000","1","","","images/earth.jpg","images/tutrocket1","images/tutrocket2","null","images/tutrocket1","","1","practice","null","2","","",""
"d3-animate-choice","104","454231","0.0-61.0-1.14","392","604","18","Female","true","true","true","false","""event"",""trial"",""time""
""fullscreenenter"",""5"",""15875""
","
","
","""event"",""trial"",""time""
""fullscreenenter"",""5"",""15875""
","
","363.09999999403954","","48","","","3000","1","","","images/tutgreenplanet.jpg","images/tutalien2","images/tutalien1","images/tutrocket1","images/tutalien2","images/nothing.png","2","practice","true","2","common","0","2022-02-05 20:19:15.274"
"two-step-fixation","105","455236","0.0-61.0-2.14","392","604","18","Female","true","true","true","false","""event"",""trial"",""time""
""fullscreenenter"",""5"",""15875""
","
","
","""event"",""trial"",""time""
""fullscreenenter"",""5"",""15875""
","
","","images/earth.jpg","","","","","","","","","","","","","","fixation","","","","","",""
"d3-animate-choice","106","457613","0.0-61.0-0.15","392","604","18","Female","true","true","true","false","""event"",""trial"",""time""
""fullscreenenter"",""5"",""15875""
","
","
","""event"",""trial"",""time""
""fullscreenenter"",""5"",""15875""
","
","371.40000000596046","","48","","","3000","1","","","images/earth.jpg","images/tutrocket1","images/tutrocket2","null","images/tutrocket1","","1","practice","null","2","","",""
"d3-animate-choice","107","460286","0.0-61.0-1.15","392","604","18","Female","true","true","true","false","""event"",""trial"",""time""
""fullscreenenter"",""5"",""15875""
","
","
","""event"",""trial"",""time""
""fullscreenenter"",""5"",""15875""
","
","669.0999999940395","","49","","","3000","1","","","images/tutgreenplanet.jpg","images/tutalien2","images/tutalien1","images/tutrocket1","images/tutalien1","images/t.png","2","practice","true","1","common","1","2022-02-05 20:19:21.329"
"two-step-fixation","108","461291","0.0-61.0-2.15","392","604","18","Female","true","true","true","false","""event"",""trial"",""time""
""fullscreenenter"",""5"",""15875""
","
","
","""event"",""trial"",""time""
""fullscreenenter"",""5"",""15875""
","
","","images/earth.jpg","","","","","","","","","","","","","","fixation","","","","","",""
"d3-animate-choice","109","463608","0.0-61.0-0.16","392","604","18","Female","true","true","true","false","""event"",""trial"",""time""
""fullscreenenter"",""5"",""15875""
","
","
","""event"",""trial"",""time""
""fullscreenenter"",""5"",""15875""
","
","311.80000001192093","","48","","","3000","1","","","images/earth.jpg","images/tutrocket1","images/tutrocket2","null","images/tutrocket1","","1","practice","null","2","","",""
"d3-animate-choice","110","466325","0.0-61.0-1.16","392","604","18","Female","true","true","true","false","""event"",""trial"",""time""
""fullscreenenter"",""5"",""15875""
","
","
","""event"",""trial"",""time""
""fullscreenenter"",""5"",""15875""
","
","712.7999999821186","","49","","","3000","1","","","images/tutyellowplanet.jpg","images/tutalien4","images/tutalien3","images/tutrocket1","images/tutalien3","images/t.png","2","practice","false","1","rare","1","2022-02-05 20:19:27.368"
"two-step-fixation","111","467330","0.0-61.0-2.16","392","604","18","Female","true","true","true","false","""event"",""trial"",""time""
""fullscreenenter"",""5"",""15875""
","
","
","""event"",""trial"",""time""
""fullscreenenter"",""5"",""15875""
","
","","images/earth.jpg","","","","","","","","","","","","","","fixation","","","","","",""
"d3-animate-choice","112","469656","0.0-61.0-0.17","392","604","18","Female","true","true","true","false","""event"",""trial"",""time""
""fullscreenenter"",""5"",""15875""
","
","
","""event"",""trial"",""time""
""fullscreenenter"",""5"",""15875""
","
","321.59999999403954","","48","","","3000","1","","","images/earth.jpg","images/tutrocket1","images/tutrocket2","null","images/tutrocket1","","1","practice","null","2","","",""
"d3-animate-choice","113","472189","0.0-61.0-1.17","392","604","18","Female","true","true","true","false","""event"",""trial"",""time""
""fullscreenenter"",""5"",""15875""
","
","
","""event"",""trial"",""time""
""fullscreenenter"",""5"",""15875""
","
","528","","49","","","3000","1","","","images/tutgreenplanet.jpg","images/tutalien2","images/tutalien1","images/tutrocket1","images/tutalien1","images/nothing.png","2","practice","true","1","common","0","2022-02-05 20:19:33.232"
"two-step-fixation","114","473194","0.0-61.0-2.17","392","604","18","Female","true","true","true","false","""event"",""trial"",""time""
""fullscreenenter"",""5"",""15875""
","
","
","""event"",""trial"",""time""
""fullscreenenter"",""5"",""15875""
","
","","images/earth.jpg","","","","","","","","","","","","","","fixation","","","","","",""
"d3-animate-choice","115","475542","0.0-61.0-0.18","392","604","18","Female","true","true","true","false","""event"",""trial"",""time""
""fullscreenenter"",""5"",""15875""
","
","
","""event"",""trial"",""time""
""fullscreenenter"",""5"",""15875""
","
","344.2000000178814","","49","","","3000","1","","","images/earth.jpg","images/tutrocket1","images/tutrocket2","null","images/tutrocket2","","1","practice","null","1","","",""
"d3-animate-choice","116","478029","0.0-61.0-1.18","392","604","18","Female","true","true","true","false","""event"",""trial"",""time""
""fullscreenenter"",""5"",""15875""
","
","
","""event"",""trial"",""time""
""fullscreenenter"",""5"",""15875""
","
","481.2000000178814","","48","","","3000","1","","","images/tutyellowplanet.jpg","images/tutalien4","images/tutalien3","images/tutrocket2","images/tutalien4","images/t.png","2","practice","true","2","common","1","2022-02-05 20:19:39.072"
"two-step-fixation","117","479037","0.0-61.0-2.18","392","604","18","Female","true","true","true","false","""event"",""trial"",""time""
""fullscreenenter"",""5"",""15875""
","
","
","""event"",""trial"",""time""
""fullscreenenter"",""5"",""15875""
","
","","images/earth.jpg","","","","","","","","","","","","","","fixation","","","","","",""
"d3-animate-choice","118","481368","0.0-61.0-0.19","392","604","18","Female","true","true","true","false","""event"",""trial"",""time""
""fullscreenenter"",""5"",""15875""
","
","
","""event"",""trial"",""time""
""fullscreenenter"",""5"",""15875""
","
","325","","49","","","3000","1","","","images/earth.jpg","images/tutrocket1","images/tutrocket2","null","images/tutrocket2","","1","practice","null","1","","",""
"d3-animate-choice","119","484658","0.0-61.0-1.19","392","604","18","Female","true","true","true","false","""event"",""trial"",""time""
""fullscreenenter"",""5"",""15875""
","
","
","""event"",""trial"",""time""
""fullscreenenter"",""5"",""15875""
","
","1285.5999999940395","","49","","","3000","1","","","images/tutgreenplanet.jpg","images/tutalien2","images/tutalien1","images/tutrocket2","images/tutalien1","images/nothing.png","2","practice","false","1","rare","0","2022-02-05 20:19:45.701"
"two-step-fixation","120","485664","0.0-61.0-2.19","392","604","18","Female","true","true","true","false","""event"",""trial"",""time""
""fullscreenenter"",""5"",""15875""
","
","
","""event"",""trial"",""time""
""fullscreenenter"",""5"",""15875""
","
","","images/earth.jpg","","","","","","","","","","","","","","fixation","","","","","",""
"d3-instructions","121","488922","0.0-62.0","392","604","18","Female","true","true","true","false","""event"",""trial"",""time""
""fullscreenenter"",""5"",""15875""
","
","
","""event"",""trial"",""time""
""fullscreenenter"",""5"",""15875""
","
","","","","","","","","","","","","","","","","","","","","","",""
"audio-keyboard-response","122","492087","0.0-63.0","392","604","18","Female","true","true","true","false","""event"",""trial"",""time""
""fullscreenenter"",""5"",""15875""
","
","
","""event"",""trial"",""time""
""fullscreenenter"",""5"",""15875""
","
","3163","audio/instructions/treasure_feedback.wav","32","","","","","","","","","","","","","","","","","","",""
"d3-instructions","123","512955","0.0-64.0","392","604","18","Female","true","true","true","false","""event"",""trial"",""time""
""fullscreenenter"",""5"",""15875""
","
","
","""event"",""trial"",""time""
""fullscreenenter"",""5"",""15875""
","
","","","","","","","","","","","","","","","","","","","","","",""
"d3-instructions","124","529540","0.0-65.0","392","604","18","Female","true","true","true","false","""event"",""trial"",""time""
""fullscreenenter"",""5"",""15875""
","
","
","""event"",""trial"",""time""
""fullscreenenter"",""5"",""15875""
","
","","","","","","","","","","","","","","","","","","","","","",""
"d3-instructions","125","553262","0.0-66.0","392","604","18","Female","true","true","true","false","""event"",""trial"",""time""
""fullscreenenter"",""5"",""15875""
","
","
","""event"",""trial"",""time""
""fullscreenenter"",""5"",""15875""
","
","","","","","","","","","","","","","","","","","","","","","",""
"d3-instructions","126","607002","0.0-67.0","392","604","18","Female","true","true","true","false","""event"",""trial"",""time""
""fullscreenenter"",""5"",""15875""
","
","
","""event"",""trial"",""time""
""fullscreenenter"",""5"",""15875""
","
","","","","","","","","","","","","","","","","","","","","","",""
"d3-instructions","127","610740","0.0-68.0","392","604","18","Female","true","true","true","false","""event"",""trial"",""time""
""fullscreenenter"",""5"",""15875""
","
","
","""event"",""trial"",""time""
""fullscreenenter"",""5"",""15875""
","
","","","","","","","","","","","","","","","","","","","","","",""
"instructions-quiz","128","614612","0.0-69.0","392","604","18","Female","true","true","true","false","""event"",""trial"",""time""
""fullscreenenter"",""5"",""15875""
","
","
","""event"",""trial"",""time""
""fullscreenenter"",""5"",""15875""
","
","3868.4000000059605","audio/quiz/Q1_Prompt.wav","","1","","","","","","","","","","","","","","","","","",""
"audio-keyboard-response","129","622322","0.0-70.0","392","604","18","Female","true","true","true","false","""event"",""trial"",""time""
""fullscreenenter"",""5"",""15875""
","
","
","""event"",""trial"",""time""
""fullscreenenter"",""5"",""15875""
","
","7707","audio/quiz/Q1_Correct.wav","32","","","","","","","","","","","","","","","","","","",""
"instructions-quiz","130","626949","0.0-71.0","392","604","18","Female","true","true","true","false","""event"",""trial"",""time""
""fullscreenenter"",""5"",""15875""
","
","
","""event"",""trial"",""time""
""fullscreenenter"",""5"",""15875""
","
","4625.0999999940395","audio/quiz/Q2_Prompt.wav","","0","","","","","","","","","","","","","","","","","",""
"audio-keyboard-response","131","630586","0.0-72.0","392","604","18","Female","true","true","true","false","""event"",""trial"",""time""
""fullscreenenter"",""5"",""15875""
","
","
","""event"",""trial"",""time""
""fullscreenenter"",""5"",""15875""
","
","3637","audio/quiz/Q2_Correct.wav","32","","","","","","","","","","","","","","","","","","",""
"instructions-quiz","132","633221","0.0-73.0","392","604","18","Female","true","true","true","false","""event"",""trial"",""time""
""fullscreenenter"",""5"",""15875""
","
","
","""event"",""trial"",""time""
""fullscreenenter"",""5"",""15875""
","
","2632.7000000178814","audio/quiz/Q3_Prompt.wav","","1","","","","","","","","","","","","","","","","","",""
"audio-keyboard-response","133","633926","0.0-74.0","392","604","18","Female","true","true","true","false","""event"",""trial"",""time""
""fullscreenenter"",""5"",""15875""
","
","
","""event"",""trial"",""time""
""fullscreenenter"",""5"",""15875""
","
","704","audio/quiz/Q3_Correct.wav","32","","","","","","","","","","","","","","","","","","",""
"d3-instructions","134","638256","0.0-75.0","392","604","18","Female","true","true","true","false","""event"",""trial"",""time""
""fullscreenenter"",""5"",""15875""
","
","
","""event"",""trial"",""time""
""fullscreenenter"",""5"",""15875""
","
","","","","","","","","","","","","","","","","","","","","","",""
"d3-animate-choice","135","641310","0.0-76.0-0.0","392","604","18","Female","true","true","true","false","""event"",""trial"",""time""
""fullscreenenter"",""5"",""15875""
","
","
","""event"",""trial"",""time""
""fullscreenenter"",""5"",""15875""
","
","1046.7999999821186","","49","","","3000","1","","","images/earth.jpg","images/rocket2","images/rocket1","null","images/rocket1","","1","real","null","1","","",""
"d3-animate-choice","136","643845","0.0-76.0-1.0","392","604","18","Female","true","true","true","false","""event"",""trial"",""time""
""fullscreenenter"",""5"",""15875""
","
","
","""event"",""trial"",""time""
""fullscreenenter"",""5"",""15875""
","
","531.9000000059605","","49","","","3000","1","","","images/purpleplanet.jpg","images/alien4","images/alien3","images/rocket1","images/alien3","images/t.png","2","real","false","1","rare","1","2022-02-05 20:22:24.889"
"two-step-fixation","137","644850","0.0-76.0-2.0","392","604","18","Female","true","true","true","false","""event"",""trial"",""time""
""fullscreenenter"",""5"",""15875""
","
","
","""event"",""trial"",""time""
""fullscreenenter"",""5"",""15875""
","
","","images/earth.jpg","","","","","","","","","","","","","","fixation","","","","","",""
"d3-animate-choice","138","647176","0.0-76.0-0.1","392","604","18","Female","true","true","true","false","""event"",""trial"",""time""
""fullscreenenter"",""5"",""15875""
","
","
","""event"",""trial"",""time""
""fullscreenenter"",""5"",""15875""
","
","315.7999999821186","","49","","","3000","1","","","images/earth.jpg","images/rocket2","images/rocket1","null","images/rocket1","","1","real","null","1","","",""
"d3-animate-choice","139","649647","0.0-76.0-1.1","392","604","18","Female","true","true","true","false","""event"",""trial"",""time""
""fullscreenenter"",""5"",""15875""
","
","
","""event"",""trial"",""time""
""fullscreenenter"",""5"",""15875""
","
","463.80000001192093","","49","","","3000","1","","","images/redplanet1.jpg","images/alien2","images/alien1","images/rocket1","images/alien1","images/nothing.png","2","real","true","1","common","0","2022-02-05 20:22:30.690"
"two-step-fixation","140","650653","0.0-76.0-2.1","392","604","18","Female","true","true","true","false","""event"",""trial"",""time""
""fullscreenenter"",""5"",""15875""
","
","
","""event"",""trial"",""time""
""fullscreenenter"",""5"",""15875""
","
","","images/earth.jpg","","","","","","","","","","","","","","fixation","","","","","",""
"d3-animate-choice","141","653145","0.0-76.0-0.2","392","604","18","Female","true","true","true","false","""event"",""trial"",""time""
""fullscreenenter"",""5"",""15875""
","
","
","""event"",""trial"",""time""
""fullscreenenter"",""5"",""15875""
","
","484.10000002384186","","49","","","3000","1","","","images/earth.jpg","images/rocket2","images/rocket1","null","images/rocket1","","1","real","null","1","","",""
"d3-animate-choice","142","655674","0.0-76.0-1.2","392","604","18","Female","true","true","true","false","""event"",""trial"",""time""
""fullscreenenter"",""5"",""15875""
","
","
","""event"",""trial"",""time""
""fullscreenenter"",""5"",""15875""
","
","521","","49","","","3000","1","","","images/purpleplanet.jpg","images/alien4","images/alien3","images/rocket1","images/alien3","images/nothing.png","2","real","false","1","rare","0","2022-02-05 20:22:36.718"
"two-step-fixation","143","656679","0.0-76.0-2.2","392","604","18","Female","true","true","true","false","""event"",""trial"",""time""
""fullscreenenter"",""5"",""15875""
","
","
","""event"",""trial"",""time""
""fullscreenenter"",""5"",""15875""
","
","","images/earth.jpg","","","","","","","","","","","","","","fixation","","","","","",""
"d3-animate-choice","144","658965","0.0-76.0-0.3","392","604","18","Female","true","true","true","false","""event"",""trial"",""time""
""fullscreenenter"",""5"",""15875""
","
","
","""event"",""trial"",""time""
""fullscreenenter"",""5"",""15875""
","
","281.2999999821186","","48","","","3000","1","","","images/earth.jpg","images/rocket2","images/rocket1","null","images/rocket2","","1","real","null","2","","",""
"d3-animate-choice","145","661363","0.0-76.0-1.3","392","604","18","Female","true","true","true","false","""event"",""trial"",""time""
""fullscreenenter"",""5"",""15875""
","
","
","""event"",""trial"",""time""
""fullscreenenter"",""5"",""15875""
","
","392.09999999403954","","48","","","3000","1","","","images/purpleplanet.jpg","images/alien4","images/alien3","images/rocket2","images/alien4","images/t.png","2","real","true","2","common","1","2022-02-05 20:22:42.407"
"two-step-fixation","146","662369","0.0-76.0-2.3","392","604","18","Female","true","true","true","false","""event"",""trial"",""time""
""fullscreenenter"",""5"",""15875""
","
","
","""event"",""trial"",""time""
""fullscreenenter"",""5"",""15875""
","
","","images/earth.jpg","","","","","","","","","","","","","","fixation","","","","","",""
"d3-animate-choice","147","664797","0.0-76.0-0.4","392","604","18","Female","true","true","true","false","""event"",""trial"",""time""
""fullscreenenter"",""5"",""15875""
","
","
","""event"",""trial"",""time""
""fullscreenenter"",""5"",""15875""
","
","421.30000001192093","","48","","","3000","1","","","images/earth.jpg","images/rocket2","images/rocket1","null","images/rocket2","","1","real","null","2","","",""
"d3-animate-choice","148","667238","0.0-76.0-1.4","392","604","18","Female","true","true","true","false","""event"",""trial"",""time""
""fullscreenenter"",""5"",""15875""
","
","
","""event"",""trial"",""time""
""fullscreenenter"",""5"",""15875""
","
","435.7999999821186","","48","","","3000","1","","","images/purpleplanet.jpg","images/alien4","images/alien3","images/rocket2","images/alien4","images/t.png","2","real","true","2","common","1","2022-02-05 20:22:48.281"
"two-step-fixation","149","668244","0.0-76.0-2.4","392","604","18","Female","true","true","true","false","""event"",""trial"",""time""
""fullscreenenter"",""5"",""15875""
","
","
","""event"",""trial"",""time""
""fullscreenenter"",""5"",""15875""
","
","","images/earth.jpg","","","","","","","","","","","","","","fixation","","","","","",""
"d3-animate-choice","150","670616","0.0-76.0-0.5","392","604","18","Female","true","true","true","false","""event"",""trial"",""time""
""fullscreenenter"",""5"",""15875""
","
","
","""event"",""trial"",""time""
""fullscreenenter"",""5"",""15875""
","
","365.19999998807907","","48","","","3000","1","","","images/earth.jpg","images/rocket2","images/rocket1","null","images/rocket2","","1","real","null","2","","",""
"d3-animate-choice","151","672981","0.0-76.0-1.5","392","604","18","Female","true","true","true","false","""event"",""trial"",""time""
""fullscreenenter"",""5"",""15875""
","
","
","""event"",""trial"",""time""
""fullscreenenter"",""5"",""15875""
","
","359.2000000178814","","48","","","3000","1","","","images/redplanet1.jpg","images/alien2","images/alien1","images/rocket2","images/alien2","images/t.png","2","real","false","2","rare","1","2022-02-05 20:22:54.024"
"two-step-fixation","152","673989","0.0-76.0-2.5","392","604","18","Female","true","true","true","false","""event"",""trial"",""time""
""fullscreenenter"",""5"",""15875""
","
","
","""event"",""trial"",""time""
""fullscreenenter"",""5"",""15875""
","
","","images/earth.jpg","","","","","","","","","","","","","","fixation","","","","","",""
"d3-animate-choice","153","676304","0.0-76.0-0.6","392","604","18","Female","true","true","true","false","""event"",""trial"",""time""
""fullscreenenter"",""5"",""15875""
","
","
","""event"",""trial"",""time""
""fullscreenenter"",""5"",""15875""
","
","308.80000001192093","","48","","","3000","1","","","images/earth.jpg","images/rocket2","images/rocket1","null","images/rocket2","","1","real","null","2","","",""
"d3-animate-choice","154","678761","0.0-76.0-1.6","392","604","18","Female","true","true","true","false","""event"",""trial"",""time""
""fullscreenenter"",""5"",""15875""
","
","
","""event"",""trial"",""time""
""fullscreenenter"",""5"",""15875""
","
","451.10000002384186","","48","","","3000","1","","","images/purpleplanet.jpg","images/alien4","images/alien3","images/rocket2","images/alien4","images/t.png","2","real","true","2","common","1","2022-02-05 20:22:59.804"
"two-step-fixation","155","679765","0.0-76.0-2.6","392","604","18","Female","true","true","true","false","""event"",""trial"",""time""
""fullscreenenter"",""5"",""15875""
","
","
","""event"",""trial"",""time""
""fullscreenenter"",""5"",""15875""
","
","","images/earth.jpg","","","","","","","","","","","","","","fixation","","","","","",""
"d3-animate-choice","156","682032","0.0-76.0-0.7","392","604","18","Female","true","true","true","false","""event"",""trial"",""time""
""fullscreenenter"",""5"",""15875""
","
","
","""event"",""trial"",""time""
""fullscreenenter"",""5"",""15875""
","
","260","","48","","","3000","1","","","images/earth.jpg","images/rocket2","images/rocket1","null","images/rocket2","","1","real","null","2","","",""
"d3-animate-choice","157","684411","0.0-76.0-1.7","392","604","18","Female","true","true","true","false","""event"",""trial"",""time""
""fullscreenenter"",""5"",""15875""
","
","
","""event"",""trial"",""time""
""fullscreenenter"",""5"",""15875""
","
","368.90000000596046","","48","","","3000","1","","","images/purpleplanet.jpg","images/alien4","images/alien3","images/rocket2","images/alien4","images/t.png","2","real","true","2","common","1","2022-02-05 20:23:05.454"
"two-step-fixation","158","685417","0.0-76.0-2.7","392","604","18","Female","true","true","true","false","""event"",""trial"",""time""
""fullscreenenter"",""5"",""15875""
","
","
","""event"",""trial"",""time""
""fullscreenenter"",""5"",""15875""
","
","","images/earth.jpg","","","","","","","","","","","","","","fixation","","","","","",""
"d3-animate-choice","159","687643","0.0-76.0-0.8","392","604","18","Female","true","true","true","false","""event"",""trial"",""time""
""fullscreenenter"",""5"",""15875""
","
","
","""event"",""trial"",""time""
""fullscreenenter"",""5"",""15875""
","
","219.69999998807907","","48","","","3000","1","","","images/earth.jpg","images/rocket2","images/rocket1","null","images/rocket2","","1","real","null","2","","",""
"d3-animate-choice","160","690123","0.0-76.0-1.8","392","604","18","Female","true","true","true","false","""event"",""trial"",""time""
""fullscreenenter"",""5"",""15875""
","
","
","""event"",""trial"",""time""
""fullscreenenter"",""5"",""15875""
","
","475.09999999403954","","49","","","3000","1","","","images/redplanet1.jpg","images/alien2","images/alien1","images/rocket2","images/alien1","images/nothing.png","2","real","false","1","rare","0","2022-02-05 20:23:11.166"
"two-step-fixation","161","691126","0.0-76.0-2.8","392","604","18","Female","true","true","true","false","""event"",""trial"",""time""
""fullscreenenter"",""5"",""15875""
","
","
","""event"",""trial"",""time""
""fullscreenenter"",""5"",""15875""
","
","","images/earth.jpg","","","","","","","","","","","","","","fixation","","","","","",""
"d3-animate-choice","162","693408","0.0-76.0-0.9","392","604","18","Female","true","true","true","false","""event"",""trial"",""time""
""fullscreenenter"",""5"",""15875""
","
","
","""event"",""trial"",""time""
""fullscreenenter"",""5"",""15875""
","
","277","","48","","","3000","1","","","images/earth.jpg","images/rocket2","images/rocket1","null","images/rocket2","","1","real","null","2","","",""
"d3-animate-choice","163","695838","0.0-76.0-1.9","392","604","18","Female","true","true","true","false","""event"",""trial"",""time""
""fullscreenenter"",""5"",""15875""
","
","
","""event"",""trial"",""time""
""fullscreenenter"",""5"",""15875""
","
","421","","48","","","3000","1","","","images/redplanet1.jpg","images/alien2","images/alien1","images/rocket2","images/alien2","images/nothing.png","2","real","false","2","rare","0","2022-02-05 20:23:16.881"
"two-step-fixation","164","696845","0.0-76.0-2.9","392","604","18","Female","true","true","true","false","""event"",""trial"",""time""
""fullscreenenter"",""5"",""15875""
","
","
","""event"",""trial"",""time""
""fullscreenenter"",""5"",""15875""
","
","","images/earth.jpg","","","","","","","","","","","","","","fixation","","","","","",""
"d3-animate-choice","165","699152","0.0-76.0-0.10","392","604","18","Female","true","true","true","false","""event"",""trial"",""time""
""fullscreenenter"",""5"",""15875""
","
","
","""event"",""trial"",""time""
""fullscreenenter"",""5"",""15875""
","
","298.7000000178814","","48","","","3000","1","","","images/earth.jpg","images/rocket2","images/rocket1","null","images/rocket2","","1","real","null","2","","",""
"d3-animate-choice","166","701595","0.0-76.0-1.10","392","604","18","Female","true","true","true","false","""event"",""trial"",""time""
""fullscreenenter"",""5"",""15875""
","
","
","""event"",""trial"",""time""
""fullscreenenter"",""5"",""15875""
","
","436.59999999403954","","48","","","3000","1","","","images/purpleplanet.jpg","images/alien4","images/alien3","images/rocket2","images/alien4","images/t.png","2","real","true","2","common","1","2022-02-05 20:23:22.638"
"two-step-fixation","167","702603","0.0-76.0-2.10","392","604","18","Female","true","true","true","false","""event"",""trial"",""time""
""fullscreenenter"",""5"",""15875""
","
","
","""event"",""trial"",""time""
""fullscreenenter"",""5"",""15875""
","
","","images/earth.jpg","","","","","","","","","","","","","","fixation","","","","","",""
"d3-animate-choice","168","705014","0.0-76.0-0.11","392","604","18","Female","true","true","true","false","""event"",""trial"",""time""
""fullscreenenter"",""5"",""15875""
","
","
","""event"",""trial"",""time""
""fullscreenenter"",""5"",""15875""
","
","405","","48","","","3000","1","","","images/earth.jpg","images/rocket2","images/rocket1","null","images/rocket2","","1","real","null","2","","",""
"d3-animate-choice","169","707952","0.0-76.0-1.11","392","604","18","Female","true","true","true","false","""event"",""trial"",""time""
""fullscreenenter"",""5"",""15875""
","
","
","""event"",""trial"",""time""
""fullscreenenter"",""5"",""15875""
","
","929.7000000178814","","49","","","3000","1","","","images/redplanet1.jpg","images/alien2","images/alien1","images/rocket2","images/alien1","images/nothing.png","2","real","false","1","rare","0","2022-02-05 20:23:28.995"
"two-step-fixation","170","708960","0.0-76.0-2.11","392","604","18","Female","true","true","true","false","""event"",""trial"",""time""
""fullscreenenter"",""5"",""15875""
","
","
","""event"",""trial"",""time""
""fullscreenenter"",""5"",""15875""
","
","","images/earth.jpg","","","","","","","","","","","","","","fixation","","","","","",""
"d3-animate-choice","171","711174","0.0-76.0-0.12","392","604","18","Female","true","true","true","false","""event"",""trial"",""time""
""fullscreenenter"",""5"",""15875""
","
","
","""event"",""trial"",""time""
""fullscreenenter"",""5"",""15875""
","
","208.90000000596046","","48","","","3000","1","","","images/earth.jpg","images/rocket2","images/rocket1","null","images/rocket2","","1","real","null","2","","",""
"d3-animate-choice","172","713711","0.0-76.0-1.12","392","604","18","Female","true","true","true","false","""event"",""trial"",""time""
""fullscreenenter"",""5"",""15875""
","
","
","""event"",""trial"",""time""
""fullscreenenter"",""5"",""15875""
","
","530.2999999821186","","48","","","3000","1","","","images/purpleplanet.jpg","images/alien4","images/alien3","images/rocket2","images/alien4","images/nothing.png","2","real","true","2","common","0","2022-02-05 20:23:34.754"
"two-step-fixation","173","714714","0.0-76.0-2.12","392","604","18","Female","true","true","true","false","""event"",""trial"",""time""
""fullscreenenter"",""5"",""15875""
","
","
","""event"",""trial"",""time""
""fullscreenenter"",""5"",""15875""
","
","","images/earth.jpg","","","","","","","","","","","","","","fixation","","","","","",""
"d3-animate-choice","174","717278","0.0-76.0-0.13","392","604","18","Female","true","true","true","false","""event"",""trial"",""time""
""fullscreenenter"",""5"",""15875""
","
","
","""event"",""trial"",""time""
""fullscreenenter"",""5"",""15875""
","
","558.8000000119209","","48","","","3000","1","","","images/earth.jpg","images/rocket2","images/rocket1","null","images/rocket2","","1","real","null","2","","",""
"d3-animate-choice","175","719727","0.0-76.0-1.13","392","604","18","Female","true","true","true","false","""event"",""trial"",""time""
""fullscreenenter"",""5"",""15875""
","
","
","""event"",""trial"",""time""
""fullscreenenter"",""5"",""15875""
","
","445.2999999821186","","48","","","3000","1","","","images/purpleplanet.jpg","images/alien4","images/alien3","images/rocket2","images/alien4","images/t.png","2","real","true","2","common","1","2022-02-05 20:23:40.770"
"two-step-fixation","176","720731","0.0-76.0-2.13","392","604","18","Female","true","true","true","false","""event"",""trial"",""time""
""fullscreenenter"",""5"",""15875""
","
","
","""event"",""trial"",""time""
""fullscreenenter"",""5"",""15875""
","
","","images/earth.jpg","","","","","","","","","","","","","","fixation","","","","","",""
"d3-animate-choice","177","723063","0.0-76.0-0.14","392","604","18","Female","true","true","true","false","""event"",""trial"",""time""
""fullscreenenter"",""5"",""15875""
","
","
","""event"",""trial"",""time""
""fullscreenenter"",""5"",""15875""
","
","328.5","","48","","","3000","1","","","images/earth.jpg","images/rocket2","images/rocket1","null","images/rocket2","","1","real","null","2","","",""
"d3-animate-choice","178","725472","0.0-76.0-1.14","392","604","18","Female","true","true","true","false","""event"",""trial"",""time""
""fullscreenenter"",""5"",""15875""
","
","
","""event"",""trial"",""time""
""fullscreenenter"",""5"",""15875""
","
","400.80000001192093","","48","","","3000","1","","","images/purpleplanet.jpg","images/alien4","images/alien3","images/rocket2","images/alien4","images/t.png","2","real","true","2","common","1","2022-02-05 20:23:46.515"
"two-step-fixation","179","726479","0.0-76.0-2.14","392","604","18","Female","true","true","true","false","""event"",""trial"",""time""
""fullscreenenter"",""5"",""15875""
","
","
","""event"",""trial"",""time""
""fullscreenenter"",""5"",""15875""
","
","","images/earth.jpg","","","","","","","","","","","","","","fixation","","","","","",""
"d3-animate-choice","180","728784","0.0-76.0-0.15","392","604","18","Female","true","true","true","false","""event"",""trial"",""time""
""fullscreenenter"",""5"",""15875""
","
","
","""event"",""trial"",""time""
""fullscreenenter"",""5"",""15875""
","
","302","","48","","","3000","1","","","images/earth.jpg","images/rocket2","images/rocket1","null","images/rocket2","","1","real","null","2","","",""
"d3-animate-choice","181","731386","0.0-76.0-1.15","392","604","18","Female","true","true","true","false","""event"",""trial"",""time""
""fullscreenenter"",""5"",""15875""
","
","
","""event"",""trial"",""time""
""fullscreenenter"",""5"",""15875""
","
","595.7000000178814","","48","","","3000","1","","","images/redplanet1.jpg","images/alien2","images/alien1","images/rocket2","images/alien2","images/t.png","2","real","false","2","rare","1","2022-02-05 20:23:52.429"
"two-step-fixation","182","732394","0.0-76.0-2.15","392","604","18","Female","true","true","true","false","""event"",""trial"",""time""
""fullscreenenter"",""5"",""15875""
","
","
","""event"",""trial"",""time""
""fullscreenenter"",""5"",""15875""
","
","","images/earth.jpg","","","","","","","","","","","","","","fixation","","","","","",""
"d3-animate-choice","183","734573","0.0-76.0-0.16","392","604","18","Female","true","true","true","false","""event"",""trial"",""time""
""fullscreenenter"",""5"",""15875""
","
","
","""event"",""trial"",""time""
""fullscreenenter"",""5"",""15875""
","
","173.60000002384186","","48","","","3000","1","","","images/earth.jpg","images/rocket2","images/rocket1","null","images/rocket2","","1","real","null","2","","",""
"d3-animate-choice","184","737021","0.0-76.0-1.16","392","604","18","Female","true","true","true","false","""event"",""trial"",""time""
""fullscreenenter"",""5"",""15875""
","
","
","""event"",""trial"",""time""
""fullscreenenter"",""5"",""15875""
","
","444.40000000596046","","48","","","3000","1","","","images/purpleplanet.jpg","images/alien4","images/alien3","images/rocket2","images/alien4","images/nothing.png","2","real","true","2","common","0","2022-02-05 20:23:58.064"
"two-step-fixation","185","738026","0.0-76.0-2.16","392","604","18","Female","true","true","true","false","""event"",""trial"",""time""
""fullscreenenter"",""5"",""15875""
","
","
","""event"",""trial"",""time""
""fullscreenenter"",""5"",""15875""
","
","","images/earth.jpg","","","","","","","","","","","","","","fixation","","","","","",""
"d3-animate-choice","186","740252","0.0-76.0-0.17","392","604","18","Female","true","true","true","false","""event"",""trial"",""time""
""fullscreenenter"",""5"",""15875""
","
","
","""event"",""trial"",""time""
""fullscreenenter"",""5"",""15875""
","
","221.30000001192093","","48","","","3000","1","","","images/earth.jpg","images/rocket2","images/rocket1","null","images/rocket2","","1","real","null","2","","",""
"d3-animate-choice","187","742533","0.0-76.0-1.17","392","604","18","Female","true","true","true","false","""event"",""trial"",""time""
""fullscreenenter"",""5"",""15875""
","
","
","""event"",""trial"",""time""
""fullscreenenter"",""5"",""15875""
","
","276.7000000178814","","48","","","3000","1","","","images/redplanet1.jpg","images/alien2","images/alien1","images/rocket2","images/alien2","images/t.png","2","real","false","2","rare","1","2022-02-05 20:24:03.576"
"two-step-fixation","188","743537","0.0-76.0-2.17","392","604","18","Female","true","true","true","false","""event"",""trial"",""time""
""fullscreenenter"",""5"",""15875""
","
","
","""event"",""trial"",""time""
""fullscreenenter"",""5"",""15875""
","
","","images/earth.jpg","","","","","","","","","","","","","","fixation","","","","","",""
"d3-animate-choice","189","745925","0.0-76.0-0.18","392","604","18","Female","true","true","true","false","""event"",""trial"",""time""
""fullscreenenter"",""5"",""15875""
","
","
","""event"",""trial"",""time""
""fullscreenenter"",""5"",""15875""
","
","381.09999999403954","","49","","","3000","1","","","images/earth.jpg","images/rocket2","images/rocket1","null","images/rocket1","","1","real","null","1","","",""
"d3-animate-choice","190","748352","0.0-76.0-1.18","392","604","18","Female","true","true","true","false","""event"",""trial"",""time""
""fullscreenenter"",""5"",""15875""
","
","
","""event"",""trial"",""time""
""fullscreenenter"",""5"",""15875""
","
","423.30000001192093","","48","","","3000","1","","","images/redplanet1.jpg","images/alien2","images/alien1","images/rocket1","images/alien2","images/t.png","2","real","true","2","common","1","2022-02-05 20:24:09.396"
"two-step-fixation","191","749356","0.0-76.0-2.18","392","604","18","Female","true","true","true","false","""event"",""trial"",""time""
""fullscreenenter"",""5"",""15875""
","
","
","""event"",""trial"",""time""
""fullscreenenter"",""5"",""15875""
","
","","images/earth.jpg","","","","","","","","","","","","","","fixation","","","","","",""
"d3-animate-choice","192","751877","0.0-76.0-0.19","392","604","18","Female","true","true","true","false","""event"",""trial"",""time""
""fullscreenenter"",""5"",""15875""
","
","
","""event"",""trial"",""time""
""fullscreenenter"",""5"",""15875""
","
","515.6999999880791","","49","","","3000","1","","","images/earth.jpg","images/rocket2","images/rocket1","null","images/rocket1","","1","real","null","1","","",""
"d3-animate-choice","193","754219","0.0-76.0-1.19","392","604","18","Female","true","true","true","false","""event"",""trial"",""time""
""fullscreenenter"",""5"",""15875""
","
","
","""event"",""trial"",""time""
""fullscreenenter"",""5"",""15875""
","
","335.90000000596046","","48","","","3000","1","","","images/redplanet1.jpg","images/alien2","images/alien1","images/rocket1","images/alien2","images/t.png","2","real","true","2","common","1","2022-02-05 20:24:15.262"
"two-step-fixation","194","755222","0.0-76.0-2.19","392","604","18","Female","true","true","true","false","""event"",""trial"",""time""
""fullscreenenter"",""5"",""15875""
","
","
","""event"",""trial"",""time""
""fullscreenenter"",""5"",""15875""
","
","","images/earth.jpg","","","","","","","","","","","","","","fixation","","","","","",""
"d3-animate-choice","195","757939","0.0-76.0-0.20","392","604","18","Female","true","true","true","false","""event"",""trial"",""time""
""fullscreenenter"",""5"",""15875""
","
","
","""event"",""trial"",""time""
""fullscreenenter"",""5"",""15875""
","
","712.7999999821186","","49","","","3000","1","2607.5","48","images/earth.jpg","images/rocket2","images/rocket1","null","images/rocket1","","1","real","null","1","","",""
"d3-animate-choice","196","761058","0.0-76.0-1.20","392","604","18","Female","true","true","true","false","""event"",""trial"",""time""
""fullscreenenter"",""5"",""15875""
","
","
","""event"",""trial"",""time""
""fullscreenenter"",""5"",""15875""
","
","1115.5","","48","","","3000","1","","","images/purpleplanet.jpg","images/alien4","images/alien3","images/rocket1","images/alien4","images/t.png","2","real","false","2","rare","1","2022-02-05 20:24:22.102"
"two-step-fixation","197","762064","0.0-76.0-2.20","392","604","18","Female","true","true","true","false","""event"",""trial"",""time""
""fullscreenenter"",""5"",""15875""
","
","
","""event"",""trial"",""time""
""fullscreenenter"",""5"",""15875""
","
","","images/earth.jpg","","","","","","","","","","","","","","fixation","","","","","",""
"d3-animate-choice","198","764402","0.0-76.0-0.21","392","604","18","Female","true","true","true","false","""event"",""trial"",""time""
""fullscreenenter"",""5"",""15875""
","
","
","""event"",""trial"",""time""
""fullscreenenter"",""5"",""15875""
","
","333.5","","49","","","3000","1","","","images/earth.jpg","images/rocket2","images/rocket1","null","images/rocket1","","1","real","null","1","","",""
"d3-animate-choice","199","766963","0.0-76.0-1.21","392","604","18","Female","true","true","true","false","""event"",""trial"",""time""
""fullscreenenter"",""5"",""15875""
","
","
","""event"",""trial"",""time""
""fullscreenenter"",""5"",""15875""
","
","557.1999999880791","","48","","","3000","1","","","images/redplanet1.jpg","images/alien2","images/alien1","images/rocket1","images/alien2","images/nothing.png","2","real","true","2","common","0","2022-02-05 20:24:28.006"
"two-step-fixation","200","767966","0.0-76.0-2.21","392","604","18","Female","true","true","true","false","""event"",""trial"",""time""
""fullscreenenter"",""5"",""15875""
","
","
","""event"",""trial"",""time""
""fullscreenenter"",""5"",""15875""
","
","","images/earth.jpg","","","","","","","","","","","","","","fixation","","","","","",""
"d3-animate-choice","201","770283","0.0-76.0-0.22","392","604","18","Female","true","true","true","false","""event"",""trial"",""time""
""fullscreenenter"",""5"",""15875""
","
","
","""event"",""trial"",""time""
""fullscreenenter"",""5"",""15875""
","
","311.40000000596046","","48","","","3000","1","","","images/earth.jpg","images/rocket2","images/rocket1","null","images/rocket2","","1","real","null","2","","",""
"d3-animate-choice","202","772473","0.0-76.0-1.22","392","604","18","Female","true","true","true","false","""event"",""trial"",""time""
""fullscreenenter"",""5"",""15875""
","
","
","""event"",""trial"",""time""
""fullscreenenter"",""5"",""15875""
","
","182.90000000596046","","48","","","3000","1","","","images/purpleplanet.jpg","images/alien4","images/alien3","images/rocket2","images/alien4","images/t.png","2","real","true","2","common","1","2022-02-05 20:24:33.516"
"two-step-fixation","203","773478","0.0-76.0-2.22","392","604","18","Female","true","true","true","false","""event"",""trial"",""time""
""fullscreenenter"",""5"",""15875""
","
","
","""event"",""trial"",""time""
""fullscreenenter"",""5"",""15875""
","
","","images/earth.jpg","","","","","","","","","","","","","","fixation","","","","","",""
"d3-animate-choice","204","775584","0.0-76.0-0.23","392","604","18","Female","true","true","true","false","""event"",""trial"",""time""
""fullscreenenter"",""5"",""15875""
","
","
","""event"",""trial"",""time""
""fullscreenenter"",""5"",""15875""
","
","101.5","","48","","","3000","1","","","images/earth.jpg","images/rocket2","images/rocket1","null","images/rocket2","","1","real","null","2","","",""
"d3-animate-choice","205","778216","0.0-76.0-1.23","392","604","18","Female","true","true","true","false","""event"",""trial"",""time""
""fullscreenenter"",""5"",""15875""
","
","
","""event"",""trial"",""time""
""fullscreenenter"",""5"",""15875""
","
","627.0999999940395","","48","","","3000","1","","","images/purpleplanet.jpg","images/alien4","images/alien3","images/rocket2","images/alien4","images/t.png","2","real","true","2","common","1","2022-02-05 20:24:39.259"
"two-step-fixation","206","779219","0.0-76.0-2.23","392","604","18","Female","true","true","true","false","""event"",""trial"",""time""
""fullscreenenter"",""5"",""15875""
","
","
","""event"",""trial"",""time""
""fullscreenenter"",""5"",""15875""
","
","","images/earth.jpg","","","","","","","","","","","","","","fixation","","","","","",""
"d3-animate-choice","207","781540","0.0-76.0-0.24","392","604","18","Female","true","true","true","false","""event"",""trial"",""time""
""fullscreenenter"",""5"",""15875""
","
","
","""event"",""trial"",""time""
""fullscreenenter"",""5"",""15875""
","
","317.5","","48","","","3000","1","","","images/earth.jpg","images/rocket2","images/rocket1","null","images/rocket2","","1","real","null","2","","",""
"d3-animate-choice","208","784352","0.0-76.0-1.24","392","604","18","Female","true","true","true","false","""event"",""trial"",""time""
""fullscreenenter"",""5"",""15875""
","
","
","""event"",""trial"",""time""
""fullscreenenter"",""5"",""15875""
","
","807","","48","","","3000","1","","","images/purpleplanet.jpg","images/alien4","images/alien3","images/rocket2","images/alien4","images/nothing.png","2","real","true","2","common","0","2022-02-05 20:24:45.395"
"two-step-fixation","209","785355","0.0-76.0-2.24","392","604","18","Female","true","true","true","false","""event"",""trial"",""time""
""fullscreenenter"",""5"",""15875""
","
","
","""event"",""trial"",""time""
""fullscreenenter"",""5"",""15875""
","
","","images/earth.jpg","","","","","","","","","","","","","","fixation","","","","","",""
"d3-animate-choice","210","787647","0.0-76.0-0.25","392","604","18","Female","true","true","true","false","""event"",""trial"",""time""
""fullscreenenter"",""5"",""15875""
","
","
","""event"",""trial"",""time""
""fullscreenenter"",""5"",""15875""
","
","286.5","","48","","","3000","1","","","images/earth.jpg","images/rocket2","images/rocket1","null","images/rocket2","","1","real","null","2","","",""
"d3-animate-choice","211","790086","0.0-76.0-1.25","392","604","18","Female","true","true","true","false","""event"",""trial"",""time""
""fullscreenenter"",""5"",""15875""
","
","
","""event"",""trial"",""time""
""fullscreenenter"",""5"",""15875""
","
","435.59999999403954","","48","","","3000","1","","","images/purpleplanet.jpg","images/alien4","images/alien3","images/rocket2","images/alien4","images/nothing.png","2","real","true","2","common","0","2022-02-05 20:24:51.129"
"two-step-fixation","212","791090","0.0-76.0-2.25","392","604","18","Female","true","true","true","false","""event"",""trial"",""time""
""fullscreenenter"",""5"",""15875""
","
","
","""event"",""trial"",""time""
""fullscreenenter"",""5"",""15875""
","
","","images/earth.jpg","","","","","","","","","","","","","","fixation","","","","","",""
"d3-animate-choice","213","793424","0.0-76.0-0.26","392","604","18","Female","true","true","true","false","""event"",""trial"",""time""
""fullscreenenter"",""5"",""15875""
","
","
","""event"",""trial"",""time""
""fullscreenenter"",""5"",""15875""
","
","329.5","","49","","","3000","1","","","images/earth.jpg","images/rocket2","images/rocket1","null","images/rocket1","","1","real","null","1","","",""
"d3-animate-choice","214","795859","0.0-76.0-1.26","392","604","18","Female","true","true","true","false","""event"",""trial"",""time""
""fullscreenenter"",""5"",""15875""
","
","
","""event"",""trial"",""time""
""fullscreenenter"",""5"",""15875""
","
","431","","48","","","3000","1","","","images/redplanet1.jpg","images/alien2","images/alien1","images/rocket1","images/alien2","images/t.png","2","real","true","2","common","1","2022-02-05 20:24:56.902"
"two-step-fixation","215","796864","0.0-76.0-2.26","392","604","18","Female","true","true","true","false","""event"",""trial"",""time""
""fullscreenenter"",""5"",""15875""
","
","
","""event"",""trial"",""time""
""fullscreenenter"",""5"",""15875""
","
","","images/earth.jpg","","","","","","","","","","","","","","fixation","","","","","",""
"d3-animate-choice","216","799158","0.0-76.0-0.27","392","604","18","Female","true","true","true","false","""event"",""trial"",""time""
""fullscreenenter"",""5"",""15875""
","
","
","""event"",""trial"",""time""
""fullscreenenter"",""5"",""15875""
","
","285.7000000178814","","49","","","3000","1","","","images/earth.jpg","images/rocket2","images/rocket1","null","images/rocket1","","1","real","null","1","","",""
"d3-animate-choice","217","801686","0.0-76.0-1.27","392","604","18","Female","true","true","true","false","""event"",""trial"",""time""
""fullscreenenter"",""5"",""15875""
","
","
","""event"",""trial"",""time""
""fullscreenenter"",""5"",""15875""
","
","523","","48","","","3000","1","","","images/purpleplanet.jpg","images/alien4","images/alien3","images/rocket1","images/alien4","images/t.png","2","real","false","2","rare","1","2022-02-05 20:25:02.729"
"two-step-fixation","218","802694","0.0-76.0-2.27","392","604","18","Female","true","true","true","false","""event"",""trial"",""time""
""fullscreenenter"",""5"",""15875""
","
","
","""event"",""trial"",""time""
""fullscreenenter"",""5"",""15875""
","
","","images/earth.jpg","","","","","","","","","","","","","","fixation","","","","","",""
"d3-animate-choice","219","805083","0.0-76.0-0.28","392","604","18","Female","true","true","true","false","""event"",""trial"",""time""
""fullscreenenter"",""5"",""15875""
","
","
","""event"",""trial"",""time""
""fullscreenenter"",""5"",""15875""
","
","382.5","","49","","","3000","1","","","images/earth.jpg","images/rocket2","images/rocket1","null","images/rocket1","","1","real","null","1","","",""
"d3-animate-choice","220","807501","0.0-76.0-1.28","392","604","18","Female","true","true","true","false","""event"",""trial"",""time""
""fullscreenenter"",""5"",""15875""
","
","
","""event"",""trial"",""time""
""fullscreenenter"",""5"",""15875""
","
","413.40000000596046","","48","","","3000","1","","","images/redplanet1.jpg","images/alien2","images/alien1","images/rocket1","images/alien2","images/t.png","2","real","true","2","common","1","2022-02-05 20:25:08.544"
"two-step-fixation","221","808507","0.0-76.0-2.28","392","604","18","Female","true","true","true","false","""event"",""trial"",""time""
""fullscreenenter"",""5"",""15875""
","
","
","""event"",""trial"",""time""
""fullscreenenter"",""5"",""15875""
","
","","images/earth.jpg","","","","","","","","","","","","","","fixation","","","","","",""
"d3-animate-choice","222","810919","0.0-76.0-0.29","392","604","18","Female","true","true","true","false","""event"",""trial"",""time""
""fullscreenenter"",""5"",""15875""
","
","
","""event"",""trial"",""time""
""fullscreenenter"",""5"",""15875""
","
","405.59999999403954","","49","","","3000","1","","","images/earth.jpg","images/rocket2","images/rocket1","null","images/rocket1","","1","real","null","1","","",""
"d3-animate-choice","223","813295","0.0-76.0-1.29","392","604","18","Female","true","true","true","false","""event"",""trial"",""time""
""fullscreenenter"",""5"",""15875""
","
","
","""event"",""trial"",""time""
""fullscreenenter"",""5"",""15875""
","
","371.30000001192093","","48","","","3000","1","","","images/redplanet1.jpg","images/alien2","images/alien1","images/rocket1","images/alien2","images/t.png","2","real","true","2","common","1","2022-02-05 20:25:14.338"
"two-step-fixation","224","814299","0.0-76.0-2.29","392","604","18","Female","true","true","true","false","""event"",""trial"",""time""
""fullscreenenter"",""5"",""15875""
","
","
","""event"",""trial"",""time""
""fullscreenenter"",""5"",""15875""
","
","","images/earth.jpg","","","","","","","","","","","","","","fixation","","","","","",""
"d3-animate-choice","225","816833","0.0-76.0-0.30","392","604","18","Female","true","true","true","false","""event"",""trial"",""time""
""fullscreenenter"",""5"",""15875""
","
","
","""event"",""trial"",""time""
""fullscreenenter"",""5"",""15875""
","
","528.6999999880791","","49","","","3000","1","","","images/earth.jpg","images/rocket2","images/rocket1","null","images/rocket1","","1","real","null","1","","",""
"d3-animate-choice","226","819334","0.0-76.0-1.30","392","604","18","Female","true","true","true","false","""event"",""trial"",""time""
""fullscreenenter"",""5"",""15875""
","
","
","""event"",""trial"",""time""
""fullscreenenter"",""5"",""15875""
","
","496","","48","","","3000","1","","","images/purpleplanet.jpg","images/alien4","images/alien3","images/rocket1","images/alien4","images/nothing.png","2","real","false","2","rare","0","2022-02-05 20:25:20.377"
"two-step-fixation","227","820338","0.0-76.0-2.30","392","604","18","Female","true","true","true","false","""event"",""trial"",""time""
""fullscreenenter"",""5"",""15875""
","
","
","""event"",""trial"",""time""
""fullscreenenter"",""5"",""15875""
","
","","images/earth.jpg","","","","","","","","","","","","","","fixation","","","","","",""
"d3-animate-choice","228","822718","0.0-76.0-0.31","392","604","18","Female","true","true","true","false","""event"",""trial"",""time""
""fullscreenenter"",""5"",""15875""
","
","
","""event"",""trial"",""time""
""fullscreenenter"",""5"",""15875""
","
","375.40000000596046","","49","","","3000","1","2206.4000000059605","48","images/earth.jpg","images/rocket2","images/rocket1","null","images/rocket1","","1","real","null","1","","",""
"d3-animate-choice","229","825743","0.0-76.0-1.31","392","604","18","Female","true","true","true","false","""event"",""trial"",""time""
""fullscreenenter"",""5"",""15875""
","
","
","""event"",""trial"",""time""
""fullscreenenter"",""5"",""15875""
","
","1021","","48","","","3000","1","","","images/redplanet1.jpg","images/alien2","images/alien1","images/rocket1","images/alien2","images/t.png","2","real","true","2","common","1","2022-02-05 20:25:26.786"
"two-step-fixation","230","826747","0.0-76.0-2.31","392","604","18","Female","true","true","true","false","""event"",""trial"",""time""
""fullscreenenter"",""5"",""15875""
","
","
","""event"",""trial"",""time""
""fullscreenenter"",""5"",""15875""
","
","","images/earth.jpg","","","","","","","","","","","","","","fixation","","","","","",""
"d3-animate-choice","231","829684","0.0-76.0-0.32","392","604","18","Female","true","true","true","false","""event"",""trial"",""time""
""fullscreenenter"",""5"",""15875""
","
","
","""event"",""trial"",""time""
""fullscreenenter"",""5"",""15875""
","
","929.9000000059605","","49","","","3000","1","","","images/earth.jpg","images/rocket2","images/rocket1","null","images/rocket1","","1","real","null","1","","",""
"d3-animate-choice","232","832241","0.0-76.0-1.32","392","604","18","Female","true","true","true","false","""event"",""trial"",""time""
""fullscreenenter"",""5"",""15875""
","
","
","""event"",""trial"",""time""
""fullscreenenter"",""5"",""15875""
","
","551.2999999821186","","48","","","3000","1","","","images/redplanet1.jpg","images/alien2","images/alien1","images/rocket1","images/alien2","images/nothing.png","2","real","true","2","common","0","2022-02-05 20:25:33.284"
"two-step-fixation","233","833243","0.0-76.0-2.32","392","604","18","Female","true","true","true","false","""event"",""trial"",""time""
""fullscreenenter"",""5"",""15875""
","
","
","""event"",""trial"",""time""
""fullscreenenter"",""5"",""15875""
","
","","images/earth.jpg","","","","","","","","","","","","","","fixation","","","","","",""
"d3-animate-choice","234","835643","0.0-76.0-0.33","392","604","18","Female","true","true","true","false","""event"",""trial"",""time""
""fullscreenenter"",""5"",""15875""
","
","
","""event"",""trial"",""time""
""fullscreenenter"",""5"",""15875""
","
","395.40000000596046","","48","","","3000","1","","","images/earth.jpg","images/rocket2","images/rocket1","null","images/rocket2","","1","real","null","2","","",""
"d3-animate-choice","235","838102","0.0-76.0-1.33","392","604","18","Female","true","true","true","false","""event"",""trial"",""time""
""fullscreenenter"",""5"",""15875""
","
","
","""event"",""trial"",""time""
""fullscreenenter"",""5"",""15875""
","
","456.19999998807907","","48","","","3000","1","","","images/purpleplanet.jpg","images/alien4","images/alien3","images/rocket2","images/alien4","images/nothing.png","2","real","true","2","common","0","2022-02-05 20:25:39.145"
"two-step-fixation","236","839106","0.0-76.0-2.33","392","604","18","Female","true","true","true","false","""event"",""trial"",""time""
""fullscreenenter"",""5"",""15875""
","
","
","""event"",""trial"",""time""
""fullscreenenter"",""5"",""15875""
","
","","images/earth.jpg","","","","","","","","","","","","","","fixation","","","","","",""
"d3-animate-choice","237","841448","0.0-76.0-0.34","392","604","18","Female","true","true","true","false","""event"",""trial"",""time""
""fullscreenenter"",""5"",""15875""
","
","
","""event"",""trial"",""time""
""fullscreenenter"",""5"",""15875""
","
","337.59999999403954","","49","","","3000","1","","","images/earth.jpg","images/rocket2","images/rocket1","null","images/rocket1","","1","real","null","1","","",""
"d3-animate-choice","238","843964","0.0-76.0-1.34","392","604","18","Female","true","true","true","false","""event"",""trial"",""time""
""fullscreenenter"",""5"",""15875""
","
","
","""event"",""trial"",""time""
""fullscreenenter"",""5"",""15875""
","
","509.7000000178814","","48","","","3000","1","","","images/redplanet1.jpg","images/alien2","images/alien1","images/rocket1","images/alien2","images/nothing.png","2","real","true","2","common","0","2022-02-05 20:25:45.007"
"two-step-fixation","239","844968","0.0-76.0-2.34","392","604","18","Female","true","true","true","false","""event"",""trial"",""time""
""fullscreenenter"",""5"",""15875""
","
","
","""event"",""trial"",""time""
""fullscreenenter"",""5"",""15875""
","
","","images/earth.jpg","","","","","","","","","","","","","","fixation","","","","","",""
"d3-animate-choice","240","847353","0.0-76.0-0.35","392","604","18","Female","true","true","true","false","""event"",""trial"",""time""
""fullscreenenter"",""5"",""15875""
","
","
","""event"",""trial"",""time""
""fullscreenenter"",""5"",""15875""
","
","380.80000001192093","","49","","","3000","1","","","images/earth.jpg","images/rocket2","images/rocket1","null","images/rocket1","","1","real","null","1","","",""
"d3-animate-choice","241","849719","0.0-76.0-1.35","392","604","18","Female","true","true","true","false","""event"",""trial"",""time""
""fullscreenenter"",""5"",""15875""
","
","
","""event"",""trial"",""time""
""fullscreenenter"",""5"",""15875""
","
","362.2000000178814","","48","","","3000","1","","","images/redplanet1.jpg","images/alien2","images/alien1","images/rocket1","images/alien2","images/t.png","2","real","true","2","common","1","2022-02-05 20:25:50.763"
"two-step-fixation","242","850724","0.0-76.0-2.35","392","604","18","Female","true","true","true","false","""event"",""trial"",""time""
""fullscreenenter"",""5"",""15875""
","
","
","""event"",""trial"",""time""
""fullscreenenter"",""5"",""15875""
","
","","images/earth.jpg","","","","","","","","","","","","","","fixation","","","","","",""
"d3-animate-choice","243","853125","0.0-76.0-0.36","392","604","18","Female","true","true","true","false","""event"",""trial"",""time""
""fullscreenenter"",""5"",""15875""
","
","
","""event"",""trial"",""time""
""fullscreenenter"",""5"",""15875""
","
","396.09999999403954","","49","","","3000","1","","","images/earth.jpg","images/rocket2","images/rocket1","null","images/rocket1","","1","real","null","1","","",""
"d3-animate-choice","244","855619","0.0-76.0-1.36","392","604","18","Female","true","true","true","false","""event"",""trial"",""time""
""fullscreenenter"",""5"",""15875""
","
","
","""event"",""trial"",""time""
""fullscreenenter"",""5"",""15875""
","
","489.90000000596046","","48","","","3000","1","","","images/purpleplanet.jpg","images/alien4","images/alien3","images/rocket1","images/alien4","images/nothing.png","2","real","false","2","rare","0","2022-02-05 20:25:56.662"
"two-step-fixation","245","856622","0.0-76.0-2.36","392","604","18","Female","true","true","true","false","""event"",""trial"",""time""
""fullscreenenter"",""5"",""15875""
","
","
","""event"",""trial"",""time""
""fullscreenenter"",""5"",""15875""
","
","","images/earth.jpg","","","","","","","","","","","","","","fixation","","","","","",""
"d3-animate-choice","246","858924","0.0-76.0-0.37","392","604","18","Female","true","true","true","false","""event"",""trial"",""time""
""fullscreenenter"",""5"",""15875""
","
","
","""event"",""trial"",""time""
""fullscreenenter"",""5"",""15875""
","
","296.09999999403954","","48","","","3000","1","","","images/earth.jpg","images/rocket2","images/rocket1","null","images/rocket2","","1","real","null","2","","",""
"d3-animate-choice","247","861453","0.0-76.0-1.37","392","604","18","Female","true","true","true","false","""event"",""trial"",""time""
""fullscreenenter"",""5"",""15875""
","
","
