"trial_type","trial_index","time_elapsed","internal_node_id","participant_id","subject_id","age","gender","rocket_sides","red_planet_first_rocket","red_display_order","purple_display_order","interactions","blur_events","focus_events","fullscreenenter_events","fullscreenexit_events","rt","stimulus","key_press","button_pressed","success","duration","valid_pressed","rts","keys","planet_text","right_text","left_text","center_text","chosen_text","reward_text","trial_stage","practice_trial","transition_type","choice","transition","reward","timestamp"
"pavlovia","0","29","0.0-0.0","1310","4987","22","Female","true","true","true","true","""event"",""trial"",""time""
""blur"",""0"",""0""
""focus"",""0"",""0""
""blur"",""0"",""0""
""focus"",""0"",""0""
""blur"",""0"",""0""
""focus"",""0"",""0""
""blur"",""0"",""0""
""focus"",""0"",""0""
""blur"",""0"",""0""
""focus"",""0"",""0""
""blur"",""0"",""0""
""focus"",""0"",""0""
""blur"",""0"",""0""
""focus"",""0"",""0""
""blur"",""0"",""0""
""focus"",""0"",""0""
""blur"",""0"",""0""
""focus"",""1"",""2907""
","""event"",""trial"",""time""
""blur"",""0"",""0""
""blur"",""0"",""0""
""blur"",""0"",""0""
""blur"",""0"",""0""
""blur"",""0"",""0""
""blur"",""0"",""0""
""blur"",""0"",""0""
""blur"",""0"",""0""
""blur"",""0"",""0""
","""event"",""trial"",""time""
""focus"",""0"",""0""
""focus"",""0"",""0""
""focus"",""0"",""0""
""focus"",""0"",""0""
""focus"",""0"",""0""
""focus"",""0"",""0""
""focus"",""0"",""0""
""focus"",""0"",""0""
""focus"",""1"",""2907""
","
","
","","","","","","","","","","","","","","","","","","","","","",""
"html-keyboard-response","1","3327","0.0-1.0","1310","4987","22","Female","true","true","true","true","""event"",""trial"",""time""
""blur"",""0"",""0""
""focus"",""0"",""0""
""blur"",""0"",""0""
""focus"",""0"",""0""
""blur"",""0"",""0""
""focus"",""0"",""0""
""blur"",""0"",""0""
""focus"",""0"",""0""
""blur"",""0"",""0""
""focus"",""0"",""0""
""blur"",""0"",""0""
""focus"",""0"",""0""
""blur"",""0"",""0""
""focus"",""0"",""0""
""blur"",""0"",""0""
""focus"",""0"",""0""
""blur"",""0"",""0""
""focus"",""1"",""2907""
","""event"",""trial"",""time""
""blur"",""0"",""0""
""blur"",""0"",""0""
""blur"",""0"",""0""
""blur"",""0"",""0""
""blur"",""0"",""0""
""blur"",""0"",""0""
""blur"",""0"",""0""
""blur"",""0"",""0""
""blur"",""0"",""0""
","""event"",""trial"",""time""
""focus"",""0"",""0""
""focus"",""0"",""0""
""focus"",""0"",""0""
""focus"",""0"",""0""
""focus"",""0"",""0""
""focus"",""0"",""0""
""focus"",""0"",""0""
""focus"",""0"",""0""
""focus"",""1"",""2907""
","
","
","3291","Welcome! Press the space bar to begin.","32","","","","","","","","","","","","","","","","","","",""
"audio-keyboard-response","2","5973","0.0-2.0","1310","4987","22","Female","true","true","true","true","""event"",""trial"",""time""
""blur"",""0"",""0""
""focus"",""0"",""0""
""blur"",""0"",""0""
""focus"",""0"",""0""
""blur"",""0"",""0""
""focus"",""0"",""0""
""blur"",""0"",""0""
""focus"",""0"",""0""
""blur"",""0"",""0""
""focus"",""0"",""0""
""blur"",""0"",""0""
""focus"",""0"",""0""
""blur"",""0"",""0""
""focus"",""0"",""0""
""blur"",""0"",""0""
""focus"",""0"",""0""
""blur"",""0"",""0""
""focus"",""1"",""2907""
","""event"",""trial"",""time""
""blur"",""0"",""0""
""blur"",""0"",""0""
""blur"",""0"",""0""
""blur"",""0"",""0""
""blur"",""0"",""0""
""blur"",""0"",""0""
""blur"",""0"",""0""
""blur"",""0"",""0""
""blur"",""0"",""0""
","""event"",""trial"",""time""
""focus"",""0"",""0""
""focus"",""0"",""0""
""focus"",""0"",""0""
""focus"",""0"",""0""
""focus"",""0"",""0""
""focus"",""0"",""0""
""focus"",""0"",""0""
""focus"",""0"",""0""
""focus"",""1"",""2907""
","
","
","2405","audio/beep_loop.wav","32","","","","","","","","","","","","","","","","","","",""
"audio-button-response","3","9463","0.0-3.0","1310","4987","22","Female","true","true","true","true","""event"",""trial"",""time""
""blur"",""0"",""0""
""focus"",""0"",""0""
""blur"",""0"",""0""
""focus"",""0"",""0""
""blur"",""0"",""0""
""focus"",""0"",""0""
""blur"",""0"",""0""
""focus"",""0"",""0""
""blur"",""0"",""0""
""focus"",""0"",""0""
""blur"",""0"",""0""
""focus"",""0"",""0""
""blur"",""0"",""0""
""focus"",""0"",""0""
""blur"",""0"",""0""
""focus"",""0"",""0""
""blur"",""0"",""0""
""focus"",""1"",""2907""
","""event"",""trial"",""time""
""blur"",""0"",""0""
""blur"",""0"",""0""
""blur"",""0"",""0""
""blur"",""0"",""0""
""blur"",""0"",""0""
""blur"",""0"",""0""
""blur"",""0"",""0""
""blur"",""0"",""0""
""blur"",""0"",""0""
","""event"",""trial"",""time""
""focus"",""0"",""0""
""focus"",""0"",""0""
""focus"",""0"",""0""
""focus"",""0"",""0""
""focus"",""0"",""0""
""focus"",""0"",""0""
""focus"",""0"",""0""
""focus"",""0"",""0""
""focus"",""1"",""2907""
","
","
","NaN","audio/fish.mp3","","1","","","","","","","","","","","","","","","","","",""
"audio-button-response","4","12162","0.0-4.0","1310","4987","22","Female","true","true","true","true","""event"",""trial"",""time""
""blur"",""0"",""0""
""focus"",""0"",""0""
""blur"",""0"",""0""
""focus"",""0"",""0""
""blur"",""0"",""0""
""focus"",""0"",""0""
""blur"",""0"",""0""
""focus"",""0"",""0""
""blur"",""0"",""0""
""focus"",""0"",""0""
""blur"",""0"",""0""
""focus"",""0"",""0""
""blur"",""0"",""0""
""focus"",""0"",""0""
""blur"",""0"",""0""
""focus"",""0"",""0""
""blur"",""0"",""0""
""focus"",""1"",""2907""
""fullscreenenter"",""5"",""15087""
","""event"",""trial"",""time""
""blur"",""0"",""0""
""blur"",""0"",""0""
""blur"",""0"",""0""
""blur"",""0"",""0""
""blur"",""0"",""0""
""blur"",""0"",""0""
""blur"",""0"",""0""
""blur"",""0"",""0""
""blur"",""0"",""0""
","""event"",""trial"",""time""
""focus"",""0"",""0""
""focus"",""0"",""0""
""focus"",""0"",""0""
""focus"",""0"",""0""
""focus"",""0"",""0""
""focus"",""0"",""0""
""focus"",""0"",""0""
""focus"",""0"",""0""
""focus"",""1"",""2907""
","""event"",""trial"",""time""
""fullscreenenter"",""5"",""15087""
","
","NaN","audio/tiger.mp3","","4","","","","","","","","","","","","","","","","","",""
"fullscreen","5","16055","0.0-5.0","1310","4987","22","Female","true","true","true","true","""event"",""trial"",""time""
""blur"",""0"",""0""
""focus"",""0"",""0""
""blur"",""0"",""0""
""focus"",""0"",""0""
""blur"",""0"",""0""
""focus"",""0"",""0""
""blur"",""0"",""0""
""focus"",""0"",""0""
""blur"",""0"",""0""
""focus"",""0"",""0""
""blur"",""0"",""0""
""focus"",""0"",""0""
""blur"",""0"",""0""
""focus"",""0"",""0""
""blur"",""0"",""0""
""focus"",""0"",""0""
""blur"",""0"",""0""
""focus"",""1"",""2907""
""fullscreenenter"",""5"",""15087""
""fullscreenexit"",""6"",""22533""
""blur"",""6"",""26017""
""focus"",""6"",""30725""
","""event"",""trial"",""time""
""blur"",""0"",""0""
""blur"",""0"",""0""
""blur"",""0"",""0""
""blur"",""0"",""0""
""blur"",""0"",""0""
""blur"",""0"",""0""
""blur"",""0"",""0""
""blur"",""0"",""0""
""blur"",""0"",""0""
""blur"",""6"",""26017""
","""event"",""trial"",""time""
""focus"",""0"",""0""
""focus"",""0"",""0""
""focus"",""0"",""0""
""focus"",""0"",""0""
""focus"",""0"",""0""
""focus"",""0"",""0""
""focus"",""0"",""0""
""focus"",""0"",""0""
""focus"",""1"",""2907""
""focus"",""6"",""30725""
","""event"",""trial"",""time""
""fullscreenenter"",""5"",""15087""
","""event"",""trial"",""time""
""fullscreenexit"",""6"",""22533""
","","","","","true","","","","","","","","","","","","","","","","",""
"d3-instructions","6","34288","0.0-6.0","1310","4987","22","Female","true","true","true","true","""event"",""trial"",""time""
""blur"",""0"",""0""
""focus"",""0"",""0""
""blur"",""0"",""0""
""focus"",""0"",""0""
""blur"",""0"",""0""
""focus"",""0"",""0""
""blur"",""0"",""0""
""focus"",""0"",""0""
""blur"",""0"",""0""
""focus"",""0"",""0""
""blur"",""0"",""0""
""focus"",""0"",""0""
""blur"",""0"",""0""
""focus"",""0"",""0""
""blur"",""0"",""0""
""focus"",""0"",""0""
""blur"",""0"",""0""
""focus"",""1"",""2907""
""fullscreenenter"",""5"",""15087""
""fullscreenexit"",""6"",""22533""
""blur"",""6"",""26017""
""focus"",""6"",""30725""
""blur"",""7"",""36198""
""focus"",""7"",""47109""
","""event"",""trial"",""time""
""blur"",""0"",""0""
""blur"",""0"",""0""
""blur"",""0"",""0""
""blur"",""0"",""0""
""blur"",""0"",""0""
""blur"",""0"",""0""
""blur"",""0"",""0""
""blur"",""0"",""0""
""blur"",""0"",""0""
""blur"",""6"",""26017""
""blur"",""7"",""36198""
","""event"",""trial"",""time""
""focus"",""0"",""0""
""focus"",""0"",""0""
""focus"",""0"",""0""
""focus"",""0"",""0""
""focus"",""0"",""0""
""focus"",""0"",""0""
""focus"",""0"",""0""
""focus"",""0"",""0""
""focus"",""1"",""2907""
""focus"",""6"",""30725""
""focus"",""7"",""47109""
","""event"",""trial"",""time""
""fullscreenenter"",""5"",""15087""
","""event"",""trial"",""time""
""fullscreenexit"",""6"",""22533""
","","","","","","","","","","","","","","","","","","","","","",""
"d3-instructions","7","50526","0.0-7.0","1310","4987","22","Female","true","true","true","true","""event"",""trial"",""time""
""blur"",""0"",""0""
""focus"",""0"",""0""
""blur"",""0"",""0""
""focus"",""0"",""0""
""blur"",""0"",""0""
""focus"",""0"",""0""
""blur"",""0"",""0""
""focus"",""0"",""0""
""blur"",""0"",""0""
""focus"",""0"",""0""
""blur"",""0"",""0""
""focus"",""0"",""0""
""blur"",""0"",""0""
""focus"",""0"",""0""
""blur"",""0"",""0""
""focus"",""0"",""0""
""blur"",""0"",""0""
""focus"",""1"",""2907""
""fullscreenenter"",""5"",""15087""
""fullscreenexit"",""6"",""22533""
""blur"",""6"",""26017""
""focus"",""6"",""30725""
""blur"",""7"",""36198""
""focus"",""7"",""47109""
","""event"",""trial"",""time""
""blur"",""0"",""0""
""blur"",""0"",""0""
""blur"",""0"",""0""
""blur"",""0"",""0""
""blur"",""0"",""0""
""blur"",""0"",""0""
""blur"",""0"",""0""
""blur"",""0"",""0""
""blur"",""0"",""0""
""blur"",""6"",""26017""
""blur"",""7"",""36198""
","""event"",""trial"",""time""
""focus"",""0"",""0""
""focus"",""0"",""0""
""focus"",""0"",""0""
""focus"",""0"",""0""
""focus"",""0"",""0""
""focus"",""0"",""0""
""focus"",""0"",""0""
""focus"",""0"",""0""
""focus"",""1"",""2907""
""focus"",""6"",""30725""
""focus"",""7"",""47109""
","""event"",""trial"",""time""
""fullscreenenter"",""5"",""15087""
","""event"",""trial"",""time""
""fullscreenexit"",""6"",""22533""
","","","","","","","","","","","","","","","","","","","","","",""
"d3-instructions","8","57324","0.0-8.0","1310","4987","22","Female","true","true","true","true","""event"",""trial"",""time""
""blur"",""0"",""0""
""focus"",""0"",""0""
""blur"",""0"",""0""
""focus"",""0"",""0""
""blur"",""0"",""0""
""focus"",""0"",""0""
""blur"",""0"",""0""
""focus"",""0"",""0""
""blur"",""0"",""0""
""focus"",""0"",""0""
""blur"",""0"",""0""
""focus"",""0"",""0""
""blur"",""0"",""0""
""focus"",""0"",""0""
""blur"",""0"",""0""
""focus"",""0"",""0""
""blur"",""0"",""0""
""focus"",""1"",""2907""
""fullscreenenter"",""5"",""15087""
""fullscreenexit"",""6"",""22533""
""blur"",""6"",""26017""
""focus"",""6"",""30725""
""blur"",""7"",""36198""
""focus"",""7"",""47109""
","""event"",""trial"",""time""
""blur"",""0"",""0""
""blur"",""0"",""0""
""blur"",""0"",""0""
""blur"",""0"",""0""
""blur"",""0"",""0""
""blur"",""0"",""0""
""blur"",""0"",""0""
""blur"",""0"",""0""
""blur"",""0"",""0""
""blur"",""6"",""26017""
""blur"",""7"",""36198""
","""event"",""trial"",""time""
""focus"",""0"",""0""
""focus"",""0"",""0""
""focus"",""0"",""0""
""focus"",""0"",""0""
""focus"",""0"",""0""
""focus"",""0"",""0""
""focus"",""0"",""0""
""focus"",""0"",""0""
""focus"",""1"",""2907""
""focus"",""6"",""30725""
""focus"",""7"",""47109""
","""event"",""trial"",""time""
""fullscreenenter"",""5"",""15087""
","""event"",""trial"",""time""
""fullscreenexit"",""6"",""22533""
","","","","","","","","","","","","","","","","","","","","","",""
"d3-instructions","9","67825","0.0-9.0","1310","4987","22","Female","true","true","true","true","""event"",""trial"",""time""
""blur"",""0"",""0""
""focus"",""0"",""0""
""blur"",""0"",""0""
""focus"",""0"",""0""
""blur"",""0"",""0""
""focus"",""0"",""0""
""blur"",""0"",""0""
""focus"",""0"",""0""
""blur"",""0"",""0""
""focus"",""0"",""0""
""blur"",""0"",""0""
""focus"",""0"",""0""
""blur"",""0"",""0""
""focus"",""0"",""0""
""blur"",""0"",""0""
""focus"",""0"",""0""
""blur"",""0"",""0""
""focus"",""1"",""2907""
""fullscreenenter"",""5"",""15087""
""fullscreenexit"",""6"",""22533""
""blur"",""6"",""26017""
""focus"",""6"",""30725""
""blur"",""7"",""36198""
""focus"",""7"",""47109""
","""event"",""trial"",""time""
""blur"",""0"",""0""
""blur"",""0"",""0""
""blur"",""0"",""0""
""blur"",""0"",""0""
""blur"",""0"",""0""
""blur"",""0"",""0""
""blur"",""0"",""0""
""blur"",""0"",""0""
""blur"",""0"",""0""
""blur"",""6"",""26017""
""blur"",""7"",""36198""
","""event"",""trial"",""time""
""focus"",""0"",""0""
""focus"",""0"",""0""
""focus"",""0"",""0""
""focus"",""0"",""0""
""focus"",""0"",""0""
""focus"",""0"",""0""
""focus"",""0"",""0""
""focus"",""0"",""0""
""focus"",""1"",""2907""
""focus"",""6"",""30725""
""focus"",""7"",""47109""
","""event"",""trial"",""time""
""fullscreenenter"",""5"",""15087""
","""event"",""trial"",""time""
""fullscreenexit"",""6"",""22533""
","","","","","","","","","","","","","","","","","","","","","",""
"d3-instructions","10","87023","0.0-10.0","1310","4987","22","Female","true","true","true","true","""event"",""trial"",""time""
""blur"",""0"",""0""
""focus"",""0"",""0""
""blur"",""0"",""0""
""focus"",""0"",""0""
""blur"",""0"",""0""
""focus"",""0"",""0""
""blur"",""0"",""0""
""focus"",""0"",""0""
""blur"",""0"",""0""
""focus"",""0"",""0""
""blur"",""0"",""0""
""focus"",""0"",""0""
""blur"",""0"",""0""
""focus"",""0"",""0""
""blur"",""0"",""0""
""focus"",""0"",""0""
""blur"",""0"",""0""
""focus"",""1"",""2907""
""fullscreenenter"",""5"",""15087""
""fullscreenexit"",""6"",""22533""
""blur"",""6"",""26017""
""focus"",""6"",""30725""
""blur"",""7"",""36198""
""focus"",""7"",""47109""
","""event"",""trial"",""time""
""blur"",""0"",""0""
""blur"",""0"",""0""
""blur"",""0"",""0""
""blur"",""0"",""0""
""blur"",""0"",""0""
""blur"",""0"",""0""
""blur"",""0"",""0""
""blur"",""0"",""0""
""blur"",""0"",""0""
""blur"",""6"",""26017""
""blur"",""7"",""36198""
","""event"",""trial"",""time""
""focus"",""0"",""0""
""focus"",""0"",""0""
""focus"",""0"",""0""
""focus"",""0"",""0""
""focus"",""0"",""0""
""focus"",""0"",""0""
""focus"",""0"",""0""
""focus"",""0"",""0""
""focus"",""1"",""2907""
""focus"",""6"",""30725""
""focus"",""7"",""47109""
","""event"",""trial"",""time""
""fullscreenenter"",""5"",""15087""
","""event"",""trial"",""time""
""fullscreenexit"",""6"",""22533""
","","","","","","","","","","","","","","","","","","","","","",""
"d3-animate-choice","11","90681","0.0-11.0","1310","4987","22","Female","true","true","true","true","""event"",""trial"",""time""
""blur"",""0"",""0""
""focus"",""0"",""0""
""blur"",""0"",""0""
""focus"",""0"",""0""
""blur"",""0"",""0""
""focus"",""0"",""0""
""blur"",""0"",""0""
""focus"",""0"",""0""
""blur"",""0"",""0""
""focus"",""0"",""0""
""blur"",""0"",""0""
""focus"",""0"",""0""
""blur"",""0"",""0""
""focus"",""0"",""0""
""blur"",""0"",""0""
""focus"",""0"",""0""
""blur"",""0"",""0""
""focus"",""1"",""2907""
""fullscreenenter"",""5"",""15087""
""fullscreenexit"",""6"",""22533""
""blur"",""6"",""26017""
""focus"",""6"",""30725""
""blur"",""7"",""36198""
""focus"",""7"",""47109""
","""event"",""trial"",""time""
""blur"",""0"",""0""
""blur"",""0"",""0""
""blur"",""0"",""0""
""blur"",""0"",""0""
""blur"",""0"",""0""
""blur"",""0"",""0""
""blur"",""0"",""0""
""blur"",""0"",""0""
""blur"",""0"",""0""
""blur"",""6"",""26017""
""blur"",""7"",""36198""
","""event"",""trial"",""time""
""focus"",""0"",""0""
""focus"",""0"",""0""
""focus"",""0"",""0""
""focus"",""0"",""0""
""focus"",""0"",""0""
""focus"",""0"",""0""
""focus"",""0"",""0""
""focus"",""0"",""0""
""focus"",""1"",""2907""
""focus"",""6"",""30725""
""focus"",""7"",""47109""
","""event"",""trial"",""time""
""fullscreenenter"",""5"",""15087""
","""event"",""trial"",""time""
""fullscreenexit"",""6"",""22533""
","1643.6999998092651","","49","","","3000","1","","","images/tutgreenplanet.jpg","images/tutalien1","images/tutalien2","null","images/tutalien2","","NA","practice","null","","","",""
"d3-animate-choice","12","93788","0.0-12.0","1310","4987","22","Female","true","true","true","true","""event"",""trial"",""time""
""blur"",""0"",""0""
""focus"",""0"",""0""
""blur"",""0"",""0""
""focus"",""0"",""0""
""blur"",""0"",""0""
""focus"",""0"",""0""
""blur"",""0"",""0""
""focus"",""0"",""0""
""blur"",""0"",""0""
""focus"",""0"",""0""
""blur"",""0"",""0""
""focus"",""0"",""0""
""blur"",""0"",""0""
""focus"",""0"",""0""
""blur"",""0"",""0""
""focus"",""0"",""0""
""blur"",""0"",""0""
""focus"",""1"",""2907""
""fullscreenenter"",""5"",""15087""
""fullscreenexit"",""6"",""22533""
""blur"",""6"",""26017""
""focus"",""6"",""30725""
""blur"",""7"",""36198""
""focus"",""7"",""47109""
","""event"",""trial"",""time""
""blur"",""0"",""0""
""blur"",""0"",""0""
""blur"",""0"",""0""
""blur"",""0"",""0""
""blur"",""0"",""0""
""blur"",""0"",""0""
""blur"",""0"",""0""
""blur"",""0"",""0""
""blur"",""0"",""0""
""blur"",""6"",""26017""
""blur"",""7"",""36198""
","""event"",""trial"",""time""
""focus"",""0"",""0""
""focus"",""0"",""0""
""focus"",""0"",""0""
""focus"",""0"",""0""
""focus"",""0"",""0""
""focus"",""0"",""0""
""focus"",""0"",""0""
""focus"",""0"",""0""
""focus"",""1"",""2907""
""focus"",""6"",""30725""
""focus"",""7"",""47109""
","""event"",""trial"",""time""
""fullscreenenter"",""5"",""15087""
","""event"",""trial"",""time""
""fullscreenexit"",""6"",""22533""
","1100.7999997138977","","49","","","3000","1","","","images/tutgreenplanet.jpg","images/tutalien1","images/tutalien2","null","images/tutalien2","","NA","practice","null","","","",""
"d3-animate-choice","13","96210","0.0-13.0","1310","4987","22","Female","true","true","true","true","""event"",""trial"",""time""
""blur"",""0"",""0""
""focus"",""0"",""0""
""blur"",""0"",""0""
""focus"",""0"",""0""
""blur"",""0"",""0""
""focus"",""0"",""0""
""blur"",""0"",""0""
""focus"",""0"",""0""
""blur"",""0"",""0""
""focus"",""0"",""0""
""blur"",""0"",""0""
""focus"",""0"",""0""
""blur"",""0"",""0""
""focus"",""0"",""0""
""blur"",""0"",""0""
""focus"",""0"",""0""
""blur"",""0"",""0""
""focus"",""1"",""2907""
""fullscreenenter"",""5"",""15087""
""fullscreenexit"",""6"",""22533""
""blur"",""6"",""26017""
""focus"",""6"",""30725""
""blur"",""7"",""36198""
""focus"",""7"",""47109""
","""event"",""trial"",""time""
""blur"",""0"",""0""
""blur"",""0"",""0""
""blur"",""0"",""0""
""blur"",""0"",""0""
""blur"",""0"",""0""
""blur"",""0"",""0""
""blur"",""0"",""0""
""blur"",""0"",""0""
""blur"",""0"",""0""
""blur"",""6"",""26017""
""blur"",""7"",""36198""
","""event"",""trial"",""time""
""focus"",""0"",""0""
""focus"",""0"",""0""
""focus"",""0"",""0""
""focus"",""0"",""0""
""focus"",""0"",""0""
""focus"",""0"",""0""
""focus"",""0"",""0""
""focus"",""0"",""0""
""focus"",""1"",""2907""
""focus"",""6"",""30725""
""focus"",""7"",""47109""
","""event"",""trial"",""time""
""fullscreenenter"",""5"",""15087""
","""event"",""trial"",""time""
""fullscreenexit"",""6"",""22533""
","413.80000019073486","","48","","","3000","1","","","images/tutgreenplanet.jpg","images/tutalien1","images/tutalien2","null","images/tutalien1","","NA","practice","null","","","",""
"d3-animate-choice","14","98775","0.0-14.0","1310","4987","22","Female","true","true","true","true","""event"",""trial"",""time""
""blur"",""0"",""0""
""focus"",""0"",""0""
""blur"",""0"",""0""
""focus"",""0"",""0""
""blur"",""0"",""0""
""focus"",""0"",""0""
""blur"",""0"",""0""
""focus"",""0"",""0""
""blur"",""0"",""0""
""focus"",""0"",""0""
""blur"",""0"",""0""
""focus"",""0"",""0""
""blur"",""0"",""0""
""focus"",""0"",""0""
""blur"",""0"",""0""
""focus"",""0"",""0""
""blur"",""0"",""0""
""focus"",""1"",""2907""
""fullscreenenter"",""5"",""15087""
""fullscreenexit"",""6"",""22533""
""blur"",""6"",""26017""
""focus"",""6"",""30725""
""blur"",""7"",""36198""
""focus"",""7"",""47109""
","""event"",""trial"",""time""
""blur"",""0"",""0""
""blur"",""0"",""0""
""blur"",""0"",""0""
""blur"",""0"",""0""
""blur"",""0"",""0""
""blur"",""0"",""0""
""blur"",""0"",""0""
""blur"",""0"",""0""
""blur"",""0"",""0""
""blur"",""6"",""26017""
""blur"",""7"",""36198""
","""event"",""trial"",""time""
""focus"",""0"",""0""
""focus"",""0"",""0""
""focus"",""0"",""0""
""focus"",""0"",""0""
""focus"",""0"",""0""
""focus"",""0"",""0""
""focus"",""0"",""0""
""focus"",""0"",""0""
""focus"",""1"",""2907""
""focus"",""6"",""30725""
""focus"",""7"",""47109""
","""event"",""trial"",""time""
""fullscreenenter"",""5"",""15087""
","""event"",""trial"",""time""
""fullscreenexit"",""6"",""22533""
","560.9000000953674","","48","","","3000","1","","","images/tutgreenplanet.jpg","images/tutalien1","images/tutalien2","null","images/tutalien1","","NA","practice","null","","","",""
"d3-instructions","15","105376","0.0-15.0","1310","4987","22","Female","true","true","true","true","""event"",""trial"",""time""
""blur"",""0"",""0""
""focus"",""0"",""0""
""blur"",""0"",""0""
""focus"",""0"",""0""
""blur"",""0"",""0""
""focus"",""0"",""0""
""blur"",""0"",""0""
""focus"",""0"",""0""
""blur"",""0"",""0""
""focus"",""0"",""0""
""blur"",""0"",""0""
""focus"",""0"",""0""
""blur"",""0"",""0""
""focus"",""0"",""0""
""blur"",""0"",""0""
""focus"",""0"",""0""
""blur"",""0"",""0""
""focus"",""1"",""2907""
""fullscreenenter"",""5"",""15087""
""fullscreenexit"",""6"",""22533""
""blur"",""6"",""26017""
""focus"",""6"",""30725""
""blur"",""7"",""36198""
""focus"",""7"",""47109""
","""event"",""trial"",""time""
""blur"",""0"",""0""
""blur"",""0"",""0""
""blur"",""0"",""0""
""blur"",""0"",""0""
""blur"",""0"",""0""
""blur"",""0"",""0""
""blur"",""0"",""0""
""blur"",""0"",""0""
""blur"",""0"",""0""
""blur"",""6"",""26017""
""blur"",""7"",""36198""
","""event"",""trial"",""time""
""focus"",""0"",""0""
""focus"",""0"",""0""
""focus"",""0"",""0""
""focus"",""0"",""0""
""focus"",""0"",""0""
""focus"",""0"",""0""
""focus"",""0"",""0""
""focus"",""0"",""0""
""focus"",""1"",""2907""
""focus"",""6"",""30725""
""focus"",""7"",""47109""
","""event"",""trial"",""time""
""fullscreenenter"",""5"",""15087""
","""event"",""trial"",""time""
""fullscreenexit"",""6"",""22533""
","","","","","","","","","","","","","","","","","","","","","",""
"d3-instructions","16","109862","0.0-16.0","1310","4987","22","Female","true","true","true","true","""event"",""trial"",""time""
""blur"",""0"",""0""
""focus"",""0"",""0""
""blur"",""0"",""0""
""focus"",""0"",""0""
""blur"",""0"",""0""
""focus"",""0"",""0""
""blur"",""0"",""0""
""focus"",""0"",""0""
""blur"",""0"",""0""
""focus"",""0"",""0""
""blur"",""0"",""0""
""focus"",""0"",""0""
""blur"",""0"",""0""
""focus"",""0"",""0""
""blur"",""0"",""0""
""focus"",""0"",""0""
""blur"",""0"",""0""
""focus"",""1"",""2907""
""fullscreenenter"",""5"",""15087""
""fullscreenexit"",""6"",""22533""
""blur"",""6"",""26017""
""focus"",""6"",""30725""
""blur"",""7"",""36198""
""focus"",""7"",""47109""
","""event"",""trial"",""time""
""blur"",""0"",""0""
""blur"",""0"",""0""
""blur"",""0"",""0""
""blur"",""0"",""0""
""blur"",""0"",""0""
""blur"",""0"",""0""
""blur"",""0"",""0""
""blur"",""0"",""0""
""blur"",""0"",""0""
""blur"",""6"",""26017""
""blur"",""7"",""36198""
","""event"",""trial"",""time""
""focus"",""0"",""0""
""focus"",""0"",""0""
""focus"",""0"",""0""
""focus"",""0"",""0""
""focus"",""0"",""0""
""focus"",""0"",""0""
""focus"",""0"",""0""
""focus"",""0"",""0""
""focus"",""1"",""2907""
""focus"",""6"",""30725""
""focus"",""7"",""47109""
","""event"",""trial"",""time""
""fullscreenenter"",""5"",""15087""
","""event"",""trial"",""time""
""fullscreenexit"",""6"",""22533""
","","","","","","","","","","","","","","","","","","","","","",""
"d3-instructions","17","120265","0.0-17.0","1310","4987","22","Female","true","true","true","true","""event"",""trial"",""time""
""blur"",""0"",""0""
""focus"",""0"",""0""
""blur"",""0"",""0""
""focus"",""0"",""0""
""blur"",""0"",""0""
""focus"",""0"",""0""
""blur"",""0"",""0""
""focus"",""0"",""0""
""blur"",""0"",""0""
""focus"",""0"",""0""
""blur"",""0"",""0""
""focus"",""0"",""0""
""blur"",""0"",""0""
""focus"",""0"",""0""
""blur"",""0"",""0""
""focus"",""0"",""0""
""blur"",""0"",""0""
""focus"",""1"",""2907""
""fullscreenenter"",""5"",""15087""
""fullscreenexit"",""6"",""22533""
""blur"",""6"",""26017""
""focus"",""6"",""30725""
""blur"",""7"",""36198""
""focus"",""7"",""47109""
","""event"",""trial"",""time""
""blur"",""0"",""0""
""blur"",""0"",""0""
""blur"",""0"",""0""
""blur"",""0"",""0""
""blur"",""0"",""0""
""blur"",""0"",""0""
""blur"",""0"",""0""
""blur"",""0"",""0""
""blur"",""0"",""0""
""blur"",""6"",""26017""
""blur"",""7"",""36198""
","""event"",""trial"",""time""
""focus"",""0"",""0""
""focus"",""0"",""0""
""focus"",""0"",""0""
""focus"",""0"",""0""
""focus"",""0"",""0""
""focus"",""0"",""0""
""focus"",""0"",""0""
""focus"",""0"",""0""
""focus"",""1"",""2907""
""focus"",""6"",""30725""
""focus"",""7"",""47109""
","""event"",""trial"",""time""
""fullscreenenter"",""5"",""15087""
","""event"",""trial"",""time""
""fullscreenexit"",""6"",""22533""
","","","","","","","","","","","","","","","","","","","","","",""
"d3-instructions","18","132352","0.0-18.0","1310","4987","22","Female","true","true","true","true","""event"",""trial"",""time""
""blur"",""0"",""0""
""focus"",""0"",""0""
""blur"",""0"",""0""
""focus"",""0"",""0""
""blur"",""0"",""0""
""focus"",""0"",""0""
""blur"",""0"",""0""
""focus"",""0"",""0""
""blur"",""0"",""0""
""focus"",""0"",""0""
""blur"",""0"",""0""
""focus"",""0"",""0""
""blur"",""0"",""0""
""focus"",""0"",""0""
""blur"",""0"",""0""
""focus"",""0"",""0""
""blur"",""0"",""0""
""focus"",""1"",""2907""
""fullscreenenter"",""5"",""15087""
""fullscreenexit"",""6"",""22533""
""blur"",""6"",""26017""
""focus"",""6"",""30725""
""blur"",""7"",""36198""
""focus"",""7"",""47109""
","""event"",""trial"",""time""
""blur"",""0"",""0""
""blur"",""0"",""0""
""blur"",""0"",""0""
""blur"",""0"",""0""
""blur"",""0"",""0""
""blur"",""0"",""0""
""blur"",""0"",""0""
""blur"",""0"",""0""
""blur"",""0"",""0""
""blur"",""6"",""26017""
""blur"",""7"",""36198""
","""event"",""trial"",""time""
""focus"",""0"",""0""
""focus"",""0"",""0""
""focus"",""0"",""0""
""focus"",""0"",""0""
""focus"",""0"",""0""
""focus"",""0"",""0""
""focus"",""0"",""0""
""focus"",""0"",""0""
""focus"",""1"",""2907""
""focus"",""6"",""30725""
""focus"",""7"",""47109""
","""event"",""trial"",""time""
""fullscreenenter"",""5"",""15087""
","""event"",""trial"",""time""
""fullscreenexit"",""6"",""22533""
","","","","","","","","","","","","","","","","","","","","","",""
"d3-instructions","19","137281","0.0-19.0","1310","4987","22","Female","true","true","true","true","""event"",""trial"",""time""
""blur"",""0"",""0""
""focus"",""0"",""0""
""blur"",""0"",""0""
""focus"",""0"",""0""
""blur"",""0"",""0""
""focus"",""0"",""0""
""blur"",""0"",""0""
""focus"",""0"",""0""
""blur"",""0"",""0""
""focus"",""0"",""0""
""blur"",""0"",""0""
""focus"",""0"",""0""
""blur"",""0"",""0""
""focus"",""0"",""0""
""blur"",""0"",""0""
""focus"",""0"",""0""
""blur"",""0"",""0""
""focus"",""1"",""2907""
""fullscreenenter"",""5"",""15087""
""fullscreenexit"",""6"",""22533""
""blur"",""6"",""26017""
""focus"",""6"",""30725""
""blur"",""7"",""36198""
""focus"",""7"",""47109""
","""event"",""trial"",""time""
""blur"",""0"",""0""
""blur"",""0"",""0""
""blur"",""0"",""0""
""blur"",""0"",""0""
""blur"",""0"",""0""
""blur"",""0"",""0""
""blur"",""0"",""0""
""blur"",""0"",""0""
""blur"",""0"",""0""
""blur"",""6"",""26017""
""blur"",""7"",""36198""
","""event"",""trial"",""time""
""focus"",""0"",""0""
""focus"",""0"",""0""
""focus"",""0"",""0""
""focus"",""0"",""0""
""focus"",""0"",""0""
""focus"",""0"",""0""
""focus"",""0"",""0""
""focus"",""0"",""0""
""focus"",""1"",""2907""
""focus"",""6"",""30725""
""focus"",""7"",""47109""
","""event"",""trial"",""time""
""fullscreenenter"",""5"",""15087""
","""event"",""trial"",""time""
""fullscreenexit"",""6"",""22533""
","","","","","","","","","","","","","","","","","","","","","",""
"d3-animate-choice","20","140302","0.0-20.0","1310","4987","22","Female","true","true","true","true","""event"",""trial"",""time""
""blur"",""0"",""0""
""focus"",""0"",""0""
""blur"",""0"",""0""
""focus"",""0"",""0""
""blur"",""0"",""0""
""focus"",""0"",""0""
""blur"",""0"",""0""
""focus"",""0"",""0""
""blur"",""0"",""0""
""focus"",""0"",""0""
""blur"",""0"",""0""
""focus"",""0"",""0""
""blur"",""0"",""0""
""focus"",""0"",""0""
""blur"",""0"",""0""
""focus"",""0"",""0""
""blur"",""0"",""0""
""focus"",""1"",""2907""
""fullscreenenter"",""5"",""15087""
""fullscreenexit"",""6"",""22533""
""blur"",""6"",""26017""
""focus"",""6"",""30725""
""blur"",""7"",""36198""
""focus"",""7"",""47109""
","""event"",""trial"",""time""
""blur"",""0"",""0""
""blur"",""0"",""0""
""blur"",""0"",""0""
""blur"",""0"",""0""
""blur"",""0"",""0""
""blur"",""0"",""0""
""blur"",""0"",""0""
""blur"",""0"",""0""
""blur"",""0"",""0""
""blur"",""6"",""26017""
""blur"",""7"",""36198""
","""event"",""trial"",""time""
""focus"",""0"",""0""
""focus"",""0"",""0""
""focus"",""0"",""0""
""focus"",""0"",""0""
""focus"",""0"",""0""
""focus"",""0"",""0""
""focus"",""0"",""0""
""focus"",""0"",""0""
""focus"",""1"",""2907""
""focus"",""6"",""30725""
""focus"",""7"",""47109""
","""event"",""trial"",""time""
""fullscreenenter"",""5"",""15087""
","""event"",""trial"",""time""
""fullscreenexit"",""6"",""22533""
","1012.3000001907349","","49","","","3000","1","","","images/tutyellowplanet.jpg","null","images/tutalien3","null","images/tutalien3","images/nothing.png","NA","practice","null","","","",""
"d3-animate-choice","21","142669","0.0-21.0","1310","4987","22","Female","true","true","true","true","""event"",""trial"",""time""
""blur"",""0"",""0""
""focus"",""0"",""0""
""blur"",""0"",""0""
""focus"",""0"",""0""
""blur"",""0"",""0""
""focus"",""0"",""0""
""blur"",""0"",""0""
""focus"",""0"",""0""
""blur"",""0"",""0""
""focus"",""0"",""0""
""blur"",""0"",""0""
""focus"",""0"",""0""
""blur"",""0"",""0""
""focus"",""0"",""0""
""blur"",""0"",""0""
""focus"",""0"",""0""
""blur"",""0"",""0""
""focus"",""1"",""2907""
""fullscreenenter"",""5"",""15087""
""fullscreenexit"",""6"",""22533""
""blur"",""6"",""26017""
""focus"",""6"",""30725""
""blur"",""7"",""36198""
""focus"",""7"",""47109""
","""event"",""trial"",""time""
""blur"",""0"",""0""
""blur"",""0"",""0""
""blur"",""0"",""0""
""blur"",""0"",""0""
""blur"",""0"",""0""
""blur"",""0"",""0""
""blur"",""0"",""0""
""blur"",""0"",""0""
""blur"",""0"",""0""
""blur"",""6"",""26017""
""blur"",""7"",""36198""
","""event"",""trial"",""time""
""focus"",""0"",""0""
""focus"",""0"",""0""
""focus"",""0"",""0""
""focus"",""0"",""0""
""focus"",""0"",""0""
""focus"",""0"",""0""
""focus"",""0"",""0""
""focus"",""0"",""0""
""focus"",""1"",""2907""
""focus"",""6"",""30725""
""focus"",""7"",""47109""
","""event"",""trial"",""time""
""fullscreenenter"",""5"",""15087""
","""event"",""trial"",""time""
""fullscreenexit"",""6"",""22533""
","363.30000019073486","","49","","","3000","1","","","images/tutyellowplanet.jpg","null","images/tutalien3","null","images/tutalien3","images/nothing.png","NA","practice","null","","","",""
"d3-animate-choice","22","145138","0.0-22.0","1310","4987","22","Female","true","true","true","true","""event"",""trial"",""time""
""blur"",""0"",""0""
""focus"",""0"",""0""
""blur"",""0"",""0""
""focus"",""0"",""0""
""blur"",""0"",""0""
""focus"",""0"",""0""
""blur"",""0"",""0""
""focus"",""0"",""0""
""blur"",""0"",""0""
""focus"",""0"",""0""
""blur"",""0"",""0""
""focus"",""0"",""0""
""blur"",""0"",""0""
""focus"",""0"",""0""
""blur"",""0"",""0""
""focus"",""0"",""0""
""blur"",""0"",""0""
""focus"",""1"",""2907""
""fullscreenenter"",""5"",""15087""
""fullscreenexit"",""6"",""22533""
""blur"",""6"",""26017""
""focus"",""6"",""30725""
""blur"",""7"",""36198""
""focus"",""7"",""47109""
","""event"",""trial"",""time""
""blur"",""0"",""0""
""blur"",""0"",""0""
""blur"",""0"",""0""
""blur"",""0"",""0""
""blur"",""0"",""0""
""blur"",""0"",""0""
""blur"",""0"",""0""
""blur"",""0"",""0""
""blur"",""0"",""0""
""blur"",""6"",""26017""
""blur"",""7"",""36198""
","""event"",""trial"",""time""
""focus"",""0"",""0""
""focus"",""0"",""0""
""focus"",""0"",""0""
""focus"",""0"",""0""
""focus"",""0"",""0""
""focus"",""0"",""0""
""focus"",""0"",""0""
""focus"",""0"",""0""
""focus"",""1"",""2907""
""focus"",""6"",""30725""
""focus"",""7"",""47109""
","""event"",""trial"",""time""
""fullscreenenter"",""5"",""15087""
","""event"",""trial"",""time""
""fullscreenexit"",""6"",""22533""
","462.5","","49","","","3000","1","","","images/tutyellowplanet.jpg","null","images/tutalien3","null","images/tutalien3","images/nothing.png","NA","practice","null","","","",""
"d3-animate-choice","23","147523","0.0-23.0","1310","4987","22","Female","true","true","true","true","""event"",""trial"",""time""
""blur"",""0"",""0""
""focus"",""0"",""0""
""blur"",""0"",""0""
""focus"",""0"",""0""
""blur"",""0"",""0""
""focus"",""0"",""0""
""blur"",""0"",""0""
""focus"",""0"",""0""
""blur"",""0"",""0""
""focus"",""0"",""0""
""blur"",""0"",""0""
""focus"",""0"",""0""
""blur"",""0"",""0""
""focus"",""0"",""0""
""blur"",""0"",""0""
""focus"",""0"",""0""
""blur"",""0"",""0""
""focus"",""1"",""2907""
""fullscreenenter"",""5"",""15087""
""fullscreenexit"",""6"",""22533""
""blur"",""6"",""26017""
""focus"",""6"",""30725""
""blur"",""7"",""36198""
""focus"",""7"",""47109""
","""event"",""trial"",""time""
""blur"",""0"",""0""
""blur"",""0"",""0""
""blur"",""0"",""0""
""blur"",""0"",""0""
""blur"",""0"",""0""
""blur"",""0"",""0""
""blur"",""0"",""0""
""blur"",""0"",""0""
""blur"",""0"",""0""
""blur"",""6"",""26017""
""blur"",""7"",""36198""
","""event"",""trial"",""time""
""focus"",""0"",""0""
""focus"",""0"",""0""
""focus"",""0"",""0""
""focus"",""0"",""0""
""focus"",""0"",""0""
""focus"",""0"",""0""
""focus"",""0"",""0""
""focus"",""0"",""0""
""focus"",""1"",""2907""
""focus"",""6"",""30725""
""focus"",""7"",""47109""
","""event"",""trial"",""time""
""fullscreenenter"",""5"",""15087""
","""event"",""trial"",""time""
""fullscreenexit"",""6"",""22533""
","381.3999996185303","","49","","","3000","1","","","images/tutyellowplanet.jpg","null","images/tutalien3","null","images/tutalien3","images/t.png","NA","practice","null","","","",""
"d3-animate-choice","24","150167","0.0-24.0","1310","4987","22","Female","true","true","true","true","""event"",""trial"",""time""
""blur"",""0"",""0""
""focus"",""0"",""0""
""blur"",""0"",""0""
""focus"",""0"",""0""
""blur"",""0"",""0""
""focus"",""0"",""0""
""blur"",""0"",""0""
""focus"",""0"",""0""
""blur"",""0"",""0""
""focus"",""0"",""0""
""blur"",""0"",""0""
""focus"",""0"",""0""
""blur"",""0"",""0""
""focus"",""0"",""0""
""blur"",""0"",""0""
""focus"",""0"",""0""
""blur"",""0"",""0""
""focus"",""1"",""2907""
""fullscreenenter"",""5"",""15087""
""fullscreenexit"",""6"",""22533""
""blur"",""6"",""26017""
""focus"",""6"",""30725""
""blur"",""7"",""36198""
""focus"",""7"",""47109""
","""event"",""trial"",""time""
""blur"",""0"",""0""
""blur"",""0"",""0""
""blur"",""0"",""0""
""blur"",""0"",""0""
""blur"",""0"",""0""
""blur"",""0"",""0""
""blur"",""0"",""0""
""blur"",""0"",""0""
""blur"",""0"",""0""
""blur"",""6"",""26017""
""blur"",""7"",""36198""
","""event"",""trial"",""time""
""focus"",""0"",""0""
""focus"",""0"",""0""
""focus"",""0"",""0""
""focus"",""0"",""0""
""focus"",""0"",""0""
""focus"",""0"",""0""
""focus"",""0"",""0""
""focus"",""0"",""0""
""focus"",""1"",""2907""
""focus"",""6"",""30725""
""focus"",""7"",""47109""
","""event"",""trial"",""time""
""fullscreenenter"",""5"",""15087""
","""event"",""trial"",""time""
""fullscreenexit"",""6"",""22533""
","640.4000000953674","","49","","","3000","1","","","images/tutyellowplanet.jpg","null","images/tutalien3","null","images/tutalien3","images/t.png","NA","practice","null","","","",""
"d3-animate-choice","25","152899","0.0-25.0","1310","4987","22","Female","true","true","true","true","""event"",""trial"",""time""
""blur"",""0"",""0""
""focus"",""0"",""0""
""blur"",""0"",""0""
""focus"",""0"",""0""
""blur"",""0"",""0""
""focus"",""0"",""0""
""blur"",""0"",""0""
""focus"",""0"",""0""
""blur"",""0"",""0""
""focus"",""0"",""0""
""blur"",""0"",""0""
""focus"",""0"",""0""
""blur"",""0"",""0""
""focus"",""0"",""0""
""blur"",""0"",""0""
""focus"",""0"",""0""
""blur"",""0"",""0""
""focus"",""1"",""2907""
""fullscreenenter"",""5"",""15087""
""fullscreenexit"",""6"",""22533""
""blur"",""6"",""26017""
""focus"",""6"",""30725""
""blur"",""7"",""36198""
""focus"",""7"",""47109""
","""event"",""trial"",""time""
""blur"",""0"",""0""
""blur"",""0"",""0""
""blur"",""0"",""0""
""blur"",""0"",""0""
""blur"",""0"",""0""
""blur"",""0"",""0""
""blur"",""0"",""0""
""blur"",""0"",""0""
""blur"",""0"",""0""
""blur"",""6"",""26017""
""blur"",""7"",""36198""
","""event"",""trial"",""time""
""focus"",""0"",""0""
""focus"",""0"",""0""
""focus"",""0"",""0""
""focus"",""0"",""0""
""focus"",""0"",""0""
""focus"",""0"",""0""
""focus"",""0"",""0""
""focus"",""0"",""0""
""focus"",""1"",""2907""
""focus"",""6"",""30725""
""focus"",""7"",""47109""
","""event"",""trial"",""time""
""fullscreenenter"",""5"",""15087""
","""event"",""trial"",""time""
""fullscreenexit"",""6"",""22533""
","728.6000003814697","","49","","","3000","1","","","images/tutyellowplanet.jpg","null","images/tutalien3","null","images/tutalien3","images/nothing.png","NA","practice","null","","","",""
"d3-animate-choice","26","155456","0.0-26.0","1310","4987","22","Female","true","true","true","true","""event"",""trial"",""time""
""blur"",""0"",""0""
""focus"",""0"",""0""
""blur"",""0"",""0""
""focus"",""0"",""0""
""blur"",""0"",""0""
""focus"",""0"",""0""
""blur"",""0"",""0""
""focus"",""0"",""0""
""blur"",""0"",""0""
""focus"",""0"",""0""
""blur"",""0"",""0""
""focus"",""0"",""0""
""blur"",""0"",""0""
""focus"",""0"",""0""
""blur"",""0"",""0""
""focus"",""0"",""0""
""blur"",""0"",""0""
""focus"",""1"",""2907""
""fullscreenenter"",""5"",""15087""
""fullscreenexit"",""6"",""22533""
""blur"",""6"",""26017""
""focus"",""6"",""30725""
""blur"",""7"",""36198""
""focus"",""7"",""47109""
","""event"",""trial"",""time""
""blur"",""0"",""0""
""blur"",""0"",""0""
""blur"",""0"",""0""
""blur"",""0"",""0""
""blur"",""0"",""0""
""blur"",""0"",""0""
""blur"",""0"",""0""
""blur"",""0"",""0""
""blur"",""0"",""0""
""blur"",""6"",""26017""
""blur"",""7"",""36198""
","""event"",""trial"",""time""
""focus"",""0"",""0""
""focus"",""0"",""0""
""focus"",""0"",""0""
""focus"",""0"",""0""
""focus"",""0"",""0""
""focus"",""0"",""0""
""focus"",""0"",""0""
""focus"",""0"",""0""
""focus"",""1"",""2907""
""focus"",""6"",""30725""
""focus"",""7"",""47109""
","""event"",""trial"",""time""
""fullscreenenter"",""5"",""15087""
","""event"",""trial"",""time""
""fullscreenexit"",""6"",""22533""
","553.5999999046326","","49","","","3000","1","","","images/tutyellowplanet.jpg","null","images/tutalien3","null","images/tutalien3","images/t.png","NA","practice","null","","","",""
"d3-animate-choice","27","158029","0.0-27.0","1310","4987","22","Female","true","true","true","true","""event"",""trial"",""time""
""blur"",""0"",""0""
""focus"",""0"",""0""
""blur"",""0"",""0""
""focus"",""0"",""0""
""blur"",""0"",""0""
""focus"",""0"",""0""
""blur"",""0"",""0""
""focus"",""0"",""0""
""blur"",""0"",""0""
""focus"",""0"",""0""
""blur"",""0"",""0""
""focus"",""0"",""0""
""blur"",""0"",""0""
""focus"",""0"",""0""
""blur"",""0"",""0""
""focus"",""0"",""0""
""blur"",""0"",""0""
""focus"",""1"",""2907""
""fullscreenenter"",""5"",""15087""
""fullscreenexit"",""6"",""22533""
""blur"",""6"",""26017""
""focus"",""6"",""30725""
""blur"",""7"",""36198""
""focus"",""7"",""47109""
","""event"",""trial"",""time""
""blur"",""0"",""0""
""blur"",""0"",""0""
""blur"",""0"",""0""
""blur"",""0"",""0""
""blur"",""0"",""0""
""blur"",""0"",""0""
""blur"",""0"",""0""
""blur"",""0"",""0""
""blur"",""0"",""0""
""blur"",""6"",""26017""
""blur"",""7"",""36198""
","""event"",""trial"",""time""
""focus"",""0"",""0""
""focus"",""0"",""0""
""focus"",""0"",""0""
""focus"",""0"",""0""
""focus"",""0"",""0""
""focus"",""0"",""0""
""focus"",""0"",""0""
""focus"",""0"",""0""
""focus"",""1"",""2907""
""focus"",""6"",""30725""
""focus"",""7"",""47109""
","""event"",""trial"",""time""
""fullscreenenter"",""5"",""15087""
","""event"",""trial"",""time""
""fullscreenexit"",""6"",""22533""
","569.3999996185303","","49","","","3000","1","","","images/tutyellowplanet.jpg","null","images/tutalien3","null","images/tutalien3","images/t.png","NA","practice","null","","","",""
"d3-animate-choice","28","160684","0.0-28.0","1310","4987","22","Female","true","true","true","true","""event"",""trial"",""time""
""blur"",""0"",""0""
""focus"",""0"",""0""
""blur"",""0"",""0""
""focus"",""0"",""0""
""blur"",""0"",""0""
""focus"",""0"",""0""
""blur"",""0"",""0""
""focus"",""0"",""0""
""blur"",""0"",""0""
""focus"",""0"",""0""
""blur"",""0"",""0""
""focus"",""0"",""0""
""blur"",""0"",""0""
""focus"",""0"",""0""
""blur"",""0"",""0""
""focus"",""0"",""0""
""blur"",""0"",""0""
""focus"",""1"",""2907""
""fullscreenenter"",""5"",""15087""
""fullscreenexit"",""6"",""22533""
""blur"",""6"",""26017""
""focus"",""6"",""30725""
""blur"",""7"",""36198""
""focus"",""7"",""47109""
","""event"",""trial"",""time""
""blur"",""0"",""0""
""blur"",""0"",""0""
""blur"",""0"",""0""
""blur"",""0"",""0""
""blur"",""0"",""0""
""blur"",""0"",""0""
""blur"",""0"",""0""
""blur"",""0"",""0""
""blur"",""0"",""0""
""blur"",""6"",""26017""
""blur"",""7"",""36198""
","""event"",""trial"",""time""
""focus"",""0"",""0""
""focus"",""0"",""0""
""focus"",""0"",""0""
""focus"",""0"",""0""
""focus"",""0"",""0""
""focus"",""0"",""0""
""focus"",""0"",""0""
""focus"",""0"",""0""
""focus"",""1"",""2907""
""focus"",""6"",""30725""
""focus"",""7"",""47109""
","""event"",""trial"",""time""
""fullscreenenter"",""5"",""15087""
","""event"",""trial"",""time""
""fullscreenexit"",""6"",""22533""
","651.8000001907349","","49","","","3000","1","","","images/tutyellowplanet.jpg","null","images/tutalien3","null","images/tutalien3","images/t.png","NA","practice","null","","","",""
"d3-animate-choice","29","163259","0.0-29.0","1310","4987","22","Female","true","true","true","true","""event"",""trial"",""time""
""blur"",""0"",""0""
""focus"",""0"",""0""
""blur"",""0"",""0""
""focus"",""0"",""0""
""blur"",""0"",""0""
""focus"",""0"",""0""
""blur"",""0"",""0""
""focus"",""0"",""0""
""blur"",""0"",""0""
""focus"",""0"",""0""
""blur"",""0"",""0""
""focus"",""0"",""0""
""blur"",""0"",""0""
""focus"",""0"",""0""
""blur"",""0"",""0""
""focus"",""0"",""0""
""blur"",""0"",""0""
""focus"",""1"",""2907""
""fullscreenenter"",""5"",""15087""
""fullscreenexit"",""6"",""22533""
""blur"",""6"",""26017""
""focus"",""6"",""30725""
""blur"",""7"",""36198""
""focus"",""7"",""47109""
","""event"",""trial"",""time""
""blur"",""0"",""0""
""blur"",""0"",""0""
""blur"",""0"",""0""
""blur"",""0"",""0""
""blur"",""0"",""0""
""blur"",""0"",""0""
""blur"",""0"",""0""
""blur"",""0"",""0""
""blur"",""0"",""0""
""blur"",""6"",""26017""
""blur"",""7"",""36198""
","""event"",""trial"",""time""
""focus"",""0"",""0""
""focus"",""0"",""0""
""focus"",""0"",""0""
""focus"",""0"",""0""
""focus"",""0"",""0""
""focus"",""0"",""0""
""focus"",""0"",""0""
""focus"",""0"",""0""
""focus"",""1"",""2907""
""focus"",""6"",""30725""
""focus"",""7"",""47109""
","""event"",""trial"",""time""
""fullscreenenter"",""5"",""15087""
","""event"",""trial"",""time""
""fullscreenexit"",""6"",""22533""
","569.9000000953674","","49","","","3000","1","","","images/tutyellowplanet.jpg","null","images/tutalien3","null","images/tutalien3","images/t.png","NA","practice","null","","","",""
"d3-instructions","30","164893","0.0-30.0","1310","4987","22","Female","true","true","true","true","""event"",""trial"",""time""
""blur"",""0"",""0""
""focus"",""0"",""0""
""blur"",""0"",""0""
""focus"",""0"",""0""
""blur"",""0"",""0""
""focus"",""0"",""0""
""blur"",""0"",""0""
""focus"",""0"",""0""
""blur"",""0"",""0""
""focus"",""0"",""0""
""blur"",""0"",""0""
""focus"",""0"",""0""
""blur"",""0"",""0""
""focus"",""0"",""0""
""blur"",""0"",""0""
""focus"",""0"",""0""
""blur"",""0"",""0""
""focus"",""1"",""2907""
""fullscreenenter"",""5"",""15087""
""fullscreenexit"",""6"",""22533""
""blur"",""6"",""26017""
""focus"",""6"",""30725""
""blur"",""7"",""36198""
""focus"",""7"",""47109""
","""event"",""trial"",""time""
""blur"",""0"",""0""
""blur"",""0"",""0""
""blur"",""0"",""0""
""blur"",""0"",""0""
""blur"",""0"",""0""
""blur"",""0"",""0""
""blur"",""0"",""0""
""blur"",""0"",""0""
""blur"",""0"",""0""
""blur"",""6"",""26017""
""blur"",""7"",""36198""
","""event"",""trial"",""time""
""focus"",""0"",""0""
""focus"",""0"",""0""
""focus"",""0"",""0""
""focus"",""0"",""0""
""focus"",""0"",""0""
""focus"",""0"",""0""
""focus"",""0"",""0""
""focus"",""0"",""0""
""focus"",""1"",""2907""
""focus"",""6"",""30725""
""focus"",""7"",""47109""
","""event"",""trial"",""time""
""fullscreenenter"",""5"",""15087""
","""event"",""trial"",""time""
""fullscreenexit"",""6"",""22533""
","","","","","","","","","","","","","","","","","","","","","",""
"d3-instructions","31","168979","0.0-31.0","1310","4987","22","Female","true","true","true","true","""event"",""trial"",""time""
""blur"",""0"",""0""
""focus"",""0"",""0""
""blur"",""0"",""0""
""focus"",""0"",""0""
""blur"",""0"",""0""
""focus"",""0"",""0""
""blur"",""0"",""0""
""focus"",""0"",""0""
""blur"",""0"",""0""
""focus"",""0"",""0""
""blur"",""0"",""0""
""focus"",""0"",""0""
""blur"",""0"",""0""
""focus"",""0"",""0""
""blur"",""0"",""0""
""focus"",""0"",""0""
""blur"",""0"",""0""
""focus"",""1"",""2907""
""fullscreenenter"",""5"",""15087""
""fullscreenexit"",""6"",""22533""
""blur"",""6"",""26017""
""focus"",""6"",""30725""
""blur"",""7"",""36198""
""focus"",""7"",""47109""
","""event"",""trial"",""time""
""blur"",""0"",""0""
""blur"",""0"",""0""
""blur"",""0"",""0""
""blur"",""0"",""0""
""blur"",""0"",""0""
""blur"",""0"",""0""
""blur"",""0"",""0""
""blur"",""0"",""0""
""blur"",""0"",""0""
""blur"",""6"",""26017""
""blur"",""7"",""36198""
","""event"",""trial"",""time""
""focus"",""0"",""0""
""focus"",""0"",""0""
""focus"",""0"",""0""
""focus"",""0"",""0""
""focus"",""0"",""0""
""focus"",""0"",""0""
""focus"",""0"",""0""
""focus"",""0"",""0""
""focus"",""1"",""2907""
""focus"",""6"",""30725""
""focus"",""7"",""47109""
","""event"",""trial"",""time""
""fullscreenenter"",""5"",""15087""
","""event"",""trial"",""time""
""fullscreenexit"",""6"",""22533""
","","","","","","","","","","","","","","","","","","","","","",""
"d3-instructions","32","171006","0.0-32.0","1310","4987","22","Female","true","true","true","true","""event"",""trial"",""time""
""blur"",""0"",""0""
""focus"",""0"",""0""
""blur"",""0"",""0""
""focus"",""0"",""0""
""blur"",""0"",""0""
""focus"",""0"",""0""
""blur"",""0"",""0""
""focus"",""0"",""0""
""blur"",""0"",""0""
""focus"",""0"",""0""
""blur"",""0"",""0""
""focus"",""0"",""0""
""blur"",""0"",""0""
""focus"",""0"",""0""
""blur"",""0"",""0""
""focus"",""0"",""0""
""blur"",""0"",""0""
""focus"",""1"",""2907""
""fullscreenenter"",""5"",""15087""
""fullscreenexit"",""6"",""22533""
""blur"",""6"",""26017""
""focus"",""6"",""30725""
""blur"",""7"",""36198""
""focus"",""7"",""47109""
","""event"",""trial"",""time""
""blur"",""0"",""0""
""blur"",""0"",""0""
""blur"",""0"",""0""
""blur"",""0"",""0""
""blur"",""0"",""0""
""blur"",""0"",""0""
""blur"",""0"",""0""
""blur"",""0"",""0""
""blur"",""0"",""0""
""blur"",""6"",""26017""
""blur"",""7"",""36198""
","""event"",""trial"",""time""
""focus"",""0"",""0""
""focus"",""0"",""0""
""focus"",""0"",""0""
""focus"",""0"",""0""
""focus"",""0"",""0""
""focus"",""0"",""0""
""focus"",""0"",""0""
""focus"",""0"",""0""
""focus"",""1"",""2907""
""focus"",""6"",""30725""
""focus"",""7"",""47109""
","""event"",""trial"",""time""
""fullscreenenter"",""5"",""15087""
","""event"",""trial"",""time""
""fullscreenexit"",""6"",""22533""
","","","","","","","","","","","","","","","","","","","","","",""
"d3-instructions","33","173392","0.0-33.0","1310","4987","22","Female","true","true","true","true","""event"",""trial"",""time""
""blur"",""0"",""0""
""focus"",""0"",""0""
""blur"",""0"",""0""
""focus"",""0"",""0""
""blur"",""0"",""0""
""focus"",""0"",""0""
""blur"",""0"",""0""
""focus"",""0"",""0""
""blur"",""0"",""0""
""focus"",""0"",""0""
""blur"",""0"",""0""
""focus"",""0"",""0""
""blur"",""0"",""0""
""focus"",""0"",""0""
""blur"",""0"",""0""
""focus"",""0"",""0""
""blur"",""0"",""0""
""focus"",""1"",""2907""
""fullscreenenter"",""5"",""15087""
""fullscreenexit"",""6"",""22533""
""blur"",""6"",""26017""
""focus"",""6"",""30725""
""blur"",""7"",""36198""
""focus"",""7"",""47109""
","""event"",""trial"",""time""
""blur"",""0"",""0""
""blur"",""0"",""0""
""blur"",""0"",""0""
""blur"",""0"",""0""
""blur"",""0"",""0""
""blur"",""0"",""0""
""blur"",""0"",""0""
""blur"",""0"",""0""
""blur"",""0"",""0""
""blur"",""6"",""26017""
""blur"",""7"",""36198""
","""event"",""trial"",""time""
""focus"",""0"",""0""
""focus"",""0"",""0""
""focus"",""0"",""0""
""focus"",""0"",""0""
""focus"",""0"",""0""
""focus"",""0"",""0""
""focus"",""0"",""0""
""focus"",""0"",""0""
""focus"",""1"",""2907""
""focus"",""6"",""30725""
""focus"",""7"",""47109""
","""event"",""trial"",""time""
""fullscreenenter"",""5"",""15087""
","""event"",""trial"",""time""
""fullscreenexit"",""6"",""22533""
","","","","","","","","","","","","","","","","","","","","","",""
"d3-animate-choice","34","176178","0.0-34.0","1310","4987","22","Female","true","true","true","true","""event"",""trial"",""time""
""blur"",""0"",""0""
""focus"",""0"",""0""
""blur"",""0"",""0""
""focus"",""0"",""0""
""blur"",""0"",""0""
""focus"",""0"",""0""
""blur"",""0"",""0""
""focus"",""0"",""0""
""blur"",""0"",""0""
""focus"",""0"",""0""
""blur"",""0"",""0""
""focus"",""0"",""0""
""blur"",""0"",""0""
""focus"",""0"",""0""
""blur"",""0"",""0""
""focus"",""0"",""0""
""blur"",""0"",""0""
""focus"",""1"",""2907""
""fullscreenenter"",""5"",""15087""
""fullscreenexit"",""6"",""22533""
""blur"",""6"",""26017""
""focus"",""6"",""30725""
""blur"",""7"",""36198""
""focus"",""7"",""47109""
","""event"",""trial"",""time""
""blur"",""0"",""0""
""blur"",""0"",""0""
""blur"",""0"",""0""
""blur"",""0"",""0""
""blur"",""0"",""0""
""blur"",""0"",""0""
""blur"",""0"",""0""
""blur"",""0"",""0""
""blur"",""0"",""0""
""blur"",""6"",""26017""
""blur"",""7"",""36198""
","""event"",""trial"",""time""
""focus"",""0"",""0""
""focus"",""0"",""0""
""focus"",""0"",""0""
""focus"",""0"",""0""
""focus"",""0"",""0""
""focus"",""0"",""0""
""focus"",""0"",""0""
""focus"",""0"",""0""
""focus"",""1"",""2907""
""focus"",""6"",""30725""
""focus"",""7"",""47109""
","""event"",""trial"",""time""
""fullscreenenter"",""5"",""15087""
","""event"",""trial"",""time""
""fullscreenexit"",""6"",""22533""
","779.8000001907349","","49","","","3000","1","","","images/tutgreenplanet.jpg","images/tutalien1","images/tutalien2","null","images/tutalien2","images/t.png","NA","practice","null","","","",""
"d3-animate-choice","35","178529","0.0-35.0","1310","4987","22","Female","true","true","true","true","""event"",""trial"",""time""
""blur"",""0"",""0""
""focus"",""0"",""0""
""blur"",""0"",""0""
""focus"",""0"",""0""
""blur"",""0"",""0""
""focus"",""0"",""0""
""blur"",""0"",""0""
""focus"",""0"",""0""
""blur"",""0"",""0""
""focus"",""0"",""0""
""blur"",""0"",""0""
""focus"",""0"",""0""
""blur"",""0"",""0""
""focus"",""0"",""0""
""blur"",""0"",""0""
""focus"",""0"",""0""
""blur"",""0"",""0""
""focus"",""1"",""2907""
""fullscreenenter"",""5"",""15087""
""fullscreenexit"",""6"",""22533""
""blur"",""6"",""26017""
""focus"",""6"",""30725""
""blur"",""7"",""36198""
""focus"",""7"",""47109""
","""event"",""trial"",""time""
""blur"",""0"",""0""
""blur"",""0"",""0""
""blur"",""0"",""0""
""blur"",""0"",""0""
""blur"",""0"",""0""
""blur"",""0"",""0""
""blur"",""0"",""0""
""blur"",""0"",""0""
""blur"",""0"",""0""
""blur"",""6"",""26017""
""blur"",""7"",""36198""
","""event"",""trial"",""time""
""focus"",""0"",""0""
""focus"",""0"",""0""
""focus"",""0"",""0""
""focus"",""0"",""0""
""focus"",""0"",""0""
""focus"",""0"",""0""
""focus"",""0"",""0""
""focus"",""0"",""0""
""focus"",""1"",""2907""
""focus"",""6"",""30725""
""focus"",""7"",""47109""
","""event"",""trial"",""time""
""fullscreenenter"",""5"",""15087""
","""event"",""trial"",""time""
""fullscreenexit"",""6"",""22533""
","347.69999980926514","","49","","","3000","1","","","images/tutgreenplanet.jpg","images/tutalien1","images/tutalien2","null","images/tutalien2","images/t.png","NA","practice","null","","","",""
"d3-animate-choice","36","180841","0.0-36.0","1310","4987","22","Female","true","true","true","true","""event"",""trial"",""time""
""blur"",""0"",""0""
""focus"",""0"",""0""
""blur"",""0"",""0""
""focus"",""0"",""0""
""blur"",""0"",""0""
""focus"",""0"",""0""
""blur"",""0"",""0""
""focus"",""0"",""0""
""blur"",""0"",""0""
""focus"",""0"",""0""
""blur"",""0"",""0""
""focus"",""0"",""0""
""blur"",""0"",""0""
""focus"",""0"",""0""
""blur"",""0"",""0""
""focus"",""0"",""0""
""blur"",""0"",""0""
""focus"",""1"",""2907""
""fullscreenenter"",""5"",""15087""
""fullscreenexit"",""6"",""22533""
""blur"",""6"",""26017""
""focus"",""6"",""30725""
""blur"",""7"",""36198""
""focus"",""7"",""47109""
","""event"",""trial"",""time""
""blur"",""0"",""0""
""blur"",""0"",""0""
""blur"",""0"",""0""
""blur"",""0"",""0""
""blur"",""0"",""0""
""blur"",""0"",""0""
""blur"",""0"",""0""
""blur"",""0"",""0""
""blur"",""0"",""0""
""blur"",""6"",""26017""
""blur"",""7"",""36198""
","""event"",""trial"",""time""
""focus"",""0"",""0""
""focus"",""0"",""0""
""focus"",""0"",""0""
""focus"",""0"",""0""
""focus"",""0"",""0""
""focus"",""0"",""0""
""focus"",""0"",""0""
""focus"",""0"",""0""
""focus"",""1"",""2907""
""focus"",""6"",""30725""
""focus"",""7"",""47109""
","""event"",""trial"",""time""
""fullscreenenter"",""5"",""15087""
","""event"",""trial"",""time""
""fullscreenexit"",""6"",""22533""
","308.5","","49","","","3000","1","","","images/tutgreenplanet.jpg","images/tutalien1","images/tutalien2","null","images/tutalien2","images/t.png","NA","practice","null","","","",""
"d3-animate-choice","37","183147","0.0-37.0","1310","4987","22","Female","true","true","true","true","""event"",""trial"",""time""
""blur"",""0"",""0""
""focus"",""0"",""0""
""blur"",""0"",""0""
""focus"",""0"",""0""
""blur"",""0"",""0""
""focus"",""0"",""0""
""blur"",""0"",""0""
""focus"",""0"",""0""
""blur"",""0"",""0""
""focus"",""0"",""0""
""blur"",""0"",""0""
""focus"",""0"",""0""
""blur"",""0"",""0""
""focus"",""0"",""0""
""blur"",""0"",""0""
""focus"",""0"",""0""
""blur"",""0"",""0""
""focus"",""1"",""2907""
""fullscreenenter"",""5"",""15087""
""fullscreenexit"",""6"",""22533""
""blur"",""6"",""26017""
""focus"",""6"",""30725""
""blur"",""7"",""36198""
""focus"",""7"",""47109""
","""event"",""trial"",""time""
""blur"",""0"",""0""
""blur"",""0"",""0""
""blur"",""0"",""0""
""blur"",""0"",""0""
""blur"",""0"",""0""
""blur"",""0"",""0""
""blur"",""0"",""0""
""blur"",""0"",""0""
""blur"",""0"",""0""
""blur"",""6"",""26017""
""blur"",""7"",""36198""
","""event"",""trial"",""time""
""focus"",""0"",""0""
""focus"",""0"",""0""
""focus"",""0"",""0""
""focus"",""0"",""0""
""focus"",""0"",""0""
""focus"",""0"",""0""
""focus"",""0"",""0""
""focus"",""0"",""0""
""focus"",""1"",""2907""
""focus"",""6"",""30725""
""focus"",""7"",""47109""
","""event"",""trial"",""time""
""fullscreenenter"",""5"",""15087""
","""event"",""trial"",""time""
""fullscreenexit"",""6"",""22533""
","302.69999980926514","","48","","","3000","1","","","images/tutgreenplanet.jpg","images/tutalien1","images/tutalien2","null","images/tutalien1","images/nothing.png","NA","practice","null","","","",""
"d3-animate-choice","38","185423","0.0-38.0","1310","4987","22","Female","true","true","true","true","""event"",""trial"",""time""
""blur"",""0"",""0""
""focus"",""0"",""0""
""blur"",""0"",""0""
""focus"",""0"",""0""
""blur"",""0"",""0""
""focus"",""0"",""0""
""blur"",""0"",""0""
""focus"",""0"",""0""
""blur"",""0"",""0""
""focus"",""0"",""0""
""blur"",""0"",""0""
""focus"",""0"",""0""
""blur"",""0"",""0""
""focus"",""0"",""0""
""blur"",""0"",""0""
""focus"",""0"",""0""
""blur"",""0"",""0""
""focus"",""1"",""2907""
""fullscreenenter"",""5"",""15087""
""fullscreenexit"",""6"",""22533""
""blur"",""6"",""26017""
""focus"",""6"",""30725""
""blur"",""7"",""36198""
""focus"",""7"",""47109""
","""event"",""trial"",""time""
""blur"",""0"",""0""
""blur"",""0"",""0""
""blur"",""0"",""0""
""blur"",""0"",""0""
""blur"",""0"",""0""
""blur"",""0"",""0""
""blur"",""0"",""0""
""blur"",""0"",""0""
""blur"",""0"",""0""
""blur"",""6"",""26017""
""blur"",""7"",""36198""
","""event"",""trial"",""time""
""focus"",""0"",""0""
""focus"",""0"",""0""
""focus"",""0"",""0""
""focus"",""0"",""0""
""focus"",""0"",""0""
""focus"",""0"",""0""
""focus"",""0"",""0""
""focus"",""0"",""0""
""focus"",""1"",""2907""
""focus"",""6"",""30725""
""focus"",""7"",""47109""
","""event"",""trial"",""time""
""fullscreenenter"",""5"",""15087""
","""event"",""trial"",""time""
""fullscreenexit"",""6"",""22533""
","270.7000002861023","","49","","","3000","1","","","images/tutgreenplanet.jpg","images/tutalien1","images/tutalien2","null","images/tutalien2","images/t.png","NA","practice","null","","","",""
"d3-animate-choice","39","187837","0.0-39.0","1310","4987","22","Female","true","true","true","true","""event"",""trial"",""time""
""blur"",""0"",""0""
""focus"",""0"",""0""
""blur"",""0"",""0""
""focus"",""0"",""0""
""blur"",""0"",""0""
""focus"",""0"",""0""
""blur"",""0"",""0""
""focus"",""0"",""0""
""blur"",""0"",""0""
""focus"",""0"",""0""
""blur"",""0"",""0""
""focus"",""0"",""0""
""blur"",""0"",""0""
""focus"",""0"",""0""
""blur"",""0"",""0""
""focus"",""0"",""0""
""blur"",""0"",""0""
""focus"",""1"",""2907""
""fullscreenenter"",""5"",""15087""
""fullscreenexit"",""6"",""22533""
""blur"",""6"",""26017""
""focus"",""6"",""30725""
""blur"",""7"",""36198""
""focus"",""7"",""47109""
","""event"",""trial"",""time""
""blur"",""0"",""0""
""blur"",""0"",""0""
""blur"",""0"",""0""
""blur"",""0"",""0""
""blur"",""0"",""0""
""blur"",""0"",""0""
""blur"",""0"",""0""
""blur"",""0"",""0""
""blur"",""0"",""0""
""blur"",""6"",""26017""
""blur"",""7"",""36198""
","""event"",""trial"",""time""
""focus"",""0"",""0""
""focus"",""0"",""0""
""focus"",""0"",""0""
""focus"",""0"",""0""
""focus"",""0"",""0""
""focus"",""0"",""0""
""focus"",""0"",""0""
""focus"",""0"",""0""
""focus"",""1"",""2907""
""focus"",""6"",""30725""
""focus"",""7"",""47109""
","""event"",""trial"",""time""
""fullscreenenter"",""5"",""15087""
","""event"",""trial"",""time""
""fullscreenexit"",""6"",""22533""
","410.8999996185303","","49","","","3000","1","","","images/tutgreenplanet.jpg","images/tutalien1","images/tutalien2","null","images/tutalien2","images/t.png","NA","practice","null","","","",""
"d3-animate-choice","40","190224","0.0-40.0","1310","4987","22","Female","true","true","true","true","""event"",""trial"",""time""
""blur"",""0"",""0""
""focus"",""0"",""0""
""blur"",""0"",""0""
""focus"",""0"",""0""
""blur"",""0"",""0""
""focus"",""0"",""0""
""blur"",""0"",""0""
""focus"",""0"",""0""
""blur"",""0"",""0""
""focus"",""0"",""0""
""blur"",""0"",""0""
""focus"",""0"",""0""
""blur"",""0"",""0""
""focus"",""0"",""0""
""blur"",""0"",""0""
""focus"",""0"",""0""
""blur"",""0"",""0""
""focus"",""1"",""2907""
""fullscreenenter"",""5"",""15087""
""fullscreenexit"",""6"",""22533""
""blur"",""6"",""26017""
""focus"",""6"",""30725""
""blur"",""7"",""36198""
""focus"",""7"",""47109""
","""event"",""trial"",""time""
""blur"",""0"",""0""
""blur"",""0"",""0""
""blur"",""0"",""0""
""blur"",""0"",""0""
""blur"",""0"",""0""
""blur"",""0"",""0""
""blur"",""0"",""0""
""blur"",""0"",""0""
""blur"",""0"",""0""
""blur"",""6"",""26017""
""blur"",""7"",""36198""
","""event"",""trial"",""time""
""focus"",""0"",""0""
""focus"",""0"",""0""
""focus"",""0"",""0""
""focus"",""0"",""0""
""focus"",""0"",""0""
""focus"",""0"",""0""
""focus"",""0"",""0""
""focus"",""0"",""0""
""focus"",""1"",""2907""
""focus"",""6"",""30725""
""focus"",""7"",""47109""
","""event"",""trial"",""time""
""fullscreenenter"",""5"",""15087""
","""event"",""trial"",""time""
""fullscreenexit"",""6"",""22533""
","381.09999990463257","","49","","","3000","1","","","images/tutgreenplanet.jpg","images/tutalien1","images/tutalien2","null","images/tutalien2","images/t.png","NA","practice","null","","","",""
"d3-animate-choice","41","192546","0.0-41.0","1310","4987","22","Female","true","true","true","true","""event"",""trial"",""time""
""blur"",""0"",""0""
""focus"",""0"",""0""
""blur"",""0"",""0""
""focus"",""0"",""0""
""blur"",""0"",""0""
""focus"",""0"",""0""
""blur"",""0"",""0""
""focus"",""0"",""0""
""blur"",""0"",""0""
""focus"",""0"",""0""
""blur"",""0"",""0""
""focus"",""0"",""0""
""blur"",""0"",""0""
""focus"",""0"",""0""
""blur"",""0"",""0""
""focus"",""0"",""0""
""blur"",""0"",""0""
""focus"",""1"",""2907""
""fullscreenenter"",""5"",""15087""
""fullscreenexit"",""6"",""22533""
""blur"",""6"",""26017""
""focus"",""6"",""30725""
""blur"",""7"",""36198""
""focus"",""7"",""47109""
","""event"",""trial"",""time""
""blur"",""0"",""0""
""blur"",""0"",""0""
""blur"",""0"",""0""
""blur"",""0"",""0""
""blur"",""0"",""0""
""blur"",""0"",""0""
""blur"",""0"",""0""
""blur"",""0"",""0""
""blur"",""0"",""0""
""blur"",""6"",""26017""
""blur"",""7"",""36198""
","""event"",""trial"",""time""
""focus"",""0"",""0""
""focus"",""0"",""0""
""focus"",""0"",""0""
""focus"",""0"",""0""
""focus"",""0"",""0""
""focus"",""0"",""0""
""focus"",""0"",""0""
""focus"",""0"",""0""
""focus"",""1"",""2907""
""focus"",""6"",""30725""
""focus"",""7"",""47109""
","""event"",""trial"",""time""
""fullscreenenter"",""5"",""15087""
","""event"",""trial"",""time""
""fullscreenexit"",""6"",""22533""
","319.09999990463257","","49","","","3000","1","","","images/tutgreenplanet.jpg","images/tutalien1","images/tutalien2","null","images/tutalien2","images/t.png","NA","practice","null","","","",""
"d3-animate-choice","42","194895","0.0-42.0","1310","4987","22","Female","true","true","true","true","""event"",""trial"",""time""
""blur"",""0"",""0""
""focus"",""0"",""0""
""blur"",""0"",""0""
""focus"",""0"",""0""
""blur"",""0"",""0""
""focus"",""0"",""0""
""blur"",""0"",""0""
""focus"",""0"",""0""
""blur"",""0"",""0""
""focus"",""0"",""0""
""blur"",""0"",""0""
""focus"",""0"",""0""
""blur"",""0"",""0""
""focus"",""0"",""0""
""blur"",""0"",""0""
""focus"",""0"",""0""
""blur"",""0"",""0""
""focus"",""1"",""2907""
""fullscreenenter"",""5"",""15087""
""fullscreenexit"",""6"",""22533""
""blur"",""6"",""26017""
""focus"",""6"",""30725""
""blur"",""7"",""36198""
""focus"",""7"",""47109""
","""event"",""trial"",""time""
""blur"",""0"",""0""
""blur"",""0"",""0""
""blur"",""0"",""0""
""blur"",""0"",""0""
""blur"",""0"",""0""
""blur"",""0"",""0""
""blur"",""0"",""0""
""blur"",""0"",""0""
""blur"",""0"",""0""
""blur"",""6"",""26017""
""blur"",""7"",""36198""
","""event"",""trial"",""time""
""focus"",""0"",""0""
""focus"",""0"",""0""
""focus"",""0"",""0""
""focus"",""0"",""0""
""focus"",""0"",""0""
""focus"",""0"",""0""
""focus"",""0"",""0""
""focus"",""0"",""0""
""focus"",""1"",""2907""
""focus"",""6"",""30725""
""focus"",""7"",""47109""
","""event"",""trial"",""time""
""fullscreenenter"",""5"",""15087""
","""event"",""trial"",""time""
""fullscreenexit"",""6"",""22533""
","343.40000009536743","","49","","","3000","1","","","images/tutgreenplanet.jpg","images/tutalien1","images/tutalien2","null","images/tutalien2","images/t.png","NA","practice","null","","","",""
"d3-animate-choice","43","197221","0.0-43.0","1310","4987","22","Female","true","true","true","true","""event"",""trial"",""time""
""blur"",""0"",""0""
""focus"",""0"",""0""
""blur"",""0"",""0""
""focus"",""0"",""0""
""blur"",""0"",""0""
""focus"",""0"",""0""
""blur"",""0"",""0""
""focus"",""0"",""0""
""blur"",""0"",""0""
""focus"",""0"",""0""
""blur"",""0"",""0""
""focus"",""0"",""0""
""blur"",""0"",""0""
""focus"",""0"",""0""
""blur"",""0"",""0""
""focus"",""0"",""0""
""blur"",""0"",""0""
""focus"",""1"",""2907""
""fullscreenenter"",""5"",""15087""
""fullscreenexit"",""6"",""22533""
""blur"",""6"",""26017""
""focus"",""6"",""30725""
""blur"",""7"",""36198""
""focus"",""7"",""47109""
","""event"",""trial"",""time""
""blur"",""0"",""0""
""blur"",""0"",""0""
""blur"",""0"",""0""
""blur"",""0"",""0""
""blur"",""0"",""0""
""blur"",""0"",""0""
""blur"",""0"",""0""
""blur"",""0"",""0""
""blur"",""0"",""0""
""blur"",""6"",""26017""
""blur"",""7"",""36198""
","""event"",""trial"",""time""
""focus"",""0"",""0""
""focus"",""0"",""0""
""focus"",""0"",""0""
""focus"",""0"",""0""
""focus"",""0"",""0""
""focus"",""0"",""0""
""focus"",""0"",""0""
""focus"",""0"",""0""
""focus"",""1"",""2907""
""focus"",""6"",""30725""
""focus"",""7"",""47109""
","""event"",""trial"",""time""
""fullscreenenter"",""5"",""15087""
","""event"",""trial"",""time""
""fullscreenexit"",""6"",""22533""
","322.09999990463257","","49","","","3000","1","","","images/tutgreenplanet.jpg","images/tutalien1","images/tutalien2","null","images/tutalien2","images/t.png","NA","practice","null","","","",""
"d3-instructions","44","209383","0.0-44.0","1310","4987","22","Female","true","true","true","true","""event"",""trial"",""time""
""blur"",""0"",""0""
""focus"",""0"",""0""
""blur"",""0"",""0""
""focus"",""0"",""0""
""blur"",""0"",""0""
""focus"",""0"",""0""
""blur"",""0"",""0""
""focus"",""0"",""0""
""blur"",""0"",""0""
""focus"",""0"",""0""
""blur"",""0"",""0""
""focus"",""0"",""0""
""blur"",""0"",""0""
""focus"",""0"",""0""
""blur"",""0"",""0""
""focus"",""0"",""0""
""blur"",""0"",""0""
""focus"",""1"",""2907""
""fullscreenenter"",""5"",""15087""
""fullscreenexit"",""6"",""22533""
""blur"",""6"",""26017""
""focus"",""6"",""30725""
""blur"",""7"",""36198""
""focus"",""7"",""47109""
","""event"",""trial"",""time""
""blur"",""0"",""0""
""blur"",""0"",""0""
""blur"",""0"",""0""
""blur"",""0"",""0""
""blur"",""0"",""0""
""blur"",""0"",""0""
""blur"",""0"",""0""
""blur"",""0"",""0""
""blur"",""0"",""0""
""blur"",""6"",""26017""
""blur"",""7"",""36198""
","""event"",""trial"",""time""
""focus"",""0"",""0""
""focus"",""0"",""0""
""focus"",""0"",""0""
""focus"",""0"",""0""
""focus"",""0"",""0""
""focus"",""0"",""0""
""focus"",""0"",""0""
""focus"",""0"",""0""
""focus"",""1"",""2907""
""focus"",""6"",""30725""
""focus"",""7"",""47109""
","""event"",""trial"",""time""
""fullscreenenter"",""5"",""15087""
","""event"",""trial"",""time""
""fullscreenexit"",""6"",""22533""
","","","","","","","","","","","","","","","","","","","","","",""
"d3-instructions","45","212320","0.0-45.0","1310","4987","22","Female","true","true","true","true","""event"",""trial"",""time""
""blur"",""0"",""0""
""focus"",""0"",""0""
""blur"",""0"",""0""
""focus"",""0"",""0""
""blur"",""0"",""0""
""focus"",""0"",""0""
""blur"",""0"",""0""
""focus"",""0"",""0""
""blur"",""0"",""0""
""focus"",""0"",""0""
""blur"",""0"",""0""
""focus"",""0"",""0""
""blur"",""0"",""0""
""focus"",""0"",""0""
""blur"",""0"",""0""
""focus"",""0"",""0""
""blur"",""0"",""0""
""focus"",""1"",""2907""
""fullscreenenter"",""5"",""15087""
""fullscreenexit"",""6"",""22533""
""blur"",""6"",""26017""
""focus"",""6"",""30725""
""blur"",""7"",""36198""
""focus"",""7"",""47109""
","""event"",""trial"",""time""
""blur"",""0"",""0""
""blur"",""0"",""0""
""blur"",""0"",""0""
""blur"",""0"",""0""
""blur"",""0"",""0""
""blur"",""0"",""0""
""blur"",""0"",""0""
""blur"",""0"",""0""
""blur"",""0"",""0""
""blur"",""6"",""26017""
""blur"",""7"",""36198""
","""event"",""trial"",""time""
""focus"",""0"",""0""
""focus"",""0"",""0""
""focus"",""0"",""0""
""focus"",""0"",""0""
""focus"",""0"",""0""
""focus"",""0"",""0""
""focus"",""0"",""0""
""focus"",""0"",""0""
""focus"",""1"",""2907""
""focus"",""6"",""30725""
""focus"",""7"",""47109""
","""event"",""trial"",""time""
""fullscreenenter"",""5"",""15087""
","""event"",""trial"",""time""
""fullscreenexit"",""6"",""22533""
","","","","","","","","","","","","","","","","","","","","","",""
"d3-instructions","46","214451","0.0-46.0","1310","4987","22","Female","true","true","true","true","""event"",""trial"",""time""
""blur"",""0"",""0""
""focus"",""0"",""0""
""blur"",""0"",""0""
""focus"",""0"",""0""
""blur"",""0"",""0""
""focus"",""0"",""0""
""blur"",""0"",""0""
""focus"",""0"",""0""
""blur"",""0"",""0""
""focus"",""0"",""0""
""blur"",""0"",""0""
""focus"",""0"",""0""
""blur"",""0"",""0""
""focus"",""0"",""0""
""blur"",""0"",""0""
""focus"",""0"",""0""
""blur"",""0"",""0""
""focus"",""1"",""2907""
""fullscreenenter"",""5"",""15087""
""fullscreenexit"",""6"",""22533""
""blur"",""6"",""26017""
""focus"",""6"",""30725""
""blur"",""7"",""36198""
""focus"",""7"",""47109""
","""event"",""trial"",""time""
""blur"",""0"",""0""
""blur"",""0"",""0""
""blur"",""0"",""0""
""blur"",""0"",""0""
""blur"",""0"",""0""
""blur"",""0"",""0""
""blur"",""0"",""0""
""blur"",""0"",""0""
""blur"",""0"",""0""
""blur"",""6"",""26017""
""blur"",""7"",""36198""
","""event"",""trial"",""time""
""focus"",""0"",""0""
""focus"",""0"",""0""
""focus"",""0"",""0""
""focus"",""0"",""0""
""focus"",""0"",""0""
""focus"",""0"",""0""
""focus"",""0"",""0""
""focus"",""0"",""0""
""focus"",""1"",""2907""
""focus"",""6"",""30725""
""focus"",""7"",""47109""
","""event"",""trial"",""time""
""fullscreenenter"",""5"",""15087""
","""event"",""trial"",""time""
""fullscreenexit"",""6"",""22533""
","","","","","","","","","","","","","","","","","","","","","",""
"d3-instructions","47","224052","0.0-47.0","1310","4987","22","Female","true","true","true","true","""event"",""trial"",""time""
""blur"",""0"",""0""
""focus"",""0"",""0""
""blur"",""0"",""0""
""focus"",""0"",""0""
""blur"",""0"",""0""
""focus"",""0"",""0""
""blur"",""0"",""0""
""focus"",""0"",""0""
""blur"",""0"",""0""
""focus"",""0"",""0""
""blur"",""0"",""0""
""focus"",""0"",""0""
""blur"",""0"",""0""
""focus"",""0"",""0""
""blur"",""0"",""0""
""focus"",""0"",""0""
""blur"",""0"",""0""
""focus"",""1"",""2907""
""fullscreenenter"",""5"",""15087""
""fullscreenexit"",""6"",""22533""
""blur"",""6"",""26017""
""focus"",""6"",""30725""
""blur"",""7"",""36198""
""focus"",""7"",""47109""
","""event"",""trial"",""time""
""blur"",""0"",""0""
""blur"",""0"",""0""
""blur"",""0"",""0""
""blur"",""0"",""0""
""blur"",""0"",""0""
""blur"",""0"",""0""
""blur"",""0"",""0""
""blur"",""0"",""0""
""blur"",""0"",""0""
""blur"",""6"",""26017""
""blur"",""7"",""36198""
","""event"",""trial"",""time""
""focus"",""0"",""0""
""focus"",""0"",""0""
""focus"",""0"",""0""
""focus"",""0"",""0""
""focus"",""0"",""0""
""focus"",""0"",""0""
""focus"",""0"",""0""
""focus"",""0"",""0""
""focus"",""1"",""2907""
""focus"",""6"",""30725""
""focus"",""7"",""47109""
","""event"",""trial"",""time""
""fullscreenenter"",""5"",""15087""
","""event"",""trial"",""time""
""fullscreenexit"",""6"",""22533""
","","","","","","","","","","","","","","","","","","","","","",""
"d3-instructions","48","226092","0.0-48.0","1310","4987","22","Female","true","true","true","true","""event"",""trial"",""time""
""blur"",""0"",""0""
""focus"",""0"",""0""
""blur"",""0"",""0""
""focus"",""0"",""0""
""blur"",""0"",""0""
""focus"",""0"",""0""
""blur"",""0"",""0""
""focus"",""0"",""0""
""blur"",""0"",""0""
""focus"",""0"",""0""
""blur"",""0"",""0""
""focus"",""0"",""0""
""blur"",""0"",""0""
""focus"",""0"",""0""
""blur"",""0"",""0""
""focus"",""0"",""0""
""blur"",""0"",""0""
""focus"",""1"",""2907""
""fullscreenenter"",""5"",""15087""
""fullscreenexit"",""6"",""22533""
""blur"",""6"",""26017""
""focus"",""6"",""30725""
""blur"",""7"",""36198""
""focus"",""7"",""47109""
","""event"",""trial"",""time""
""blur"",""0"",""0""
""blur"",""0"",""0""
""blur"",""0"",""0""
""blur"",""0"",""0""
""blur"",""0"",""0""
""blur"",""0"",""0""
""blur"",""0"",""0""
""blur"",""0"",""0""
""blur"",""0"",""0""
""blur"",""6"",""26017""
""blur"",""7"",""36198""
","""event"",""trial"",""time""
""focus"",""0"",""0""
""focus"",""0"",""0""
""focus"",""0"",""0""
""focus"",""0"",""0""
""focus"",""0"",""0""
""focus"",""0"",""0""
""focus"",""0"",""0""
""focus"",""0"",""0""
""focus"",""1"",""2907""
""focus"",""6"",""30725""
""focus"",""7"",""47109""
","""event"",""trial"",""time""
""fullscreenenter"",""5"",""15087""
","""event"",""trial"",""time""
""fullscreenexit"",""6"",""22533""
","","","","","","","","","","","","","","","","","","","","","",""
"d3-instructions","49","233792","0.0-49.0","1310","4987","22","Female","true","true","true","true","""event"",""trial"",""time""
""blur"",""0"",""0""
""focus"",""0"",""0""
""blur"",""0"",""0""
""focus"",""0"",""0""
""blur"",""0"",""0""
""focus"",""0"",""0""
""blur"",""0"",""0""
""focus"",""0"",""0""
""blur"",""0"",""0""
""focus"",""0"",""0""
""blur"",""0"",""0""
""focus"",""0"",""0""
""blur"",""0"",""0""
""focus"",""0"",""0""
""blur"",""0"",""0""
""focus"",""0"",""0""
""blur"",""0"",""0""
""focus"",""1"",""2907""
""fullscreenenter"",""5"",""15087""
""fullscreenexit"",""6"",""22533""
""blur"",""6"",""26017""
""focus"",""6"",""30725""
""blur"",""7"",""36198""
""focus"",""7"",""47109""
","""event"",""trial"",""time""
""blur"",""0"",""0""
""blur"",""0"",""0""
""blur"",""0"",""0""
""blur"",""0"",""0""
""blur"",""0"",""0""
""blur"",""0"",""0""
""blur"",""0"",""0""
""blur"",""0"",""0""
""blur"",""0"",""0""
""blur"",""6"",""26017""
""blur"",""7"",""36198""
","""event"",""trial"",""time""
""focus"",""0"",""0""
""focus"",""0"",""0""
""focus"",""0"",""0""
""focus"",""0"",""0""
""focus"",""0"",""0""
""focus"",""0"",""0""
""focus"",""0"",""0""
""focus"",""0"",""0""
""focus"",""1"",""2907""
""focus"",""6"",""30725""
""focus"",""7"",""47109""
","""event"",""trial"",""time""
""fullscreenenter"",""5"",""15087""
","""event"",""trial"",""time""
""fullscreenexit"",""6"",""22533""
","","","","","","","","","","","","","","","","","","","","","",""
"d3-instructions","50","236212","0.0-50.0","1310","4987","22","Female","true","true","true","true","""event"",""trial"",""time""
""blur"",""0"",""0""
""focus"",""0"",""0""
""blur"",""0"",""0""
""focus"",""0"",""0""
""blur"",""0"",""0""
""focus"",""0"",""0""
""blur"",""0"",""0""
""focus"",""0"",""0""
""blur"",""0"",""0""
""focus"",""0"",""0""
""blur"",""0"",""0""
""focus"",""0"",""0""
""blur"",""0"",""0""
""focus"",""0"",""0""
""blur"",""0"",""0""
""focus"",""0"",""0""
""blur"",""0"",""0""
""focus"",""1"",""2907""
""fullscreenenter"",""5"",""15087""
""fullscreenexit"",""6"",""22533""
""blur"",""6"",""26017""
""focus"",""6"",""30725""
""blur"",""7"",""36198""
""focus"",""7"",""47109""
","""event"",""trial"",""time""
""blur"",""0"",""0""
""blur"",""0"",""0""
""blur"",""0"",""0""
""blur"",""0"",""0""
""blur"",""0"",""0""
""blur"",""0"",""0""
""blur"",""0"",""0""
""blur"",""0"",""0""
""blur"",""0"",""0""
""blur"",""6"",""26017""
""blur"",""7"",""36198""
","""event"",""trial"",""time""
""focus"",""0"",""0""
""focus"",""0"",""0""
""focus"",""0"",""0""
""focus"",""0"",""0""
""focus"",""0"",""0""
""focus"",""0"",""0""
""focus"",""0"",""0""
""focus"",""0"",""0""
""focus"",""1"",""2907""
""focus"",""6"",""30725""
""focus"",""7"",""47109""
","""event"",""trial"",""time""
""fullscreenenter"",""5"",""15087""
","""event"",""trial"",""time""
""fullscreenexit"",""6"",""22533""
","","","","","","","","","","","","","","","","","","","","","",""
"d3-instructions","51","237974","0.0-51.0","1310","4987","22","Female","true","true","true","true","""event"",""trial"",""time""
""blur"",""0"",""0""
""focus"",""0"",""0""
""blur"",""0"",""0""
""focus"",""0"",""0""
""blur"",""0"",""0""
""focus"",""0"",""0""
""blur"",""0"",""0""
""focus"",""0"",""0""
""blur"",""0"",""0""
""focus"",""0"",""0""
""blur"",""0"",""0""
""focus"",""0"",""0""
""blur"",""0"",""0""
""focus"",""0"",""0""
""blur"",""0"",""0""
""focus"",""0"",""0""
""blur"",""0"",""0""
""focus"",""1"",""2907""
""fullscreenenter"",""5"",""15087""
""fullscreenexit"",""6"",""22533""
""blur"",""6"",""26017""
""focus"",""6"",""30725""
""blur"",""7"",""36198""
""focus"",""7"",""47109""
","""event"",""trial"",""time""
""blur"",""0"",""0""
""blur"",""0"",""0""
""blur"",""0"",""0""
""blur"",""0"",""0""
""blur"",""0"",""0""
""blur"",""0"",""0""
""blur"",""0"",""0""
""blur"",""0"",""0""
""blur"",""0"",""0""
""blur"",""6"",""26017""
""blur"",""7"",""36198""
","""event"",""trial"",""time""
""focus"",""0"",""0""
""focus"",""0"",""0""
""focus"",""0"",""0""
""focus"",""0"",""0""
""focus"",""0"",""0""
""focus"",""0"",""0""
""focus"",""0"",""0""
""focus"",""0"",""0""
""focus"",""1"",""2907""
""focus"",""6"",""30725""
""focus"",""7"",""47109""
","""event"",""trial"",""time""
""fullscreenenter"",""5"",""15087""
","""event"",""trial"",""time""
""fullscreenexit"",""6"",""22533""
","","","","","","","","","","","","","","","","","","","","","",""
"d3-instructions","52","239234","0.0-52.0","1310","4987","22","Female","true","true","true","true","""event"",""trial"",""time""
""blur"",""0"",""0""
""focus"",""0"",""0""
""blur"",""0"",""0""
""focus"",""0"",""0""
""blur"",""0"",""0""
""focus"",""0"",""0""
""blur"",""0"",""0""
""focus"",""0"",""0""
""blur"",""0"",""0""
""focus"",""0"",""0""
""blur"",""0"",""0""
""focus"",""0"",""0""
""blur"",""0"",""0""
""focus"",""0"",""0""
""blur"",""0"",""0""
""focus"",""0"",""0""
""blur"",""0"",""0""
""focus"",""1"",""2907""
""fullscreenenter"",""5"",""15087""
""fullscreenexit"",""6"",""22533""
""blur"",""6"",""26017""
""focus"",""6"",""30725""
""blur"",""7"",""36198""
""focus"",""7"",""47109""
","""event"",""trial"",""time""
""blur"",""0"",""0""
""blur"",""0"",""0""
""blur"",""0"",""0""
""blur"",""0"",""0""
""blur"",""0"",""0""
""blur"",""0"",""0""
""blur"",""0"",""0""
""blur"",""0"",""0""
""blur"",""0"",""0""
""blur"",""6"",""26017""
""blur"",""7"",""36198""
","""event"",""trial"",""time""
""focus"",""0"",""0""
""focus"",""0"",""0""
""focus"",""0"",""0""
""focus"",""0"",""0""
""focus"",""0"",""0""
""focus"",""0"",""0""
""focus"",""0"",""0""
""focus"",""0"",""0""
""focus"",""1"",""2907""
""focus"",""6"",""30725""
""focus"",""7"",""47109""
","""event"",""trial"",""time""
""fullscreenenter"",""5"",""15087""
","""event"",""trial"",""time""
""fullscreenexit"",""6"",""22533""
","","","","","","","","","","","","","","","","","","","","","",""
"d3-instructions","53","244412","0.0-53.0","1310","4987","22","Female","true","true","true","true","""event"",""trial"",""time""
""blur"",""0"",""0""
""focus"",""0"",""0""
""blur"",""0"",""0""
""focus"",""0"",""0""
""blur"",""0"",""0""
""focus"",""0"",""0""
""blur"",""0"",""0""
""focus"",""0"",""0""
""blur"",""0"",""0""
""focus"",""0"",""0""
""blur"",""0"",""0""
""focus"",""0"",""0""
""blur"",""0"",""0""
""focus"",""0"",""0""
""blur"",""0"",""0""
""focus"",""0"",""0""
""blur"",""0"",""0""
""focus"",""1"",""2907""
""fullscreenenter"",""5"",""15087""
""fullscreenexit"",""6"",""22533""
""blur"",""6"",""26017""
""focus"",""6"",""30725""
""blur"",""7"",""36198""
""focus"",""7"",""47109""
","""event"",""trial"",""time""
""blur"",""0"",""0""
""blur"",""0"",""0""
""blur"",""0"",""0""
""blur"",""0"",""0""
""blur"",""0"",""0""
""blur"",""0"",""0""
""blur"",""0"",""0""
""blur"",""0"",""0""
""blur"",""0"",""0""
""blur"",""6"",""26017""
""blur"",""7"",""36198""
","""event"",""trial"",""time""
""focus"",""0"",""0""
""focus"",""0"",""0""
""focus"",""0"",""0""
""focus"",""0"",""0""
""focus"",""0"",""0""
""focus"",""0"",""0""
""focus"",""0"",""0""
""focus"",""0"",""0""
""focus"",""1"",""2907""
""focus"",""6"",""30725""
""focus"",""7"",""47109""
","""event"",""trial"",""time""
""fullscreenenter"",""5"",""15087""
","""event"",""trial"",""time""
""fullscreenexit"",""6"",""22533""
","","","","","","","","","","","","","","","","","","","","","",""
"d3-instructions","54","254698","0.0-54.0","1310","4987","22","Female","true","true","true","true","""event"",""trial"",""time""
""blur"",""0"",""0""
""focus"",""0"",""0""
""blur"",""0"",""0""
""focus"",""0"",""0""
""blur"",""0"",""0""
""focus"",""0"",""0""
""blur"",""0"",""0""
""focus"",""0"",""0""
""blur"",""0"",""0""
""focus"",""0"",""0""
""blur"",""0"",""0""
""focus"",""0"",""0""
""blur"",""0"",""0""
""focus"",""0"",""0""
""blur"",""0"",""0""
""focus"",""0"",""0""
""blur"",""0"",""0""
""focus"",""1"",""2907""
""fullscreenenter"",""5"",""15087""
""fullscreenexit"",""6"",""22533""
""blur"",""6"",""26017""
""focus"",""6"",""30725""
""blur"",""7"",""36198""
""focus"",""7"",""47109""
","""event"",""trial"",""time""
""blur"",""0"",""0""
""blur"",""0"",""0""
""blur"",""0"",""0""
""blur"",""0"",""0""
""blur"",""0"",""0""
""blur"",""0"",""0""
""blur"",""0"",""0""
""blur"",""0"",""0""
""blur"",""0"",""0""
""blur"",""6"",""26017""
""blur"",""7"",""36198""
","""event"",""trial"",""time""
""focus"",""0"",""0""
""focus"",""0"",""0""
""focus"",""0"",""0""
""focus"",""0"",""0""
""focus"",""0"",""0""
""focus"",""0"",""0""
""focus"",""0"",""0""
""focus"",""0"",""0""
""focus"",""1"",""2907""
""focus"",""6"",""30725""
""focus"",""7"",""47109""
","""event"",""trial"",""time""
""fullscreenenter"",""5"",""15087""
","""event"",""trial"",""time""
""fullscreenexit"",""6"",""22533""
","","","","","","","","","","","","","","","","","","","","","",""
"d3-instructions","55","258819","0.0-55.0","1310","4987","22","Female","true","true","true","true","""event"",""trial"",""time""
""blur"",""0"",""0""
""focus"",""0"",""0""
""blur"",""0"",""0""
""focus"",""0"",""0""
""blur"",""0"",""0""
""focus"",""0"",""0""
""blur"",""0"",""0""
""focus"",""0"",""0""
""blur"",""0"",""0""
""focus"",""0"",""0""
""blur"",""0"",""0""
""focus"",""0"",""0""
""blur"",""0"",""0""
""focus"",""0"",""0""
""blur"",""0"",""0""
""focus"",""0"",""0""
""blur"",""0"",""0""
""focus"",""1"",""2907""
""fullscreenenter"",""5"",""15087""
""fullscreenexit"",""6"",""22533""
""blur"",""6"",""26017""
""focus"",""6"",""30725""
""blur"",""7"",""36198""
""focus"",""7"",""47109""
","""event"",""trial"",""time""
""blur"",""0"",""0""
""blur"",""0"",""0""
""blur"",""0"",""0""
""blur"",""0"",""0""
""blur"",""0"",""0""
""blur"",""0"",""0""
""blur"",""0"",""0""
""blur"",""0"",""0""
""blur"",""0"",""0""
""blur"",""6"",""26017""
""blur"",""7"",""36198""
","""event"",""trial"",""time""
""focus"",""0"",""0""
""focus"",""0"",""0""
""focus"",""0"",""0""
""focus"",""0"",""0""
""focus"",""0"",""0""
""focus"",""0"",""0""
""focus"",""0"",""0""
""focus"",""0"",""0""
""focus"",""1"",""2907""
""focus"",""6"",""30725""
""focus"",""7"",""47109""
","""event"",""trial"",""time""
""fullscreenenter"",""5"",""15087""
","""event"",""trial"",""time""
""fullscreenexit"",""6"",""22533""
","","","","","","","","","","","","","","","","","","","","","",""
"d3-instructions","56","264186","0.0-56.0","1310","4987","22","Female","true","true","true","true","""event"",""trial"",""time""
""blur"",""0"",""0""
""focus"",""0"",""0""
""blur"",""0"",""0""
""focus"",""0"",""0""
""blur"",""0"",""0""
""focus"",""0"",""0""
""blur"",""0"",""0""
""focus"",""0"",""0""
""blur"",""0"",""0""
""focus"",""0"",""0""
""blur"",""0"",""0""
""focus"",""0"",""0""
""blur"",""0"",""0""
""focus"",""0"",""0""
""blur"",""0"",""0""
""focus"",""0"",""0""
""blur"",""0"",""0""
""focus"",""1"",""2907""
""fullscreenenter"",""5"",""15087""
""fullscreenexit"",""6"",""22533""
""blur"",""6"",""26017""
""focus"",""6"",""30725""
""blur"",""7"",""36198""
""focus"",""7"",""47109""
","""event"",""trial"",""time""
""blur"",""0"",""0""
""blur"",""0"",""0""
""blur"",""0"",""0""
""blur"",""0"",""0""
""blur"",""0"",""0""
""blur"",""0"",""0""
""blur"",""0"",""0""
""blur"",""0"",""0""
""blur"",""0"",""0""
""blur"",""6"",""26017""
""blur"",""7"",""36198""
","""event"",""trial"",""time""
""focus"",""0"",""0""
""focus"",""0"",""0""
""focus"",""0"",""0""
""focus"",""0"",""0""
""focus"",""0"",""0""
""focus"",""0"",""0""
""focus"",""0"",""0""
""focus"",""0"",""0""
""focus"",""1"",""2907""
""focus"",""6"",""30725""
""focus"",""7"",""47109""
","""event"",""trial"",""time""
""fullscreenenter"",""5"",""15087""
","""event"",""trial"",""time""
""fullscreenexit"",""6"",""22533""
","","","","","","","","","","","","","","","","","","","","","",""
"d3-instructions","57","267924","0.0-57.0","1310","4987","22","Female","true","true","true","true","""event"",""trial"",""time""
""blur"",""0"",""0""
""focus"",""0"",""0""
""blur"",""0"",""0""
""focus"",""0"",""0""
""blur"",""0"",""0""
""focus"",""0"",""0""
""blur"",""0"",""0""
""focus"",""0"",""0""
""blur"",""0"",""0""
""focus"",""0"",""0""
""blur"",""0"",""0""
""focus"",""0"",""0""
""blur"",""0"",""0""
""focus"",""0"",""0""
""blur"",""0"",""0""
""focus"",""0"",""0""
""blur"",""0"",""0""
""focus"",""1"",""2907""
""fullscreenenter"",""5"",""15087""
""fullscreenexit"",""6"",""22533""
""blur"",""6"",""26017""
""focus"",""6"",""30725""
""blur"",""7"",""36198""
""focus"",""7"",""47109""
","""event"",""trial"",""time""
""blur"",""0"",""0""
""blur"",""0"",""0""
""blur"",""0"",""0""
""blur"",""0"",""0""
""blur"",""0"",""0""
""blur"",""0"",""0""
""blur"",""0"",""0""
""blur"",""0"",""0""
""blur"",""0"",""0""
""blur"",""6"",""26017""
""blur"",""7"",""36198""
","""event"",""trial"",""time""
""focus"",""0"",""0""
""focus"",""0"",""0""
""focus"",""0"",""0""
""focus"",""0"",""0""
""focus"",""0"",""0""
""focus"",""0"",""0""
""focus"",""0"",""0""
""focus"",""0"",""0""
""focus"",""1"",""2907""
""focus"",""6"",""30725""
""focus"",""7"",""47109""
","""event"",""trial"",""time""
""fullscreenenter"",""5"",""15087""
","""event"",""trial"",""time""
""fullscreenexit"",""6"",""22533""
","","","","","","","","","","","","","","","","","","","","","",""
"d3-instructions","58","271524","0.0-58.0","1310","4987","22","Female","true","true","true","true","""event"",""trial"",""time""
""blur"",""0"",""0""
""focus"",""0"",""0""
""blur"",""0"",""0""
""focus"",""0"",""0""
""blur"",""0"",""0""
""focus"",""0"",""0""
""blur"",""0"",""0""
""focus"",""0"",""0""
""blur"",""0"",""0""
""focus"",""0"",""0""
""blur"",""0"",""0""
""focus"",""0"",""0""
""blur"",""0"",""0""
""focus"",""0"",""0""
""blur"",""0"",""0""
""focus"",""0"",""0""
""blur"",""0"",""0""
""focus"",""1"",""2907""
""fullscreenenter"",""5"",""15087""
""fullscreenexit"",""6"",""22533""
""blur"",""6"",""26017""
""focus"",""6"",""30725""
""blur"",""7"",""36198""
""focus"",""7"",""47109""
","""event"",""trial"",""time""
""blur"",""0"",""0""
""blur"",""0"",""0""
""blur"",""0"",""0""
""blur"",""0"",""0""
""blur"",""0"",""0""
""blur"",""0"",""0""
""blur"",""0"",""0""
""blur"",""0"",""0""
""blur"",""0"",""0""
""blur"",""6"",""26017""
""blur"",""7"",""36198""
","""event"",""trial"",""time""
""focus"",""0"",""0""
""focus"",""0"",""0""
""focus"",""0"",""0""
""focus"",""0"",""0""
""focus"",""0"",""0""
""focus"",""0"",""0""
""focus"",""0"",""0""
""focus"",""0"",""0""
""focus"",""1"",""2907""
""focus"",""6"",""30725""
""focus"",""7"",""47109""
","""event"",""trial"",""time""
""fullscreenenter"",""5"",""15087""
","""event"",""trial"",""time""
""fullscreenexit"",""6"",""22533""
","","","","","","","","","","","","","","","","","","","","","",""
"d3-instructions","59","273616","0.0-59.0","1310","4987","22","Female","true","true","true","true","""event"",""trial"",""time""
""blur"",""0"",""0""
""focus"",""0"",""0""
""blur"",""0"",""0""
""focus"",""0"",""0""
""blur"",""0"",""0""
""focus"",""0"",""0""
""blur"",""0"",""0""
""focus"",""0"",""0""
""blur"",""0"",""0""
""focus"",""0"",""0""
""blur"",""0"",""0""
""focus"",""0"",""0""
""blur"",""0"",""0""
""focus"",""0"",""0""
""blur"",""0"",""0""
""focus"",""0"",""0""
""blur"",""0"",""0""
""focus"",""1"",""2907""
""fullscreenenter"",""5"",""15087""
""fullscreenexit"",""6"",""22533""
""blur"",""6"",""26017""
""focus"",""6"",""30725""
""blur"",""7"",""36198""
""focus"",""7"",""47109""
","""event"",""trial"",""time""
""blur"",""0"",""0""
""blur"",""0"",""0""
""blur"",""0"",""0""
""blur"",""0"",""0""
""blur"",""0"",""0""
""blur"",""0"",""0""
""blur"",""0"",""0""
""blur"",""0"",""0""
""blur"",""0"",""0""
""blur"",""6"",""26017""
""blur"",""7"",""36198""
","""event"",""trial"",""time""
""focus"",""0"",""0""
""focus"",""0"",""0""
""focus"",""0"",""0""
""focus"",""0"",""0""
""focus"",""0"",""0""
""focus"",""0"",""0""
""focus"",""0"",""0""
""focus"",""0"",""0""
""focus"",""1"",""2907""
""focus"",""6"",""30725""
""focus"",""7"",""47109""
","""event"",""trial"",""time""
""fullscreenenter"",""5"",""15087""
","""event"",""trial"",""time""
""fullscreenexit"",""6"",""22533""
","","","","","","","","","","","","","","","","","","","","","",""
"d3-instructions","60","275808","0.0-60.0","1310","4987","22","Female","true","true","true","true","""event"",""trial"",""time""
""blur"",""0"",""0""
""focus"",""0"",""0""
""blur"",""0"",""0""
""focus"",""0"",""0""
""blur"",""0"",""0""
""focus"",""0"",""0""
""blur"",""0"",""0""
""focus"",""0"",""0""
""blur"",""0"",""0""
""focus"",""0"",""0""
""blur"",""0"",""0""
""focus"",""0"",""0""
""blur"",""0"",""0""
""focus"",""0"",""0""
""blur"",""0"",""0""
""focus"",""0"",""0""
""blur"",""0"",""0""
""focus"",""1"",""2907""
""fullscreenenter"",""5"",""15087""
""fullscreenexit"",""6"",""22533""
""blur"",""6"",""26017""
""focus"",""6"",""30725""
""blur"",""7"",""36198""
""focus"",""7"",""47109""
","""event"",""trial"",""time""
""blur"",""0"",""0""
""blur"",""0"",""0""
""blur"",""0"",""0""
""blur"",""0"",""0""
""blur"",""0"",""0""
""blur"",""0"",""0""
""blur"",""0"",""0""
""blur"",""0"",""0""
""blur"",""0"",""0""
""blur"",""6"",""26017""
""blur"",""7"",""36198""
","""event"",""trial"",""time""
""focus"",""0"",""0""
""focus"",""0"",""0""
""focus"",""0"",""0""
""focus"",""0"",""0""
""focus"",""0"",""0""
""focus"",""0"",""0""
""focus"",""0"",""0""
""focus"",""0"",""0""
""focus"",""1"",""2907""
""focus"",""6"",""30725""
""focus"",""7"",""47109""
","""event"",""trial"",""time""
""fullscreenenter"",""5"",""15087""
","""event"",""trial"",""time""
""fullscreenexit"",""6"",""22533""
","","","","","","","","","","","","","","","","","","","","","",""
"d3-animate-choice","61","278623","0.0-61.0-0.0","1310","4987","22","Female","true","true","true","true","""event"",""trial"",""time""
""blur"",""0"",""0""
""focus"",""0"",""0""
""blur"",""0"",""0""
""focus"",""0"",""0""
""blur"",""0"",""0""
""focus"",""0"",""0""
""blur"",""0"",""0""
""focus"",""0"",""0""
""blur"",""0"",""0""
""focus"",""0"",""0""
""blur"",""0"",""0""
""focus"",""0"",""0""
""blur"",""0"",""0""
""focus"",""0"",""0""
""blur"",""0"",""0""
""focus"",""0"",""0""
""blur"",""0"",""0""
""focus"",""1"",""2907""
""fullscreenenter"",""5"",""15087""
""fullscreenexit"",""6"",""22533""
""blur"",""6"",""26017""
""focus"",""6"",""30725""
""blur"",""7"",""36198""
""focus"",""7"",""47109""
","""event"",""trial"",""time""
""blur"",""0"",""0""
""blur"",""0"",""0""
""blur"",""0"",""0""
""blur"",""0"",""0""
""blur"",""0"",""0""
""blur"",""0"",""0""
""blur"",""0"",""0""
""blur"",""0"",""0""
""blur"",""0"",""0""
""blur"",""6"",""26017""
""blur"",""7"",""36198""
","""event"",""trial"",""time""
""focus"",""0"",""0""
""focus"",""0"",""0""
""focus"",""0"",""0""
""focus"",""0"",""0""
""focus"",""0"",""0""
""focus"",""0"",""0""
""focus"",""0"",""0""
""focus"",""0"",""0""
""focus"",""1"",""2907""
""focus"",""6"",""30725""
""focus"",""7"",""47109""
","""event"",""trial"",""time""
""fullscreenenter"",""5"",""15087""
","""event"",""trial"",""time""
""fullscreenexit"",""6"",""22533""
","811.1999998092651","","49","","","3000","1","","","images/earth.jpg","images/tutrocket2","images/tutrocket1","null","images/tutrocket1","","1","practice","null","1","","",""
"d3-animate-choice","62","282400","0.0-61.0-1.0","1310","4987","22","Female","true","true","true","true","""event"",""trial"",""time""
""blur"",""0"",""0""
""focus"",""0"",""0""
""blur"",""0"",""0""
""focus"",""0"",""0""
""blur"",""0"",""0""
""focus"",""0"",""0""
""blur"",""0"",""0""
""focus"",""0"",""0""
""blur"",""0"",""0""
""focus"",""0"",""0""
""blur"",""0"",""0""
""focus"",""0"",""0""
""blur"",""0"",""0""
""focus"",""0"",""0""
""blur"",""0"",""0""
""focus"",""0"",""0""
""blur"",""0"",""0""
""focus"",""1"",""2907""
""fullscreenenter"",""5"",""15087""
""fullscreenexit"",""6"",""22533""
""blur"",""6"",""26017""
""focus"",""6"",""30725""
""blur"",""7"",""36198""
""focus"",""7"",""47109""
","""event"",""trial"",""time""
""blur"",""0"",""0""
""blur"",""0"",""0""
""blur"",""0"",""0""
""blur"",""0"",""0""
""blur"",""0"",""0""
""blur"",""0"",""0""
""blur"",""0"",""0""
""blur"",""0"",""0""
""blur"",""0"",""0""
""blur"",""6"",""26017""
""blur"",""7"",""36198""
","""event"",""trial"",""time""
""focus"",""0"",""0""
""focus"",""0"",""0""
""focus"",""0"",""0""
""focus"",""0"",""0""
""focus"",""0"",""0""
""focus"",""0"",""0""
""focus"",""0"",""0""
""focus"",""0"",""0""
""focus"",""1"",""2907""
""focus"",""6"",""30725""
""focus"",""7"",""47109""
","""event"",""trial"",""time""
""fullscreenenter"",""5"",""15087""
","""event"",""trial"",""time""
""fullscreenexit"",""6"",""22533""
","1772.7000002861023","","49","","","3000","1","","","images/tutgreenplanet.jpg","images/tutalien2","images/tutalien1","images/tutrocket1","images/tutalien1","images/t.png","2","practice","true","1","common","1","2022-12-05 20:06:04.947"
"two-step-fixation","63","283407","0.0-61.0-2.0","1310","4987","22","Female","true","true","true","true","""event"",""trial"",""time""
""blur"",""0"",""0""
""focus"",""0"",""0""
""blur"",""0"",""0""
""focus"",""0"",""0""
""blur"",""0"",""0""
""focus"",""0"",""0""
""blur"",""0"",""0""
""focus"",""0"",""0""
""blur"",""0"",""0""
""focus"",""0"",""0""
""blur"",""0"",""0""
""focus"",""0"",""0""
""blur"",""0"",""0""
""focus"",""0"",""0""
""blur"",""0"",""0""
""focus"",""0"",""0""
""blur"",""0"",""0""
""focus"",""1"",""2907""
""fullscreenenter"",""5"",""15087""
""fullscreenexit"",""6"",""22533""
""blur"",""6"",""26017""
""focus"",""6"",""30725""
""blur"",""7"",""36198""
""focus"",""7"",""47109""
","""event"",""trial"",""time""
""blur"",""0"",""0""
""blur"",""0"",""0""
""blur"",""0"",""0""
""blur"",""0"",""0""
""blur"",""0"",""0""
""blur"",""0"",""0""
""blur"",""0"",""0""
""blur"",""0"",""0""
""blur"",""0"",""0""
""blur"",""6"",""26017""
""blur"",""7"",""36198""
","""event"",""trial"",""time""
""focus"",""0"",""0""
""focus"",""0"",""0""
""focus"",""0"",""0""
""focus"",""0"",""0""
""focus"",""0"",""0""
""focus"",""0"",""0""
""focus"",""0"",""0""
""focus"",""0"",""0""
""focus"",""1"",""2907""
""focus"",""6"",""30725""
""focus"",""7"",""47109""
","""event"",""trial"",""time""
""fullscreenenter"",""5"",""15087""
","""event"",""trial"",""time""
""fullscreenexit"",""6"",""22533""
","","images/earth.jpg","","","","","","","","","","","","","","fixation","","","","","",""
"d3-animate-choice","64","285784","0.0-61.0-0.1","1310","4987","22","Female","true","true","true","true","""event"",""trial"",""time""
""blur"",""0"",""0""
""focus"",""0"",""0""
""blur"",""0"",""0""
""focus"",""0"",""0""
""blur"",""0"",""0""
""focus"",""0"",""0""
""blur"",""0"",""0""
""focus"",""0"",""0""
""blur"",""0"",""0""
""focus"",""0"",""0""
""blur"",""0"",""0""
""focus"",""0"",""0""
""blur"",""0"",""0""
""focus"",""0"",""0""
""blur"",""0"",""0""
""focus"",""0"",""0""
""blur"",""0"",""0""
""focus"",""1"",""2907""
""fullscreenenter"",""5"",""15087""
""fullscreenexit"",""6"",""22533""
""blur"",""6"",""26017""
""focus"",""6"",""30725""
""blur"",""7"",""36198""
""focus"",""7"",""47109""
","""event"",""trial"",""time""
""blur"",""0"",""0""
""blur"",""0"",""0""
""blur"",""0"",""0""
""blur"",""0"",""0""
""blur"",""0"",""0""
""blur"",""0"",""0""
""blur"",""0"",""0""
""blur"",""0"",""0""
""blur"",""0"",""0""
""blur"",""6"",""26017""
""blur"",""7"",""36198""
","""event"",""trial"",""time""
""focus"",""0"",""0""
""focus"",""0"",""0""
""focus"",""0"",""0""
""focus"",""0"",""0""
""focus"",""0"",""0""
""focus"",""0"",""0""
""focus"",""0"",""0""
""focus"",""0"",""0""
""focus"",""1"",""2907""
""focus"",""6"",""30725""
""focus"",""7"",""47109""
","""event"",""trial"",""time""
""fullscreenenter"",""5"",""15087""
","""event"",""trial"",""time""
""fullscreenexit"",""6"",""22533""
","372.90000009536743","","49","","","3000","1","","","images/earth.jpg","images/tutrocket2","images/tutrocket1","null","images/tutrocket1","","1","practice","null","1","","",""
"d3-animate-choice","65","288849","0.0-61.0-1.1","1310","4987","22","Female","true","true","true","true","""event"",""trial"",""time""
""blur"",""0"",""0""
""focus"",""0"",""0""
""blur"",""0"",""0""
