"trial_type","trial_index","time_elapsed","internal_node_id","participant_id","subject_id","age","gender","rocket_sides","red_planet_first_rocket","red_display_order","purple_display_order","interactions","blur_events","focus_events","fullscreenenter_events","fullscreenexit_events","rt","stimulus","key_press","button_pressed","success","duration","valid_pressed","rts","keys","planet_text","right_text","left_text","center_text","chosen_text","reward_text","trial_stage","practice_trial","transition_type","choice","transition","reward","timestamp"
"pavlovia","0","2","0.0-0.0","1013","5353","11","Male","true","false","false","true","
","
","
","
","
","","","","","","","","","","","","","","","","","","","","","",""
"html-keyboard-response","1","2556","0.0-1.0","1013","5353","11","Male","true","false","false","true","
","
","
","
","
","2552.5999999940395","Welcome! Press the space bar to begin.","32","","","","","","","","","","","","","","","","","","",""
"audio-keyboard-response","2","6571","0.0-2.0","1013","5353","11","Male","true","false","false","true","
","
","
","
","
","3840","audio/beep_loop.wav","32","","","","","","","","","","","","","","","","","","",""
"audio-button-response","3","12142","0.0-3.0","1013","5353","11","Male","true","false","false","true","
","
","
","
","
","NaN","audio/fish.mp3","","1","","","","","","","","","","","","","","","","","",""
"audio-button-response","4","15182","0.0-4.0","1013","5353","11","Male","true","false","false","true","""event"",""trial"",""time""
""fullscreenenter"",""5"",""21139""
","
","
","""event"",""trial"",""time""
""fullscreenenter"",""5"",""21139""
","
","NaN","audio/tiger.mp3","","4","","","","","","","","","","","","","","","","","",""
"fullscreen","5","22129","0.0-5.0","1013","5353","11","Male","true","false","false","true","""event"",""trial"",""time""
""fullscreenenter"",""5"",""21139""
","
","
","""event"",""trial"",""time""
""fullscreenenter"",""5"",""21139""
","
","","","","","true","","","","","","","","","","","","","","","","",""
"d3-instructions","6","48315","0.0-6.0","1013","5353","11","Male","true","false","false","true","""event"",""trial"",""time""
""fullscreenenter"",""5"",""21139""
","
","
","""event"",""trial"",""time""
""fullscreenenter"",""5"",""21139""
","
","","","","","","","","","","","","","","","","","","","","","",""
"d3-instructions","7","58183","0.0-7.0","1013","5353","11","Male","true","false","false","true","""event"",""trial"",""time""
""fullscreenenter"",""5"",""21139""
","
","
","""event"",""trial"",""time""
""fullscreenenter"",""5"",""21139""
","
","","","","","","","","","","","","","","","","","","","","","",""
"d3-instructions","8","66537","0.0-8.0","1013","5353","11","Male","true","false","false","true","""event"",""trial"",""time""
""fullscreenenter"",""5"",""21139""
","
","
","""event"",""trial"",""time""
""fullscreenenter"",""5"",""21139""
","
","","","","","","","","","","","","","","","","","","","","","",""
"d3-instructions","9","77715","0.0-9.0","1013","5353","11","Male","true","false","false","true","""event"",""trial"",""time""
""fullscreenenter"",""5"",""21139""
","
","
","""event"",""trial"",""time""
""fullscreenenter"",""5"",""21139""
","
","","","","","","","","","","","","","","","","","","","","","",""
"d3-instructions","10","97600","0.0-10.0","1013","5353","11","Male","true","false","false","true","""event"",""trial"",""time""
""fullscreenenter"",""5"",""21139""
","
","
","""event"",""trial"",""time""
""fullscreenenter"",""5"",""21139""
","
","","","","","","","","","","","","","","","","","","","","","",""
"d3-animate-choice","11","100882","0.0-11.0","1013","5353","11","Male","true","false","false","true","""event"",""trial"",""time""
""fullscreenenter"",""5"",""21139""
","
","
","""event"",""trial"",""time""
""fullscreenenter"",""5"",""21139""
","
","1264.5","","49","","","3000","1","3013.1999999955297","48","images/tutgreenplanet.jpg","images/tutalien1","images/tutalien2","null","images/tutalien2","","NA","practice","null","","","",""
"d3-animate-choice","12","103553","0.0-12.0","1013","5353","11","Male","true","false","false","true","""event"",""trial"",""time""
""fullscreenenter"",""5"",""21139""
","
","
","""event"",""trial"",""time""
""fullscreenenter"",""5"",""21139""
","
","664.7999999970198","","48","","","3000","1","","","images/tutgreenplanet.jpg","images/tutalien1","images/tutalien2","null","images/tutalien1","","NA","practice","null","","","",""
"d3-animate-choice","13","106250","0.0-13.0","1013","5353","11","Male","true","false","false","true","""event"",""trial"",""time""
""fullscreenenter"",""5"",""21139""
","
","
","""event"",""trial"",""time""
""fullscreenenter"",""5"",""21139""
","
","685.6000000014901","","49","","","3000","1","","","images/tutgreenplanet.jpg","images/tutalien1","images/tutalien2","null","images/tutalien2","","NA","practice","null","","","",""
"d3-animate-choice","14","108793","0.0-14.0","1013","5353","11","Male","true","false","false","true","""event"",""trial"",""time""
""fullscreenenter"",""5"",""21139""
","
","
","""event"",""trial"",""time""
""fullscreenenter"",""5"",""21139""
","
","531.3999999985099","","48","","","3000","1","","","images/tutgreenplanet.jpg","images/tutalien1","images/tutalien2","null","images/tutalien1","","NA","practice","null","","","",""
"d3-instructions","15","114964","0.0-15.0","1013","5353","11","Male","true","false","false","true","""event"",""trial"",""time""
""fullscreenenter"",""5"",""21139""
","
","
","""event"",""trial"",""time""
""fullscreenenter"",""5"",""21139""
","
","","","","","","","","","","","","","","","","","","","","","",""
"d3-instructions","16","121444","0.0-16.0","1013","5353","11","Male","true","false","false","true","""event"",""trial"",""time""
""fullscreenenter"",""5"",""21139""
","
","
","""event"",""trial"",""time""
""fullscreenenter"",""5"",""21139""
","
","","","","","","","","","","","","","","","","","","","","","",""
"d3-instructions","17","130220","0.0-17.0","1013","5353","11","Male","true","false","false","true","""event"",""trial"",""time""
""fullscreenenter"",""5"",""21139""
","
","
","""event"",""trial"",""time""
""fullscreenenter"",""5"",""21139""
","
","","","","","","","","","","","","","","","","","","","","","",""
"d3-instructions","18","143751","0.0-18.0","1013","5353","11","Male","true","false","false","true","""event"",""trial"",""time""
""fullscreenenter"",""5"",""21139""
","
","
","""event"",""trial"",""time""
""fullscreenenter"",""5"",""21139""
","
","","","","","","","","","","","","","","","","","","","","","",""
"d3-instructions","19","157331","0.0-19.0","1013","5353","11","Male","true","false","false","true","""event"",""trial"",""time""
""fullscreenenter"",""5"",""21139""
","
","
","""event"",""trial"",""time""
""fullscreenenter"",""5"",""21139""
","
","","","","","","","","","","","","","","","","","","","","","",""
"d3-animate-choice","20","160650","0.0-20.0","1013","5353","11","Male","true","false","false","true","""event"",""trial"",""time""
""fullscreenenter"",""5"",""21139""
","
","
","""event"",""trial"",""time""
""fullscreenenter"",""5"",""21139""
","
","1308.8000000044703","","49","","","3000","1","","","images/tutyellowplanet.jpg","null","images/tutalien3","null","images/tutalien3","images/t.png","NA","practice","null","","","",""
"d3-animate-choice","21","163042","0.0-21.0","1013","5353","11","Male","true","false","false","true","""event"",""trial"",""time""
""fullscreenenter"",""5"",""21139""
","
","
","""event"",""trial"",""time""
""fullscreenenter"",""5"",""21139""
","
","382.19999999552965","","49","","","3000","1","","","images/tutyellowplanet.jpg","null","images/tutalien3","null","images/tutalien3","images/t.png","NA","practice","null","","","",""
"d3-animate-choice","22","165314","0.0-22.0","1013","5353","11","Male","true","false","false","true","""event"",""trial"",""time""
""fullscreenenter"",""5"",""21139""
","
","
","""event"",""trial"",""time""
""fullscreenenter"",""5"",""21139""
","
","260.80000000447035","","49","","","3000","1","","","images/tutyellowplanet.jpg","null","images/tutalien3","null","images/tutalien3","images/nothing.png","NA","practice","null","","","",""
"d3-animate-choice","23","167658","0.0-23.0","1013","5353","11","Male","true","false","false","true","""event"",""trial"",""time""
""fullscreenenter"",""5"",""21139""
","
","
","""event"",""trial"",""time""
""fullscreenenter"",""5"",""21139""
","
","338.8999999985099","","49","","","3000","1","","","images/tutyellowplanet.jpg","null","images/tutalien3","null","images/tutalien3","images/t.png","NA","practice","null","","","",""
"d3-animate-choice","24","169778","0.0-24.0","1013","5353","11","Male","true","false","false","true","""event"",""trial"",""time""
""fullscreenenter"",""5"",""21139""
","
","
","""event"",""trial"",""time""
""fullscreenenter"",""5"",""21139""
","
","109.39999999850988","","49","","","3000","1","","","images/tutyellowplanet.jpg","null","images/tutalien3","null","images/tutalien3","images/t.png","NA","practice","null","","","",""
"d3-animate-choice","25","172050","0.0-25.0","1013","5353","11","Male","true","false","false","true","""event"",""trial"",""time""
""fullscreenenter"",""5"",""21139""
","
","
","""event"",""trial"",""time""
""fullscreenenter"",""5"",""21139""
","
","261.70000000298023","","49","","","3000","1","","","images/tutyellowplanet.jpg","null","images/tutalien3","null","images/tutalien3","images/t.png","NA","practice","null","","","",""
"d3-animate-choice","26","174474","0.0-26.0","1013","5353","11","Male","true","false","false","true","""event"",""trial"",""time""
""fullscreenenter"",""5"",""21139""
","
","
","""event"",""trial"",""time""
""fullscreenenter"",""5"",""21139""
","
","412.80000000447035","","49","","","3000","1","","","images/tutyellowplanet.jpg","null","images/tutalien3","null","images/tutalien3","images/t.png","NA","practice","null","","","",""
"d3-animate-choice","27","176778","0.0-27.0","1013","5353","11","Male","true","false","false","true","""event"",""trial"",""time""
""fullscreenenter"",""5"",""21139""
","
","
","""event"",""trial"",""time""
""fullscreenenter"",""5"",""21139""
","
","295.09999999403954","","49","","","3000","1","","","images/tutyellowplanet.jpg","null","images/tutalien3","null","images/tutalien3","images/t.png","NA","practice","null","","","",""
"d3-animate-choice","28","179298","0.0-28.0","1013","5353","11","Male","true","false","false","true","""event"",""trial"",""time""
""fullscreenenter"",""5"",""21139""
","
","
","""event"",""trial"",""time""
""fullscreenenter"",""5"",""21139""
","
","510.79999999701977","","49","","","3000","1","","","images/tutyellowplanet.jpg","null","images/tutalien3","null","images/tutalien3","images/t.png","NA","practice","null","","","",""
"d3-animate-choice","29","181514","0.0-29.0","1013","5353","11","Male","true","false","false","true","""event"",""trial"",""time""
""fullscreenenter"",""5"",""21139""
","
","
","""event"",""trial"",""time""
""fullscreenenter"",""5"",""21139""
","
","204.30000000447035","","49","","","3000","1","2164.60000000149","49","images/tutyellowplanet.jpg","null","images/tutalien3","null","images/tutalien3","images/t.png","NA","practice","null","","","",""
"d3-instructions","30","189033","0.0-30.0","1013","5353","11","Male","true","false","false","true","""event"",""trial"",""time""
""fullscreenenter"",""5"",""21139""
","
","
","""event"",""trial"",""time""
""fullscreenenter"",""5"",""21139""
","
","","","","","","","","","","","","","","","","","","","","","",""
"d3-instructions","31","198814","0.0-31.0","1013","5353","11","Male","true","false","false","true","""event"",""trial"",""time""
""fullscreenenter"",""5"",""21139""
","
","
","""event"",""trial"",""time""
""fullscreenenter"",""5"",""21139""
","
","","","","","","","","","","","","","","","","","","","","","",""
"d3-instructions","32","207517","0.0-32.0","1013","5353","11","Male","true","false","false","true","""event"",""trial"",""time""
""fullscreenenter"",""5"",""21139""
","
","
","""event"",""trial"",""time""
""fullscreenenter"",""5"",""21139""
","
","","","","","","","","","","","","","","","","","","","","","",""
"d3-instructions","33","218431","0.0-33.0","1013","5353","11","Male","true","false","false","true","""event"",""trial"",""time""
""fullscreenenter"",""5"",""21139""
","
","
","""event"",""trial"",""time""
""fullscreenenter"",""5"",""21139""
","
","","","","","","","","","","","","","","","","","","","","","",""
"d3-animate-choice","34","221577","0.0-34.0","1013","5353","11","Male","true","false","false","true","""event"",""trial"",""time""
""fullscreenenter"",""5"",""21139""
","
","
","""event"",""trial"",""time""
""fullscreenenter"",""5"",""21139""
","
","1133.6000000014901","","49","","","3000","1","","","images/tutgreenplanet.jpg","images/tutalien1","images/tutalien2","null","images/tutalien2","images/t.png","NA","practice","null","","","",""
"d3-animate-choice","35","224001","0.0-35.0","1013","5353","11","Male","true","false","false","true","""event"",""trial"",""time""
""fullscreenenter"",""5"",""21139""
","
","
","""event"",""trial"",""time""
""fullscreenenter"",""5"",""21139""
","
","415.59999999403954","","49","","","3000","1","","","images/tutgreenplanet.jpg","images/tutalien1","images/tutalien2","null","images/tutalien2","images/nothing.png","NA","practice","null","","","",""
"d3-animate-choice","36","226346","0.0-36.0","1013","5353","11","Male","true","false","false","true","""event"",""trial"",""time""
""fullscreenenter"",""5"",""21139""
","
","
","""event"",""trial"",""time""
""fullscreenenter"",""5"",""21139""
","
","335.70000000298023","","48","","","3000","1","","","images/tutgreenplanet.jpg","images/tutalien1","images/tutalien2","null","images/tutalien1","images/nothing.png","NA","practice","null","","","",""
"d3-animate-choice","37","228770","0.0-37.0","1013","5353","11","Male","true","false","false","true","""event"",""trial"",""time""
""fullscreenenter"",""5"",""21139""
","
","
","""event"",""trial"",""time""
""fullscreenenter"",""5"",""21139""
","
","410.70000000298023","","49","","","3000","1","","","images/tutgreenplanet.jpg","images/tutalien1","images/tutalien2","null","images/tutalien2","images/t.png","NA","practice","null","","","",""
"d3-animate-choice","38","231081","0.0-38.0","1013","5353","11","Male","true","false","false","true","""event"",""trial"",""time""
""fullscreenenter"",""5"",""21139""
","
","
","""event"",""trial"",""time""
""fullscreenenter"",""5"",""21139""
","
","304.40000000596046","","49","","","3000","1","","","images/tutgreenplanet.jpg","images/tutalien1","images/tutalien2","null","images/tutalien2","images/t.png","NA","practice","null","","","",""
"d3-animate-choice","39","233338","0.0-39.0","1013","5353","11","Male","true","false","false","true","""event"",""trial"",""time""
""fullscreenenter"",""5"",""21139""
","
","
","""event"",""trial"",""time""
""fullscreenenter"",""5"",""21139""
","
","249.79999999701977","","49","","","3000","1","","","images/tutgreenplanet.jpg","images/tutalien1","images/tutalien2","null","images/tutalien2","images/t.png","NA","practice","null","","","",""
"d3-animate-choice","40","235698","0.0-40.0","1013","5353","11","Male","true","false","false","true","""event"",""trial"",""time""
""fullscreenenter"",""5"",""21139""
","
","
","""event"",""trial"",""time""
""fullscreenenter"",""5"",""21139""
","
","347.19999999552965","","49","","","3000","1","","","images/tutgreenplanet.jpg","images/tutalien1","images/tutalien2","null","images/tutalien2","images/t.png","NA","practice","null","","","",""
"d3-animate-choice","41","238114","0.0-41.0","1013","5353","11","Male","true","false","false","true","""event"",""trial"",""time""
""fullscreenenter"",""5"",""21139""
","
","
","""event"",""trial"",""time""
""fullscreenenter"",""5"",""21139""
","
","403.1000000014901","","49","","","3000","1","","","images/tutgreenplanet.jpg","images/tutalien1","images/tutalien2","null","images/tutalien2","images/t.png","NA","practice","null","","","",""
"d3-animate-choice","42","240769","0.0-42.0","1013","5353","11","Male","true","false","false","true","""event"",""trial"",""time""
""fullscreenenter"",""5"",""21139""
","
","
","""event"",""trial"",""time""
""fullscreenenter"",""5"",""21139""
","
","645.6000000014901","","49","","","3000","1","","","images/tutgreenplanet.jpg","images/tutalien1","images/tutalien2","null","images/tutalien2","images/t.png","NA","practice","null","","","",""
"d3-animate-choice","43","243234","0.0-43.0","1013","5353","11","Male","true","false","false","true","""event"",""trial"",""time""
""fullscreenenter"",""5"",""21139""
","
","
","""event"",""trial"",""time""
""fullscreenenter"",""5"",""21139""
","
","451.6000000014901","","49","","","3000","1","","","images/tutgreenplanet.jpg","images/tutalien1","images/tutalien2","null","images/tutalien2","images/nothing.png","NA","practice","null","","","",""
"d3-instructions","44","266931","0.0-44.0","1013","5353","11","Male","true","false","false","true","""event"",""trial"",""time""
""fullscreenenter"",""5"",""21139""
","
","
","""event"",""trial"",""time""
""fullscreenenter"",""5"",""21139""
","
","","","","","","","","","","","","","","","","","","","","","",""
"d3-instructions","45","274465","0.0-45.0","1013","5353","11","Male","true","false","false","true","""event"",""trial"",""time""
""fullscreenenter"",""5"",""21139""
","
","
","""event"",""trial"",""time""
""fullscreenenter"",""5"",""21139""
","
","","","","","","","","","","","","","","","","","","","","","",""
"d3-instructions","46","279748","0.0-46.0","1013","5353","11","Male","true","false","false","true","""event"",""trial"",""time""
""fullscreenenter"",""5"",""21139""
","
","
","""event"",""trial"",""time""
""fullscreenenter"",""5"",""21139""
","
","","","","","","","","","","","","","","","","","","","","","",""
"d3-instructions","47","298341","0.0-47.0","1013","5353","11","Male","true","false","false","true","""event"",""trial"",""time""
""fullscreenenter"",""5"",""21139""
","
","
","""event"",""trial"",""time""
""fullscreenenter"",""5"",""21139""
","
","","","","","","","","","","","","","","","","","","","","","",""
"d3-instructions","48","306812","0.0-48.0","1013","5353","11","Male","true","false","false","true","""event"",""trial"",""time""
""fullscreenenter"",""5"",""21139""
","
","
","""event"",""trial"",""time""
""fullscreenenter"",""5"",""21139""
","
","","","","","","","","","","","","","","","","","","","","","",""
"d3-instructions","49","317855","0.0-49.0","1013","5353","11","Male","true","false","false","true","""event"",""trial"",""time""
""fullscreenenter"",""5"",""21139""
","
","
","""event"",""trial"",""time""
""fullscreenenter"",""5"",""21139""
","
","","","","","","","","","","","","","","","","","","","","","",""
"d3-instructions","50","326112","0.0-50.0","1013","5353","11","Male","true","false","false","true","""event"",""trial"",""time""
""fullscreenenter"",""5"",""21139""
","
","
","""event"",""trial"",""time""
""fullscreenenter"",""5"",""21139""
","
","","","","","","","","","","","","","","","","","","","","","",""
"d3-instructions","51","328818","0.0-51.0","1013","5353","11","Male","true","false","false","true","""event"",""trial"",""time""
""fullscreenenter"",""5"",""21139""
","
","
","""event"",""trial"",""time""
""fullscreenenter"",""5"",""21139""
","
","","","","","","","","","","","","","","","","","","","","","",""
"d3-instructions","52","332364","0.0-52.0","1013","5353","11","Male","true","false","false","true","""event"",""trial"",""time""
""fullscreenenter"",""5"",""21139""
","
","
","""event"",""trial"",""time""
""fullscreenenter"",""5"",""21139""
","
","","","","","","","","","","","","","","","","","","","","","",""
"d3-instructions","53","344633","0.0-53.0","1013","5353","11","Male","true","false","false","true","""event"",""trial"",""time""
""fullscreenenter"",""5"",""21139""
","
","
","""event"",""trial"",""time""
""fullscreenenter"",""5"",""21139""
","
","","","","","","","","","","","","","","","","","","","","","",""
"d3-instructions","54","357173","0.0-54.0","1013","5353","11","Male","true","false","false","true","""event"",""trial"",""time""
""fullscreenenter"",""5"",""21139""
","
","
","""event"",""trial"",""time""
""fullscreenenter"",""5"",""21139""
","
","","","","","","","","","","","","","","","","","","","","","",""
"d3-instructions","55","367042","0.0-55.0","1013","5353","11","Male","true","false","false","true","""event"",""trial"",""time""
""fullscreenenter"",""5"",""21139""
","
","
","""event"",""trial"",""time""
""fullscreenenter"",""5"",""21139""
","
","","","","","","","","","","","","","","","","","","","","","",""
"d3-instructions","56","376082","0.0-56.0","1013","5353","11","Male","true","false","false","true","""event"",""trial"",""time""
""fullscreenenter"",""5"",""21139""
","
","
","""event"",""trial"",""time""
""fullscreenenter"",""5"",""21139""
","
","","","","","","","","","","","","","","","","","","","","","",""
"d3-instructions","57","382293","0.0-57.0","1013","5353","11","Male","true","false","false","true","""event"",""trial"",""time""
""fullscreenenter"",""5"",""21139""
","
","
","""event"",""trial"",""time""
""fullscreenenter"",""5"",""21139""
","
","","","","","","","","","","","","","","","","","","","","","",""
"d3-instructions","58","393300","0.0-58.0","1013","5353","11","Male","true","false","false","true","""event"",""trial"",""time""
""fullscreenenter"",""5"",""21139""
","
","
","""event"",""trial"",""time""
""fullscreenenter"",""5"",""21139""
","
","","","","","","","","","","","","","","","","","","","","","",""
"d3-instructions","59","398469","0.0-59.0","1013","5353","11","Male","true","false","false","true","""event"",""trial"",""time""
""fullscreenenter"",""5"",""21139""
","
","
","""event"",""trial"",""time""
""fullscreenenter"",""5"",""21139""
","
","","","","","","","","","","","","","","","","","","","","","",""
"d3-instructions","60","405327","0.0-60.0","1013","5353","11","Male","true","false","false","true","""event"",""trial"",""time""
""fullscreenenter"",""5"",""21139""
","
","
","""event"",""trial"",""time""
""fullscreenenter"",""5"",""21139""
","
","","","","","","","","","","","","","","","","","","","","","",""
"d3-animate-choice","61","408226","0.0-61.0-0.0","1013","5353","11","Male","true","false","false","true","""event"",""trial"",""time""
""fullscreenenter"",""5"",""21139""
","
","
","""event"",""trial"",""time""
""fullscreenenter"",""5"",""21139""
","
","886.2999999970198","","49","","","3000","1","","","images/earth.jpg","images/tutrocket2","images/tutrocket1","null","images/tutrocket1","","1","practice","null","1","","",""
"d3-animate-choice","62","412242","0.0-61.0-1.0","1013","5353","11","Male","true","false","false","true","""event"",""trial"",""time""
""fullscreenenter"",""5"",""21139""
","
","
","""event"",""trial"",""time""
""fullscreenenter"",""5"",""21139""
","
","2274.60000000149","","49","","","3000","1","","","images/tutyellowplanet.jpg","images/tutalien4","images/tutalien3","images/tutrocket1","images/tutalien3","images/nothing.png","2","practice","true","1","common","0","2023-01-02 21:50:36.022"
"two-step-fixation","63","413250","0.0-61.0-2.0","1013","5353","11","Male","true","false","false","true","""event"",""trial"",""time""
""fullscreenenter"",""5"",""21139""
","
","
","""event"",""trial"",""time""
""fullscreenenter"",""5"",""21139""
","
","","images/earth.jpg","","","","","","","","","","","","","","fixation","","","","","",""
"d3-animate-choice","64","416466","0.0-61.0-0.1","1013","5353","11","Male","true","false","false","true","""event"",""trial"",""time""
""fullscreenenter"",""5"",""21139""
","
","
","""event"",""trial"",""time""
""fullscreenenter"",""5"",""21139""
","
","1208.0999999940395","","49","","","3000","1","","","images/earth.jpg","images/tutrocket2","images/tutrocket1","null","images/tutrocket1","","1","practice","null","1","","",""
"d3-animate-choice","65","419570","0.0-61.0-1.1","1013","5353","11","Male","true","false","false","true","""event"",""trial"",""time""
""fullscreenenter"",""5"",""21139""
","
","
","""event"",""trial"",""time""
""fullscreenenter"",""5"",""21139""
","
","1097.3999999985099","","49","","","3000","1","","","images/tutyellowplanet.jpg","images/tutalien4","images/tutalien3","images/tutrocket1","images/tutalien3","images/nothing.png","2","practice","true","1","common","0","2023-01-02 21:50:43.350"
"two-step-fixation","66","420578","0.0-61.0-2.1","1013","5353","11","Male","true","false","false","true","""event"",""trial"",""time""
""fullscreenenter"",""5"",""21139""
","
","
","""event"",""trial"",""time""
""fullscreenenter"",""5"",""21139""
","
","","images/earth.jpg","","","","","","","","","","","","","","fixation","","","","","",""
"d3-animate-choice","67","424002","0.0-61.0-0.2","1013","5353","11","Male","true","false","false","true","""event"",""trial"",""time""
""fullscreenenter"",""5"",""21139""
","
","
","""event"",""trial"",""time""
""fullscreenenter"",""5"",""21139""
","
","1410.5","","48","","","3000","1","","","images/earth.jpg","images/tutrocket2","images/tutrocket1","null","images/tutrocket2","","1","practice","null","2","","",""
"d3-animate-choice","68","428018","0.0-61.0-1.2","1013","5353","11","Male","true","false","false","true","""event"",""trial"",""time""
""fullscreenenter"",""5"",""21139""
","
","
","""event"",""trial"",""time""
""fullscreenenter"",""5"",""21139""
","
","2202.60000000149","","49","","","3000","1","","","images/tutgreenplanet.jpg","images/tutalien2","images/tutalien1","images/tutrocket2","images/tutalien1","images/nothing.png","2","practice","true","1","common","0","2023-01-02 21:50:51.798"
"two-step-fixation","69","429026","0.0-61.0-2.2","1013","5353","11","Male","true","false","false","true","""event"",""trial"",""time""
""fullscreenenter"",""5"",""21139""
","
","
","""event"",""trial"",""time""
""fullscreenenter"",""5"",""21139""
","
","","images/earth.jpg","","","","","","","","","","","","","","fixation","","","","","",""
"d3-animate-choice","70","432362","0.0-61.0-0.3","1013","5353","11","Male","true","false","false","true","""event"",""trial"",""time""
""fullscreenenter"",""5"",""21139""
","
","
","""event"",""trial"",""time""
""fullscreenenter"",""5"",""21139""
","
","1325.3999999985099","","49","","","3000","1","","","images/earth.jpg","images/tutrocket2","images/tutrocket1","null","images/tutrocket1","","1","practice","null","1","","",""
"d3-animate-choice","71","435546","0.0-61.0-1.3","1013","5353","11","Male","true","false","false","true","""event"",""trial"",""time""
""fullscreenenter"",""5"",""21139""
","
","
","""event"",""trial"",""time""
""fullscreenenter"",""5"",""21139""
","
","1175.6999999955297","","48","","","3000","1","","","images/tutyellowplanet.jpg","images/tutalien4","images/tutalien3","images/tutrocket1","images/tutalien4","images/nothing.png","2","practice","true","2","common","0","2023-01-02 21:50:59.326"
"two-step-fixation","72","436554","0.0-61.0-2.3","1013","5353","11","Male","true","false","false","true","""event"",""trial"",""time""
""fullscreenenter"",""5"",""21139""
","
","
","""event"",""trial"",""time""
""fullscreenenter"",""5"",""21139""
","
","","images/earth.jpg","","","","","","","","","","","","","","fixation","","","","","",""
"d3-animate-choice","73","439290","0.0-61.0-0.4","1013","5353","11","Male","true","false","false","true","""event"",""trial"",""time""
""fullscreenenter"",""5"",""21139""
","
","
","""event"",""trial"",""time""
""fullscreenenter"",""5"",""21139""
","
","728.2000000029802","","49","","","3000","1","","","images/earth.jpg","images/tutrocket2","images/tutrocket1","null","images/tutrocket1","","1","practice","null","1","","",""
"d3-animate-choice","74","441938","0.0-61.0-1.4","1013","5353","11","Male","true","false","false","true","""event"",""trial"",""time""
""fullscreenenter"",""5"",""21139""
","
","
","""event"",""trial"",""time""
""fullscreenenter"",""5"",""21139""
","
","634","","48","","","3000","1","","","images/tutyellowplanet.jpg","images/tutalien4","images/tutalien3","images/tutrocket1","images/tutalien4","images/nothing.png","2","practice","true","2","common","0","2023-01-02 21:51:05.718"
"two-step-fixation","75","442946","0.0-61.0-2.4","1013","5353","11","Male","true","false","false","true","""event"",""trial"",""time""
""fullscreenenter"",""5"",""21139""
","
","
","""event"",""trial"",""time""
""fullscreenenter"",""5"",""21139""
","
","","images/earth.jpg","","","","","","","","","","","","","","fixation","","","","","",""
"d3-animate-choice","76","446210","0.0-61.0-0.5","1013","5353","11","Male","true","false","false","true","""event"",""trial"",""time""
""fullscreenenter"",""5"",""21139""
","
","
","""event"",""trial"",""time""
""fullscreenenter"",""5"",""21139""
","
","1252.6000000014901","","49","","","3000","1","","","images/earth.jpg","images/tutrocket2","images/tutrocket1","null","images/tutrocket1","","1","practice","null","1","","",""
"d3-animate-choice","77","450202","0.0-61.0-1.5","1013","5353","11","Male","true","false","false","true","""event"",""trial"",""time""
""fullscreenenter"",""5"",""21139""
","
","
","""event"",""trial"",""time""
""fullscreenenter"",""5"",""21139""
","
","1979.3000000044703","","48","","","3000","1","","","images/tutgreenplanet.jpg","images/tutalien2","images/tutalien1","images/tutrocket1","images/tutalien2","images/nothing.png","2","practice","false","2","rare","0","2023-01-02 21:51:13.982"
"two-step-fixation","78","451210","0.0-61.0-2.5","1013","5353","11","Male","true","false","false","true","""event"",""trial"",""time""
""fullscreenenter"",""5"",""21139""
","
","
","""event"",""trial"",""time""
""fullscreenenter"",""5"",""21139""
","
","","images/earth.jpg","","","","","","","","","","","","","","fixation","","","","","",""
"d3-animate-choice","79","454538","0.0-61.0-0.6","1013","5353","11","Male","true","false","false","true","""event"",""trial"",""time""
""fullscreenenter"",""5"",""21139""
","
","
","""event"",""trial"",""time""
""fullscreenenter"",""5"",""21139""
","
","1321.8000000044703","","48","","","3000","1","","","images/earth.jpg","images/tutrocket2","images/tutrocket1","null","images/tutrocket2","","1","practice","null","2","","",""
"d3-animate-choice","80","457458","0.0-61.0-1.6","1013","5353","11","Male","true","false","false","true","""event"",""trial"",""time""
""fullscreenenter"",""5"",""21139""
","
","
","""event"",""trial"",""time""
""fullscreenenter"",""5"",""21139""
","
","910.8999999985099","","48","","","3000","1","","","images/tutgreenplanet.jpg","images/tutalien2","images/tutalien1","images/tutrocket2","images/tutalien2","images/nothing.png","2","practice","true","2","common","0","2023-01-02 21:51:21.238"
"two-step-fixation","81","458466","0.0-61.0-2.6","1013","5353","11","Male","true","false","false","true","""event"",""trial"",""time""
""fullscreenenter"",""5"",""21139""
","
","
","""event"",""trial"",""time""
""fullscreenenter"",""5"",""21139""
","
","","images/earth.jpg","","","","","","","","","","","","","","fixation","","","","","",""
"d3-animate-choice","82","462482","0.0-61.0-0.7","1013","5353","11","Male","true","false","false","true","""event"",""trial"",""time""
""fullscreenenter"",""5"",""21139""
","
","
","""event"",""trial"",""time""
""fullscreenenter"",""5"",""21139""
","
","2779.1999999955297","","48","","","3000","1","","","images/earth.jpg","images/tutrocket2","images/tutrocket1","null","images/tutrocket2","","1","practice","null","2","","",""
"d3-animate-choice","83","466058","0.0-61.0-1.7","1013","5353","11","Male","true","false","false","true","""event"",""trial"",""time""
""fullscreenenter"",""5"",""21139""
","
","
","""event"",""trial"",""time""
""fullscreenenter"",""5"",""21139""
","
","1566.1999999955297","","49","","","3000","1","","","images/tutgreenplanet.jpg","images/tutalien2","images/tutalien1","images/tutrocket2","images/tutalien1","images/nothing.png","2","practice","true","1","common","0","2023-01-02 21:51:29.838"
"two-step-fixation","84","467066","0.0-61.0-2.7","1013","5353","11","Male","true","false","false","true","""event"",""trial"",""time""
""fullscreenenter"",""5"",""21139""
","
","
","""event"",""trial"",""time""
""fullscreenenter"",""5"",""21139""
","
","","images/earth.jpg","","","","","","","","","","","","","","fixation","","","","","",""
"d3-animate-choice","85","470154","0.0-61.0-0.8","1013","5353","11","Male","true","false","false","true","""event"",""trial"",""time""
""fullscreenenter"",""5"",""21139""
","
","
","""event"",""trial"",""time""
""fullscreenenter"",""5"",""21139""
","
","1080.2000000029802","","48","","","3000","1","","","images/earth.jpg","images/tutrocket2","images/tutrocket1","null","images/tutrocket2","","1","practice","null","2","","",""
"d3-animate-choice","86","473259","0.0-61.0-1.8","1013","5353","11","Male","true","false","false","true","""event"",""trial"",""time""
""fullscreenenter"",""5"",""21139""
","
","
","""event"",""trial"",""time""
""fullscreenenter"",""5"",""21139""
","
","1096.3999999985099","","49","","","3000","1","","","images/tutgreenplanet.jpg","images/tutalien2","images/tutalien1","images/tutrocket2","images/tutalien1","images/t.png","2","practice","true","1","common","1","2023-01-02 21:51:37.039"
"two-step-fixation","87","474266","0.0-61.0-2.8","1013","5353","11","Male","true","false","false","true","""event"",""trial"",""time""
""fullscreenenter"",""5"",""21139""
","
","
","""event"",""trial"",""time""
""fullscreenenter"",""5"",""21139""
","
","","images/earth.jpg","","","","","","","","","","","","","","fixation","","","","","",""
"d3-animate-choice","88","477099","0.0-61.0-0.9","1013","5353","11","Male","true","false","false","true","""event"",""trial"",""time""
""fullscreenenter"",""5"",""21139""
","
","
","""event"",""trial"",""time""
""fullscreenenter"",""5"",""21139""
","
","825.1000000014901","","48","","","3000","1","","","images/earth.jpg","images/tutrocket2","images/tutrocket1","null","images/tutrocket2","","1","practice","null","2","","",""
"d3-animate-choice","89","480139","0.0-61.0-1.9","1013","5353","11","Male","true","false","false","true","""event"",""trial"",""time""
""fullscreenenter"",""5"",""21139""
","
","
","""event"",""trial"",""time""
""fullscreenenter"",""5"",""21139""
","
","1028.5","","49","","","3000","1","","","images/tutgreenplanet.jpg","images/tutalien2","images/tutalien1","images/tutrocket2","images/tutalien1","images/nothing.png","2","practice","true","1","common","0","2023-01-02 21:51:43.919"
"two-step-fixation","90","481146","0.0-61.0-2.9","1013","5353","11","Male","true","false","false","true","""event"",""trial"",""time""
""fullscreenenter"",""5"",""21139""
","
","
","""event"",""trial"",""time""
""fullscreenenter"",""5"",""21139""
","
","","images/earth.jpg","","","","","","","","","","","","","","fixation","","","","","",""
"d3-animate-choice","91","484430","0.0-61.0-0.10","1013","5353","11","Male","true","false","false","true","""event"",""trial"",""time""
""fullscreenenter"",""5"",""21139""
","
","
","""event"",""trial"",""time""
""fullscreenenter"",""5"",""21139""
","
","1276.1000000014901","","48","","","3000","1","","","images/earth.jpg","images/tutrocket2","images/tutrocket1","null","images/tutrocket2","","1","practice","null","2","","",""
"d3-animate-choice","92","487387","0.0-61.0-1.10","1013","5353","11","Male","true","false","false","true","""event"",""trial"",""time""
""fullscreenenter"",""5"",""21139""
","
","
","""event"",""trial"",""time""
""fullscreenenter"",""5"",""21139""
","
","945.5","","48","","","3000","1","","","images/tutyellowplanet.jpg","images/tutalien4","images/tutalien3","images/tutrocket2","images/tutalien4","images/nothing.png","2","practice","false","2","rare","0","2023-01-02 21:51:51.167"
"two-step-fixation","93","488394","0.0-61.0-2.10","1013","5353","11","Male","true","false","false","true","""event"",""trial"",""time""
""fullscreenenter"",""5"",""21139""
","
","
","""event"",""trial"",""time""
""fullscreenenter"",""5"",""21139""
","
","","images/earth.jpg","","","","","","","","","","","","","","fixation","","","","","",""
"d3-animate-choice","94","491815","0.0-61.0-0.11","1013","5353","11","Male","true","false","false","true","""event"",""trial"",""time""
""fullscreenenter"",""5"",""21139""
","
","
","""event"",""trial"",""time""
""fullscreenenter"",""5"",""21139""
","
","1412.6999999955297","","48","","","3000","1","","","images/earth.jpg","images/tutrocket2","images/tutrocket1","null","images/tutrocket2","","1","practice","null","2","","",""
"d3-animate-choice","95","494939","0.0-61.0-1.11","1013","5353","11","Male","true","false","false","true","""event"",""trial"",""time""
""fullscreenenter"",""5"",""21139""
","
","
","""event"",""trial"",""time""
""fullscreenenter"",""5"",""21139""
","
","1114.7999999970198","","49","","","3000","1","","","images/tutyellowplanet.jpg","images/tutalien4","images/tutalien3","images/tutrocket2","images/tutalien3","images/nothing.png","2","practice","false","1","rare","0","2023-01-02 21:51:58.719"
"two-step-fixation","96","495946","0.0-61.0-2.11","1013","5353","11","Male","true","false","false","true","""event"",""trial"",""time""
""fullscreenenter"",""5"",""21139""
","
","
","""event"",""trial"",""time""
""fullscreenenter"",""5"",""21139""
","
","","images/earth.jpg","","","","","","","","","","","","","","fixation","","","","","",""
"d3-animate-choice","97","499802","0.0-61.0-0.12","1013","5353","11","Male","true","false","false","true","""event"",""trial"",""time""
""fullscreenenter"",""5"",""21139""
","
","
","""event"",""trial"",""time""
""fullscreenenter"",""5"",""21139""
","
","1849.5","","48","","","3000","1","","","images/earth.jpg","images/tutrocket2","images/tutrocket1","null","images/tutrocket2","","1","practice","null","2","","",""
"d3-animate-choice","98","503042","0.0-61.0-1.12","1013","5353","11","Male","true","false","false","true","""event"",""trial"",""time""
""fullscreenenter"",""5"",""21139""
","
","
","""event"",""trial"",""time""
""fullscreenenter"",""5"",""21139""
","
","1229.6000000014901","","49","","","3000","1","","","images/tutgreenplanet.jpg","images/tutalien2","images/tutalien1","images/tutrocket2","images/tutalien1","images/nothing.png","2","practice","true","1","common","0","2023-01-02 21:52:06.822"
"two-step-fixation","99","504049","0.0-61.0-2.12","1013","5353","11","Male","true","false","false","true","""event"",""trial"",""time""
""fullscreenenter"",""5"",""21139""
","
","
","""event"",""trial"",""time""
""fullscreenenter"",""5"",""21139""
","
","","images/earth.jpg","","","","","","","","","","","","","","fixation","","","","","",""
"d3-animate-choice","100","506770","0.0-61.0-0.13","1013","5353","11","Male","true","false","false","true","""event"",""trial"",""time""
""fullscreenenter"",""5"",""21139""
","
","
","""event"",""trial"",""time""
""fullscreenenter"",""5"",""21139""
","
","709.9000000059605","","48","","","3000","1","","","images/earth.jpg","images/tutrocket2","images/tutrocket1","null","images/tutrocket2","","1","practice","null","2","","",""
"d3-animate-choice","101","509282","0.0-61.0-1.13","1013","5353","11","Male","true","false","false","true","""event"",""trial"",""time""
""fullscreenenter"",""5"",""21139""
","
","
","""event"",""trial"",""time""
""fullscreenenter"",""5"",""21139""
","
","505.70000000298023","","49","","","3000","1","","","images/tutgreenplanet.jpg","images/tutalien2","images/tutalien1","images/tutrocket2","images/tutalien1","images/nothing.png","2","practice","true","1","common","0","2023-01-02 21:52:13.062"
"two-step-fixation","102","510290","0.0-61.0-2.13","1013","5353","11","Male","true","false","false","true","""event"",""trial"",""time""
""fullscreenenter"",""5"",""21139""
","
","
","""event"",""trial"",""time""
""fullscreenenter"",""5"",""21139""
","
","","images/earth.jpg","","","","","","","","","","","","","","fixation","","","","","",""
"d3-animate-choice","103","514138","0.0-61.0-0.14","1013","5353","11","Male","true","false","false","true","""event"",""trial"",""time""
""fullscreenenter"",""5"",""21139""
","
","
","""event"",""trial"",""time""
""fullscreenenter"",""5"",""21139""
","
","1841.2999999970198","","48","","","3000","1","","","images/earth.jpg","images/tutrocket2","images/tutrocket1","null","images/tutrocket2","","1","practice","null","2","","",""
"d3-animate-choice","104","516634","0.0-61.0-1.14","1013","5353","11","Male","true","false","false","true","""event"",""trial"",""time""
""fullscreenenter"",""5"",""21139""
","
","
","""event"",""trial"",""time""
""fullscreenenter"",""5"",""21139""
","
","489.5","","48","","","3000","1","","","images/tutgreenplanet.jpg","images/tutalien2","images/tutalien1","images/tutrocket2","images/tutalien2","images/nothing.png","2","practice","true","2","common","0","2023-01-02 21:52:20.414"
"two-step-fixation","105","517642","0.0-61.0-2.14","1013","5353","11","Male","true","false","false","true","""event"",""trial"",""time""
""fullscreenenter"",""5"",""21139""
","
","
","""event"",""trial"",""time""
""fullscreenenter"",""5"",""21139""
","
","","images/earth.jpg","","","","","","","","","","","","","","fixation","","","","","",""
"d3-animate-choice","106","520226","0.0-61.0-0.15","1013","5353","11","Male","true","false","false","true","""event"",""trial"",""time""
""fullscreenenter"",""5"",""21139""
","
","
","""event"",""trial"",""time""
""fullscreenenter"",""5"",""21139""
","
","577.6000000014901","","48","","","3000","1","","","images/earth.jpg","images/tutrocket2","images/tutrocket1","null","images/tutrocket2","","1","practice","null","2","","",""
"d3-animate-choice","107","522698","0.0-61.0-1.15","1013","5353","11","Male","true","false","false","true","""event"",""trial"",""time""
""fullscreenenter"",""5"",""21139""
","
","
","""event"",""trial"",""time""
""fullscreenenter"",""5"",""21139""
","
","466.5","","48","","","3000","1","","","images/tutgreenplanet.jpg","images/tutalien2","images/tutalien1","images/tutrocket2","images/tutalien2","images/t.png","2","practice","true","2","common","1","2023-01-02 21:52:26.478"
"two-step-fixation","108","523707","0.0-61.0-2.15","1013","5353","11","Male","true","false","false","true","""event"",""trial"",""time""
""fullscreenenter"",""5"",""21139""
","
","
","""event"",""trial"",""time""
""fullscreenenter"",""5"",""21139""
","
","","images/earth.jpg","","","","","","","","","","","","","","fixation","","","","","",""
"d3-animate-choice","109","526194","0.0-61.0-0.16","1013","5353","11","Male","true","false","false","true","""event"",""trial"",""time""
""fullscreenenter"",""5"",""21139""
","
","
","""event"",""trial"",""time""
""fullscreenenter"",""5"",""21139""
","
","478.70000000298023","","48","","","3000","1","","","images/earth.jpg","images/tutrocket2","images/tutrocket1","null","images/tutrocket2","","1","practice","null","2","","",""
"d3-animate-choice","110","528877","0.0-61.0-1.16","1013","5353","11","Male","true","false","false","true","""event"",""trial"",""time""
""fullscreenenter"",""5"",""21139""
","
","
","""event"",""trial"",""time""
""fullscreenenter"",""5"",""21139""
","
","676.6999999955297","","48","","","3000","1","","","images/tutgreenplanet.jpg","images/tutalien2","images/tutalien1","images/tutrocket2","images/tutalien2","images/nothing.png","2","practice","true","2","common","0","2023-01-02 21:52:32.657"
"two-step-fixation","111","529883","0.0-61.0-2.16","1013","5353","11","Male","true","false","false","true","""event"",""trial"",""time""
""fullscreenenter"",""5"",""21139""
","
","
","""event"",""trial"",""time""
""fullscreenenter"",""5"",""21139""
","
","","images/earth.jpg","","","","","","","","","","","","","","fixation","","","","","",""
"d3-animate-choice","112","532162","0.0-61.0-0.17","1013","5353","11","Male","true","false","false","true","""event"",""trial"",""time""
""fullscreenenter"",""5"",""21139""
","
","
","""event"",""trial"",""time""
""fullscreenenter"",""5"",""21139""
","
","268.8999999985099","","48","","","3000","1","","","images/earth.jpg","images/tutrocket2","images/tutrocket1","null","images/tutrocket2","","1","practice","null","2","","",""
"d3-animate-choice","113","534746","0.0-61.0-1.17","1013","5353","11","Male","true","false","false","true","""event"",""trial"",""time""
""fullscreenenter"",""5"",""21139""
","
","
","""event"",""trial"",""time""
""fullscreenenter"",""5"",""21139""
","
","571.8999999985099","","48","","","3000","1","","","images/tutgreenplanet.jpg","images/tutalien2","images/tutalien1","images/tutrocket2","images/tutalien2","images/nothing.png","2","practice","true","2","common","0","2023-01-02 21:52:38.526"
"two-step-fixation","114","535754","0.0-61.0-2.17","1013","5353","11","Male","true","false","false","true","""event"",""trial"",""time""
""fullscreenenter"",""5"",""21139""
","
","
","""event"",""trial"",""time""
""fullscreenenter"",""5"",""21139""
","
","","images/earth.jpg","","","","","","","","","","","","","","fixation","","","","","",""
"d3-animate-choice","115","538051","0.0-61.0-0.18","1013","5353","11","Male","true","false","false","true","""event"",""trial"",""time""
""fullscreenenter"",""5"",""21139""
","
","
","""event"",""trial"",""time""
""fullscreenenter"",""5"",""21139""
","
","282.3999999985099","","48","","","3000","1","","","images/earth.jpg","images/tutrocket2","images/tutrocket1","null","images/tutrocket2","","1","practice","null","2","","",""
"d3-animate-choice","116","540187","0.0-61.0-1.18","1013","5353","11","Male","true","false","false","true","""event"",""trial"",""time""
""fullscreenenter"",""5"",""21139""
","
","
","""event"",""trial"",""time""
""fullscreenenter"",""5"",""21139""
","
","126.29999999701977","","48","","","3000","1","","","images/tutyellowplanet.jpg","images/tutalien4","images/tutalien3","images/tutrocket2","images/tutalien4","images/t.png","2","practice","false","2","rare","1","2023-01-02 21:52:43.967"
"two-step-fixation","117","541194","0.0-61.0-2.18","1013","5353","11","Male","true","false","false","true","""event"",""trial"",""time""
""fullscreenenter"",""5"",""21139""
","
","
","""event"",""trial"",""time""
""fullscreenenter"",""5"",""21139""
","
","","images/earth.jpg","","","","","","","","","","","","","","fixation","","","","","",""
"d3-animate-choice","118","543874","0.0-61.0-0.19","1013","5353","11","Male","true","false","false","true","""event"",""trial"",""time""
""fullscreenenter"",""5"",""21139""
","
","
","""event"",""trial"",""time""
""fullscreenenter"",""5"",""21139""
","
","671.5","","48","","","3000","1","","","images/earth.jpg","images/tutrocket2","images/tutrocket1","null","images/tutrocket2","","1","practice","null","2","","",""
"d3-animate-choice","119","546298","0.0-61.0-1.19","1013","5353","11","Male","true","false","false","true","""event"",""trial"",""time""
""fullscreenenter"",""5"",""21139""
","
","
","""event"",""trial"",""time""
""fullscreenenter"",""5"",""21139""
","
","412.09999999403954","","48","","","3000","1","","","images/tutgreenplanet.jpg","images/tutalien2","images/tutalien1","images/tutrocket2","images/tutalien2","images/nothing.png","2","practice","true","2","common","0","2023-01-02 21:52:50.079"
"two-step-fixation","120","547306","0.0-61.0-2.19","1013","5353","11","Male","true","false","false","true","""event"",""trial"",""time""
""fullscreenenter"",""5"",""21139""
","
","
","""event"",""trial"",""time""
""fullscreenenter"",""5"",""21139""
","
","","images/earth.jpg","","","","","","","","","","","","","","fixation","","","","","",""
"d3-instructions","121","554570","0.0-62.0","1013","5353","11","Male","true","false","false","true","""event"",""trial"",""time""
""fullscreenenter"",""5"",""21139""
","
","
","""event"",""trial"",""time""
""fullscreenenter"",""5"",""21139""
","
","","","","","","","","","","","","","","","","","","","","","",""
"audio-keyboard-response","122","562627","0.0-63.0","1013","5353","11","Male","true","false","false","true","""event"",""trial"",""time""
""fullscreenenter"",""5"",""21139""
","
","
","""event"",""trial"",""time""
""fullscreenenter"",""5"",""21139""
","
","8053","audio/instructions/treasure_feedback.wav","32","","","","","","","","","","","","","","","","","","",""
"d3-instructions","123","581386","0.0-64.0","1013","5353","11","Male","true","false","false","true","""event"",""trial"",""time""
""fullscreenenter"",""5"",""21139""
","
","
","""event"",""trial"",""time""
""fullscreenenter"",""5"",""21139""
","
","","","","","","","","","","","","","","","","","","","","","",""
"d3-instructions","124","596399","0.0-65.0","1013","5353","11","Male","true","false","false","true","""event"",""trial"",""time""
""fullscreenenter"",""5"",""21139""
","
","
","""event"",""trial"",""time""
""fullscreenenter"",""5"",""21139""
","
","","","","","","","","","","","","","","","","","","","","","",""
"d3-instructions","125","625498","0.0-66.0","1013","5353","11","Male","true","false","false","true","""event"",""trial"",""time""
""fullscreenenter"",""5"",""21139""
","
","
","""event"",""trial"",""time""
""fullscreenenter"",""5"",""21139""
","
","","","","","","","","","","","","","","","","","","","","","",""
"d3-instructions","126","644797","0.0-67.0","1013","5353","11","Male","true","false","false","true","""event"",""trial"",""time""
""fullscreenenter"",""5"",""21139""
","
","
","""event"",""trial"",""time""
""fullscreenenter"",""5"",""21139""
","
","","","","","","","","","","","","","","","","","","","","","",""
"d3-instructions","127","654218","0.0-68.0","1013","5353","11","Male","true","false","false","true","""event"",""trial"",""time""
""fullscreenenter"",""5"",""21139""
","
","
","""event"",""trial"",""time""
""fullscreenenter"",""5"",""21139""
","
","","","","","","","","","","","","","","","","","","","","","",""
"instructions-quiz","128","659032","0.0-69.0","1013","5353","11","Male","true","false","false","true","""event"",""trial"",""time""
""fullscreenenter"",""5"",""21139""
","
","
","""event"",""trial"",""time""
""fullscreenenter"",""5"",""21139""
","
","4807.10000000149","audio/quiz/Q1_Prompt.wav","","1","","","","","","","","","","","","","","","","","",""
"audio-keyboard-response","129","668214","0.0-70.0","1013","5353","11","Male","true","false","false","true","""event"",""trial"",""time""
""fullscreenenter"",""5"",""21139""
","
","
","""event"",""trial"",""time""
""fullscreenenter"",""5"",""21139""
","
","null","audio/quiz/Q1_Correct.wav","null","","","","","","","","","","","","","","","","","","",""
"instructions-quiz","130","677567","0.0-71.0","1013","5353","11","Male","true","false","false","true","""event"",""trial"",""time""
""fullscreenenter"",""5"",""21139""
","
","
","""event"",""trial"",""time""
""fullscreenenter"",""5"",""21139""
","
","9347.29999999702","audio/quiz/Q2_Prompt.wav","","0","","","","","","","","","","","","","","","","","",""
"audio-keyboard-response","131","690444","0.0-72.0","1013","5353","11","Male","true","false","false","true","""event"",""trial"",""time""
""fullscreenenter"",""5"",""21139""
","
","
","""event"",""trial"",""time""
""fullscreenenter"",""5"",""21139""
","
","null","audio/quiz/Q2_Correct.wav","null","","","","","","","","","","","","","","","","","","",""
"instructions-quiz","132","695108","0.0-73.0","1013","5353","11","Male","true","false","false","true","""event"",""trial"",""time""
""fullscreenenter"",""5"",""21139""
","
","
","""event"",""trial"",""time""
""fullscreenenter"",""5"",""21139""
","
","4657.29999999702","audio/quiz/Q3_Prompt.wav","","1","","","","","","","","","","","","","","","","","",""
"audio-keyboard-response","133","700914","0.0-74.0","1013","5353","11","Male","true","false","false","true","""event"",""trial"",""time""
""fullscreenenter"",""5"",""21139""
","
","
","""event"",""trial"",""time""
""fullscreenenter"",""5"",""21139""
","
","null","audio/quiz/Q3_Correct.wav","null","","","","","","","","","","","","","","","","","","",""
"d3-instructions","134","718004","0.0-75.0","1013","5353","11","Male","true","false","false","true","""event"",""trial"",""time""
""fullscreenenter"",""5"",""21139""
","
","
","""event"",""trial"",""time""
""fullscreenenter"",""5"",""21139""
","
","","","","","","","","","","","","","","","","","","","","","",""
"pavlovia","135","718008","0.0-76.0","1013","5353","11","Male","true","false","false","true","""event"",""trial"",""time""
""fullscreenenter"",""5"",""21139""
","
","
","""event"",""trial"",""time""
""fullscreenenter"",""5"",""21139""
","
","","","","","","","","","","","","","","","","","","","","","",""
"d3-animate-choice","136","721961","0.0-77.0-0.0","1013","5353","11","Male","true","false","false","true","""event"",""trial"",""time""
""fullscreenenter"",""5"",""21139""
","
","
","""event"",""trial"",""time""
""fullscreenenter"",""5"",""21139""
","
","1940.6999999955297","","49","","","3000","1","","","images/earth.jpg","images/rocket2","images/rocket1","null","images/rocket1","","1","real","null","1","","",""
"d3-animate-choice","137","724929","0.0-77.0-1.0","1013","5353","11","Male","true","false","false","true","""event"",""trial"",""time""
""fullscreenenter"",""5"",""21139""
","
","
","""event"",""trial"",""time""
""fullscreenenter"",""5"",""21139""
","
","956.6000000014901","","49","","","3000","1","","","images/purpleplanet.jpg","images/alien4","images/alien3","images/rocket1","images/alien3","images/nothing.png","2","real","true","1","common","0","2023-01-02 21:55:48.710"
"two-step-fixation","138","725938","0.0-77.0-2.0","1013","5353","11","Male","true","false","false","true","""event"",""trial"",""time""
""fullscreenenter"",""5"",""21139""
","
","
","""event"",""trial"",""time""
""fullscreenenter"",""5"",""21139""
","
","","images/earth.jpg","","","","","","","","","","","","","","fixation","","","","","",""
"d3-animate-choice","139","728440","0.0-77.0-0.1","1013","5353","11","Male","true","false","false","true","""event"",""trial"",""time""
""fullscreenenter"",""5"",""21139""
","
","
","""event"",""trial"",""time""
""fullscreenenter"",""5"",""21139""
","
","491.40000000596046","","49","","","3000","1","","","images/earth.jpg","images/rocket2","images/rocket1","null","images/rocket1","","1","real","null","1","","",""
"d3-animate-choice","140","730841","0.0-77.0-1.1","1013","5353","11","Male","true","false","false","true","""event"",""trial"",""time""
""fullscreenenter"",""5"",""21139""
","
","
","""event"",""trial"",""time""
""fullscreenenter"",""5"",""21139""
","
","391.5","","48","","","3000","1","","","images/purpleplanet.jpg","images/alien4","images/alien3","images/rocket1","images/alien4","images/nothing.png","2","real","true","2","common","0","2023-01-02 21:55:54.621"
"two-step-fixation","141","731850","0.0-77.0-2.1","1013","5353","11","Male","true","false","false","true","""event"",""trial"",""time""
""fullscreenenter"",""5"",""21139""
","
","
","""event"",""trial"",""time""
""fullscreenenter"",""5"",""21139""
","
","","images/earth.jpg","","","","","","","","","","","","","","fixation","","","","","",""
"d3-animate-choice","142","734433","0.0-77.0-0.2","1013","5353","11","Male","true","false","false","true","""event"",""trial"",""time""
""fullscreenenter"",""5"",""21139""
","
","
","""event"",""trial"",""time""
""fullscreenenter"",""5"",""21139""
","
","575.2000000029802","","48","","","3000","1","","","images/earth.jpg","images/rocket2","images/rocket1","null","images/rocket2","","1","real","null","2","","",""
"d3-animate-choice","143","736993","0.0-77.0-1.2","1013","5353","11","Male","true","false","false","true","""event"",""trial"",""time""
""fullscreenenter"",""5"",""21139""
","
","
","""event"",""trial"",""time""
""fullscreenenter"",""5"",""21139""
","
","553.1999999955297","","49","","","3000","1","","","images/redplanet1.jpg","images/alien2","images/alien1","images/rocket2","images/alien1","images/nothing.png","2","real","true","1","common","0","2023-01-02 21:56:00.773"
"two-step-fixation","144","738001","0.0-77.0-2.2","1013","5353","11","Male","true","false","false","true","""event"",""trial"",""time""
""fullscreenenter"",""5"",""21139""
","
","
","""event"",""trial"",""time""
""fullscreenenter"",""5"",""21139""
","
","","images/earth.jpg","","","","","","","","","","","","","","fixation","","","","","",""
"d3-animate-choice","145","740538","0.0-77.0-0.3","1013","5353","11","Male","true","false","false","true","""event"",""trial"",""time""
""fullscreenenter"",""5"",""21139""
","
","
","""event"",""trial"",""time""
""fullscreenenter"",""5"",""21139""
","
","523.6000000014901","","49","","","3000","1","","","images/earth.jpg","images/rocket2","images/rocket1","null","images/rocket1","","1","real","null","1","","",""
"d3-animate-choice","146","743721","0.0-77.0-1.3","1013","5353","11","Male","true","false","false","true","""event"",""trial"",""time""
""fullscreenenter"",""5"",""21139""
","
","
","""event"",""trial"",""time""
""fullscreenenter"",""5"",""21139""
","
","1171.1000000014901","","49","","","3000","1","","","images/purpleplanet.jpg","images/alien4","images/alien3","images/rocket1","images/alien3","images/nothing.png","2","real","true","1","common","0","2023-01-02 21:56:07.501"
"two-step-fixation","147","744729","0.0-77.0-2.3","1013","5353","11","Male","true","false","false","true","""event"",""trial"",""time""
""fullscreenenter"",""5"",""21139""
","
","
","""event"",""trial"",""time""
""fullscreenenter"",""5"",""21139""
","
","","images/earth.jpg","","","","","","","","","","","","","","fixation","","","","","",""
"d3-animate-choice","148","746935","0.0-77.0-0.4","1013","5353","11","Male","true","false","false","true","""event"",""trial"",""time""
""fullscreenenter"",""5"",""21139""
","
","
","""event"",""trial"",""time""
""fullscreenenter"",""5"",""21139""
","
","197.90000000596046","","49","","","3000","1","","","images/earth.jpg","images/rocket2","images/rocket1","null","images/rocket1","","1","real","null","1","","",""
"d3-animate-choice","149","749314","0.0-77.0-1.4","1013","5353","11","Male","true","false","false","true","""event"",""trial"",""time""
""fullscreenenter"",""5"",""21139""
","
","
","""event"",""trial"",""time""
""fullscreenenter"",""5"",""21139""
","
","368.20000000298023","","48","","","3000","1","","","images/purpleplanet.jpg","images/alien4","images/alien3","images/rocket1","images/alien4","images/t.png","2","real","true","2","common","1","2023-01-02 21:56:13.094"
"two-step-fixation","150","750321","0.0-77.0-2.4","1013","5353","11","Male","true","false","false","true","""event"",""trial"",""time""
""fullscreenenter"",""5"",""21139""
","
","
","""event"",""trial"",""time""
""fullscreenenter"",""5"",""21139""
","
","","images/earth.jpg","","","","","","","","","","","","","","fixation","","","","","",""
"d3-animate-choice","151","752953","0.0-77.0-0.5","1013","5353","11","Male","true","false","false","true","""event"",""trial"",""time""
""fullscreenenter"",""5"",""21139""
","
","
","""event"",""trial"",""time""
""fullscreenenter"",""5"",""21139""
","
","623.5","","49","","","3000","1","","","images/earth.jpg","images/rocket2","images/rocket1","null","images/rocket1","","1","real","null","1","","",""
"d3-animate-choice","152","755394","0.0-77.0-1.5","1013","5353","11","Male","true","false","false","true","""event"",""trial"",""time""
""fullscreenenter"",""5"",""21139""
","
","
","""event"",""trial"",""time""
""fullscreenenter"",""5"",""21139""
","
","429.19999999552965","","48","","","3000","1","","","images/purpleplanet.jpg","images/alien4","images/alien3","images/rocket1","images/alien4","images/t.png","2","real","true","2","common","1","2023-01-02 21:56:19.174"
"two-step-fixation","153","756401","0.0-77.0-2.5","1013","5353","11","Male","true","false","false","true","""event"",""trial"",""time""
""fullscreenenter"",""5"",""21139""
","
","
","""event"",""trial"",""time""
""fullscreenenter"",""5"",""21139""
","
","","images/earth.jpg","","","","","","","","","","","","","","fixation","","","","","",""
"d3-animate-choice","154","758934","0.0-77.0-0.6","1013","5353","11","Male","true","false","false","true","""event"",""trial"",""time""
""fullscreenenter"",""5"",""21139""
","
","
","""event"",""trial"",""time""
""fullscreenenter"",""5"",""21139""
","
","524.2999999970198","","49","","","3000","1","","","images/earth.jpg","images/rocket2","images/rocket1","null","images/rocket1","","1","real","null","1","","",""
"d3-animate-choice","155","761553","0.0-77.0-1.6","1013","5353","11","Male","true","false","false","true","""event"",""trial"",""time""
""fullscreenenter"",""5"",""21139""
","
","
","""event"",""trial"",""time""
""fullscreenenter"",""5"",""21139""
","
","609","","48","","","3000","1","","","images/purpleplanet.jpg","images/alien4","images/alien3","images/rocket1","images/alien4","images/t.png","2","real","true","2","common","1","2023-01-02 21:56:25.334"
"two-step-fixation","156","762561","0.0-77.0-2.6","1013","5353","11","Male","true","false","false","true","""event"",""trial"",""time""
""fullscreenenter"",""5"",""21139""
","
","
","""event"",""trial"",""time""
""fullscreenenter"",""5"",""21139""
","
","","images/earth.jpg","","","","","","","","","","","","","","fixation","","","","","",""
"d3-animate-choice","157","765001","0.0-77.0-0.7","1013","5353","11","Male","true","false","false","true","""event"",""trial"",""time""
""fullscreenenter"",""5"",""21139""
","
","
","""event"",""trial"",""time""
""fullscreenenter"",""5"",""21139""
","
","431.79999999701977","","49","","","3000","1","","","images/earth.jpg","images/rocket2","images/rocket1","null","images/rocket1","","1","real","null","1","","",""
"d3-animate-choice","158","767754","0.0-77.0-1.7","1013","5353","11","Male","true","false","false","true","""event"",""trial"",""time""
""fullscreenenter"",""5"",""21139""
","
","
","""event"",""trial"",""time""
""fullscreenenter"",""5"",""21139""
","
","747.6999999955297","","48","","","3000","1","","","images/redplanet1.jpg","images/alien2","images/alien1","images/rocket1","images/alien2","images/nothing.png","2","real","false","2","rare","0","2023-01-02 21:56:31.535"
"two-step-fixation","159","768761","0.0-77.0-2.7","1013","5353","11","Male","true","false","false","true","""event"",""trial"",""time""
""fullscreenenter"",""5"",""21139""
","
","
","""event"",""trial"",""time""
""fullscreenenter"",""5"",""21139""
","
","","images/earth.jpg","","","","","","","","","","","","","","fixation","","","","","",""
"d3-animate-choice","160","771408","0.0-77.0-0.8","1013","5353","11","Male","true","false","false","true","""event"",""trial"",""time""
""fullscreenenter"",""5"",""21139""
","
","
","""event"",""trial"",""time""
""fullscreenenter"",""5"",""21139""
","
","640.3999999985099","","49","","","3000","1","846.6000000014901,2337.2000000029802","48,48","images/earth.jpg","images/rocket2","images/rocket1","null","images/rocket1","","1","real","null","1","","",""
"d3-animate-choice","161","774593","0.0-77.0-1.8","1013","5353","11","Male","true","false","false","true","""event"",""trial"",""time""
""fullscreenenter"",""5"",""21139""
","
","
","""event"",""trial"",""time""
""fullscreenenter"",""5"",""21139""
","
","1172.6000000014901","","48","","","3000","1","","","images/purpleplanet.jpg","images/alien4","images/alien3","images/rocket1","images/alien4","images/t.png","2","real","true","2","common","1","2023-01-02 21:56:38.373"
"two-step-fixation","162","775602","0.0-77.0-2.8","1013","5353","11","Male","true","false","false","true","""event"",""trial"",""time""
""fullscreenenter"",""5"",""21139""
","
","
","""event"",""trial"",""time""
""fullscreenenter"",""5"",""21139""
","
","","images/earth.jpg","","","","","","","","","","","","","","fixation","","","","","",""
"d3-animate-choice","163","778049","0.0-77.0-0.9","1013","5353","11","Male","true","false","false","true","""event"",""trial"",""time""
""fullscreenenter"",""5"",""21139""
","
","
","""event"",""trial"",""time""
""fullscreenenter"",""5"",""21139""
","
","439.1000000014901","","49","","","3000","1","","","images/earth.jpg","images/rocket2","images/rocket1","null","images/rocket1","","1","real","null","1","","",""
"d3-animate-choice","164","780697","0.0-77.0-1.9","1013","5353","11","Male","true","false","false","true","""event"",""trial"",""time""
""fullscreenenter"",""5"",""21139""
","
","
","""event"",""trial"",""time""
""fullscreenenter"",""5"",""21139""
","
","637.8999999985099","","48","","","3000","1","","","images/purpleplanet.jpg","images/alien4","images/alien3","images/rocket1","images/alien4","images/t.png","2","real","true","2","common","1","2023-01-02 21:56:44.478"
"two-step-fixation","165","781706","0.0-77.0-2.9","1013","5353","11","Male","true","false","false","true","""event"",""trial"",""time""
""fullscreenenter"",""5"",""21139""
","
","
","""event"",""trial"",""time""
""fullscreenenter"",""5"",""21139""
","
","","images/earth.jpg","","","","","","","","","","","","","","fixation","","","","","",""
"d3-animate-choice","166","784274","0.0-77.0-0.10","1013","5353","11","Male","true","false","false","true","""event"",""trial"",""time""
""fullscreenenter"",""5"",""21139""
","
","
","""event"",""trial"",""time""
""fullscreenenter"",""5"",""21139""
","
","557.9000000059605","","49","","","3000","1","","","images/earth.jpg","images/rocket2","images/rocket1","null","images/rocket1","","1","real","null","1","","",""
"d3-animate-choice","167","786786","0.0-77.0-1.10","1013","5353","11","Male","true","false","false","true","""event"",""trial"",""time""
""fullscreenenter"",""5"",""21139""
","
","
","""event"",""trial"",""time""
""fullscreenenter"",""5"",""21139""
","
","504.69999999552965","","48","","","3000","1","","","images/purpleplanet.jpg","images/alien4","images/alien3","images/rocket1","images/alien4","images/t.png","2","real","true","2","common","1","2023-01-02 21:56:50.566"
"two-step-fixation","168","787793","0.0-77.0-2.10","1013","5353","11","Male","true","false","false","true","""event"",""trial"",""time""
""fullscreenenter"",""5"",""21139""
","
","
","""event"",""trial"",""time""
""fullscreenenter"",""5"",""21139""
","
","","images/earth.jpg","","","","","","","","","","","","","","fixation","","","","","",""
"d3-animate-choice","169","790202","0.0-77.0-0.11","1013","5353","11","Male","true","false","false","true","""event"",""trial"",""time""
""fullscreenenter"",""5"",""21139""
","
","
","""event"",""trial"",""time""
""fullscreenenter"",""5"",""21139""
","
","396.6000000014901","","49","","","3000","1","","","images/earth.jpg","images/rocket2","images/rocket1","null","images/rocket1","","1","real","null","1","","",""
"d3-animate-choice","170","793146","0.0-77.0-1.11","1013","5353","11","Male","true","false","false","true","""event"",""trial"",""time""
""fullscreenenter"",""5"",""21139""
","
","
","""event"",""trial"",""time""
""fullscreenenter"",""5"",""21139""
","
","930.3999999985099","","48","","","3000","1","","","images/redplanet1.jpg","images/alien2","images/alien1","images/rocket1","images/alien2","images/t.png","2","real","false","2","rare","1","2023-01-02 21:56:56.926"
"two-step-fixation","171","794153","0.0-77.0-2.11","1013","5353","11","Male","true","false","false","true","""event"",""trial"",""time""
""fullscreenenter"",""5"",""21139""
","
","
","""event"",""trial"",""time""
""fullscreenenter"",""5"",""21139""
","
","","images/earth.jpg","","","","","","","","","","","","","","fixation","","","","","",""
"d3-animate-choice","172","796610","0.0-77.0-0.12","1013","5353","11","Male","true","false","false","true","""event"",""trial"",""time""
""fullscreenenter"",""5"",""21139""
","
","
","""event"",""trial"",""time""
""fullscreenenter"",""5"",""21139""
","
","450","","49","","","3000","1","","","images/earth.jpg","images/rocket2","images/rocket1","null","images/rocket1","","1","real","null","1","","",""
"d3-animate-choice","173","799058","0.0-77.0-1.12","1013","5353","11","Male","true","false","false","true","""event"",""trial"",""time""
""fullscreenenter"",""5"",""21139""
","
","
","""event"",""trial"",""time""
""fullscreenenter"",""5"",""21139""
","
","435.70000000298023","","48","","","3000","1","","","images/purpleplanet.jpg","images/alien4","images/alien3","images/rocket1","images/alien4","images/nothing.png","2","real","true","2","common","0","2023-01-02 21:57:02.839"
"two-step-fixation","174","800065","0.0-77.0-2.12","1013","5353","11","Male","true","false","false","true","""event"",""trial"",""time""
""fullscreenenter"",""5"",""21139""
","
","
","""event"",""trial"",""time""
""fullscreenenter"",""5"",""21139""
","
","","images/earth.jpg","","","","","","","","","","","","","","fixation","","","","","",""
"d3-animate-choice","175","802601","0.0-77.0-0.13","1013","5353","11","Male","true","false","false","true","""event"",""trial"",""time""
""fullscreenenter"",""5"",""21139""
","
","
","""event"",""trial"",""time""
""fullscreenenter"",""5"",""21139""
","
","526.7999999970198","","49","","","3000","1","","","images/earth.jpg","images/rocket2","images/rocket1","null","images/rocket1","","1","real","null","1","","",""
"d3-animate-choice","176","805057","0.0-77.0-1.13","1013","5353","11","Male","true","false","false","true","""event"",""trial"",""time""
""fullscreenenter"",""5"",""21139""
","
","
","""event"",""trial"",""time""
""fullscreenenter"",""5"",""21139""
","
","444.1000000014901","","48","","","3000","1","","","images/purpleplanet.jpg","images/alien4","images/alien3","images/rocket1","images/alien4","images/nothing.png","2","real","true","2","common","0","2023-01-02 21:57:08.838"
"two-step-fixation","177","806065","0.0-77.0-2.13","1013","5353","11","Male","true","false","false","true","""event"",""trial"",""time""
""fullscreenenter"",""5"",""21139""
","
","
","""event"",""trial"",""time""
""fullscreenenter"",""5"",""21139""
","
","","images/earth.jpg","","","","","","","","","","","","","","fixation","","","","","",""
"d3-animate-choice","178","809442","0.0-77.0-0.14","1013","5353","11","Male","true","false","false","true","""event"",""trial"",""time""
""fullscreenenter"",""5"",""21139""
","
","
","""event"",""trial"",""time""
""fullscreenenter"",""5"",""21139""
","
","1363.3999999985099","","49","","","3000","1","","","images/earth.jpg","images/rocket2","images/rocket1","null","images/rocket1","","1","real","null","1","","",""
"d3-animate-choice","179","811770","0.0-77.0-1.14","1013","5353","11","Male","true","false","false","true","""event"",""trial"",""time""
""fullscreenenter"",""5"",""21139""
","
","
","""event"",""trial"",""time""
""fullscreenenter"",""5"",""21139""
","
","314.3999999985099","","48","","","3000","1","","","images/purpleplanet.jpg","images/alien4","images/alien3","images/rocket1","images/alien4","images/nothing.png","2","real","true","2","common","0","2023-01-02 21:57:15.550"
"two-step-fixation","180","812777","0.0-77.0-2.14","1013","5353","11","Male","true","false","false","true","""event"",""trial"",""time""
""fullscreenenter"",""5"",""21139""
","
","
","""event"",""trial"",""time""
""fullscreenenter"",""5"",""21139""
","
","","images/earth.jpg","","","","","","","","","","","","","","fixation","","","","","",""
"d3-animate-choice","181","815121","0.0-77.0-0.15","1013","5353","11","Male","true","false","false","true","""event"",""trial"",""time""
""fullscreenenter"",""5"",""21139""
","
","
","""event"",""trial"",""time""
""fullscreenenter"",""5"",""21139""
","
","336.8999999985099","","48","","","3000","1","","","images/earth.jpg","images/rocket2","images/rocket1","null","images/rocket2","","1","real","null","2","","",""
"d3-animate-choice","182","817633","0.0-77.0-1.15","1013","5353","11","Male","true","false","false","true","""event"",""trial"",""time""
""fullscreenenter"",""5"",""21139""
","
","
","""event"",""trial"",""time""
""fullscreenenter"",""5"",""21139""
","
","502.8999999985099","","48","","","3000","1","","","images/redplanet1.jpg","images/alien2","images/alien1","images/rocket2","images/alien2","images/nothing.png","2","real","true","2","common","0","2023-01-02 21:57:21.413"
"two-step-fixation","183","818641","0.0-77.0-2.15","1013","5353","11","Male","true","false","false","true","""event"",""trial"",""time""
""fullscreenenter"",""5"",""21139""
","
","
","""event"",""trial"",""time""
""fullscreenenter"",""5"",""21139""
","
","","images/earth.jpg","","","","","","","","","","","","","","fixation","","","","","",""
"d3-animate-choice","184","820977","0.0-77.0-0.16","1013","5353","11","Male","true","false","false","true","""event"",""trial"",""time""
""fullscreenenter"",""5"",""21139""
","
","
","""event"",""trial"",""time""
""fullscreenenter"",""5"",""21139""
","
","325.29999999701977","","48","","","3000","1","","","images/earth.jpg","images/rocket2","images/rocket1","null","images/rocket2","","1","real","null","2","","",""
"d3-animate-choice","185","823345","0.0-77.0-1.16","1013","5353","11","Male","true","false","false","true","""event"",""trial"",""time""
""fullscreenenter"",""5"",""21139""
","
","
","""event"",""trial"",""time""
""fullscreenenter"",""5"",""21139""
","
","362.5","","48","","","3000","1","","","images/redplanet1.jpg","images/alien2","images/alien1","images/rocket2","images/alien2","images/nothing.png","2","real","true","2","common","0","2023-01-02 21:57:27.125"
"two-step-fixation","186","824354","0.0-77.0-2.16","1013","5353","11","Male","true","false","false","true","""event"",""trial"",""time""
""fullscreenenter"",""5"",""21139""
","
","
","""event"",""trial"",""time""
""fullscreenenter"",""5"",""21139""
","
","","images/earth.jpg","","","","","","","","","","","","","","fixation","","","","","",""
"d3-animate-choice","187","828186","0.0-77.0-0.17","1013","5353","11","Male","true","false","false","true","""event"",""trial"",""time""
""fullscreenenter"",""5"",""21139""
","
","
","""event"",""trial"",""time""
""fullscreenenter"",""5"",""21139""
","
","1821.2000000029802","","49","","","3000","1","","","images/earth.jpg","images/rocket2","images/rocket1","null","images/rocket1","","1","real","null","1","","",""
"d3-animate-choice","188","830646","0.0-77.0-1.17","1013","5353","11","Male","true","false","false","true","""event"",""trial"",""time""
""fullscreenenter"",""5"",""21139""
","
","
","""event"",""trial"",""time""
""fullscreenenter"",""5"",""21139""
","
","453.5","","49","","","3000","1","","","images/purpleplanet.jpg","images/alien4","images/alien3","images/rocket1","images/alien3","images/t.png","2","real","true","1","common","1","2023-01-02 21:57:34.426"
"two-step-fixation","189","831652","0.0-77.0-2.17","1013","5353","11","Male","true","false","false","true","""event"",""trial"",""time""
""fullscreenenter"",""5"",""21139""
","
","
","""event"",""trial"",""time""
""fullscreenenter"",""5"",""21139""
","
","","images/earth.jpg","","","","","","","","","","","","","","fixation","","","","","",""
"d3-animate-choice","190","834033","0.0-77.0-0.18","1013","5353","11","Male","true","false","false","true","""event"",""trial"",""time""
""fullscreenenter"",""5"",""21139""
","
","
","""event"",""trial"",""time""
""fullscreenenter"",""5"",""21139""
","
","369.70000000298023","","49","","","3000","1","","","images/earth.jpg","images/rocket2","images/rocket1","null","images/rocket1","","1","real","null","1","","",""
"d3-animate-choice","191","836490","0.0-77.0-1.18","1013","5353","11","Male","true","false","false","true","""event"",""trial"",""time""
""fullscreenenter"",""5"",""21139""
","
","
","""event"",""trial"",""time""
""fullscreenenter"",""5"",""21139""
","
","448.79999999701977","","49","","","3000","1","","","images/purpleplanet.jpg","images/alien4","images/alien3","images/rocket1","images/alien3","images/nothing.png","2","real","true","1","common","0","2023-01-02 21:57:40.271"
"two-step-fixation","192","837498","0.0-77.0-2.18","1013","5353","11","Male","true","false","false","true","""event"",""trial"",""time""
""fullscreenenter"",""5"",""21139""
","
","
","""event"",""trial"",""time""
""fullscreenenter"",""5"",""21139""
","
","","images/earth.jpg","","","","","","","","","","","","","","fixation","","","","","",""
"d3-animate-choice","193","839945","0.0-77.0-0.19","1013","5353","11","Male","true","false","false","true","""event"",""trial"",""time""
""fullscreenenter"",""5"",""21139""
","
","
","""event"",""trial"",""time""
""fullscreenenter"",""5"",""21139""
","
","433.30000000447035","","49","","","3000","1","","","images/earth.jpg","images/rocket2","images/rocket1","null","images/rocket1","","1","real","null","1","","",""
"d3-animate-choice","194","842490","0.0-77.0-1.19","1013","5353","11","Male","true","false","false","true","""event"",""trial"",""time""
""fullscreenenter"",""5"",""21139""
","
","
","""event"",""trial"",""time""
""fullscreenenter"",""5"",""21139""
","
","533.4000000059605","","49","","","3000","1","","","images/purpleplanet.jpg","images/alien4","images/alien3","images/rocket1","images/alien3","images/nothing.png","2","real","true","1","common","0","2023-01-02 21:57:46.271"
"two-step-fixation","195","843498","0.0-77.0-2.19","1013","5353","11","Male","true","false","false","true","""event"",""trial"",""time""
""fullscreenenter"",""5"",""21139""
","
","
","""event"",""trial"",""time""
""fullscreenenter"",""5"",""21139""
","
","","images/earth.jpg","","","","","","","","","","","","","","fixation","","","","","",""
"d3-animate-choice","196","845913","0.0-77.0-0.20","1013","5353","11","Male","true","false","false","true","""event"",""trial"",""time""
""fullscreenenter"",""5"",""21139""
","
","
","""event"",""trial"",""time""
""fullscreenenter"",""5"",""21139""
","
","409.5","","49","","","3000","1","","","images/earth.jpg","images/rocket2","images/rocket1","null","images/rocket1","","1","real","null","1","","",""
"d3-animate-choice","197","848185","0.0-77.0-1.20","1013","5353","11","Male","true","false","false","true","""event"",""trial"",""time""
""fullscreenenter"",""5"",""21139""
","
","
","""event"",""trial"",""time""
""fullscreenenter"",""5"",""21139""
","
","261.8999999985099","","49","","","3000","1","","","images/purpleplanet.jpg","images/alien4","images/alien3","images/rocket1","images/alien3","images/t.png","2","real","true","1","common","1","2023-01-02 21:57:51.966"
"two-step-fixation","198","849194","0.0-77.0-2.20","1013","5353","11","Male","true","false","false","true","""event"",""trial"",""time""
""fullscreenenter"",""5"",""21139""
","
","
","""event"",""trial"",""time""
""fullscreenenter"",""5"",""21139""
","
","","images/earth.jpg","","","","","","","","","","","","","","fixation","","","","","",""
"d3-animate-choice","199","851753","0.0-77.0-0.21","1013","5353","11","Male","true","false","false","true","""event"",""trial"",""time""
""fullscreenenter"",""5"",""21139""
","
","
","""event"",""trial"",""time""
""fullscreenenter"",""5"",""21139""
","
","545.3999999985099","","49","","","3000","1","","","images/earth.jpg","images/rocket2","images/rocket1","null","images/rocket1","","1","real","null","1","","",""
"d3-animate-choice","200","854218","0.0-77.0-1.21","1013","5353","11","Male","true","false","false","true","""event"",""trial"",""time""
""fullscreenenter"",""5"",""21139""
","
","
","""event"",""trial"",""time""
""fullscreenenter"",""5"",""21139""
","
","454.09999999403954","","49","","","3000","1","","","images/redplanet1.jpg","images/alien2","images/alien1","images/rocket1","images/alien1","images/nothing.png","2","real","false","1","rare","0","2023-01-02 21:57:57.999"
"two-step-fixation","201","855226","0.0-77.0-2.21","1013","5353","11","Male","true","false","false","true","""event"",""trial"",""time""
""fullscreenenter"",""5"",""21139""
","
","
","""event"",""trial"",""time""
""fullscreenenter"",""5"",""21139""
","
","","images/earth.jpg","","","","","","","","","","","","","","fixation","","","","","",""
"d3-animate-choice","202","857561","0.0-77.0-0.22","1013","5353","11","Male","true","false","false","true","""event"",""trial"",""time""
""fullscreenenter"",""5"",""21139""
","
","
","""event"",""trial"",""time""
""fullscreenenter"",""5"",""21139""
","
","323.19999999552965","","49","","","3000","1","","","images/earth.jpg","images/rocket2","images/rocket1","null","images/rocket1","","1","real","null","1","","",""
"d3-animate-choice","203","860098","0.0-77.0-1.22","1013","5353","11","Male","true","false","false","true","""event"",""trial"",""time""
""fullscreenenter"",""5"",""21139""
","
","
","""event"",""trial"",""time""
""fullscreenenter"",""5"",""21139""
","
","532.8999999985099","","49","","","3000","1","","","images/purpleplanet.jpg","images/alien4","images/alien3","images/rocket1","images/alien3","images/nothing.png","2","real","true","1","common","0","2023-01-02 21:58:03.878"
"two-step-fixation","204","861105","0.0-77.0-2.22","1013","5353","11","Male","true","false","false","true","""event"",""trial"",""time""
""fullscreenenter"",""5"",""21139""
","
","
","""event"",""trial"",""time""
""fullscreenenter"",""5"",""21139""
","
","","images/earth.jpg","","","","","","","","","","","","","","fixation","","","","","",""
"d3-animate-choice","205","863498","0.0-77.0-0.23","1013","5353","11","Male","true","false","false","true","""event"",""trial"",""time""
""fullscreenenter"",""5"",""21139""
","
","
","""event"",""trial"",""time""
""fullscreenenter"",""5"",""21139""
","
","384.5","","49","","","3000","1","","","images/earth.jpg","images/rocket2","images/rocket1","null","images/rocket1","","1","real","null","1","","",""
"d3-animate-choice","206","865857","0.0-77.0-1.23","1013","5353","11","Male","true","false","false","true","""event"",""trial"",""time""
""fullscreenenter"",""5"",""21139""
","
","
","""event"",""trial"",""time""
""fullscreenenter"",""5"",""21139""
","
","349.3999999985099","","49","","","3000","1","","","images/purpleplanet.jpg","images/alien4","images/alien3","images/rocket1","images/alien3","images/nothing.png","2","real","true","1","common","0","2023-01-02 21:58:09.638"
"two-step-fixation","207","866865","0.0-77.0-2.23","1013","5353","11","Male","true","false","false","true","""event"",""trial"",""time""
""fullscreenenter"",""5"",""21139""
","
","
","""event"",""trial"",""time""
""fullscreenenter"",""5"",""21139""
","
","","images/earth.jpg","","","","","","","","","","","","","","fixation","","","","","",""
"d3-animate-choice","208","869193","0.0-77.0-0.24","1013","5353","11","Male","true","false","false","true","""event"",""trial"",""time""
""fullscreenenter"",""5"",""21139""
","
","
","""event"",""trial"",""time""
""fullscreenenter"",""5"",""21139""
","
","315.80000000447035","","48","","","3000","1","","","images/earth.jpg","images/rocket2","images/rocket1","null","images/rocket2","","1","real","null","2","","",""
"d3-animate-choice","209","872337","0.0-77.0-1.24","1013","5353","11","Male","true","false","false","true","""event"",""trial"",""time""
""fullscreenenter"",""5"",""21139""
","
","
","""event"",""trial"",""time""
""fullscreenenter"",""5"",""21139""
","
","1136.8999999985099","","49","","","3000","1","","","images/redplanet1.jpg","images/alien2","images/alien1","images/rocket2","images/alien1","images/t.png","2","real","true","1","common","1","2023-01-02 21:58:16.117"
"two-step-fixation","210","873345","0.0-77.0-2.24","1013","5353","11","Male","true","false","false","true","""event"",""trial"",""time""
""fullscreenenter"",""5"",""21139""
","
","
","""event"",""trial"",""time""
""fullscreenenter"",""5"",""21139""
","
","","images/earth.jpg","","","","","","","","","","","","","","fixation","","","","","",""
"d3-animate-choice","211","875835","0.0-77.0-0.25","1013","5353","11","Male","true","false","false","true","""event"",""trial"",""time""
""fullscreenenter"",""5"",""21139""
","
","
","""event"",""trial"",""time""
""fullscreenenter"",""5"",""21139""
","
","480.69999999552965","","48","","","3000","1","","","images/earth.jpg","images/rocket2","images/rocket1","null","images/rocket2","","1","real","null","2","","",""
"d3-animate-choice","212","878209","0.0-77.0-1.25","1013","5353","11","Male","true","false","false","true","""event"",""trial"",""time""
""fullscreenenter"",""5"",""21139""
","
","
","""event"",""trial"",""time""
""fullscreenenter"",""5"",""21139""
","
","365.80000000447035","","49","","","3000","1","","","images/purpleplanet.jpg","images/alien4","images/alien3","images/rocket2","images/alien3","images/nothing.png","2","real","false","1","rare","0","2023-01-02 21:58:21.990"
"two-step-fixation","213","879218","0.0-77.0-2.25","1013","5353","11","Male","true","false","false","true","""event"",""trial"",""time""
""fullscreenenter"",""5"",""21139""
","
","
","""event"",""trial"",""time""
""fullscreenenter"",""5"",""21139""
","
","","images/earth.jpg","","","","","","","","","","","","","","fixation","","","","","",""
"d3-animate-choice","214","881800","0.0-77.0-0.26","1013","5353","11","Male","true","false","false","true","""event"",""trial"",""time""
""fullscreenenter"",""5"",""21139""
","
","
","""event"",""trial"",""time""
""fullscreenenter"",""5"",""21139""
","
","573.2000000029802","","48","","","3000","1","","","images/earth.jpg","images/rocket2","images/rocket1","null","images/rocket2","","1","real","null","2","","",""
"d3-animate-choice","215","884295","0.0-77.0-1.26","1013","5353","11","Male","true","false","false","true","""event"",""trial"",""time""
""fullscreenenter"",""5"",""21139""
","
","
","""event"",""trial"",""time""
""fullscreenenter"",""5"",""21139""
","
","487","","49","","","3000","1","","","images/redplanet1.jpg","images/alien2","images/alien1","images/rocket2","images/alien1","images/nothing.png","2","real","true","1","common","0","2023-01-02 21:58:28.075"
"two-step-fixation","216","885305","0.0-77.0-2.26","1013","5353","11","Male","true","false","false","true","""event"",""trial"",""time""
""fullscreenenter"",""5"",""21139""
","
","
","""event"",""trial"",""time""
""fullscreenenter"",""5"",""21139""
","
","","images/earth.jpg","","","","","","","","","","","","","","fixation","","","","","",""
"d3-animate-choice","217","887609","0.0-77.0-0.27","1013","5353","11","Male","true","false","false","true","""event"",""trial"",""time""
""fullscreenenter"",""5"",""21139""
","
","
","""event"",""trial"",""time""
""fullscreenenter"",""5"",""21139""
","
","291.6000000014901","","48","","","3000","1","","","images/earth.jpg","images/rocket2","images/rocket1","null","images/rocket2","","1","real","null","2","","",""
"d3-animate-choice","218","889978","0.0-77.0-1.27","1013","5353","11","Male","true","false","false","true","""event"",""trial"",""time""
""fullscreenenter"",""5"",""21139""
","
","
","""event"",""trial"",""time""
""fullscreenenter"",""5"",""21139""
","
","358.3999999985099","","49","","","3000","1","","","images/purpleplanet.jpg","images/alien4","images/alien3","images/rocket2","images/alien3","images/t.png","2","real","false","1","rare","1","2023-01-02 21:58:33.758"
"two-step-fixation","219","890986","0.0-77.0-2.27","1013","5353","11","Male","true","false","false","true","""event"",""trial"",""time""
""fullscreenenter"",""5"",""21139""
","
","
","""event"",""trial"",""time""
""fullscreenenter"",""5"",""21139""
","
","","images/earth.jpg","","","","","","","","","","","","","","fixation","","","","","",""
"d3-animate-choice","220","893331","0.0-77.0-0.28","1013","5353","11","Male","true","false","false","true","""event"",""trial"",""time""
""fullscreenenter"",""5"",""21139""
","
","
","""event"",""trial"",""time""
""fullscreenenter"",""5"",""21139""
","
","332.19999999552965","","48","","","3000","1","","","images/earth.jpg","images/rocket2","images/rocket1","null","images/rocket2","","1","real","null","2","","",""
"d3-animate-choice","221","895727","0.0-77.0-1.28","1013","5353","11","Male","true","false","false","true","""event"",""trial"",""time""
""fullscreenenter"",""5"",""21139""
","
","
","""event"",""trial"",""time""
""fullscreenenter"",""5"",""21139""
","
","388.6000000014901","","49","","","3000","1","","","images/redplanet1.jpg","images/alien2","images/alien1","images/rocket2","images/alien1","images/nothing.png","2","real","true","1","common","0","2023-01-02 21:58:39.508"
"two-step-fixation","222","896737","0.0-77.0-2.28","1013","5353","11","Male","true","false","false","true","""event"",""trial"",""time""
""fullscreenenter"",""5"",""21139""
","
","
","""event"",""trial"",""time""
""fullscreenenter"",""5"",""21139""
","
","","images/earth.jpg","","","","","","","","","","","","","","fixation","","","","","",""
"d3-animate-choice","223","899376","0.0-77.0-0.29","1013","5353","11","Male","true","false","false","true","""event"",""trial"",""time""
""fullscreenenter"",""5"",""21139""
","
","
","""event"",""trial"",""time""
""fullscreenenter"",""5"",""21139""
","
","631.3000000044703","","49","","","3000","1","1080.8999999985099","49","images/earth.jpg","images/rocket2","images/rocket1","null","images/rocket1","","1","real","null","1","","",""
"d3-animate-choice","224","901778","0.0-77.0-1.29","1013","5353","11","Male","true","false","false","true","""event"",""trial"",""time""
""fullscreenenter"",""5"",""21139""
","
","
","""event"",""trial"",""time""
""fullscreenenter"",""5"",""21139""
","
","391.90000000596046","","49","","","3000","1","","","images/purpleplanet.jpg","images/alien4","images/alien3","images/rocket1","images/alien3","images/nothing.png","2","real","true","1","common","0","2023-01-02 21:58:45.558"
"two-step-fixation","225","902785","0.0-77.0-2.29","1013","5353","11","Male","true","false","false","true","""event"",""trial"",""time""
""fullscreenenter"",""5"",""21139""
","
","
","""event"",""trial"",""time""
""fullscreenenter"",""5"",""21139""
","
","","images/earth.jpg","","","","","","","","","","","","","","fixation","","","","","",""
"d3-animate-choice","226","906058","0.0-77.0-0.30","1013","5353","11","Male","true","false","false","true","""event"",""trial"",""time""
""fullscreenenter"",""5"",""21139""
","
","
","""event"",""trial"",""time""
""fullscreenenter"",""5"",""21139""
","
","1263.8999999985099","","48","","","3000","1","","","images/earth.jpg","images/rocket2","images/rocket1","null","images/rocket2","","1","real","null","2","","",""
"d3-animate-choice","227","909957","0.0-77.0-1.30","1013","5353","11","Male","true","false","false","true","""event"",""trial"",""time""
""fullscreenenter"",""5"",""21139""
","
","
","""event"",""trial"",""time""
""fullscreenenter"",""5"",""21139""
","
","1893.6000000014901","","48","","","3000","1","","","images/redplanet1.jpg","images/alien2","images/alien1","images/rocket2","images/alien2","images/nothing.png","2","real","true","2","common","0","2023-01-02 21:58:53.737"
"two-step-fixation","228","910969","0.0-77.0-2.30","1013","5353","11","Male","true","false","false","true","""event"",""trial"",""time""
""fullscreenenter"",""5"",""21139""
","
","
","""event"",""trial"",""time""
""fullscreenenter"",""5"",""21139""
","
","","images/earth.jpg","","","","","","","","","","","","","","fixation","","","","","",""
"d3-animate-choice","229","913868","0.0-77.0-0.31","1013","5353","11","Male","true","false","false","true","""event"",""trial"",""time""
""fullscreenenter"",""5"",""21139""
","
","
","""event"",""trial"",""time""
""fullscreenenter"",""5"",""21139""
","
","892.7999999970198","","49","","","3000","1","","","images/earth.jpg","images/rocket2","images/rocket1","null","images/rocket1","","1","real","null","1","","",""
"d3-animate-choice","230","916249","0.0-77.0-1.31","1013","5353","11","Male","true","false","false","true","""event"",""trial"",""time""
""fullscreenenter"",""5"",""21139""
","
","
","""event"",""trial"",""time""
""fullscreenenter"",""5"",""21139""
","
","371.90000000596046","","48","","","3000","1","","","images/purpleplanet.jpg","images/alien4","images/alien3","images/rocket1","images/alien4","images/t.png","2","real","true","2","common","1","2023-01-02 21:59:00.030"
"two-step-fixation","231","917257","0.0-77.0-2.31","1013","5353","11","Male","true","false","false","true","""event"",""trial"",""time""
""fullscreenenter"",""5"",""21139""
","
","
","""event"",""trial"",""time""
""fullscreenenter"",""5"",""21139""
","
","","images/earth.jpg","","","","","","","","","","","","","","fixation","","","","","",""
"d3-animate-choice","232","919843","0.0-77.0-0.32","1013","5353","11","Male","true","false","false","true","""event"",""trial"",""time""
""fullscreenenter"",""5"",""21139""
","
","
","""event"",""trial"",""time""
""fullscreenenter"",""5"",""21139""
","
","572.6000000014901","","49","","","3000","1","","","images/earth.jpg","images/rocket2","images/rocket1","null","images/rocket1","","1","real","null","1","","",""
"d3-animate-choice","233","922193","0.0-77.0-1.32","1013","5353","11","Male","true","false","false","true","""event"",""trial"",""time""
""fullscreenenter"",""5"",""21139""
","
","
","""event"",""trial"",""time""
""fullscreenenter"",""5"",""21139""
","
","344.30000000447035","","48","","","3000","1","","","images/purpleplanet.jpg","images/alien4","images/alien3","images/rocket1","images/alien4","images/nothing.png","2","real","true","2","common","0","2023-01-02 21:59:05.974"
"two-step-fixation","234","923201","0.0-77.0-2.32","1013","5353","11","Male","true","false","false","true","""event"",""trial"",""time""
""fullscreenenter"",""5"",""21139""
","
","
","""event"",""trial"",""time""
""fullscreenenter"",""5"",""21139""
","
","","images/earth.jpg","","","","","","","","","","","","","","fixation","","","","","",""
"d3-animate-choice","235","925641","0.0-77.0-0.33","1013","5353","11","Male","true","false","false","true","""event"",""trial"",""time""
""fullscreenenter"",""5"",""21139""
","
","
","""event"",""trial"",""time""
""fullscreenenter"",""5"",""21139""
","
","432.80000000447035","","49","","","3000","1","","","images/earth.jpg","images/rocket2","images/rocket1","null","images/rocket1","","1","real","null","1","","",""
"d3-animate-choice","236","928874","0.0-77.0-1.33","1013","5353","11","Male","true","false","false","true","""event"",""trial"",""time""
""fullscreenenter"",""5"",""21139""
","
","
","""event"",""trial"",""time""
""fullscreenenter"",""5"",""21139""
","
","1226.5","","48","","","3000","1","2206.7999999970198,2485.2999999970198","48,48","images/redplanet1.jpg","images/alien2","images/alien1","images/rocket1","images/alien2","images/t.png","2","real","false","2","rare","1","2023-01-02 21:59:12.654"
"two-step-fixation","237","929880","0.0-77.0-2.33","1013","5353","11","Male","true","false","false","true","""event"",""trial"",""time""
""fullscreenenter"",""5"",""21139""
","
","
","""event"",""trial"",""time""
""fullscreenenter"",""5"",""21139""
","
","","images/earth.jpg","","","","","","","","","","","","","","fixation","","","","","",""
"d3-animate-choice","238","932291","0.0-77.0-0.34","1013","5353","11","Male","true","false","false","true","""event"",""trial"",""time""
""fullscreenenter"",""5"",""21139""
","
","
","""event"",""trial"",""time""
""fullscreenenter"",""5"",""21139""
","
","399.20000000298023","","49","","","3000","1","","","images/earth.jpg","images/rocket2","images/rocket1","null","images/rocket1","","1","real","null","1","","",""
"d3-animate-choice","239","934715","0.0-77.0-1.34","1013","5353","11","Male","true","false","false","true","""event"",""trial"",""time""
""fullscreenenter"",""5"",""21139""
","
","
","""event"",""trial"",""time""
""fullscreenenter"",""5"",""21139""
","
","414.5","","48","","","3000","1","","","images/purpleplanet.jpg","images/alien4","images/alien3","images/rocket1","images/alien4","images/t.png","2","real","true","2","common","1","2023-01-02 21:59:18.495"
"two-step-fixation","240","935722","0.0-77.0-2.34","1013","5353","11","Male","true","false","false","true","""event"",""trial"",""time""
""fullscreenenter"",""5"",""21139""
","
","
","""event"",""trial"",""time""
""fullscreenenter"",""5"",""21139""
","
","","images/earth.jpg","","","","","","","","","","","","","","fixation","","","","","",""
"d3-animate-choice","241","938218","0.0-77.0-0.35","1013","5353","11","Male","true","false","false","true","""event"",""trial"",""time""
""fullscreenenter"",""5"",""21139""
","
","
","""event"",""trial"",""time""
""fullscreenenter"",""5"",""21139""
","
","484.8999999985099","","49","","","3000","1","","","images/earth.jpg","images/rocket2","images/rocket1","null","images/rocket1","","1","real","null","1","","",""
"d3-animate-choice","242","940783","0.0-77.0-1.35","1013","5353","11","Male","true","false","false","true","""event"",""trial"",""time""
""fullscreenenter"",""5"",""21139""
","
","
","""event"",""trial"",""time""
""fullscreenenter"",""5"",""21139""
","
","557.5","","48","","","3000","1","","","images/purpleplanet.jpg","images/alien4","images/alien3","images/rocket1","images/alien4","images/t.png","2","real","true","2","common","1","2023-01-02 21:59:24.563"
"two-step-fixation","243","941788","0.0-77.0-2.35","1013","5353","11","Male","true","false","false","true","""event"",""trial"",""time""
""fullscreenenter"",""5"",""21139""
","
","
","""event"",""trial"",""time""
""fullscreenenter"",""5"",""21139""
","
","","images/earth.jpg","","","","","","","","","","","","","","fixation","","","","","",""
"d3-animate-choice","244","944203","0.0-77.0-0.36","1013","5353","11","Male","true","false","false","true","""event"",""trial"",""time""
""fullscreenenter"",""5"",""21139""
","
","
","""event"",""trial"",""time""
""fullscreenenter"",""5"",""21139""
","
","410.3999999985099","","49","","","3000","1","","","images/earth.jpg","images/rocket2","images/rocket1","null","images/rocket1","","1","real","null","1","","",""
"d3-animate-choice","245","946619","0.0-77.0-1.36","1013","5353","11","Male","true","false","false","true","""event"",""trial"",""time""
""fullscreenenter"",""5"",""21139""
","
","
","""event"",""trial"",""time""
""fullscreenenter"",""5"",""21139""
","
","401.79999999701977","","48","","","3000","1","","","images/purpleplanet.jpg","images/alien4","images/alien3","images/rocket1","images/alien4","images/t.png","2","real","true","2","common","1","2023-01-02 21:59:30.399"
