"trial_type","trial_index","time_elapsed","internal_node_id","participant_id","subject_id","age","gender","rocket_sides","red_planet_first_rocket","red_display_order","purple_display_order","interactions","blur_events","focus_events","fullscreenenter_events","fullscreenexit_events","rt","stimulus","key_press","button_pressed","success","duration","valid_pressed","rts","keys","planet_text","right_text","left_text","center_text","chosen_text","reward_text","trial_stage","practice_trial","transition_type","choice","transition","reward","timestamp"
"pavlovia","0","3","0.0-0.0","1148","2428","20","Male","false","true","true","false","
","
","
","
","
","","","","","","","","","","","","","","","","","","","","","",""
"html-keyboard-response","1","1977","0.0-1.0","1148","2428","20","Male","false","true","true","false","
","
","
","
","
","1973","Welcome! Press the space bar to begin.","32","","","","","","","","","","","","","","","","","","",""
"audio-keyboard-response","2","47157","0.0-2.0","1148","2428","20","Male","false","true","true","false","
","
","
","
","
","44611","audio/beep_loop.wav","175","","","","","","","","","","","","","","","","","","",""
"audio-button-response","3","53483","0.0-3.0","1148","2428","20","Male","false","true","true","false","
","
","
","
","
","NaN","audio/fish.mp3","","1","","","","","","","","","","","","","","","","","",""
"audio-button-response","4","56697","0.0-4.0","1148","2428","20","Male","false","true","true","false","""event"",""trial"",""time""
""fullscreenenter"",""5"",""61855""
","
","
","""event"",""trial"",""time""
""fullscreenenter"",""5"",""61855""
","
","NaN","audio/tiger.mp3","","4","","","","","","","","","","","","","","","","","",""
"fullscreen","5","62845","0.0-5.0","1148","2428","20","Male","false","true","true","false","""event"",""trial"",""time""
""fullscreenenter"",""5"",""61855""
","
","
","""event"",""trial"",""time""
""fullscreenenter"",""5"",""61855""
","
","","","","","true","","","","","","","","","","","","","","","","",""
"d3-instructions","6","72274","0.0-6.0","1148","2428","20","Male","false","true","true","false","""event"",""trial"",""time""
""fullscreenenter"",""5"",""61855""
","
","
","""event"",""trial"",""time""
""fullscreenenter"",""5"",""61855""
","
","","","","","","","","","","","","","","","","","","","","","",""
"d3-instructions","7","78509","0.0-7.0","1148","2428","20","Male","false","true","true","false","""event"",""trial"",""time""
""fullscreenenter"",""5"",""61855""
","
","
","""event"",""trial"",""time""
""fullscreenenter"",""5"",""61855""
","
","","","","","","","","","","","","","","","","","","","","","",""
"d3-instructions","8","81940","0.0-8.0","1148","2428","20","Male","false","true","true","false","""event"",""trial"",""time""
""fullscreenenter"",""5"",""61855""
","
","
","""event"",""trial"",""time""
""fullscreenenter"",""5"",""61855""
","
","","","","","","","","","","","","","","","","","","","","","",""
"d3-instructions","9","88751","0.0-9.0","1148","2428","20","Male","false","true","true","false","""event"",""trial"",""time""
""fullscreenenter"",""5"",""61855""
","
","
","""event"",""trial"",""time""
""fullscreenenter"",""5"",""61855""
","
","","","","","","","","","","","","","","","","","","","","","",""
"d3-instructions","10","101185","0.0-10.0","1148","2428","20","Male","false","true","true","false","""event"",""trial"",""time""
""fullscreenenter"",""5"",""61855""
","
","
","""event"",""trial"",""time""
""fullscreenenter"",""5"",""61855""
","
","","","","","","","","","","","","","","","","","","","","","",""
"d3-animate-choice","11","105399","0.0-11.0","1148","2428","20","Male","false","true","true","false","""event"",""trial"",""time""
""fullscreenenter"",""5"",""61855""
","
","
","""event"",""trial"",""time""
""fullscreenenter"",""5"",""61855""
","
","1036.8999999761581","","32","","","3000","1","2202.5999999046326,3465.7999999523163","48,48","images/tutgreenplanet.jpg","images/tutalien1","images/tutalien2","null","images/tutalien1","","NA","practice","null","","","",""
"d3-animate-choice","12","108076","0.0-12.0","1148","2428","20","Male","false","true","true","false","""event"",""trial"",""time""
""fullscreenenter"",""5"",""61855""
","
","
","""event"",""trial"",""time""
""fullscreenenter"",""5"",""61855""
","
","669.2000000476837","","49","","","3000","1","","","images/tutgreenplanet.jpg","images/tutalien1","images/tutalien2","null","images/tutalien2","","NA","practice","null","","","",""
"d3-animate-choice","13","110980","0.0-13.0","1148","2428","20","Male","false","true","true","false","""event"",""trial"",""time""
""fullscreenenter"",""5"",""61855""
","
","
","""event"",""trial"",""time""
""fullscreenenter"",""5"",""61855""
","
","898.2999999523163","","48","","","3000","1","","","images/tutgreenplanet.jpg","images/tutalien1","images/tutalien2","null","images/tutalien1","","NA","practice","null","","","",""
"d3-animate-choice","14","113353","0.0-14.0","1148","2428","20","Male","false","true","true","false","""event"",""trial"",""time""
""fullscreenenter"",""5"",""61855""
","
","
","""event"",""trial"",""time""
""fullscreenenter"",""5"",""61855""
","
","355.7999999523163","","49","","","3000","1","","","images/tutgreenplanet.jpg","images/tutalien1","images/tutalien2","null","images/tutalien2","","NA","practice","null","","","",""
"d3-instructions","15","119976","0.0-15.0","1148","2428","20","Male","false","true","true","false","""event"",""trial"",""time""
""fullscreenenter"",""5"",""61855""
","
","
","""event"",""trial"",""time""
""fullscreenenter"",""5"",""61855""
","
","","","","","","","","","","","","","","","","","","","","","",""
"d3-instructions","16","123001","0.0-16.0","1148","2428","20","Male","false","true","true","false","""event"",""trial"",""time""
""fullscreenenter"",""5"",""61855""
","
","
","""event"",""trial"",""time""
""fullscreenenter"",""5"",""61855""
","
","","","","","","","","","","","","","","","","","","","","","",""
"d3-instructions","17","128581","0.0-17.0","1148","2428","20","Male","false","true","true","false","""event"",""trial"",""time""
""fullscreenenter"",""5"",""61855""
","
","
","""event"",""trial"",""time""
""fullscreenenter"",""5"",""61855""
","
","","","","","","","","","","","","","","","","","","","","","",""
"d3-instructions","18","138278","0.0-18.0","1148","2428","20","Male","false","true","true","false","""event"",""trial"",""time""
""fullscreenenter"",""5"",""61855""
","
","
","""event"",""trial"",""time""
""fullscreenenter"",""5"",""61855""
","
","","","","","","","","","","","","","","","","","","","","","",""
"d3-instructions","19","146383","0.0-19.0","1148","2428","20","Male","false","true","true","false","""event"",""trial"",""time""
""fullscreenenter"",""5"",""61855""
","
","
","""event"",""trial"",""time""
""fullscreenenter"",""5"",""61855""
","
","","","","","","","","","","","","","","","","","","","","","",""
"d3-animate-choice","20","149739","0.0-20.0","1148","2428","20","Male","false","true","true","false","""event"",""trial"",""time""
""fullscreenenter"",""5"",""61855""
","
","
","""event"",""trial"",""time""
""fullscreenenter"",""5"",""61855""
","
","1345","","49","","","3000","1","","","images/tutyellowplanet.jpg","null","images/tutalien3","null","images/tutalien3","images/nothing.png","NA","practice","null","","","",""
"d3-animate-choice","21","152137","0.0-21.0","1148","2428","20","Male","false","true","true","false","""event"",""trial"",""time""
""fullscreenenter"",""5"",""61855""
","
","
","""event"",""trial"",""time""
""fullscreenenter"",""5"",""61855""
","
","383.5","","49","","","3000","1","","","images/tutyellowplanet.jpg","null","images/tutalien3","null","images/tutalien3","images/t.png","NA","practice","null","","","",""
"d3-animate-choice","22","154473","0.0-22.0","1148","2428","20","Male","false","true","true","false","""event"",""trial"",""time""
""fullscreenenter"",""5"",""61855""
","
","
","""event"",""trial"",""time""
""fullscreenenter"",""5"",""61855""
","
","331","","49","","","3000","1","","","images/tutyellowplanet.jpg","null","images/tutalien3","null","images/tutalien3","images/t.png","NA","practice","null","","","",""
"d3-animate-choice","23","156891","0.0-23.0","1148","2428","20","Male","false","true","true","false","""event"",""trial"",""time""
""fullscreenenter"",""5"",""61855""
","
","
","""event"",""trial"",""time""
""fullscreenenter"",""5"",""61855""
","
","401.89999997615814","","49","","","3000","1","","","images/tutyellowplanet.jpg","null","images/tutalien3","null","images/tutalien3","images/t.png","NA","practice","null","","","",""
"d3-animate-choice","24","159118","0.0-24.0","1148","2428","20","Male","false","true","true","false","""event"",""trial"",""time""
""fullscreenenter"",""5"",""61855""
","
","
","""event"",""trial"",""time""
""fullscreenenter"",""5"",""61855""
","
","206","","49","","","3000","1","","","images/tutyellowplanet.jpg","null","images/tutalien3","null","images/tutalien3","images/nothing.png","NA","practice","null","","","",""
"d3-animate-choice","25","161409","0.0-25.0","1148","2428","20","Male","false","true","true","false","""event"",""trial"",""time""
""fullscreenenter"",""5"",""61855""
","
","
","""event"",""trial"",""time""
""fullscreenenter"",""5"",""61855""
","
","267.7000000476837","","49","","","3000","1","","","images/tutyellowplanet.jpg","null","images/tutalien3","null","images/tutalien3","images/t.png","NA","practice","null","","","",""
"d3-animate-choice","26","163671","0.0-26.0","1148","2428","20","Male","false","true","true","false","""event"",""trial"",""time""
""fullscreenenter"",""5"",""61855""
","
","
","""event"",""trial"",""time""
""fullscreenenter"",""5"",""61855""
","
","253.20000004768372","","49","","","3000","1","","","images/tutyellowplanet.jpg","null","images/tutalien3","null","images/tutalien3","images/t.png","NA","practice","null","","","",""
"d3-animate-choice","27","165695","0.0-27.0","1148","2428","20","Male","false","true","true","false","""event"",""trial"",""time""
""fullscreenenter"",""5"",""61855""
","
","
","""event"",""trial"",""time""
""fullscreenenter"",""5"",""61855""
","
","9.600000023841858","","49","","","3000","1","","","images/tutyellowplanet.jpg","null","images/tutalien3","null","images/tutalien3","images/t.png","NA","practice","null","","","",""
"d3-animate-choice","28","168051","0.0-28.0","1148","2428","20","Male","false","true","true","false","""event"",""trial"",""time""
""fullscreenenter"",""5"",""61855""
","
","
","""event"",""trial"",""time""
""fullscreenenter"",""5"",""61855""
","
","347.7999999523163","","49","","","3000","1","","","images/tutyellowplanet.jpg","null","images/tutalien3","null","images/tutalien3","images/nothing.png","NA","practice","null","","","",""
"d3-animate-choice","29","170421","0.0-29.0","1148","2428","20","Male","false","true","true","false","""event"",""trial"",""time""
""fullscreenenter"",""5"",""61855""
","
","
","""event"",""trial"",""time""
""fullscreenenter"",""5"",""61855""
","
","354.2000000476837","","49","","","3000","1","","","images/tutyellowplanet.jpg","null","images/tutalien3","null","images/tutalien3","images/t.png","NA","practice","null","","","",""
"d3-instructions","30","172894","0.0-30.0","1148","2428","20","Male","false","true","true","false","""event"",""trial"",""time""
""fullscreenenter"",""5"",""61855""
","
","
","""event"",""trial"",""time""
""fullscreenenter"",""5"",""61855""
","
","","","","","","","","","","","","","","","","","","","","","",""
"d3-instructions","31","176163","0.0-31.0","1148","2428","20","Male","false","true","true","false","""event"",""trial"",""time""
""fullscreenenter"",""5"",""61855""
","
","
","""event"",""trial"",""time""
""fullscreenenter"",""5"",""61855""
","
","","","","","","","","","","","","","","","","","","","","","",""
"d3-instructions","32","180102","0.0-32.0","1148","2428","20","Male","false","true","true","false","""event"",""trial"",""time""
""fullscreenenter"",""5"",""61855""
","
","
","""event"",""trial"",""time""
""fullscreenenter"",""5"",""61855""
","
","","","","","","","","","","","","","","","","","","","","","",""
"d3-instructions","33","183329","0.0-33.0","1148","2428","20","Male","false","true","true","false","""event"",""trial"",""time""
""fullscreenenter"",""5"",""61855""
","
","
","""event"",""trial"",""time""
""fullscreenenter"",""5"",""61855""
","
","","","","","","","","","","","","","","","","","","","","","",""
"d3-animate-choice","34","186745","0.0-34.0","1148","2428","20","Male","false","true","true","false","""event"",""trial"",""time""
""fullscreenenter"",""5"",""61855""
","
","
","""event"",""trial"",""time""
""fullscreenenter"",""5"",""61855""
","
","1396.7999999523163","","48","","","3000","1","","","images/tutgreenplanet.jpg","images/tutalien1","images/tutalien2","null","images/tutalien1","images/nothing.png","NA","practice","null","","","",""
"d3-animate-choice","35","189760","0.0-35.0","1148","2428","20","Male","false","true","true","false","""event"",""trial"",""time""
""fullscreenenter"",""5"",""61855""
","
","
","""event"",""trial"",""time""
""fullscreenenter"",""5"",""61855""
","
","1002.2000000476837","","49","","","3000","1","","","images/tutgreenplanet.jpg","images/tutalien1","images/tutalien2","null","images/tutalien2","images/t.png","NA","practice","null","","","",""
"d3-animate-choice","36","192203","0.0-36.0","1148","2428","20","Male","false","true","true","false","""event"",""trial"",""time""
""fullscreenenter"",""5"",""61855""
","
","
","""event"",""trial"",""time""
""fullscreenenter"",""5"",""61855""
","
","436","","49","","","3000","1","","","images/tutgreenplanet.jpg","images/tutalien1","images/tutalien2","null","images/tutalien2","images/t.png","NA","practice","null","","","",""
"d3-animate-choice","37","194454","0.0-37.0","1148","2428","20","Male","false","true","true","false","""event"",""trial"",""time""
""fullscreenenter"",""5"",""61855""
","
","
","""event"",""trial"",""time""
""fullscreenenter"",""5"",""61855""
","
","233","","49","","","3000","1","","","images/tutgreenplanet.jpg","images/tutalien1","images/tutalien2","null","images/tutalien2","images/t.png","NA","practice","null","","","",""
"d3-animate-choice","38","196729","0.0-38.0","1148","2428","20","Male","false","true","true","false","""event"",""trial"",""time""
""fullscreenenter"",""5"",""61855""
","
","
","""event"",""trial"",""time""
""fullscreenenter"",""5"",""61855""
","
","252.90000009536743","","49","","","3000","1","","","images/tutgreenplanet.jpg","images/tutalien1","images/tutalien2","null","images/tutalien2","images/t.png","NA","practice","null","","","",""
"d3-animate-choice","39","198993","0.0-39.0","1148","2428","20","Male","false","true","true","false","""event"",""trial"",""time""
""fullscreenenter"",""5"",""61855""
","
","
","""event"",""trial"",""time""
""fullscreenenter"",""5"",""61855""
","
","247.30000007152557","","49","","","3000","1","","","images/tutgreenplanet.jpg","images/tutalien1","images/tutalien2","null","images/tutalien2","images/t.png","NA","practice","null","","","",""
"d3-animate-choice","40","201289","0.0-40.0","1148","2428","20","Male","false","true","true","false","""event"",""trial"",""time""
""fullscreenenter"",""5"",""61855""
","
","
","""event"",""trial"",""time""
""fullscreenenter"",""5"",""61855""
","
","276.60000002384186","","49","","","3000","1","","","images/tutgreenplanet.jpg","images/tutalien1","images/tutalien2","null","images/tutalien2","images/t.png","NA","practice","null","","","",""
"d3-animate-choice","41","203538","0.0-41.0","1148","2428","20","Male","false","true","true","false","""event"",""trial"",""time""
""fullscreenenter"",""5"",""61855""
","
","
","""event"",""trial"",""time""
""fullscreenenter"",""5"",""61855""
","
","242.29999995231628","","49","","","3000","1","","","images/tutgreenplanet.jpg","images/tutalien1","images/tutalien2","null","images/tutalien2","images/t.png","NA","practice","null","","","",""
"d3-animate-choice","42","205859","0.0-42.0","1148","2428","20","Male","false","true","true","false","""event"",""trial"",""time""
""fullscreenenter"",""5"",""61855""
","
","
","""event"",""trial"",""time""
""fullscreenenter"",""5"",""61855""
","
","310.89999997615814","","49","","","3000","1","","","images/tutgreenplanet.jpg","images/tutalien1","images/tutalien2","null","images/tutalien2","images/t.png","NA","practice","null","","","",""
"d3-animate-choice","43","208143","0.0-43.0","1148","2428","20","Male","false","true","true","false","""event"",""trial"",""time""
""fullscreenenter"",""5"",""61855""
","
","
","""event"",""trial"",""time""
""fullscreenenter"",""5"",""61855""
","
","270.8000000715256","","49","","","3000","1","","","images/tutgreenplanet.jpg","images/tutalien1","images/tutalien2","null","images/tutalien2","images/t.png","NA","practice","null","","","",""
"d3-instructions","44","214958","0.0-44.0","1148","2428","20","Male","false","true","true","false","""event"",""trial"",""time""
""fullscreenenter"",""5"",""61855""
","
","
","""event"",""trial"",""time""
""fullscreenenter"",""5"",""61855""
","
","","","","","","","","","","","","","","","","","","","","","",""
"d3-instructions","45","217453","0.0-45.0","1148","2428","20","Male","false","true","true","false","""event"",""trial"",""time""
""fullscreenenter"",""5"",""61855""
","
","
","""event"",""trial"",""time""
""fullscreenenter"",""5"",""61855""
","
","","","","","","","","","","","","","","","","","","","","","",""
"d3-instructions","46","219532","0.0-46.0","1148","2428","20","Male","false","true","true","false","""event"",""trial"",""time""
""fullscreenenter"",""5"",""61855""
","
","
","""event"",""trial"",""time""
""fullscreenenter"",""5"",""61855""
","
","","","","","","","","","","","","","","","","","","","","","",""
"d3-instructions","47","222923","0.0-47.0","1148","2428","20","Male","false","true","true","false","""event"",""trial"",""time""
""fullscreenenter"",""5"",""61855""
","
","
","""event"",""trial"",""time""
""fullscreenenter"",""5"",""61855""
","
","","","","","","","","","","","","","","","","","","","","","",""
"d3-instructions","48","227015","0.0-48.0","1148","2428","20","Male","false","true","true","false","""event"",""trial"",""time""
""fullscreenenter"",""5"",""61855""
","
","
","""event"",""trial"",""time""
""fullscreenenter"",""5"",""61855""
","
","","","","","","","","","","","","","","","","","","","","","",""
"d3-instructions","49","235909","0.0-49.0","1148","2428","20","Male","false","true","true","false","""event"",""trial"",""time""
""fullscreenenter"",""5"",""61855""
","
","
","""event"",""trial"",""time""
""fullscreenenter"",""5"",""61855""
","
","","","","","","","","","","","","","","","","","","","","","",""
"d3-instructions","50","241420","0.0-50.0","1148","2428","20","Male","false","true","true","false","""event"",""trial"",""time""
""fullscreenenter"",""5"",""61855""
","
","
","""event"",""trial"",""time""
""fullscreenenter"",""5"",""61855""
","
","","","","","","","","","","","","","","","","","","","","","",""
"d3-instructions","51","243343","0.0-51.0","1148","2428","20","Male","false","true","true","false","""event"",""trial"",""time""
""fullscreenenter"",""5"",""61855""
","
","
","""event"",""trial"",""time""
""fullscreenenter"",""5"",""61855""
","
","","","","","","","","","","","","","","","","","","","","","",""
"d3-instructions","52","244505","0.0-52.0","1148","2428","20","Male","false","true","true","false","""event"",""trial"",""time""
""fullscreenenter"",""5"",""61855""
","
","
","""event"",""trial"",""time""
""fullscreenenter"",""5"",""61855""
","
","","","","","","","","","","","","","","","","","","","","","",""
"d3-instructions","53","253370","0.0-53.0","1148","2428","20","Male","false","true","true","false","""event"",""trial"",""time""
""fullscreenenter"",""5"",""61855""
","
","
","""event"",""trial"",""time""
""fullscreenenter"",""5"",""61855""
","
","","","","","","","","","","","","","","","","","","","","","",""
"d3-instructions","54","280324","0.0-54.0","1148","2428","20","Male","false","true","true","false","""event"",""trial"",""time""
""fullscreenenter"",""5"",""61855""
","
","
","""event"",""trial"",""time""
""fullscreenenter"",""5"",""61855""
","
","","","","","","","","","","","","","","","","","","","","","",""
"d3-instructions","55","284669","0.0-55.0","1148","2428","20","Male","false","true","true","false","""event"",""trial"",""time""
""fullscreenenter"",""5"",""61855""
","
","
","""event"",""trial"",""time""
""fullscreenenter"",""5"",""61855""
","
","","","","","","","","","","","","","","","","","","","","","",""
"d3-instructions","56","286450","0.0-56.0","1148","2428","20","Male","false","true","true","false","""event"",""trial"",""time""
""fullscreenenter"",""5"",""61855""
","
","
","""event"",""trial"",""time""
""fullscreenenter"",""5"",""61855""
","
","","","","","","","","","","","","","","","","","","","","","",""
"d3-instructions","57","289829","0.0-57.0","1148","2428","20","Male","false","true","true","false","""event"",""trial"",""time""
""fullscreenenter"",""5"",""61855""
","
","
","""event"",""trial"",""time""
""fullscreenenter"",""5"",""61855""
","
","","","","","","","","","","","","","","","","","","","","","",""
"d3-instructions","58","293607","0.0-58.0","1148","2428","20","Male","false","true","true","false","""event"",""trial"",""time""
""fullscreenenter"",""5"",""61855""
","
","
","""event"",""trial"",""time""
""fullscreenenter"",""5"",""61855""
","
","","","","","","","","","","","","","","","","","","","","","",""
"d3-instructions","59","295229","0.0-59.0","1148","2428","20","Male","false","true","true","false","""event"",""trial"",""time""
""fullscreenenter"",""5"",""61855""
","
","
","""event"",""trial"",""time""
""fullscreenenter"",""5"",""61855""
","
","","","","","","","","","","","","","","","","","","","","","",""
"d3-instructions","60","296965","0.0-60.0","1148","2428","20","Male","false","true","true","false","""event"",""trial"",""time""
""fullscreenenter"",""5"",""61855""
","
","
","""event"",""trial"",""time""
""fullscreenenter"",""5"",""61855""
","
","","","","","","","","","","","","","","","","","","","","","",""
"d3-animate-choice","61","299625","0.0-61.0-0.0","1148","2428","20","Male","false","true","true","false","""event"",""trial"",""time""
""fullscreenenter"",""5"",""61855""
","
","
","""event"",""trial"",""time""
""fullscreenenter"",""5"",""61855""
","
","639.6000000238419","","48","","","3000","1","","","images/earth.jpg","images/tutrocket1","images/tutrocket2","null","images/tutrocket1","","1","practice","null","2","","",""
"d3-animate-choice","62","302443","0.0-61.0-1.0","1148","2428","20","Male","false","true","true","false","""event"",""trial"",""time""
""fullscreenenter"",""5"",""61855""
","
","
","""event"",""trial"",""time""
""fullscreenenter"",""5"",""61855""
","
","796.2999999523163","","49","","","3000","1","","","images/tutyellowplanet.jpg","images/tutalien4","images/tutalien3","images/tutrocket1","images/tutalien3","images/t.png","2","practice","false","1","rare","1","2022-11-02 02:47:44.105"
"two-step-fixation","63","303458","0.0-61.0-2.0","1148","2428","20","Male","false","true","true","false","""event"",""trial"",""time""
""fullscreenenter"",""5"",""61855""
","
","
","""event"",""trial"",""time""
""fullscreenenter"",""5"",""61855""
","
","","images/earth.jpg","","","","","","","","","","","","","","fixation","","","","","",""
"d3-animate-choice","64","305898","0.0-61.0-0.1","1148","2428","20","Male","false","true","true","false","""event"",""trial"",""time""
""fullscreenenter"",""5"",""61855""
","
","
","""event"",""trial"",""time""
""fullscreenenter"",""5"",""61855""
","
","430.5","","48","","","3000","1","","","images/earth.jpg","images/tutrocket1","images/tutrocket2","null","images/tutrocket1","","1","practice","null","2","","",""
"d3-animate-choice","65","309510","0.0-61.0-1.1","1148","2428","20","Male","false","true","true","false","""event"",""trial"",""time""
""fullscreenenter"",""5"",""61855""
","
","
","""event"",""trial"",""time""
""fullscreenenter"",""5"",""61855""
","
","1590.2999999523163","","48","","","3000","1","","","images/tutgreenplanet.jpg","images/tutalien2","images/tutalien1","images/tutrocket1","images/tutalien2","images/nothing.png","2","practice","true","2","common","0","2022-11-02 02:47:51.172"
"two-step-fixation","66","310522","0.0-61.0-2.1","1148","2428","20","Male","false","true","true","false","""event"",""trial"",""time""
""fullscreenenter"",""5"",""61855""
","
","
","""event"",""trial"",""time""
""fullscreenenter"",""5"",""61855""
","
","","images/earth.jpg","","","","","","","","","","","","","","fixation","","","","","",""
"d3-animate-choice","67","312850","0.0-61.0-0.2","1148","2428","20","Male","false","true","true","false","""event"",""trial"",""time""
""fullscreenenter"",""5"",""61855""
","
","
","""event"",""trial"",""time""
""fullscreenenter"",""5"",""61855""
","
","320.39999997615814","","48","","","3000","1","","","images/earth.jpg","images/tutrocket1","images/tutrocket2","null","images/tutrocket1","","1","practice","null","2","","",""
"d3-animate-choice","68","316072","0.0-61.0-1.2","1148","2428","20","Male","false","true","true","false","""event"",""trial"",""time""
""fullscreenenter"",""5"",""61855""
","
","
","""event"",""trial"",""time""
""fullscreenenter"",""5"",""61855""
","
","1200","","48","","","3000","1","","","images/tutyellowplanet.jpg","images/tutalien4","images/tutalien3","images/tutrocket1","images/tutalien4","images/nothing.png","2","practice","false","2","rare","0","2022-11-02 02:47:57.733"
"two-step-fixation","69","317087","0.0-61.0-2.2","1148","2428","20","Male","false","true","true","false","""event"",""trial"",""time""
""fullscreenenter"",""5"",""61855""
","
","
","""event"",""trial"",""time""
""fullscreenenter"",""5"",""61855""
","
","","images/earth.jpg","","","","","","","","","","","","","","fixation","","","","","",""
"d3-animate-choice","70","319503","0.0-61.0-0.3","1148","2428","20","Male","false","true","true","false","""event"",""trial"",""time""
""fullscreenenter"",""5"",""61855""
","
","
","""event"",""trial"",""time""
""fullscreenenter"",""5"",""61855""
","
","391.5","","49","","","3000","1","","","images/earth.jpg","images/tutrocket1","images/tutrocket2","null","images/tutrocket2","","1","practice","null","1","","",""
"d3-animate-choice","71","322586","0.0-61.0-1.3","1148","2428","20","Male","false","true","true","false","""event"",""trial"",""time""
""fullscreenenter"",""5"",""61855""
","
","
","""event"",""trial"",""time""
""fullscreenenter"",""5"",""61855""
","
","1077.6000000238419","","49","","","3000","1","","","images/tutyellowplanet.jpg","images/tutalien4","images/tutalien3","images/tutrocket2","images/tutalien3","images/nothing.png","2","practice","true","1","common","0","2022-11-02 02:48:04.247"
"two-step-fixation","72","323594","0.0-61.0-2.3","1148","2428","20","Male","false","true","true","false","""event"",""trial"",""time""
""fullscreenenter"",""5"",""61855""
","
","
","""event"",""trial"",""time""
""fullscreenenter"",""5"",""61855""
","
","","images/earth.jpg","","","","","","","","","","","","","","fixation","","","","","",""
"d3-animate-choice","73","326055","0.0-61.0-0.4","1148","2428","20","Male","false","true","true","false","""event"",""trial"",""time""
""fullscreenenter"",""5"",""61855""
","
","
","""event"",""trial"",""time""
""fullscreenenter"",""5"",""61855""
","
","445.10000002384186","","48","","","3000","1","","","images/earth.jpg","images/tutrocket1","images/tutrocket2","null","images/tutrocket1","","1","practice","null","2","","",""
"d3-animate-choice","74","329207","0.0-61.0-1.4","1148","2428","20","Male","false","true","true","false","""event"",""trial"",""time""
""fullscreenenter"",""5"",""61855""
","
","
","""event"",""trial"",""time""
""fullscreenenter"",""5"",""61855""
","
","1145","","49","","","3000","1","","","images/tutgreenplanet.jpg","images/tutalien2","images/tutalien1","images/tutrocket1","images/tutalien1","images/nothing.png","2","practice","true","1","common","0","2022-11-02 02:48:10.868"
"two-step-fixation","75","330218","0.0-61.0-2.4","1148","2428","20","Male","false","true","true","false","""event"",""trial"",""time""
""fullscreenenter"",""5"",""61855""
","
","
","""event"",""trial"",""time""
""fullscreenenter"",""5"",""61855""
","
","","images/earth.jpg","","","","","","","","","","","","","","fixation","","","","","",""
"d3-animate-choice","76","332611","0.0-61.0-0.5","1148","2428","20","Male","false","true","true","false","""event"",""trial"",""time""
""fullscreenenter"",""5"",""61855""
","
","
","""event"",""trial"",""time""
""fullscreenenter"",""5"",""61855""
","
","380.7999999523163","","49","","","3000","1","","","images/earth.jpg","images/tutrocket1","images/tutrocket2","null","images/tutrocket2","","1","practice","null","1","","",""
"d3-animate-choice","77","335602","0.0-61.0-1.5","1148","2428","20","Male","false","true","true","false","""event"",""trial"",""time""
""fullscreenenter"",""5"",""61855""
","
","
","""event"",""trial"",""time""
""fullscreenenter"",""5"",""61855""
","
","983.5","","48","","","3000","1","","","images/tutyellowplanet.jpg","images/tutalien4","images/tutalien3","images/tutrocket2","images/tutalien4","images/t.png","2","practice","true","2","common","1","2022-11-02 02:48:17.263"
"two-step-fixation","78","336610","0.0-61.0-2.5","1148","2428","20","Male","false","true","true","false","""event"",""trial"",""time""
""fullscreenenter"",""5"",""61855""
","
","
","""event"",""trial"",""time""
""fullscreenenter"",""5"",""61855""
","
","","images/earth.jpg","","","","","","","","","","","","","","fixation","","","","","",""
"d3-animate-choice","79","339034","0.0-61.0-0.6","1148","2428","20","Male","false","true","true","false","""event"",""trial"",""time""
""fullscreenenter"",""5"",""61855""
","
","
","""event"",""trial"",""time""
""fullscreenenter"",""5"",""61855""
","
","419","","48","","","3000","1","","","images/earth.jpg","images/tutrocket1","images/tutrocket2","null","images/tutrocket1","","1","practice","null","2","","",""
"d3-animate-choice","80","341458","0.0-61.0-1.6","1148","2428","20","Male","false","true","true","false","""event"",""trial"",""time""
""fullscreenenter"",""5"",""61855""
","
","
","""event"",""trial"",""time""
""fullscreenenter"",""5"",""61855""
","
","415.6999999284744","","49","","","3000","1","","","images/tutgreenplanet.jpg","images/tutalien2","images/tutalien1","images/tutrocket1","images/tutalien1","images/nothing.png","2","practice","true","1","common","0","2022-11-02 02:48:23.119"
"two-step-fixation","81","342466","0.0-61.0-2.6","1148","2428","20","Male","false","true","true","false","""event"",""trial"",""time""
""fullscreenenter"",""5"",""61855""
","
","
","""event"",""trial"",""time""
""fullscreenenter"",""5"",""61855""
","
","","images/earth.jpg","","","","","","","","","","","","","","fixation","","","","","",""
"d3-animate-choice","82","344906","0.0-61.0-0.7","1148","2428","20","Male","false","true","true","false","""event"",""trial"",""time""
""fullscreenenter"",""5"",""61855""
","
","
","""event"",""trial"",""time""
""fullscreenenter"",""5"",""61855""
","
","434","","48","","","3000","1","","","images/earth.jpg","images/tutrocket1","images/tutrocket2","null","images/tutrocket1","","1","practice","null","2","","",""
"d3-animate-choice","83","347625","0.0-61.0-1.7","1148","2428","20","Male","false","true","true","false","""event"",""trial"",""time""
""fullscreenenter"",""5"",""61855""
","
","
","""event"",""trial"",""time""
""fullscreenenter"",""5"",""61855""
","
","709.5","","48","","","3000","1","772.2999999523163","79","images/tutgreenplanet.jpg","images/tutalien2","images/tutalien1","images/tutrocket1","images/tutalien2","images/nothing.png","2","practice","true","2","common","0","2022-11-02 02:48:29.287"
"two-step-fixation","84","348634","0.0-61.0-2.7","1148","2428","20","Male","false","true","true","false","""event"",""trial"",""time""
""fullscreenenter"",""5"",""61855""
","
","
","""event"",""trial"",""time""
""fullscreenenter"",""5"",""61855""
","
","","images/earth.jpg","","","","","","","","","","","","","","fixation","","","","","",""
"d3-animate-choice","85","350842","0.0-61.0-0.8","1148","2428","20","Male","false","true","true","false","""event"",""trial"",""time""
""fullscreenenter"",""5"",""61855""
","
","
","""event"",""trial"",""time""
""fullscreenenter"",""5"",""61855""
","
","199.10000002384186","","49","","","3000","1","","","images/earth.jpg","images/tutrocket1","images/tutrocket2","null","images/tutrocket2","","1","practice","null","1","","",""
"d3-animate-choice","86","354067","0.0-61.0-1.8","1148","2428","20","Male","false","true","true","false","""event"",""trial"",""time""
""fullscreenenter"",""5"",""61855""
","
","
","""event"",""trial"",""time""
""fullscreenenter"",""5"",""61855""
","
","1216.1999999284744","","49","","","3000","1","","","images/tutgreenplanet.jpg","images/tutalien2","images/tutalien1","images/tutrocket2","images/tutalien1","images/t.png","2","practice","false","1","rare","1","2022-11-02 02:48:35.728"
"two-step-fixation","87","355074","0.0-61.0-2.8","1148","2428","20","Male","false","true","true","false","""event"",""trial"",""time""
""fullscreenenter"",""5"",""61855""
","
","
","""event"",""trial"",""time""
""fullscreenenter"",""5"",""61855""
","
","","images/earth.jpg","","","","","","","","","","","","","","fixation","","","","","",""
"d3-animate-choice","88","357843","0.0-61.0-0.9","1148","2428","20","Male","false","true","true","false","""event"",""trial"",""time""
""fullscreenenter"",""5"",""61855""
","
","
","""event"",""trial"",""time""
""fullscreenenter"",""5"",""61855""
","
","758.3999999761581","","49","","","3000","1","","","images/earth.jpg","images/tutrocket1","images/tutrocket2","null","images/tutrocket2","","1","practice","null","1","","",""
"d3-animate-choice","89","360218","0.0-61.0-1.9","1148","2428","20","Male","false","true","true","false","""event"",""trial"",""time""
""fullscreenenter"",""5"",""61855""
","
","
","""event"",""trial"",""time""
""fullscreenenter"",""5"",""61855""
","
","366.90000009536743","","48","","","3000","1","","","images/tutyellowplanet.jpg","images/tutalien4","images/tutalien3","images/tutrocket2","images/tutalien4","images/nothing.png","2","practice","true","2","common","0","2022-11-02 02:48:41.880"
"two-step-fixation","90","361228","0.0-61.0-2.9","1148","2428","20","Male","false","true","true","false","""event"",""trial"",""time""
""fullscreenenter"",""5"",""61855""
","
","
","""event"",""trial"",""time""
""fullscreenenter"",""5"",""61855""
","
","","images/earth.jpg","","","","","","","","","","","","","","fixation","","","","","",""
"d3-animate-choice","91","363811","0.0-61.0-0.10","1148","2428","20","Male","false","true","true","false","""event"",""trial"",""time""
""fullscreenenter"",""5"",""61855""
","
","
","""event"",""trial"",""time""
""fullscreenenter"",""5"",""61855""
","
","580.8999999761581","","49","","","3000","1","","","images/earth.jpg","images/tutrocket1","images/tutrocket2","null","images/tutrocket2","","1","practice","null","1","","",""
"d3-animate-choice","92","366699","0.0-61.0-1.10","1148","2428","20","Male","false","true","true","false","""event"",""trial"",""time""
""fullscreenenter"",""5"",""61855""
","
","
","""event"",""trial"",""time""
""fullscreenenter"",""5"",""61855""
","
","878.8999999761581","","49","","","3000","1","","","images/tutyellowplanet.jpg","images/tutalien4","images/tutalien3","images/tutrocket2","images/tutalien3","images/t.png","2","practice","true","1","common","1","2022-11-02 02:48:48.360"
"two-step-fixation","93","367708","0.0-61.0-2.10","1148","2428","20","Male","false","true","true","false","""event"",""trial"",""time""
""fullscreenenter"",""5"",""61855""
","
","
","""event"",""trial"",""time""
""fullscreenenter"",""5"",""61855""
","
","","images/earth.jpg","","","","","","","","","","","","","","fixation","","","","","",""
"d3-animate-choice","94","369978","0.0-61.0-0.11","1148","2428","20","Male","false","true","true","false","""event"",""trial"",""time""
""fullscreenenter"",""5"",""61855""
","
","
","""event"",""trial"",""time""
""fullscreenenter"",""5"",""61855""
","
","261.39999997615814","","48","","","3000","1","","","images/earth.jpg","images/tutrocket1","images/tutrocket2","null","images/tutrocket1","","1","practice","null","2","","",""
"d3-animate-choice","95","372795","0.0-61.0-1.11","1148","2428","20","Male","false","true","true","false","""event"",""trial"",""time""
""fullscreenenter"",""5"",""61855""
","
","
","""event"",""trial"",""time""
""fullscreenenter"",""5"",""61855""
","
","809.6999999284744","","48","","","3000","1","","","images/tutgreenplanet.jpg","images/tutalien2","images/tutalien1","images/tutrocket1","images/tutalien2","images/t.png","2","practice","true","2","common","1","2022-11-02 02:48:54.456"
"two-step-fixation","96","373803","0.0-61.0-2.11","1148","2428","20","Male","false","true","true","false","""event"",""trial"",""time""
""fullscreenenter"",""5"",""61855""
","
","
","""event"",""trial"",""time""
""fullscreenenter"",""5"",""61855""
","
","","images/earth.jpg","","","","","","","","","","","","","","fixation","","","","","",""
"d3-animate-choice","97","376161","0.0-61.0-0.12","1148","2428","20","Male","false","true","true","false","""event"",""trial"",""time""
""fullscreenenter"",""5"",""61855""
","
","
","""event"",""trial"",""time""
""fullscreenenter"",""5"",""61855""
","
","350.2999999523163","","49","","","3000","1","","","images/earth.jpg","images/tutrocket1","images/tutrocket2","null","images/tutrocket2","","1","practice","null","1","","",""
"d3-animate-choice","98","378979","0.0-61.0-1.12","1148","2428","20","Male","false","true","true","false","""event"",""trial"",""time""
""fullscreenenter"",""5"",""61855""
","
","
","""event"",""trial"",""time""
""fullscreenenter"",""5"",""61855""
","
","810.5","","49","","","3000","1","","","images/tutyellowplanet.jpg","images/tutalien4","images/tutalien3","images/tutrocket2","images/tutalien3","images/t.png","2","practice","true","1","common","1","2022-11-02 02:49:00.640"
"two-step-fixation","99","379984","0.0-61.0-2.12","1148","2428","20","Male","false","true","true","false","""event"",""trial"",""time""
""fullscreenenter"",""5"",""61855""
","
","
","""event"",""trial"",""time""
""fullscreenenter"",""5"",""61855""
","
","","images/earth.jpg","","","","","","","","","","","","","","fixation","","","","","",""
"d3-animate-choice","100","382379","0.0-61.0-0.13","1148","2428","20","Male","false","true","true","false","""event"",""trial"",""time""
""fullscreenenter"",""5"",""61855""
","
","
","""event"",""trial"",""time""
""fullscreenenter"",""5"",""61855""
","
","387.40000009536743","","48","","","3000","1","","","images/earth.jpg","images/tutrocket1","images/tutrocket2","null","images/tutrocket1","","1","practice","null","2","","",""
"d3-animate-choice","101","385252","0.0-61.0-1.13","1148","2428","20","Male","false","true","true","false","""event"",""trial"",""time""
""fullscreenenter"",""5"",""61855""
","
","
","""event"",""trial"",""time""
""fullscreenenter"",""5"",""61855""
","
","865.6000000238419","","49","","","3000","1","","","images/tutgreenplanet.jpg","images/tutalien2","images/tutalien1","images/tutrocket1","images/tutalien1","images/nothing.png","2","practice","true","1","common","0","2022-11-02 02:49:06.913"
"two-step-fixation","102","386258","0.0-61.0-2.13","1148","2428","20","Male","false","true","true","false","""event"",""trial"",""time""
""fullscreenenter"",""5"",""61855""
","
","
","""event"",""trial"",""time""
""fullscreenenter"",""5"",""61855""
","
","","images/earth.jpg","","","","","","","","","","","","","","fixation","","","","","",""
"d3-animate-choice","103","388810","0.0-61.0-0.14","1148","2428","20","Male","false","true","true","false","""event"",""trial"",""time""
""fullscreenenter"",""5"",""61855""
","
","
","""event"",""trial"",""time""
""fullscreenenter"",""5"",""61855""
","
","543.5","","48","","","3000","1","","","images/earth.jpg","images/tutrocket1","images/tutrocket2","null","images/tutrocket1","","1","practice","null","2","","",""
"d3-animate-choice","104","391530","0.0-61.0-1.14","1148","2428","20","Male","false","true","true","false","""event"",""trial"",""time""
""fullscreenenter"",""5"",""61855""
","
","
","""event"",""trial"",""time""
""fullscreenenter"",""5"",""61855""
","
","713.7999999523163","","48","","","3000","1","","","images/tutgreenplanet.jpg","images/tutalien2","images/tutalien1","images/tutrocket1","images/tutalien2","images/nothing.png","2","practice","true","2","common","0","2022-11-02 02:49:13.191"
"two-step-fixation","105","392538","0.0-61.0-2.14","1148","2428","20","Male","false","true","true","false","""event"",""trial"",""time""
""fullscreenenter"",""5"",""61855""
","
","
","""event"",""trial"",""time""
""fullscreenenter"",""5"",""61855""
","
","","images/earth.jpg","","","","","","","","","","","","","","fixation","","","","","",""
"d3-animate-choice","106","395450","0.0-61.0-0.15","1148","2428","20","Male","false","true","true","false","""event"",""trial"",""time""
""fullscreenenter"",""5"",""61855""
","
","
","""event"",""trial"",""time""
""fullscreenenter"",""5"",""61855""
","
","905.6000000238419","","49","","","3000","1","","","images/earth.jpg","images/tutrocket1","images/tutrocket2","null","images/tutrocket2","","1","practice","null","1","","",""
"d3-animate-choice","107","398275","0.0-61.0-1.15","1148","2428","20","Male","false","true","true","false","""event"",""trial"",""time""
""fullscreenenter"",""5"",""61855""
","
","
","""event"",""trial"",""time""
""fullscreenenter"",""5"",""61855""
","
","816.6000000238419","","48","","","3000","1","","","images/tutgreenplanet.jpg","images/tutalien2","images/tutalien1","images/tutrocket2","images/tutalien2","images/nothing.png","2","practice","false","2","rare","0","2022-11-02 02:49:19.936"
"two-step-fixation","108","399283","0.0-61.0-2.15","1148","2428","20","Male","false","true","true","false","""event"",""trial"",""time""
""fullscreenenter"",""5"",""61855""
","
","
","""event"",""trial"",""time""
""fullscreenenter"",""5"",""61855""
","
","","images/earth.jpg","","","","","","","","","","","","","","fixation","","","","","",""
"d3-animate-choice","109","401387","0.0-61.0-0.16","1148","2428","20","Male","false","true","true","false","""event"",""trial"",""time""
""fullscreenenter"",""5"",""61855""
","
","
","""event"",""trial"",""time""
""fullscreenenter"",""5"",""61855""
","
","96.69999992847443","","49","","","3000","1","","","images/earth.jpg","images/tutrocket1","images/tutrocket2","null","images/tutrocket2","","1","practice","null","1","","",""
"d3-animate-choice","110","404211","0.0-61.0-1.16","1148","2428","20","Male","false","true","true","false","""event"",""trial"",""time""
""fullscreenenter"",""5"",""61855""
","
","
","""event"",""trial"",""time""
""fullscreenenter"",""5"",""61855""
","
","812.2000000476837","","48","","","3000","1","","","images/tutgreenplanet.jpg","images/tutalien2","images/tutalien1","images/tutrocket2","images/tutalien2","images/t.png","2","practice","false","2","rare","1","2022-11-02 02:49:25.872"
"two-step-fixation","111","405218","0.0-61.0-2.16","1148","2428","20","Male","false","true","true","false","""event"",""trial"",""time""
""fullscreenenter"",""5"",""61855""
","
","
","""event"",""trial"",""time""
""fullscreenenter"",""5"",""61855""
","
","","images/earth.jpg","","","","","","","","","","","","","","fixation","","","","","",""
"d3-animate-choice","112","408623","0.0-61.0-0.17","1148","2428","20","Male","false","true","true","false","""event"",""trial"",""time""
""fullscreenenter"",""5"",""61855""
","
","
","""event"",""trial"",""time""
""fullscreenenter"",""5"",""61855""
","
","1400.2000000476837","","48","","","3000","1","","","images/earth.jpg","images/tutrocket1","images/tutrocket2","null","images/tutrocket1","","1","practice","null","2","","",""
"d3-animate-choice","113","411082","0.0-61.0-1.17","1148","2428","20","Male","false","true","true","false","""event"",""trial"",""time""
""fullscreenenter"",""5"",""61855""
","
","
","""event"",""trial"",""time""
""fullscreenenter"",""5"",""61855""
","
","452","","49","","","3000","1","","","images/tutgreenplanet.jpg","images/tutalien2","images/tutalien1","images/tutrocket1","images/tutalien1","images/nothing.png","2","practice","true","1","common","0","2022-11-02 02:49:32.743"
"two-step-fixation","114","412090","0.0-61.0-2.17","1148","2428","20","Male","false","true","true","false","""event"",""trial"",""time""
""fullscreenenter"",""5"",""61855""
","
","
","""event"",""trial"",""time""
""fullscreenenter"",""5"",""61855""
","
","","images/earth.jpg","","","","","","","","","","","","","","fixation","","","","","",""
"d3-animate-choice","115","414723","0.0-61.0-0.18","1148","2428","20","Male","false","true","true","false","""event"",""trial"",""time""
""fullscreenenter"",""5"",""61855""
","
","
","""event"",""trial"",""time""
""fullscreenenter"",""5"",""61855""
","
","621.8000000715256","","48","","","3000","1","","","images/earth.jpg","images/tutrocket1","images/tutrocket2","null","images/tutrocket1","","1","practice","null","2","","",""
"d3-animate-choice","116","417402","0.0-61.0-1.18","1148","2428","20","Male","false","true","true","false","""event"",""trial"",""time""
""fullscreenenter"",""5"",""61855""
","
","
","""event"",""trial"",""time""
""fullscreenenter"",""5"",""61855""
","
","667.7000000476837","","49","","","3000","1","","","images/tutyellowplanet.jpg","images/tutalien4","images/tutalien3","images/tutrocket1","images/tutalien3","images/t.png","2","practice","false","1","rare","1","2022-11-02 02:49:39.063"
"two-step-fixation","117","418410","0.0-61.0-2.18","1148","2428","20","Male","false","true","true","false","""event"",""trial"",""time""
""fullscreenenter"",""5"",""61855""
","
","
","""event"",""trial"",""time""
""fullscreenenter"",""5"",""61855""
","
","","images/earth.jpg","","","","","","","","","","","","","","fixation","","","","","",""
"d3-animate-choice","118","420721","0.0-61.0-0.19","1148","2428","20","Male","false","true","true","false","""event"",""trial"",""time""
""fullscreenenter"",""5"",""61855""
","
","
","""event"",""trial"",""time""
""fullscreenenter"",""5"",""61855""
","
","301.39999997615814","","49","","","3000","1","","","images/earth.jpg","images/tutrocket1","images/tutrocket2","null","images/tutrocket2","","1","practice","null","1","","",""
"d3-animate-choice","119","423282","0.0-61.0-1.19","1148","2428","20","Male","false","true","true","false","""event"",""trial"",""time""
""fullscreenenter"",""5"",""61855""
","
","
","""event"",""trial"",""time""
""fullscreenenter"",""5"",""61855""
","
","551.2999999523163","","49","","","3000","1","","","images/tutyellowplanet.jpg","images/tutalien4","images/tutalien3","images/tutrocket2","images/tutalien3","images/nothing.png","2","practice","true","1","common","0","2022-11-02 02:49:44.943"
"two-step-fixation","120","424291","0.0-61.0-2.19","1148","2428","20","Male","false","true","true","false","""event"",""trial"",""time""
""fullscreenenter"",""5"",""61855""
","
","
","""event"",""trial"",""time""
""fullscreenenter"",""5"",""61855""
","
","","images/earth.jpg","","","","","","","","","","","","","","fixation","","","","","",""
"d3-instructions","121","427495","0.0-62.0","1148","2428","20","Male","false","true","true","false","""event"",""trial"",""time""
""fullscreenenter"",""5"",""61855""
","
","
","""event"",""trial"",""time""
""fullscreenenter"",""5"",""61855""
","
","","","","","","","","","","","","","","","","","","","","","",""
"audio-keyboard-response","122","434647","0.0-63.0","1148","2428","20","Male","false","true","true","false","""event"",""trial"",""time""
""fullscreenenter"",""5"",""61855""
","
","
","""event"",""trial"",""time""
""fullscreenenter"",""5"",""61855""
","
","7149","audio/instructions/treasure_feedback.wav","32","","","","","","","","","","","","","","","","","","",""
"d3-instructions","123","439156","0.0-64.0","1148","2428","20","Male","false","true","true","false","""event"",""trial"",""time""
""fullscreenenter"",""5"",""61855""
","
","
","""event"",""trial"",""time""
""fullscreenenter"",""5"",""61855""
","
","","","","","","","","","","","","","","","","","","","","","",""
"d3-instructions","124","443689","0.0-65.0","1148","2428","20","Male","false","true","true","false","""event"",""trial"",""time""
""fullscreenenter"",""5"",""61855""
","
","
","""event"",""trial"",""time""
""fullscreenenter"",""5"",""61855""
","
","","","","","","","","","","","","","","","","","","","","","",""
"d3-instructions","125","447697","0.0-66.0","1148","2428","20","Male","false","true","true","false","""event"",""trial"",""time""
""fullscreenenter"",""5"",""61855""
","
","
","""event"",""trial"",""time""
""fullscreenenter"",""5"",""61855""
","
","","","","","","","","","","","","","","","","","","","","","",""
"d3-instructions","126","449181","0.0-67.0","1148","2428","20","Male","false","true","true","false","""event"",""trial"",""time""
""fullscreenenter"",""5"",""61855""
","
","
","""event"",""trial"",""time""
""fullscreenenter"",""5"",""61855""
","
","","","","","","","","","","","","","","","","","","","","","",""
"d3-instructions","127","451468","0.0-68.0","1148","2428","20","Male","false","true","true","false","""event"",""trial"",""time""
""fullscreenenter"",""5"",""61855""
","
","
","""event"",""trial"",""time""
""fullscreenenter"",""5"",""61855""
","
","","","","","","","","","","","","","","","","","","","","","",""
"instructions-quiz","128","454316","0.0-69.0","1148","2428","20","Male","false","true","true","false","""event"",""trial"",""time""
""fullscreenenter"",""5"",""61855""
","
","
","""event"",""trial"",""time""
""fullscreenenter"",""5"",""61855""
","
","2846.1999999284744","audio/quiz/Q1_Prompt.wav","","1","","","","","","","","","","","","","","","","","",""
"audio-keyboard-response","129","455612","0.0-70.0","1148","2428","20","Male","false","true","true","false","""event"",""trial"",""time""
""fullscreenenter"",""5"",""61855""
","
","
","""event"",""trial"",""time""
""fullscreenenter"",""5"",""61855""
","
","1291","audio/quiz/Q1_Correct.wav","32","","","","","","","","","","","","","","","","","","",""
"instructions-quiz","130","460880","0.0-71.0","1148","2428","20","Male","false","true","true","false","""event"",""trial"",""time""
""fullscreenenter"",""5"",""61855""
","
","
","""event"",""trial"",""time""
""fullscreenenter"",""5"",""61855""
","
","5266.100000023842","audio/quiz/Q2_Prompt.wav","","1","","","","","","","","","","","","","","","","","",""
"audio-keyboard-response","131","473896","0.0-72.0","1148","2428","20","Male","false","true","true","false","""event"",""trial"",""time""
""fullscreenenter"",""5"",""61855""
","
","
","""event"",""trial"",""time""
""fullscreenenter"",""5"",""61855""
","
","13021","audio/quiz/Q2_Incorrect.wav","32","","","","","","","","","","","","","","","","","","",""
"instructions-quiz","132","477099","0.0-73.0","1148","2428","20","Male","false","true","true","false","""event"",""trial"",""time""
""fullscreenenter"",""5"",""61855""
","
","
","""event"",""trial"",""time""
""fullscreenenter"",""5"",""61855""
","
","3202.399999976158","audio/quiz/Q3_Prompt.wav","","1","","","","","","","","","","","","","","","","","",""
"audio-keyboard-response","133","477456","0.0-74.0","1148","2428","20","Male","false","true","true","false","""event"",""trial"",""time""
""fullscreenenter"",""5"",""61855""
","
","
","""event"",""trial"",""time""
""fullscreenenter"",""5"",""61855""
","
","360","audio/quiz/Q3_Correct.wav","32","","","","","","","","","","","","","","","","","","",""
"d3-instructions","134","480587","0.0-75.0","1148","2428","20","Male","false","true","true","false","""event"",""trial"",""time""
""fullscreenenter"",""5"",""61855""
","
","
","""event"",""trial"",""time""
""fullscreenenter"",""5"",""61855""
","
","","","","","","","","","","","","","","","","","","","","","",""
"d3-animate-choice","135","483858","0.0-76.0-0.0","1148","2428","20","Male","false","true","true","false","""event"",""trial"",""time""
""fullscreenenter"",""5"",""61855""
","
","
","""event"",""trial"",""time""
""fullscreenenter"",""5"",""61855""
","
","1260.6000000238419","","49","","","3000","1","","","images/earth.jpg","images/rocket1","images/rocket2","null","images/rocket2","","1","real","null","1","","",""
"d3-animate-choice","136","486523","0.0-76.0-1.0","1148","2428","20","Male","false","true","true","false","""event"",""trial"",""time""
""fullscreenenter"",""5"",""61855""
","
","
","""event"",""trial"",""time""
""fullscreenenter"",""5"",""61855""
","
","660.9000000953674","","49","","","3000","1","","","images/redplanet1.jpg","images/alien2","images/alien1","images/rocket2","images/alien1","images/t.png","2","real","false","1","rare","1","2022-11-02 02:50:48.184"
"two-step-fixation","137","487530","0.0-76.0-2.0","1148","2428","20","Male","false","true","true","false","""event"",""trial"",""time""
""fullscreenenter"",""5"",""61855""
","
","
","""event"",""trial"",""time""
""fullscreenenter"",""5"",""61855""
","
","","images/earth.jpg","","","","","","","","","","","","","","fixation","","","","","",""
"d3-animate-choice","138","489946","0.0-76.0-0.1","1148","2428","20","Male","false","true","true","false","""event"",""trial"",""time""
""fullscreenenter"",""5"",""61855""
","
","
","""event"",""trial"",""time""
""fullscreenenter"",""5"",""61855""
","
","410.2000000476837","","49","","","3000","1","","","images/earth.jpg","images/rocket1","images/rocket2","null","images/rocket2","","1","real","null","1","","",""
"d3-animate-choice","139","492698","0.0-76.0-1.1","1148","2428","20","Male","false","true","true","false","""event"",""trial"",""time""
""fullscreenenter"",""5"",""61855""
","
","
","""event"",""trial"",""time""
""fullscreenenter"",""5"",""61855""
","
","744.8000000715256","","48","","","3000","1","","","images/purpleplanet.jpg","images/alien4","images/alien3","images/rocket2","images/alien4","images/nothing.png","2","real","true","2","common","0","2022-11-02 02:50:54.359"
"two-step-fixation","140","493706","0.0-76.0-2.1","1148","2428","20","Male","false","true","true","false","""event"",""trial"",""time""
""fullscreenenter"",""5"",""61855""
","
","
","""event"",""trial"",""time""
""fullscreenenter"",""5"",""61855""
","
","","images/earth.jpg","","","","","","","","","","","","","","fixation","","","","","",""
"d3-animate-choice","141","496155","0.0-76.0-0.2","1148","2428","20","Male","false","true","true","false","""event"",""trial"",""time""
""fullscreenenter"",""5"",""61855""
","
","
","""event"",""trial"",""time""
""fullscreenenter"",""5"",""61855""
","
","444.5","","49","","","3000","1","","","images/earth.jpg","images/rocket1","images/rocket2","null","images/rocket2","","1","real","null","1","","",""
"d3-animate-choice","142","499152","0.0-76.0-1.2","1148","2428","20","Male","false","true","true","false","""event"",""trial"",""time""
""fullscreenenter"",""5"",""61855""
","
","
","""event"",""trial"",""time""
""fullscreenenter"",""5"",""61855""
","
","985.7000000476837","","49","","","3000","1","","","images/purpleplanet.jpg","images/alien4","images/alien3","images/rocket2","images/alien3","images/t.png","2","real","true","1","common","1","2022-11-02 02:51:00.813"
"two-step-fixation","143","500163","0.0-76.0-2.2","1148","2428","20","Male","false","true","true","false","""event"",""trial"",""time""
""fullscreenenter"",""5"",""61855""
","
","
","""event"",""trial"",""time""
""fullscreenenter"",""5"",""61855""
","
","","images/earth.jpg","","","","","","","","","","","","","","fixation","","","","","",""
"d3-animate-choice","144","502449","0.0-76.0-0.3","1148","2428","20","Male","false","true","true","false","""event"",""trial"",""time""
""fullscreenenter"",""5"",""61855""
","
","
","""event"",""trial"",""time""
""fullscreenenter"",""5"",""61855""
","
","279.3000000715256","","48","","","3000","1","","","images/earth.jpg","images/rocket1","images/rocket2","null","images/rocket1","","1","real","null","2","","",""
"d3-animate-choice","145","505418","0.0-76.0-1.3","1148","2428","20","Male","false","true","true","false","""event"",""trial"",""time""
""fullscreenenter"",""5"",""61855""
","
","
","""event"",""trial"",""time""
""fullscreenenter"",""5"",""61855""
","
","966.1999999284744","","48","","","3000","1","","","images/redplanet1.jpg","images/alien2","images/alien1","images/rocket1","images/alien2","images/nothing.png","2","real","true","2","common","0","2022-11-02 02:51:07.079"
"two-step-fixation","146","506426","0.0-76.0-2.3","1148","2428","20","Male","false","true","true","false","""event"",""trial"",""time""
""fullscreenenter"",""5"",""61855""
","
","
","""event"",""trial"",""time""
""fullscreenenter"",""5"",""61855""
","
","","images/earth.jpg","","","","","","","","","","","","","","fixation","","","","","",""
"d3-animate-choice","147","508714","0.0-76.0-0.4","1148","2428","20","Male","false","true","true","false","""event"",""trial"",""time""
""fullscreenenter"",""5"",""61855""
","
","
","""event"",""trial"",""time""
""fullscreenenter"",""5"",""61855""
","
","279.2999999523163","","49","","","3000","1","","","images/earth.jpg","images/rocket1","images/rocket2","null","images/rocket2","","1","real","null","1","","",""
"d3-animate-choice","148","511289","0.0-76.0-1.4","1148","2428","20","Male","false","true","true","false","""event"",""trial"",""time""
""fullscreenenter"",""5"",""61855""
","
","
","""event"",""trial"",""time""
""fullscreenenter"",""5"",""61855""
","
","551.7000000476837","","49","","","3000","1","","","images/purpleplanet.jpg","images/alien4","images/alien3","images/rocket2","images/alien3","images/nothing.png","2","real","true","1","common","0","2022-11-02 02:51:12.950"
"two-step-fixation","149","512299","0.0-76.0-2.4","1148","2428","20","Male","false","true","true","false","""event"",""trial"",""time""
""fullscreenenter"",""5"",""61855""
","
","
","""event"",""trial"",""time""
""fullscreenenter"",""5"",""61855""
","
","","images/earth.jpg","","","","","","","","","","","","","","fixation","","","","","",""
"d3-animate-choice","150","514616","0.0-76.0-0.5","1148","2428","20","Male","false","true","true","false","""event"",""trial"",""time""
""fullscreenenter"",""5"",""61855""
","
","
","""event"",""trial"",""time""
""fullscreenenter"",""5"",""61855""
","
","312.60000002384186","","48","","","3000","1","","","images/earth.jpg","images/rocket1","images/rocket2","null","images/rocket1","","1","real","null","2","","",""
"d3-animate-choice","151","517058","0.0-76.0-1.5","1148","2428","20","Male","false","true","true","false","""event"",""trial"",""time""
""fullscreenenter"",""5"",""61855""
","
","
","""event"",""trial"",""time""
""fullscreenenter"",""5"",""61855""
","
","433.2999999523163","","49","","","3000","1","","","images/redplanet1.jpg","images/alien2","images/alien1","images/rocket1","images/alien1","images/nothing.png","2","real","true","1","common","0","2022-11-02 02:51:18.719"
"two-step-fixation","152","518066","0.0-76.0-2.5","1148","2428","20","Male","false","true","true","false","""event"",""trial"",""time""
""fullscreenenter"",""5"",""61855""
","
","
","""event"",""trial"",""time""
""fullscreenenter"",""5"",""61855""
","
","","images/earth.jpg","","","","","","","","","","","","","","fixation","","","","","",""
"d3-animate-choice","153","520402","0.0-76.0-0.6","1148","2428","20","Male","false","true","true","false","""event"",""trial"",""time""
""fullscreenenter"",""5"",""61855""
","
","
","""event"",""trial"",""time""
""fullscreenenter"",""5"",""61855""
","
","331.6999999284744","","48","","","3000","1","","","images/earth.jpg","images/rocket1","images/rocket2","null","images/rocket1","","1","real","null","2","","",""
"d3-animate-choice","154","522714","0.0-76.0-1.6","1148","2428","20","Male","false","true","true","false","""event"",""trial"",""time""
""fullscreenenter"",""5"",""61855""
","
","
","""event"",""trial"",""time""
""fullscreenenter"",""5"",""61855""
","
","307.7999999523163","","49","","","3000","1","","","images/redplanet1.jpg","images/alien2","images/alien1","images/rocket1","images/alien1","images/t.png","2","real","true","1","common","1","2022-11-02 02:51:24.375"
"two-step-fixation","155","523722","0.0-76.0-2.6","1148","2428","20","Male","false","true","true","false","""event"",""trial"",""time""
""fullscreenenter"",""5"",""61855""
","
","
","""event"",""trial"",""time""
""fullscreenenter"",""5"",""61855""
","
","","images/earth.jpg","","","","","","","","","","","","","","fixation","","","","","",""
"d3-animate-choice","156","525946","0.0-76.0-0.7","1148","2428","20","Male","false","true","true","false","""event"",""trial"",""time""
""fullscreenenter"",""5"",""61855""
","
","
","""event"",""trial"",""time""
""fullscreenenter"",""5"",""61855""
","
","216.70000004768372","","48","","","3000","1","","","images/earth.jpg","images/rocket1","images/rocket2","null","images/rocket1","","1","real","null","2","","",""
"d3-animate-choice","157","529034","0.0-76.0-1.7","1148","2428","20","Male","false","true","true","false","""event"",""trial"",""time""
""fullscreenenter"",""5"",""61855""
","
","
","""event"",""trial"",""time""
""fullscreenenter"",""5"",""61855""
","
","1083.5999999046326","","48","","","3000","1","","","images/purpleplanet.jpg","images/alien4","images/alien3","images/rocket1","images/alien4","images/t.png","2","real","false","2","rare","1","2022-11-02 02:51:30.695"
"two-step-fixation","158","530043","0.0-76.0-2.7","1148","2428","20","Male","false","true","true","false","""event"",""trial"",""time""
""fullscreenenter"",""5"",""61855""
","
","
","""event"",""trial"",""time""
""fullscreenenter"",""5"",""61855""
","
","","images/earth.jpg","","","","","","","","","","","","","","fixation","","","","","",""
"d3-animate-choice","159","532335","0.0-76.0-0.8","1148","2428","20","Male","false","true","true","false","""event"",""trial"",""time""
""fullscreenenter"",""5"",""61855""
","
","
","""event"",""trial"",""time""
""fullscreenenter"",""5"",""61855""
","
","287.1999999284744","","49","","","3000","1","","","images/earth.jpg","images/rocket1","images/rocket2","null","images/rocket2","","1","real","null","1","","",""
"d3-animate-choice","160","535002","0.0-76.0-1.8","1148","2428","20","Male","false","true","true","false","""event"",""trial"",""time""
""fullscreenenter"",""5"",""61855""
","
","
","""event"",""trial"",""time""
""fullscreenenter"",""5"",""61855""
","
","659.3999999761581","","48","","","3000","1","","","images/purpleplanet.jpg","images/alien4","images/alien3","images/rocket2","images/alien4","images/nothing.png","2","real","true","2","common","0","2022-11-02 02:51:36.663"
"two-step-fixation","161","536010","0.0-76.0-2.8","1148","2428","20","Male","false","true","true","false","""event"",""trial"",""time""
""fullscreenenter"",""5"",""61855""
","
","
","""event"",""trial"",""time""
""fullscreenenter"",""5"",""61855""
","
","","images/earth.jpg","","","","","","","","","","","","","","fixation","","","","","",""
"d3-animate-choice","162","538291","0.0-76.0-0.9","1148","2428","20","Male","false","true","true","false","""event"",""trial"",""time""
""fullscreenenter"",""5"",""61855""
","
","
","""event"",""trial"",""time""
""fullscreenenter"",""5"",""61855""
","
","272.60000002384186","","48","","","3000","1","","","images/earth.jpg","images/rocket1","images/rocket2","null","images/rocket1","","1","real","null","2","","",""
"d3-animate-choice","163","541203","0.0-76.0-1.9","1148","2428","20","Male","false","true","true","false","""event"",""trial"",""time""
""fullscreenenter"",""5"",""61855""
","
","
","""event"",""trial"",""time""
""fullscreenenter"",""5"",""61855""
","
","907.3999999761581","","49","","","3000","1","","","images/purpleplanet.jpg","images/alien4","images/alien3","images/rocket1","images/alien3","images/nothing.png","2","real","false","1","rare","0","2022-11-02 02:51:42.864"
"two-step-fixation","164","542210","0.0-76.0-2.9","1148","2428","20","Male","false","true","true","false","""event"",""trial"",""time""
""fullscreenenter"",""5"",""61855""
","
","
","""event"",""trial"",""time""
""fullscreenenter"",""5"",""61855""
","
","","images/earth.jpg","","","","","","","","","","","","","","fixation","","","","","",""
"d3-animate-choice","165","544730","0.0-76.0-0.10","1148","2428","20","Male","false","true","true","false","""event"",""trial"",""time""
""fullscreenenter"",""5"",""61855""
","
","
","""event"",""trial"",""time""
""fullscreenenter"",""5"",""61855""
","
","511.8000000715256","","49","","","3000","1","","","images/earth.jpg","images/rocket1","images/rocket2","null","images/rocket2","","1","real","null","1","","",""
"d3-animate-choice","166","547314","0.0-76.0-1.10","1148","2428","20","Male","false","true","true","false","""event"",""trial"",""time""
""fullscreenenter"",""5"",""61855""
","
","
","""event"",""trial"",""time""
""fullscreenenter"",""5"",""61855""
","
","581.7000000476837","","49","","","3000","1","","","images/purpleplanet.jpg","images/alien4","images/alien3","images/rocket2","images/alien3","images/t.png","2","real","true","1","common","1","2022-11-02 02:51:48.975"
"two-step-fixation","167","548323","0.0-76.0-2.10","1148","2428","20","Male","false","true","true","false","""event"",""trial"",""time""
""fullscreenenter"",""5"",""61855""
","
","
","""event"",""trial"",""time""
""fullscreenenter"",""5"",""61855""
","
","","images/earth.jpg","","","","","","","","","","","","","","fixation","","","","","",""
"d3-animate-choice","168","550984","0.0-76.0-0.11","1148","2428","20","Male","false","true","true","false","""event"",""trial"",""time""
""fullscreenenter"",""5"",""61855""
","
","
","""event"",""trial"",""time""
""fullscreenenter"",""5"",""61855""
","
","655.5","","48","","","3000","1","","","images/earth.jpg","images/rocket1","images/rocket2","null","images/rocket1","","1","real","null","2","","",""
"d3-animate-choice","169","553610","0.0-76.0-1.11","1148","2428","20","Male","false","true","true","false","""event"",""trial"",""time""
""fullscreenenter"",""5"",""61855""
","
","
","""event"",""trial"",""time""
""fullscreenenter"",""5"",""61855""
","
","621.0999999046326","","49","","","3000","1","","","images/purpleplanet.jpg","images/alien4","images/alien3","images/rocket1","images/alien3","images/nothing.png","2","real","false","1","rare","0","2022-11-02 02:51:55.271"
"two-step-fixation","170","554618","0.0-76.0-2.11","1148","2428","20","Male","false","true","true","false","""event"",""trial"",""time""
""fullscreenenter"",""5"",""61855""
","
","
","""event"",""trial"",""time""
""fullscreenenter"",""5"",""61855""
","
","","images/earth.jpg","","","","","","","","","","","","","","fixation","","","","","",""
"d3-animate-choice","171","557042","0.0-76.0-0.12","1148","2428","20","Male","false","true","true","false","""event"",""trial"",""time""
""fullscreenenter"",""5"",""61855""
","
","
","""event"",""trial"",""time""
""fullscreenenter"",""5"",""61855""
","
","419.89999997615814","","48","","","3000","1","","","images/earth.jpg","images/rocket1","images/rocket2","null","images/rocket1","","1","real","null","2","","",""
"d3-animate-choice","172","560051","0.0-76.0-1.12","1148","2428","20","Male","false","true","true","false","""event"",""trial"",""time""
""fullscreenenter"",""5"",""61855""
","
","
","""event"",""trial"",""time""
""fullscreenenter"",""5"",""61855""
","
","999.4000000953674","","48","","","3000","1","","","images/redplanet1.jpg","images/alien2","images/alien1","images/rocket1","images/alien2","images/nothing.png","2","real","true","2","common","0","2022-11-02 02:52:01.712"
"two-step-fixation","173","561058","0.0-76.0-2.12","1148","2428","20","Male","false","true","true","false","""event"",""trial"",""time""
""fullscreenenter"",""5"",""61855""
","
","
","""event"",""trial"",""time""
""fullscreenenter"",""5"",""61855""
","
","","images/earth.jpg","","","","","","","","","","","","","","fixation","","","","","",""
"d3-animate-choice","174","563418","0.0-76.0-0.13","1148","2428","20","Male","false","true","true","false","""event"",""trial"",""time""
""fullscreenenter"",""5"",""61855""
","
","
","""event"",""trial"",""time""
""fullscreenenter"",""5"",""61855""
","
","354.7999999523163","","49","","","3000","1","","","images/earth.jpg","images/rocket1","images/rocket2","null","images/rocket2","","1","real","null","1","","",""
"d3-animate-choice","175","566093","0.0-76.0-1.13","1148","2428","20","Male","false","true","true","false","""event"",""trial"",""time""
""fullscreenenter"",""5"",""61855""
","
","
","""event"",""trial"",""time""
""fullscreenenter"",""5"",""61855""
","
","670.2999999523163","","49","","","3000","1","","","images/purpleplanet.jpg","images/alien4","images/alien3","images/rocket2","images/alien3","images/t.png","2","real","true","1","common","1","2022-11-02 02:52:07.754"
"two-step-fixation","176","567098","0.0-76.0-2.13","1148","2428","20","Male","false","true","true","false","""event"",""trial"",""time""
""fullscreenenter"",""5"",""61855""
","
","
","""event"",""trial"",""time""
""fullscreenenter"",""5"",""61855""
","
","","images/earth.jpg","","","","","","","","","","","","","","fixation","","","","","",""
"d3-animate-choice","177","569567","0.0-76.0-0.14","1148","2428","20","Male","false","true","true","false","""event"",""trial"",""time""
""fullscreenenter"",""5"",""61855""
","
","
","""event"",""trial"",""time""
""fullscreenenter"",""5"",""61855""
","
","463.6999999284744","","48","","","3000","1","","","images/earth.jpg","images/rocket1","images/rocket2","null","images/rocket1","","1","real","null","2","","",""
"d3-animate-choice","178","572139","0.0-76.0-1.14","1148","2428","20","Male","false","true","true","false","""event"",""trial"",""time""
""fullscreenenter"",""5"",""61855""
","
","
","""event"",""trial"",""time""
""fullscreenenter"",""5"",""61855""
","
","563.7999999523163","","49","","","3000","1","","","images/purpleplanet.jpg","images/alien4","images/alien3","images/rocket1","images/alien3","images/nothing.png","2","real","false","1","rare","0","2022-11-02 02:52:13.800"
"two-step-fixation","179","573147","0.0-76.0-2.14","1148","2428","20","Male","false","true","true","false","""event"",""trial"",""time""
""fullscreenenter"",""5"",""61855""
","
","
","""event"",""trial"",""time""
""fullscreenenter"",""5"",""61855""
","
","","images/earth.jpg","","","","","","","","","","","","","","fixation","","","","","",""
"d3-animate-choice","180","575722","0.0-76.0-0.15","1148","2428","20","Male","false","true","true","false","""event"",""trial"",""time""
""fullscreenenter"",""5"",""61855""
","
","
","""event"",""trial"",""time""
""fullscreenenter"",""5"",""61855""
","
","572","","48","","","3000","1","","","images/earth.jpg","images/rocket1","images/rocket2","null","images/rocket1","","1","real","null","2","","",""
"d3-animate-choice","181","578571","0.0-76.0-1.15","1148","2428","20","Male","false","true","true","false","""event"",""trial"",""time""
""fullscreenenter"",""5"",""61855""
","
","
","""event"",""trial"",""time""
""fullscreenenter"",""5"",""61855""
","
","838.7999999523163","","49","","","3000","1","","","images/purpleplanet.jpg","images/alien4","images/alien3","images/rocket1","images/alien3","images/nothing.png","2","real","false","1","rare","0","2022-11-02 02:52:20.232"
"two-step-fixation","182","579578","0.0-76.0-2.15","1148","2428","20","Male","false","true","true","false","""event"",""trial"",""time""
""fullscreenenter"",""5"",""61855""
","
","
","""event"",""trial"",""time""
""fullscreenenter"",""5"",""61855""
","
","","images/earth.jpg","","","","","","","","","","","","","","fixation","","","","","",""
"d3-animate-choice","183","582067","0.0-76.0-0.16","1148","2428","20","Male","false","true","true","false","""event"",""trial"",""time""
""fullscreenenter"",""5"",""61855""
","
","
","""event"",""trial"",""time""
""fullscreenenter"",""5"",""61855""
","
","486.09999990463257","","49","","","3000","1","","","images/earth.jpg","images/rocket1","images/rocket2","null","images/rocket2","","1","real","null","1","","",""
"d3-animate-choice","184","584779","0.0-76.0-1.16","1148","2428","20","Male","false","true","true","false","""event"",""trial"",""time""
""fullscreenenter"",""5"",""61855""
","
","
","""event"",""trial"",""time""
""fullscreenenter"",""5"",""61855""
","
","701.5","","49","","","3000","1","","","images/purpleplanet.jpg","images/alien4","images/alien3","images/rocket2","images/alien3","images/nothing.png","2","real","true","1","common","0","2022-11-02 02:52:26.440"
"two-step-fixation","185","585786","0.0-76.0-2.16","1148","2428","20","Male","false","true","true","false","""event"",""trial"",""time""
""fullscreenenter"",""5"",""61855""
","
","
","""event"",""trial"",""time""
""fullscreenenter"",""5"",""61855""
","
","","images/earth.jpg","","","","","","","","","","","","","","fixation","","","","","",""
"d3-animate-choice","186","588243","0.0-76.0-0.17","1148","2428","20","Male","false","true","true","false","""event"",""trial"",""time""
""fullscreenenter"",""5"",""61855""
","
","
","""event"",""trial"",""time""
""fullscreenenter"",""5"",""61855""
","
","449.5","","48","","","3000","1","","","images/earth.jpg","images/rocket1","images/rocket2","null","images/rocket1","","1","real","null","2","","",""
"d3-animate-choice","187","590739","0.0-76.0-1.17","1148","2428","20","Male","false","true","true","false","""event"",""trial"",""time""
""fullscreenenter"",""5"",""61855""
","
","
","""event"",""trial"",""time""
""fullscreenenter"",""5"",""61855""
","
","485.7000000476837","","48","","","3000","1","","","images/redplanet1.jpg","images/alien2","images/alien1","images/rocket1","images/alien2","images/nothing.png","2","real","true","2","common","0","2022-11-02 02:52:32.400"
"two-step-fixation","188","591746","0.0-76.0-2.17","1148","2428","20","Male","false","true","true","false","""event"",""trial"",""time""
""fullscreenenter"",""5"",""61855""
","
","
","""event"",""trial"",""time""
""fullscreenenter"",""5"",""61855""
","
","","images/earth.jpg","","","","","","","","","","","","","","fixation","","","","","",""
"d3-animate-choice","189","594218","0.0-76.0-0.18","1148","2428","20","Male","false","true","true","false","""event"",""trial"",""time""
""fullscreenenter"",""5"",""61855""
","
","
","""event"",""trial"",""time""
""fullscreenenter"",""5"",""61855""
","
","461.7999999523163","","49","","","3000","1","","","images/earth.jpg","images/rocket1","images/rocket2","null","images/rocket2","","1","real","null","1","","",""
"d3-animate-choice","190","596577","0.0-76.0-1.18","1148","2428","20","Male","false","true","true","false","""event"",""trial"",""time""
""fullscreenenter"",""5"",""61855""
","
","
","""event"",""trial"",""time""
""fullscreenenter"",""5"",""61855""
","
","351.5","","48","","","3000","1","","","images/purpleplanet.jpg","images/alien4","images/alien3","images/rocket2","images/alien4","images/t.png","2","real","true","2","common","1","2022-11-02 02:52:38.238"
"two-step-fixation","191","597586","0.0-76.0-2.18","1148","2428","20","Male","false","true","true","false","""event"",""trial"",""time""
""fullscreenenter"",""5"",""61855""
","
","
","""event"",""trial"",""time""
""fullscreenenter"",""5"",""61855""
","
","","images/earth.jpg","","","","","","","","","","","","","","fixation","","","","","",""
"d3-animate-choice","192","600265","0.0-76.0-0.19","1148","2428","20","Male","false","true","true","false","""event"",""trial"",""time""
""fullscreenenter"",""5"",""61855""
","
","
","""event"",""trial"",""time""
""fullscreenenter"",""5"",""61855""
","
","671.2000000476837","","48","","","3000","1","","","images/earth.jpg","images/rocket1","images/rocket2","null","images/rocket1","","1","real","null","2","","",""
"d3-animate-choice","193","603010","0.0-76.0-1.19","1148","2428","20","Male","false","true","true","false","""event"",""trial"",""time""
""fullscreenenter"",""5"",""61855""
","
","
","""event"",""trial"",""time""
""fullscreenenter"",""5"",""61855""
","
","739.2000000476837","","48","","","3000","1","","","images/purpleplanet.jpg","images/alien4","images/alien3","images/rocket1","images/alien4","images/t.png","2","real","false","2","rare","1","2022-11-02 02:52:44.671"
"two-step-fixation","194","604018","0.0-76.0-2.19","1148","2428","20","Male","false","true","true","false","""event"",""trial"",""time""
""fullscreenenter"",""5"",""61855""
","
","
","""event"",""trial"",""time""
""fullscreenenter"",""5"",""61855""
","
","","images/earth.jpg","","","","","","","","","","","","","","fixation","","","","","",""
"d3-animate-choice","195","606432","0.0-76.0-0.20","1148","2428","20","Male","false","true","true","false","""event"",""trial"",""time""
""fullscreenenter"",""5"",""61855""
","
","
","""event"",""trial"",""time""
""fullscreenenter"",""5"",""61855""
","
","406.1999999284744","","48","","","3000","1","","","images/earth.jpg","images/rocket1","images/rocket2","null","images/rocket1","","1","real","null","2","","",""
"d3-animate-choice","196","608889","0.0-76.0-1.20","1148","2428","20","Male","false","true","true","false","""event"",""trial"",""time""
""fullscreenenter"",""5"",""61855""
","
","
","""event"",""trial"",""time""
""fullscreenenter"",""5"",""61855""
","
","446.5","","48","","","3000","1","","","images/purpleplanet.jpg","images/alien4","images/alien3","images/rocket1","images/alien4","images/t.png","2","real","false","2","rare","1","2022-11-02 02:52:50.550"
"two-step-fixation","197","609898","0.0-76.0-2.20","1148","2428","20","Male","false","true","true","false","""event"",""trial"",""time""
""fullscreenenter"",""5"",""61855""
","
","
","""event"",""trial"",""time""
""fullscreenenter"",""5"",""61855""
","
","","images/earth.jpg","","","","","","","","","","","","","","fixation","","","","","",""
"d3-animate-choice","198","612354","0.0-76.0-0.21","1148","2428","20","Male","false","true","true","false","""event"",""trial"",""time""
""fullscreenenter"",""5"",""61855""
","
","
","""event"",""trial"",""time""
""fullscreenenter"",""5"",""61855""
","
","451.2999999523163","","48","","","3000","1","","","images/earth.jpg","images/rocket1","images/rocket2","null","images/rocket1","","1","real","null","2","","",""
"d3-animate-choice","199","615074","0.0-76.0-1.21","1148","2428","20","Male","false","true","true","false","""event"",""trial"",""time""
""fullscreenenter"",""5"",""61855""
","
","
","""event"",""trial"",""time""
""fullscreenenter"",""5"",""61855""
","
","718.8999999761581","","48","","","3000","1","","","images/redplanet1.jpg","images/alien2","images/alien1","images/rocket1","images/alien2","images/t.png","2","real","true","2","common","1","2022-11-02 02:52:56.735"
"two-step-fixation","200","616081","0.0-76.0-2.21","1148","2428","20","Male","false","true","true","false","""event"",""trial"",""time""
""fullscreenenter"",""5"",""61855""
","
","
","""event"",""trial"",""time""
""fullscreenenter"",""5"",""61855""
","
","","images/earth.jpg","","","","","","","","","","","","","","fixation","","","","","",""
"d3-animate-choice","201","618545","0.0-76.0-0.22","1148","2428","20","Male","false","true","true","false","""event"",""trial"",""time""
""fullscreenenter"",""5"",""61855""
","
","
","""event"",""trial"",""time""
""fullscreenenter"",""5"",""61855""
","
","459.2000000476837","","48","","","3000","1","","","images/earth.jpg","images/rocket1","images/rocket2","null","images/rocket1","","1","real","null","2","","",""
"d3-animate-choice","202","621225","0.0-76.0-1.22","1148","2428","20","Male","false","true","true","false","""event"",""trial"",""time""
""fullscreenenter"",""5"",""61855""
","
","
","""event"",""trial"",""time""
""fullscreenenter"",""5"",""61855""
","
","672.2000000476837","","49","","","3000","1","","","images/redplanet1.jpg","images/alien2","images/alien1","images/rocket1","images/alien1","images/nothing.png","2","real","true","1","common","0","2022-11-02 02:53:02.887"
"two-step-fixation","203","622235","0.0-76.0-2.22","1148","2428","20","Male","false","true","true","false","""event"",""trial"",""time""
""fullscreenenter"",""5"",""61855""
","
","
","""event"",""trial"",""time""
""fullscreenenter"",""5"",""61855""
","
","","images/earth.jpg","","","","","","","","","","","","","","fixation","","","","","",""
"d3-animate-choice","204","624682","0.0-76.0-0.23","1148","2428","20","Male","false","true","true","false","""event"",""trial"",""time""
""fullscreenenter"",""5"",""61855""
","
","
","""event"",""trial"",""time""
""fullscreenenter"",""5"",""61855""
","
","441.5","","48","","","3000","1","","","images/earth.jpg","images/rocket1","images/rocket2","null","images/rocket1","","1","real","null","2","","",""
"d3-animate-choice","205","627058","0.0-76.0-1.23","1148","2428","20","Male","false","true","true","false","""event"",""trial"",""time""
""fullscreenenter"",""5"",""61855""
","
","
","""event"",""trial"",""time""
""fullscreenenter"",""5"",""61855""
","
","364.5","","48","","","3000","1","","","images/redplanet1.jpg","images/alien2","images/alien1","images/rocket1","images/alien2","images/nothing.png","2","real","true","2","common","0","2022-11-02 02:53:08.719"
"two-step-fixation","206","628065","0.0-76.0-2.23","1148","2428","20","Male","false","true","true","false","""event"",""trial"",""time""
""fullscreenenter"",""5"",""61855""
","
","
","""event"",""trial"",""time""
""fullscreenenter"",""5"",""61855""
","
","","images/earth.jpg","","","","","","","","","","","","","","fixation","","","","","",""
"d3-animate-choice","207","630426","0.0-76.0-0.24","1148","2428","20","Male","false","true","true","false","""event"",""trial"",""time""
""fullscreenenter"",""5"",""61855""
","
","
","""event"",""trial"",""time""
""fullscreenenter"",""5"",""61855""
","
","349.7999999523163","","48","","","3000","1","","","images/earth.jpg","images/rocket1","images/rocket2","null","images/rocket1","","1","real","null","2","","",""
"d3-animate-choice","208","633275","0.0-76.0-1.24","1148","2428","20","Male","false","true","true","false","""event"",""trial"",""time""
""fullscreenenter"",""5"",""61855""
","
","
","""event"",""trial"",""time""
""fullscreenenter"",""5"",""61855""
","
","845.5999999046326","","48","","","3000","1","","","images/purpleplanet.jpg","images/alien4","images/alien3","images/rocket1","images/alien4","images/t.png","2","real","false","2","rare","1","2022-11-02 02:53:14.936"
"two-step-fixation","209","634282","0.0-76.0-2.24","1148","2428","20","Male","false","true","true","false","""event"",""trial"",""time""
""fullscreenenter"",""5"",""61855""
","
","
","""event"",""trial"",""time""
""fullscreenenter"",""5"",""61855""
","
","","images/earth.jpg","","","","","","","","","","","","","","fixation","","","","","",""
"d3-animate-choice","210","636579","0.0-76.0-0.25","1148","2428","20","Male","false","true","true","false","""event"",""trial"",""time""
""fullscreenenter"",""5"",""61855""
","
","
","""event"",""trial"",""time""
""fullscreenenter"",""5"",""61855""
","
","290.39999997615814","","49","","","3000","1","","","images/earth.jpg","images/rocket1","images/rocket2","null","images/rocket2","","1","real","null","1","","",""
"d3-animate-choice","211","639330","0.0-76.0-1.25","1148","2428","20","Male","false","true","true","false","""event"",""trial"",""time""
""fullscreenenter"",""5"",""61855""
","
","
","""event"",""trial"",""time""
""fullscreenenter"",""5"",""61855""
","
","747.2000000476837","","48","","","3000","1","","","images/purpleplanet.jpg","images/alien4","images/alien3","images/rocket2","images/alien4","images/t.png","2","real","true","2","common","1","2022-11-02 02:53:20.991"
"two-step-fixation","212","640337","0.0-76.0-2.25","1148","2428","20","Male","false","true","true","false","""event"",""trial"",""time""
""fullscreenenter"",""5"",""61855""
","
","
","""event"",""trial"",""time""
""fullscreenenter"",""5"",""61855""
","
","","images/earth.jpg","","","","","","","","","","","","","","fixation","","","","","",""
"d3-animate-choice","213","642898","0.0-76.0-0.26","1148","2428","20","Male","false","true","true","false","""event"",""trial"",""time""
""fullscreenenter"",""5"",""61855""
","
","
","""event"",""trial"",""time""
""fullscreenenter"",""5"",""61855""
","
","548.4000000953674","","48","","","3000","1","","","images/earth.jpg","images/rocket1","images/rocket2","null","images/rocket1","","1","real","null","2","","",""
"d3-animate-choice","214","645617","0.0-76.0-1.26","1148","2428","20","Male","false","true","true","false","""event"",""trial"",""time""
""fullscreenenter"",""5"",""61855""
","
","
","""event"",""trial"",""time""
""fullscreenenter"",""5"",""61855""
","
","714.8999999761581","","49","","","3000","1","","","images/redplanet1.jpg","images/alien2","images/alien1","images/rocket1","images/alien1","images/t.png","2","real","true","1","common","1","2022-11-02 02:53:27.278"
"two-step-fixation","215","646623","0.0-76.0-2.26","1148","2428","20","Male","false","true","true","false","""event"",""trial"",""time""
""fullscreenenter"",""5"",""61855""
","
","
","""event"",""trial"",""time""
""fullscreenenter"",""5"",""61855""
","
","","images/earth.jpg","","","","","","","","","","","","","","fixation","","","","","",""
"d3-animate-choice","216","648949","0.0-76.0-0.27","1148","2428","20","Male","false","true","true","false","""event"",""trial"",""time""
""fullscreenenter"",""5"",""61855""
","
","
","""event"",""trial"",""time""
""fullscreenenter"",""5"",""61855""
","
","321.09999990463257","","48","","","3000","1","","","images/earth.jpg","images/rocket1","images/rocket2","null","images/rocket1","","1","real","null","2","","",""
"d3-animate-choice","217","651795","0.0-76.0-1.27","1148","2428","20","Male","false","true","true","false","""event"",""trial"",""time""
""fullscreenenter"",""5"",""61855""
","
","
","""event"",""trial"",""time""
""fullscreenenter"",""5"",""61855""
","
","839.6999999284744","","48","","","3000","1","","","images/purpleplanet.jpg","images/alien4","images/alien3","images/rocket1","images/alien4","images/t.png","2","real","false","2","rare","1","2022-11-02 02:53:33.456"
"two-step-fixation","218","652804","0.0-76.0-2.27","1148","2428","20","Male","false","true","true","false","""event"",""trial"",""time""
""fullscreenenter"",""5"",""61855""
","
","
","""event"",""trial"",""time""
""fullscreenenter"",""5"",""61855""
","
","","images/earth.jpg","","","","","","","","","","","","","","fixation","","","","","",""
"d3-animate-choice","219","655323","0.0-76.0-0.28","1148","2428","20","Male","false","true","true","false","""event"",""trial"",""time""
""fullscreenenter"",""5"",""61855""
","
","
","""event"",""trial"",""time""
""fullscreenenter"",""5"",""61855""
","
","513.2000000476837","","48","","","3000","1","","","images/earth.jpg","images/rocket1","images/rocket2","null","images/rocket1","","1","real","null","2","","",""
"d3-animate-choice","220","658107","0.0-76.0-1.28","1148","2428","20","Male","false","true","true","false","""event"",""trial"",""time""
""fullscreenenter"",""5"",""61855""
","
","
","""event"",""trial"",""time""
""fullscreenenter"",""5"",""61855""
","
","773.8999999761581","","49","","","3000","1","","","images/redplanet1.jpg","images/alien2","images/alien1","images/rocket1","images/alien1","images/nothing.png","2","real","true","1","common","0","2022-11-02 02:53:39.768"
"two-step-fixation","221","659114","0.0-76.0-2.28","1148","2428","20","Male","false","true","true","false","""event"",""trial"",""time""
""fullscreenenter"",""5"",""61855""
","
","
","""event"",""trial"",""time""
""fullscreenenter"",""5"",""61855""
","
","","images/earth.jpg","","","","","","","","","","","","","","fixation","","","","","",""
"d3-animate-choice","222","661665","0.0-76.0-0.29","1148","2428","20","Male","false","true","true","false","""event"",""trial"",""time""
""fullscreenenter"",""5"",""61855""
","
","
","""event"",""trial"",""time""
""fullscreenenter"",""5"",""61855""
","
","547","","48","","","3000","1","","","images/earth.jpg","images/rocket1","images/rocket2","null","images/rocket1","","1","real","null","2","","",""
"d3-animate-choice","223","664298","0.0-76.0-1.29","1148","2428","20","Male","false","true","true","false","""event"",""trial"",""time""
""fullscreenenter"",""5"",""61855""
","
","
","""event"",""trial"",""time""
""fullscreenenter"",""5"",""61855""
","
","627.7000000476837","","49","","","3000","1","","","images/redplanet1.jpg","images/alien2","images/alien1","images/rocket1","images/alien1","images/t.png","2","real","true","1","common","1","2022-11-02 02:53:45.959"
"two-step-fixation","224","665306","0.0-76.0-2.29","1148","2428","20","Male","false","true","true","false","""event"",""trial"",""time""
""fullscreenenter"",""5"",""61855""
","
","
","""event"",""trial"",""time""
""fullscreenenter"",""5"",""61855""
","
","","images/earth.jpg","","","","","","","","","","","","","","fixation","","","","","",""
"d3-animate-choice","225","668315","0.0-76.0-0.30","1148","2428","20","Male","false","true","true","false","""event"",""trial"",""time""
""fullscreenenter"",""5"",""61855""
","
","
","""event"",""trial"",""time""
""fullscreenenter"",""5"",""61855""
","
","1002.7999999523163","","48","","","3000","1","","","images/earth.jpg","images/rocket1","images/rocket2","null","images/rocket1","","1","real","null","2","","",""
"d3-animate-choice","226","670874","0.0-76.0-1.30","1148","2428","20","Male","false","true","true","false","""event"",""trial"",""time""
""fullscreenenter"",""5"",""61855""
","
","
","""event"",""trial"",""time""
""fullscreenenter"",""5"",""61855""
","
","549.7999999523163","","49","","","3000","1","","","images/redplanet1.jpg","images/alien2","images/alien1","images/rocket1","images/alien1","images/t.png","2","real","true","1","common","1","2022-11-02 02:53:52.535"
"two-step-fixation","227","671883","0.0-76.0-2.30","1148","2428","20","Male","false","true","true","false","""event"",""trial"",""time""
""fullscreenenter"",""5"",""61855""
","
","
","""event"",""trial"",""time""
""fullscreenenter"",""5"",""61855""
","
","","images/earth.jpg","","","","","","","","","","","","","","fixation","","","","","",""
"d3-animate-choice","228","674243","0.0-76.0-0.31","1148","2428","20","Male","false","true","true","false","""event"",""trial"",""time""
""fullscreenenter"",""5"",""61855""
","
","
","""event"",""trial"",""time""
""fullscreenenter"",""5"",""61855""
","
","349.5","","48","","","3000","1","","","images/earth.jpg","images/rocket1","images/rocket2","null","images/rocket1","","1","real","null","2","","",""
"d3-animate-choice","229","676906","0.0-76.0-1.31","1148","2428","20","Male","false","true","true","false","""event"",""trial"",""time""
""fullscreenenter"",""5"",""61855""
","
","
","""event"",""trial"",""time""
""fullscreenenter"",""5"",""61855""
","
","652.5","","49","","","3000","1","","","images/purpleplanet.jpg","images/alien4","images/alien3","images/rocket1","images/alien3","images/nothing.png","2","real","false","1","rare","0","2022-11-02 02:53:58.567"
"two-step-fixation","230","677915","0.0-76.0-2.31","1148","2428","20","Male","false","true","true","false","""event"",""trial"",""time""
""fullscreenenter"",""5"",""61855""
","
","
","""event"",""trial"",""time""
""fullscreenenter"",""5"",""61855""
","
","","images/earth.jpg","","","","","","","","","","","","","","fixation","","","","","",""
"d3-animate-choice","231","680763","0.0-76.0-0.32","1148","2428","20","Male","false","true","true","false","""event"",""trial"",""time""
""fullscreenenter"",""5"",""61855""
","
","
","""event"",""trial"",""time""
""fullscreenenter"",""5"",""61855""
","
","843.8999999761581","","48","","","3000","1","","","images/earth.jpg","images/rocket1","images/rocket2","null","images/rocket1","","1","real","null","2","","",""
"d3-animate-choice","232","683338","0.0-76.0-1.32","1148","2428","20","Male","false","true","true","false","""event"",""trial"",""time""
""fullscreenenter"",""5"",""61855""
","
","
","""event"",""trial"",""time""
""fullscreenenter"",""5"",""61855""
","
","571.2000000476837","","48","","","3000","1","","","images/purpleplanet.jpg","images/alien4","images/alien3","images/rocket1","images/alien4","images/t.png","2","real","false","2","rare","1","2022-11-02 02:54:04.999"
"two-step-fixation","233","684348","0.0-76.0-2.32","1148","2428","20","Male","false","true","true","false","""event"",""trial"",""time""
""fullscreenenter"",""5"",""61855""
","
","
","""event"",""trial"",""time""
""fullscreenenter"",""5"",""61855""
","
","","images/earth.jpg","","","","","","","","","","","","","","fixation","","","","","",""
"d3-animate-choice","234","686730","0.0-76.0-0.33","1148","2428","20","Male","false","true","true","false","""event"",""trial"",""time""
""fullscreenenter"",""5"",""61855""
","
","
","""event"",""trial"",""time""
""fullscreenenter"",""5"",""61855""
","
","378.7999999523163","","48","","","3000","1","","","images/earth.jpg","images/rocket1","images/rocket2","null","images/rocket1","","1","real","null","2","","",""
"d3-animate-choice","235","689282","0.0-76.0-1.33","1148","2428","20","Male","false","true","true","false","""event"",""trial"",""time""
""fullscreenenter"",""5"",""61855""
","
","
","""event"",""trial"",""time""
""fullscreenenter"",""5"",""61855""
","
","546.3000000715256","","48","","","3000","1","","","images/purpleplanet.jpg","images/alien4","images/alien3","images/rocket1","images/alien4","images/nothing.png","2","real","false","2","rare","0","2022-11-02 02:54:10.943"
"two-step-fixation","236","690287","0.0-76.0-2.33","1148","2428","20","Male","false","true","true","false","""event"",""trial"",""time""
""fullscreenenter"",""5"",""61855""
","
","
","""event"",""trial"",""time""
""fullscreenenter"",""5"",""61855""
","
","","images/earth.jpg","","","","","","","","","","","","","","fixation","","","","","",""
"d3-animate-choice","237","692763","0.0-76.0-0.34","1148","2428","20","Male","false","true","true","false","""event"",""trial"",""time""
""fullscreenenter"",""5"",""61855""
","
","
","""event"",""trial"",""time""
""fullscreenenter"",""5"",""61855""
","
","466.5","","48","","","3000","1","","","images/earth.jpg","images/rocket1","images/rocket2","null","images/rocket1","","1","real","null","2","","",""
"d3-animate-choice","238","695347","0.0-76.0-1.34","1148","2428","20","Male","false","true","true","false","""event"",""trial"",""time""
""fullscreenenter"",""5"",""61855""
","
","
","""event"",""trial"",""time""
""fullscreenenter"",""5"",""61855""
","
","576.5","","48","","","3000","1","","","images/purpleplanet.jpg","images/alien4","images/alien3","images/rocket1","images/alien4","images/t.png","2","real","false","2","rare","1","2022-11-02 02:54:17.008"
"two-step-fixation","239","696354","0.0-76.0-2.34","1148","2428","20","Male","false","true","true","false","""event"",""trial"",""time""
""fullscreenenter"",""5"",""61855""
","
","
","""event"",""trial"",""time""
""fullscreenenter"",""5"",""61855""
","
","","images/earth.jpg","","","","","","","","","","","","","","fixation","","","","","",""
"d3-animate-choice","240","698891","0.0-76.0-0.35","1148","2428","20","Male","false","true","true","false","""event"",""trial"",""time""
""fullscreenenter"",""5"",""61855""
","
","
","""event"",""trial"",""time""
""fullscreenenter"",""5"",""61855""
","
","528","","48","","","3000","1","","","images/earth.jpg","images/rocket1","images/rocket2","null","images/rocket1","","1","real","null","2","","",""
"d3-animate-choice","241","701572","0.0-76.0-1.35","1148","2428","20","Male","false","true","true","false","""event"",""trial"",""time""
""fullscreenenter"",""5"",""61855""
","
","
","""event"",""trial"",""time""
""fullscreenenter"",""5"",""61855""
","
","673","","49","","","3000","1","","","images/redplanet1.jpg","images/alien2","images/alien1","images/rocket1","images/alien1","images/t.png","2","real","true","1","common","1","2022-11-02 02:54:23.233"
"two-step-fixation","242","702579","0.0-76.0-2.35","1148","2428","20","Male","false","true","true","false","""event"",""trial"",""time""
""fullscreenenter"",""5"",""61855""
","
","
","""event"",""trial"",""time""
""fullscreenenter"",""5"",""61855""
","
","","images/earth.jpg","","","","","","","","","","","","","","fixation","","","","","",""
"d3-animate-choice","243","704947","0.0-76.0-0.36","1148","2428","20","Male","false","true","true","false","""event"",""trial"",""time""
""fullscreenenter"",""5"",""61855""
","
","
","""event"",""trial"",""time""
""fullscreenenter"",""5"",""61855""
","
","361.5","","48","","","3000","1","","","images/earth.jpg","images/rocket1","images/rocket2","null","images/rocket1","","1","real","null","2","","",""
"d3-animate-choice","244","708035","0.0-76.0-1.36","1148","2428","20","Male","false","true","true","false","""event"",""trial"",""time""
""fullscreenenter"",""5"",""61855""
","
","
","""event"",""trial"",""time""
""fullscreenenter"",""5"",""61855""
","
","1078.8999999761581","","49","","","3000","1","","","images/redplanet1.jpg","images/alien2","images/alien1","images/rocket1","images/alien1","images/t.png","2","real","true","1","common","1","2022-11-02 02:54:29.696"
"two-step-fixation","245","709044","0.0-76.0-2.36","1148","2428","20","Male","false","true","true","false","""event"",""trial"",""time""
""fullscreenenter"",""5"",""61855""
","
","
","""event"",""trial"",""time""
""fullscreenenter"",""5"",""61855""
","
","","images/earth.jpg","","","","","","","","","","","","","","fixation","","","","","",""
"d3-animate-choice","246","711539","0.0-76.0-0.37","1148","2428","20","Male","false","true","true","false","""event"",""trial"",""time""
""fullscreenenter"",""5"",""61855""
","
","
","""event"",""trial"",""time""
""fullscreenenter"",""5"",""61855""
","
","488.1999999284744","","48","","","3000","1","","","images/earth.jpg","images/rocket1","images/rocket2","null","images/rocket1","","1","real","null","2","","",""
