"trial_type","trial_index","time_elapsed","internal_node_id","participant_id","subject_id","age","gender","rocket_sides","red_planet_first_rocket","red_display_order","purple_display_order","interactions","blur_events","focus_events","fullscreenenter_events","fullscreenexit_events","rt","stimulus","key_press","button_pressed","success","duration","valid_pressed","rts","keys","planet_text","right_text","left_text","center_text","chosen_text","reward_text","trial_stage","practice_trial","transition_type","choice","transition","reward","timestamp"
"pavlovia","0","2","0.0-0.0","2661","5593","19","Female","true","true","false","false","
","
","
","
","
","","","","","","","","","","","","","","","","","","","","","",""
"html-keyboard-response","1","1983","0.0-1.0","2661","5593","19","Female","true","true","false","false","
","
","
","
","
","1979.6999999999534","Welcome! Press the space bar to begin.","32","","","","","","","","","","","","","","","","","","",""
"audio-keyboard-response","2","11795","0.0-2.0","2661","5593","19","Female","true","true","false","false","
","
","
","
","
","9741","audio/beep_loop.wav","32","","","","","","","","","","","","","","","","","","",""
"audio-button-response","3","20363","0.0-3.0","2661","5593","19","Female","true","true","false","false","
","
","
","
","
","NaN","audio/fish.mp3","","1","","","","","","","","","","","","","","","","","",""
"audio-button-response","4","23346","0.0-4.0","2661","5593","19","Female","true","true","false","false","""event"",""trial"",""time""
""fullscreenenter"",""5"",""26390""
","
","
","""event"",""trial"",""time""
""fullscreenenter"",""5"",""26390""
","
","NaN","audio/tiger.mp3","","4","","","","","","","","","","","","","","","","","",""
"fullscreen","5","27375","0.0-5.0","2661","5593","19","Female","true","true","false","false","""event"",""trial"",""time""
""fullscreenenter"",""5"",""26390""
","
","
","""event"",""trial"",""time""
""fullscreenenter"",""5"",""26390""
","
","","","","","true","","","","","","","","","","","","","","","","",""
"d3-instructions","6","41455","0.0-6.0","2661","5593","19","Female","true","true","false","false","""event"",""trial"",""time""
""fullscreenenter"",""5"",""26390""
","
","
","""event"",""trial"",""time""
""fullscreenenter"",""5"",""26390""
","
","","","","","","","","","","","","","","","","","","","","","",""
"d3-instructions","7","50278","0.0-7.0","2661","5593","19","Female","true","true","false","false","""event"",""trial"",""time""
""fullscreenenter"",""5"",""26390""
","
","
","""event"",""trial"",""time""
""fullscreenenter"",""5"",""26390""
","
","","","","","","","","","","","","","","","","","","","","","",""
"d3-instructions","8","57661","0.0-8.0","2661","5593","19","Female","true","true","false","false","""event"",""trial"",""time""
""fullscreenenter"",""5"",""26390""
","
","
","""event"",""trial"",""time""
""fullscreenenter"",""5"",""26390""
","
","","","","","","","","","","","","","","","","","","","","","",""
"d3-instructions","9","69221","0.0-9.0","2661","5593","19","Female","true","true","false","false","""event"",""trial"",""time""
""fullscreenenter"",""5"",""26390""
","
","
","""event"",""trial"",""time""
""fullscreenenter"",""5"",""26390""
","
","","","","","","","","","","","","","","","","","","","","","",""
"d3-instructions","10","91527","0.0-10.0","2661","5593","19","Female","true","true","false","false","""event"",""trial"",""time""
""fullscreenenter"",""5"",""26390""
","
","
","""event"",""trial"",""time""
""fullscreenenter"",""5"",""26390""
","
","","","","","","","","","","","","","","","","","","","","","",""
"d3-animate-choice","11","94506","0.0-11.0","2661","5593","19","Female","true","true","false","false","""event"",""trial"",""time""
""fullscreenenter"",""5"",""26390""
","
","
","""event"",""trial"",""time""
""fullscreenenter"",""5"",""26390""
","
","972.2000000001863","","49","","","3000","1","","","images/tutgreenplanet.jpg","images/tutalien1","images/tutalien2","null","images/tutalien2","","NA","practice","null","","","",""
"d3-animate-choice","12","96855","0.0-12.0","2661","5593","19","Female","true","true","false","false","""event"",""trial"",""time""
""fullscreenenter"",""5"",""26390""
","
","
","""event"",""trial"",""time""
""fullscreenenter"",""5"",""26390""
","
","344.5","","48","","","3000","1","","","images/tutgreenplanet.jpg","images/tutalien1","images/tutalien2","null","images/tutalien1","","NA","practice","null","","","",""
"d3-animate-choice","13","99900","0.0-13.0","2661","5593","19","Female","true","true","false","false","""event"",""trial"",""time""
""fullscreenenter"",""5"",""26390""
","
","
","""event"",""trial"",""time""
""fullscreenenter"",""5"",""26390""
","
","1041.6000000000931","","48","","","3000","1","","","images/tutgreenplanet.jpg","images/tutalien1","images/tutalien2","null","images/tutalien1","","NA","practice","null","","","",""
"d3-animate-choice","14","102247","0.0-14.0","2661","5593","19","Female","true","true","false","false","""event"",""trial"",""time""
""fullscreenenter"",""5"",""26390""
","
","
","""event"",""trial"",""time""
""fullscreenenter"",""5"",""26390""
","
","344.10000000009313","","49","","","3000","1","","","images/tutgreenplanet.jpg","images/tutalien1","images/tutalien2","null","images/tutalien2","","NA","practice","null","","","",""
"d3-instructions","15","109495","0.0-15.0","2661","5593","19","Female","true","true","false","false","""event"",""trial"",""time""
""fullscreenenter"",""5"",""26390""
","
","
","""event"",""trial"",""time""
""fullscreenenter"",""5"",""26390""
","
","","","","","","","","","","","","","","","","","","","","","",""
"d3-instructions","16","117197","0.0-16.0","2661","5593","19","Female","true","true","false","false","""event"",""trial"",""time""
""fullscreenenter"",""5"",""26390""
","
","
","""event"",""trial"",""time""
""fullscreenenter"",""5"",""26390""
","
","","","","","","","","","","","","","","","","","","","","","",""
"d3-instructions","17","126416","0.0-17.0","2661","5593","19","Female","true","true","false","false","""event"",""trial"",""time""
""fullscreenenter"",""5"",""26390""
","
","
","""event"",""trial"",""time""
""fullscreenenter"",""5"",""26390""
","
","","","","","","","","","","","","","","","","","","","","","",""
"d3-instructions","18","139274","0.0-18.0","2661","5593","19","Female","true","true","false","false","""event"",""trial"",""time""
""fullscreenenter"",""5"",""26390""
","
","
","""event"",""trial"",""time""
""fullscreenenter"",""5"",""26390""
","
","","","","","","","","","","","","","","","","","","","","","",""
"d3-instructions","19","154744","0.0-19.0","2661","5593","19","Female","true","true","false","false","""event"",""trial"",""time""
""fullscreenenter"",""5"",""26390""
","
","
","""event"",""trial"",""time""
""fullscreenenter"",""5"",""26390""
","
","","","","","","","","","","","","","","","","","","","","","",""
"d3-animate-choice","20","157503","0.0-20.0","2661","5593","19","Female","true","true","false","false","""event"",""trial"",""time""
""fullscreenenter"",""5"",""26390""
","
","
","""event"",""trial"",""time""
""fullscreenenter"",""5"",""26390""
","
","755.7999999998137","","49","","","3000","1","","","images/tutyellowplanet.jpg","null","images/tutalien3","null","images/tutalien3","images/t.png","NA","practice","null","","","",""
"d3-animate-choice","21","159810","0.0-21.0","2661","5593","19","Female","true","true","false","false","""event"",""trial"",""time""
""fullscreenenter"",""5"",""26390""
","
","
","""event"",""trial"",""time""
""fullscreenenter"",""5"",""26390""
","
","303.60000000009313","","49","","","3000","1","","","images/tutyellowplanet.jpg","null","images/tutalien3","null","images/tutalien3","images/t.png","NA","practice","null","","","",""
"d3-animate-choice","22","162221","0.0-22.0","2661","5593","19","Female","true","true","false","false","""event"",""trial"",""time""
""fullscreenenter"",""5"",""26390""
","
","
","""event"",""trial"",""time""
""fullscreenenter"",""5"",""26390""
","
","406.60000000009313","","49","","","3000","1","","","images/tutyellowplanet.jpg","null","images/tutalien3","null","images/tutalien3","images/t.png","NA","practice","null","","","",""
"d3-animate-choice","23","164594","0.0-23.0","2661","5593","19","Female","true","true","false","false","""event"",""trial"",""time""
""fullscreenenter"",""5"",""26390""
","
","
","""event"",""trial"",""time""
""fullscreenenter"",""5"",""26390""
","
","368.10000000009313","","49","","","3000","1","","","images/tutyellowplanet.jpg","null","images/tutalien3","null","images/tutalien3","images/nothing.png","NA","practice","null","","","",""
"d3-animate-choice","24","167410","0.0-24.0","2661","5593","19","Female","true","true","false","false","""event"",""trial"",""time""
""fullscreenenter"",""5"",""26390""
","
","
","""event"",""trial"",""time""
""fullscreenenter"",""5"",""26390""
","
","814","","49","","","3000","1","","","images/tutyellowplanet.jpg","null","images/tutalien3","null","images/tutalien3","images/t.png","NA","practice","null","","","",""
"d3-animate-choice","25","170671","0.0-25.0","2661","5593","19","Female","true","true","false","false","""event"",""trial"",""time""
""fullscreenenter"",""5"",""26390""
","
","
","""event"",""trial"",""time""
""fullscreenenter"",""5"",""26390""
","
","1258.8999999999069","","49","","","3000","1","","","images/tutyellowplanet.jpg","null","images/tutalien3","null","images/tutalien3","images/t.png","NA","practice","null","","","",""
"d3-animate-choice","26","173159","0.0-26.0","2661","5593","19","Female","true","true","false","false","""event"",""trial"",""time""
""fullscreenenter"",""5"",""26390""
","
","
","""event"",""trial"",""time""
""fullscreenenter"",""5"",""26390""
","
","485.80000000004657","","49","","","3000","1","","","images/tutyellowplanet.jpg","null","images/tutalien3","null","images/tutalien3","images/t.png","NA","practice","null","","","",""
"d3-animate-choice","27","175599","0.0-27.0","2661","5593","19","Female","true","true","false","false","""event"",""trial"",""time""
""fullscreenenter"",""5"",""26390""
","
","
","""event"",""trial"",""time""
""fullscreenenter"",""5"",""26390""
","
","436.80000000004657","","49","","","3000","1","","","images/tutyellowplanet.jpg","null","images/tutalien3","null","images/tutalien3","images/nothing.png","NA","practice","null","","","",""
"d3-animate-choice","28","177999","0.0-28.0","2661","5593","19","Female","true","true","false","false","""event"",""trial"",""time""
""fullscreenenter"",""5"",""26390""
","
","
","""event"",""trial"",""time""
""fullscreenenter"",""5"",""26390""
","
","397.19999999995343","","49","","","3000","1","","","images/tutyellowplanet.jpg","null","images/tutalien3","null","images/tutalien3","images/t.png","NA","practice","null","","","",""
"d3-animate-choice","29","180330","0.0-29.0","2661","5593","19","Female","true","true","false","false","""event"",""trial"",""time""
""fullscreenenter"",""5"",""26390""
","
","
","""event"",""trial"",""time""
""fullscreenenter"",""5"",""26390""
","
","327.5","","49","","","3000","1","","","images/tutyellowplanet.jpg","null","images/tutalien3","null","images/tutalien3","images/t.png","NA","practice","null","","","",""
"d3-instructions","30","186721","0.0-30.0","2661","5593","19","Female","true","true","false","false","""event"",""trial"",""time""
""fullscreenenter"",""5"",""26390""
","
","
","""event"",""trial"",""time""
""fullscreenenter"",""5"",""26390""
","
","","","","","","","","","","","","","","","","","","","","","",""
"d3-instructions","31","197856","0.0-31.0","2661","5593","19","Female","true","true","false","false","""event"",""trial"",""time""
""fullscreenenter"",""5"",""26390""
","
","
","""event"",""trial"",""time""
""fullscreenenter"",""5"",""26390""
","
","","","","","","","","","","","","","","","","","","","","","",""
"d3-instructions","32","205397","0.0-32.0","2661","5593","19","Female","true","true","false","false","""event"",""trial"",""time""
""fullscreenenter"",""5"",""26390""
","
","
","""event"",""trial"",""time""
""fullscreenenter"",""5"",""26390""
","
","","","","","","","","","","","","","","","","","","","","","",""
"d3-instructions","33","216168","0.0-33.0","2661","5593","19","Female","true","true","false","false","""event"",""trial"",""time""
""fullscreenenter"",""5"",""26390""
","
","
","""event"",""trial"",""time""
""fullscreenenter"",""5"",""26390""
","
","","","","","","","","","","","","","","","","","","","","","",""
"d3-animate-choice","34","220271","0.0-34.0","2661","5593","19","Female","true","true","false","false","""event"",""trial"",""time""
""fullscreenenter"",""5"",""26390""
","
","
","""event"",""trial"",""time""
""fullscreenenter"",""5"",""26390""
","
","2100.3000000000466","","49","","","3000","1","","","images/tutgreenplanet.jpg","images/tutalien1","images/tutalien2","null","images/tutalien2","images/t.png","NA","practice","null","","","",""
"d3-animate-choice","35","222577","0.0-35.0","2661","5593","19","Female","true","true","false","false","""event"",""trial"",""time""
""fullscreenenter"",""5"",""26390""
","
","
","""event"",""trial"",""time""
""fullscreenenter"",""5"",""26390""
","
","300.60000000009313","","49","","","3000","1","","","images/tutgreenplanet.jpg","images/tutalien1","images/tutalien2","null","images/tutalien2","images/t.png","NA","practice","null","","","",""
"d3-animate-choice","36","224917","0.0-36.0","2661","5593","19","Female","true","true","false","false","""event"",""trial"",""time""
""fullscreenenter"",""5"",""26390""
","
","
","""event"",""trial"",""time""
""fullscreenenter"",""5"",""26390""
","
","336.20000000018626","","48","","","3000","1","","","images/tutgreenplanet.jpg","images/tutalien1","images/tutalien2","null","images/tutalien1","images/nothing.png","NA","practice","null","","","",""
"d3-animate-choice","37","227219","0.0-37.0","2661","5593","19","Female","true","true","false","false","""event"",""trial"",""time""
""fullscreenenter"",""5"",""26390""
","
","
","""event"",""trial"",""time""
""fullscreenenter"",""5"",""26390""
","
","301.19999999995343","","49","","","3000","1","","","images/tutgreenplanet.jpg","images/tutalien1","images/tutalien2","null","images/tutalien2","images/t.png","NA","practice","null","","","",""
"d3-animate-choice","38","229535","0.0-38.0","2661","5593","19","Female","true","true","false","false","""event"",""trial"",""time""
""fullscreenenter"",""5"",""26390""
","
","
","""event"",""trial"",""time""
""fullscreenenter"",""5"",""26390""
","
","312.9000000001397","","49","","","3000","1","","","images/tutgreenplanet.jpg","images/tutalien1","images/tutalien2","null","images/tutalien2","images/t.png","NA","practice","null","","","",""
"d3-animate-choice","39","231789","0.0-39.0","2661","5593","19","Female","true","true","false","false","""event"",""trial"",""time""
""fullscreenenter"",""5"",""26390""
","
","
","""event"",""trial"",""time""
""fullscreenenter"",""5"",""26390""
","
","249","","49","","","3000","1","","","images/tutgreenplanet.jpg","images/tutalien1","images/tutalien2","null","images/tutalien2","images/t.png","NA","practice","null","","","",""
"d3-animate-choice","40","234024","0.0-40.0","2661","5593","19","Female","true","true","false","false","""event"",""trial"",""time""
""fullscreenenter"",""5"",""26390""
","
","
","""event"",""trial"",""time""
""fullscreenenter"",""5"",""26390""
","
","231.10000000009313","","49","","","3000","1","","","images/tutgreenplanet.jpg","images/tutalien1","images/tutalien2","null","images/tutalien2","images/t.png","NA","practice","null","","","",""
"d3-animate-choice","41","236316","0.0-41.0","2661","5593","19","Female","true","true","false","false","""event"",""trial"",""time""
""fullscreenenter"",""5"",""26390""
","
","
","""event"",""trial"",""time""
""fullscreenenter"",""5"",""26390""
","
","290.60000000009313","","49","","","3000","1","","","images/tutgreenplanet.jpg","images/tutalien1","images/tutalien2","null","images/tutalien2","images/t.png","NA","practice","null","","","",""
"d3-animate-choice","42","238626","0.0-42.0","2661","5593","19","Female","true","true","false","false","""event"",""trial"",""time""
""fullscreenenter"",""5"",""26390""
","
","
","""event"",""trial"",""time""
""fullscreenenter"",""5"",""26390""
","
","306.5","","49","","","3000","1","","","images/tutgreenplanet.jpg","images/tutalien1","images/tutalien2","null","images/tutalien2","images/t.png","NA","practice","null","","","",""
"d3-animate-choice","43","240951","0.0-43.0","2661","5593","19","Female","true","true","false","false","""event"",""trial"",""time""
""fullscreenenter"",""5"",""26390""
","
","
","""event"",""trial"",""time""
""fullscreenenter"",""5"",""26390""
","
","322.5","","49","","","3000","1","","","images/tutgreenplanet.jpg","images/tutalien1","images/tutalien2","null","images/tutalien2","images/t.png","NA","practice","null","","","",""
"d3-instructions","44","253649","0.0-44.0","2661","5593","19","Female","true","true","false","false","""event"",""trial"",""time""
""fullscreenenter"",""5"",""26390""
","
","
","""event"",""trial"",""time""
""fullscreenenter"",""5"",""26390""
","
","","","","","","","","","","","","","","","","","","","","","",""
"d3-instructions","45","260243","0.0-45.0","2661","5593","19","Female","true","true","false","false","""event"",""trial"",""time""
""fullscreenenter"",""5"",""26390""
","
","
","""event"",""trial"",""time""
""fullscreenenter"",""5"",""26390""
","
","","","","","","","","","","","","","","","","","","","","","",""
"d3-instructions","46","265756","0.0-46.0","2661","5593","19","Female","true","true","false","false","""event"",""trial"",""time""
""fullscreenenter"",""5"",""26390""
","
","
","""event"",""trial"",""time""
""fullscreenenter"",""5"",""26390""
","
","","","","","","","","","","","","","","","","","","","","","",""
"d3-instructions","47","289342","0.0-47.0","2661","5593","19","Female","true","true","false","false","""event"",""trial"",""time""
""fullscreenenter"",""5"",""26390""
","
","
","""event"",""trial"",""time""
""fullscreenenter"",""5"",""26390""
","
","","","","","","","","","","","","","","","","","","","","","",""
"d3-instructions","48","295870","0.0-48.0","2661","5593","19","Female","true","true","false","false","""event"",""trial"",""time""
""fullscreenenter"",""5"",""26390""
","
","
","""event"",""trial"",""time""
""fullscreenenter"",""5"",""26390""
","
","","","","","","","","","","","","","","","","","","","","","",""
"d3-instructions","49","306961","0.0-49.0","2661","5593","19","Female","true","true","false","false","""event"",""trial"",""time""
""fullscreenenter"",""5"",""26390""
","
","
","""event"",""trial"",""time""
""fullscreenenter"",""5"",""26390""
","
","","","","","","","","","","","","","","","","","","","","","",""
"d3-instructions","50","316036","0.0-50.0","2661","5593","19","Female","true","true","false","false","""event"",""trial"",""time""
""fullscreenenter"",""5"",""26390""
","
","
","""event"",""trial"",""time""
""fullscreenenter"",""5"",""26390""
","
","","","","","","","","","","","","","","","","","","","","","",""
"d3-instructions","51","318990","0.0-51.0","2661","5593","19","Female","true","true","false","false","""event"",""trial"",""time""
""fullscreenenter"",""5"",""26390""
","
","
","""event"",""trial"",""time""
""fullscreenenter"",""5"",""26390""
","
","","","","","","","","","","","","","","","","","","","","","",""
"d3-instructions","52","321590","0.0-52.0","2661","5593","19","Female","true","true","false","false","""event"",""trial"",""time""
""fullscreenenter"",""5"",""26390""
","
","
","""event"",""trial"",""time""
""fullscreenenter"",""5"",""26390""
","
","","","","","","","","","","","","","","","","","","","","","",""
"d3-instructions","53","333433","0.0-53.0","2661","5593","19","Female","true","true","false","false","""event"",""trial"",""time""
""fullscreenenter"",""5"",""26390""
","
","
","""event"",""trial"",""time""
""fullscreenenter"",""5"",""26390""
","
","","","","","","","","","","","","","","","","","","","","","",""
"d3-instructions","54","346252","0.0-54.0","2661","5593","19","Female","true","true","false","false","""event"",""trial"",""time""
""fullscreenenter"",""5"",""26390""
","
","
","""event"",""trial"",""time""
""fullscreenenter"",""5"",""26390""
","
","","","","","","","","","","","","","","","","","","","","","",""
"d3-instructions","55","356676","0.0-55.0","2661","5593","19","Female","true","true","false","false","""event"",""trial"",""time""
""fullscreenenter"",""5"",""26390""
","
","
","""event"",""trial"",""time""
""fullscreenenter"",""5"",""26390""
","
","","","","","","","","","","","","","","","","","","","","","",""
"d3-instructions","56","365211","0.0-56.0","2661","5593","19","Female","true","true","false","false","""event"",""trial"",""time""
""fullscreenenter"",""5"",""26390""
","
","
","""event"",""trial"",""time""
""fullscreenenter"",""5"",""26390""
","
","","","","","","","","","","","","","","","","","","","","","",""
"d3-instructions","57","375464","0.0-57.0","2661","5593","19","Female","true","true","false","false","""event"",""trial"",""time""
""fullscreenenter"",""5"",""26390""
","
","
","""event"",""trial"",""time""
""fullscreenenter"",""5"",""26390""
","
","","","","","","","","","","","","","","","","","","","","","",""
"d3-instructions","58","386201","0.0-58.0","2661","5593","19","Female","true","true","false","false","""event"",""trial"",""time""
""fullscreenenter"",""5"",""26390""
","
","
","""event"",""trial"",""time""
""fullscreenenter"",""5"",""26390""
","
","","","","","","","","","","","","","","","","","","","","","",""
"d3-instructions","59","391369","0.0-59.0","2661","5593","19","Female","true","true","false","false","""event"",""trial"",""time""
""fullscreenenter"",""5"",""26390""
","
","
","""event"",""trial"",""time""
""fullscreenenter"",""5"",""26390""
","
","","","","","","","","","","","","","","","","","","","","","",""
"d3-instructions","60","398082","0.0-60.0","2661","5593","19","Female","true","true","false","false","""event"",""trial"",""time""
""fullscreenenter"",""5"",""26390""
","
","
","""event"",""trial"",""time""
""fullscreenenter"",""5"",""26390""
","
","","","","","","","","","","","","","","","","","","","","","",""
"d3-animate-choice","61","400712","0.0-61.0-0.0","2661","5593","19","Female","true","true","false","false","""event"",""trial"",""time""
""fullscreenenter"",""5"",""26390""
","
","
","""event"",""trial"",""time""
""fullscreenenter"",""5"",""26390""
","
","624.5999999998603","","49","","","3000","1","","","images/earth.jpg","images/tutrocket2","images/tutrocket1","null","images/tutrocket1","","1","practice","null","1","","",""
"d3-animate-choice","62","403366","0.0-61.0-1.0","2661","5593","19","Female","true","true","false","false","""event"",""trial"",""time""
""fullscreenenter"",""5"",""26390""
","
","
","""event"",""trial"",""time""
""fullscreenenter"",""5"",""26390""
","
","645.7999999998137","","49","","","3000","1","","","images/tutgreenplanet.jpg","images/tutalien2","images/tutalien1","images/tutrocket1","images/tutalien1","images/nothing.png","2","practice","true","1","common","0","2022-12-30 22:03:14.114"
"two-step-fixation","63","404372","0.0-61.0-2.0","2661","5593","19","Female","true","true","false","false","""event"",""trial"",""time""
""fullscreenenter"",""5"",""26390""
","
","
","""event"",""trial"",""time""
""fullscreenenter"",""5"",""26390""
","
","","images/earth.jpg","","","","","","","","","","","","","","fixation","","","","","",""
"d3-animate-choice","64","406704","0.0-61.0-0.1","2661","5593","19","Female","true","true","false","false","""event"",""trial"",""time""
""fullscreenenter"",""5"",""26390""
","
","
","""event"",""trial"",""time""
""fullscreenenter"",""5"",""26390""
","
","328.5","","48","","","3000","1","","","images/earth.jpg","images/tutrocket2","images/tutrocket1","null","images/tutrocket2","","1","practice","null","2","","",""
"d3-animate-choice","65","409235","0.0-61.0-1.1","2661","5593","19","Female","true","true","false","false","""event"",""trial"",""time""
""fullscreenenter"",""5"",""26390""
","
","
","""event"",""trial"",""time""
""fullscreenenter"",""5"",""26390""
","
","527.4000000001397","","48","","","3000","1","","","images/tutyellowplanet.jpg","images/tutalien4","images/tutalien3","images/tutrocket2","images/tutalien4","images/t.png","2","practice","true","2","common","1","2022-12-30 22:03:19.983"
"two-step-fixation","66","410242","0.0-61.0-2.1","2661","5593","19","Female","true","true","false","false","""event"",""trial"",""time""
""fullscreenenter"",""5"",""26390""
","
","
","""event"",""trial"",""time""
""fullscreenenter"",""5"",""26390""
","
","","images/earth.jpg","","","","","","","","","","","","","","fixation","","","","","",""
"d3-animate-choice","67","412544","0.0-61.0-0.2","2661","5593","19","Female","true","true","false","false","""event"",""trial"",""time""
""fullscreenenter"",""5"",""26390""
","
","
","""event"",""trial"",""time""
""fullscreenenter"",""5"",""26390""
","
","298.9000000001397","","48","","","3000","1","1819","48","images/earth.jpg","images/tutrocket2","images/tutrocket1","null","images/tutrocket2","","1","practice","null","2","","",""
"d3-animate-choice","68","414827","0.0-61.0-1.2","2661","5593","19","Female","true","true","false","false","""event"",""trial"",""time""
""fullscreenenter"",""5"",""26390""
","
","
","""event"",""trial"",""time""
""fullscreenenter"",""5"",""26390""
","
","279.30000000004657","","48","","","3000","1","","","images/tutyellowplanet.jpg","images/tutalien4","images/tutalien3","images/tutrocket2","images/tutalien4","images/nothing.png","2","practice","true","2","common","0","2022-12-30 22:03:25.575"
"two-step-fixation","69","415829","0.0-61.0-2.2","2661","5593","19","Female","true","true","false","false","""event"",""trial"",""time""
""fullscreenenter"",""5"",""26390""
","
","
","""event"",""trial"",""time""
""fullscreenenter"",""5"",""26390""
","
","","images/earth.jpg","","","","","","","","","","","","","","fixation","","","","","",""
"d3-animate-choice","70","418066","0.0-61.0-0.3","2661","5593","19","Female","true","true","false","false","""event"",""trial"",""time""
""fullscreenenter"",""5"",""26390""
","
","
","""event"",""trial"",""time""
""fullscreenenter"",""5"",""26390""
","
","233.19999999995343","","49","","","3000","1","","","images/earth.jpg","images/tutrocket2","images/tutrocket1","null","images/tutrocket1","","1","practice","null","1","","",""
"d3-animate-choice","71","420360","0.0-61.0-1.3","2661","5593","19","Female","true","true","false","false","""event"",""trial"",""time""
""fullscreenenter"",""5"",""26390""
","
","
","""event"",""trial"",""time""
""fullscreenenter"",""5"",""26390""
","
","291","","48","","","3000","1","","","images/tutgreenplanet.jpg","images/tutalien2","images/tutalien1","images/tutrocket1","images/tutalien2","images/nothing.png","2","practice","true","2","common","0","2022-12-30 22:03:31.108"
"two-step-fixation","72","421363","0.0-61.0-2.3","2661","5593","19","Female","true","true","false","false","""event"",""trial"",""time""
""fullscreenenter"",""5"",""26390""
","
","
","""event"",""trial"",""time""
""fullscreenenter"",""5"",""26390""
","
","","images/earth.jpg","","","","","","","","","","","","","","fixation","","","","","",""
"d3-animate-choice","73","423784","0.0-61.0-0.4","2661","5593","19","Female","true","true","false","false","""event"",""trial"",""time""
""fullscreenenter"",""5"",""26390""
","
","
","""event"",""trial"",""time""
""fullscreenenter"",""5"",""26390""
","
","419.30000000004657","","48","","","3000","1","","","images/earth.jpg","images/tutrocket2","images/tutrocket1","null","images/tutrocket2","","1","practice","null","2","","",""
"d3-animate-choice","74","426027","0.0-61.0-1.4","2661","5593","19","Female","true","true","false","false","""event"",""trial"",""time""
""fullscreenenter"",""5"",""26390""
","
","
","""event"",""trial"",""time""
""fullscreenenter"",""5"",""26390""
","
","240.9000000001397","","49","","","3000","1","","","images/tutyellowplanet.jpg","images/tutalien4","images/tutalien3","images/tutrocket2","images/tutalien3","images/nothing.png","2","practice","true","1","common","0","2022-12-30 22:03:36.775"
"two-step-fixation","75","427029","0.0-61.0-2.4","2661","5593","19","Female","true","true","false","false","""event"",""trial"",""time""
""fullscreenenter"",""5"",""26390""
","
","
","""event"",""trial"",""time""
""fullscreenenter"",""5"",""26390""
","
","","images/earth.jpg","","","","","","","","","","","","","","fixation","","","","","",""
"d3-animate-choice","76","429529","0.0-61.0-0.5","2661","5593","19","Female","true","true","false","false","""event"",""trial"",""time""
""fullscreenenter"",""5"",""26390""
","
","
","""event"",""trial"",""time""
""fullscreenenter"",""5"",""26390""
","
","496.19999999995343","","48","","","3000","1","","","images/earth.jpg","images/tutrocket2","images/tutrocket1","null","images/tutrocket2","","1","practice","null","2","","",""
"d3-animate-choice","77","431934","0.0-61.0-1.5","2661","5593","19","Female","true","true","false","false","""event"",""trial"",""time""
""fullscreenenter"",""5"",""26390""
","
","
","""event"",""trial"",""time""
""fullscreenenter"",""5"",""26390""
","
","399.10000000009313","","48","","","3000","1","","","images/tutyellowplanet.jpg","images/tutalien4","images/tutalien3","images/tutrocket2","images/tutalien4","images/t.png","2","practice","true","2","common","1","2022-12-30 22:03:42.682"
"two-step-fixation","78","432940","0.0-61.0-2.5","2661","5593","19","Female","true","true","false","false","""event"",""trial"",""time""
""fullscreenenter"",""5"",""26390""
","
","
","""event"",""trial"",""time""
""fullscreenenter"",""5"",""26390""
","
","","images/earth.jpg","","","","","","","","","","","","","","fixation","","","","","",""
"d3-animate-choice","79","435209","0.0-61.0-0.6","2661","5593","19","Female","true","true","false","false","""event"",""trial"",""time""
""fullscreenenter"",""5"",""26390""
","
","
","""event"",""trial"",""time""
""fullscreenenter"",""5"",""26390""
","
","264","","48","","","3000","1","","","images/earth.jpg","images/tutrocket2","images/tutrocket1","null","images/tutrocket2","","1","practice","null","2","","",""
"d3-animate-choice","80","437502","0.0-61.0-1.6","2661","5593","19","Female","true","true","false","false","""event"",""trial"",""time""
""fullscreenenter"",""5"",""26390""
","
","
","""event"",""trial"",""time""
""fullscreenenter"",""5"",""26390""
","
","288.5999999998603","","48","","","3000","1","","","images/tutyellowplanet.jpg","images/tutalien4","images/tutalien3","images/tutrocket2","images/tutalien4","images/t.png","2","practice","true","2","common","1","2022-12-30 22:03:48.251"
"two-step-fixation","81","438508","0.0-61.0-2.6","2661","5593","19","Female","true","true","false","false","""event"",""trial"",""time""
""fullscreenenter"",""5"",""26390""
","
","
","""event"",""trial"",""time""
""fullscreenenter"",""5"",""26390""
","
","","images/earth.jpg","","","","","","","","","","","","","","fixation","","","","","",""
"d3-animate-choice","82","440779","0.0-61.0-0.7","2661","5593","19","Female","true","true","false","false","""event"",""trial"",""time""
""fullscreenenter"",""5"",""26390""
","
","
","""event"",""trial"",""time""
""fullscreenenter"",""5"",""26390""
","
","265.69999999995343","","48","","","3000","1","","","images/earth.jpg","images/tutrocket2","images/tutrocket1","null","images/tutrocket2","","1","practice","null","2","","",""
"d3-animate-choice","83","443220","0.0-61.0-1.7","2661","5593","19","Female","true","true","false","false","""event"",""trial"",""time""
""fullscreenenter"",""5"",""26390""
","
","
","""event"",""trial"",""time""
""fullscreenenter"",""5"",""26390""
","
","435.89999999990687","","48","","","3000","1","","","images/tutyellowplanet.jpg","images/tutalien4","images/tutalien3","images/tutrocket2","images/tutalien4","images/t.png","2","practice","true","2","common","1","2022-12-30 22:03:53.968"
"two-step-fixation","84","444225","0.0-61.0-2.7","2661","5593","19","Female","true","true","false","false","""event"",""trial"",""time""
""fullscreenenter"",""5"",""26390""
","
","
","""event"",""trial"",""time""
""fullscreenenter"",""5"",""26390""
","
","","images/earth.jpg","","","","","","","","","","","","","","fixation","","","","","",""
"d3-animate-choice","85","446588","0.0-61.0-0.8","2661","5593","19","Female","true","true","false","false","""event"",""trial"",""time""
""fullscreenenter"",""5"",""26390""
","
","
","""event"",""trial"",""time""
""fullscreenenter"",""5"",""26390""
","
","357.5","","48","","","3000","1","","","images/earth.jpg","images/tutrocket2","images/tutrocket1","null","images/tutrocket2","","1","practice","null","2","","",""
"d3-animate-choice","86","448942","0.0-61.0-1.8","2661","5593","19","Female","true","true","false","false","""event"",""trial"",""time""
""fullscreenenter"",""5"",""26390""
","
","
","""event"",""trial"",""time""
""fullscreenenter"",""5"",""26390""
","
","349.9000000001397","","48","","","3000","1","","","images/tutyellowplanet.jpg","images/tutalien4","images/tutalien3","images/tutrocket2","images/tutalien4","images/nothing.png","2","practice","true","2","common","0","2022-12-30 22:03:59.691"
"two-step-fixation","87","449948","0.0-61.0-2.8","2661","5593","19","Female","true","true","false","false","""event"",""trial"",""time""
""fullscreenenter"",""5"",""26390""
","
","
","""event"",""trial"",""time""
""fullscreenenter"",""5"",""26390""
","
","","images/earth.jpg","","","","","","","","","","","","","","fixation","","","","","",""
"d3-animate-choice","88","452324","0.0-61.0-0.9","2661","5593","19","Female","true","true","false","false","""event"",""trial"",""time""
""fullscreenenter"",""5"",""26390""
","
","
","""event"",""trial"",""time""
""fullscreenenter"",""5"",""26390""
","
","370.39999999990687","","49","","","3000","1","","","images/earth.jpg","images/tutrocket2","images/tutrocket1","null","images/tutrocket1","","1","practice","null","1","","",""
"d3-animate-choice","89","454676","0.0-61.0-1.9","2661","5593","19","Female","true","true","false","false","""event"",""trial"",""time""
""fullscreenenter"",""5"",""26390""
","
","
","""event"",""trial"",""time""
""fullscreenenter"",""5"",""26390""
","
","347.30000000004657","","49","","","3000","1","","","images/tutgreenplanet.jpg","images/tutalien2","images/tutalien1","images/tutrocket1","images/tutalien1","images/nothing.png","2","practice","true","1","common","0","2022-12-30 22:04:05.424"
"two-step-fixation","90","455682","0.0-61.0-2.9","2661","5593","19","Female","true","true","false","false","""event"",""trial"",""time""
""fullscreenenter"",""5"",""26390""
","
","
","""event"",""trial"",""time""
""fullscreenenter"",""5"",""26390""
","
","","images/earth.jpg","","","","","","","","","","","","","","fixation","","","","","",""
"d3-animate-choice","91","457953","0.0-61.0-0.10","2661","5593","19","Female","true","true","false","false","""event"",""trial"",""time""
""fullscreenenter"",""5"",""26390""
","
","
","""event"",""trial"",""time""
""fullscreenenter"",""5"",""26390""
","
","266.4000000001397","","49","","","3000","1","","","images/earth.jpg","images/tutrocket2","images/tutrocket1","null","images/tutrocket1","","1","practice","null","1","","",""
"d3-animate-choice","92","460212","0.0-61.0-1.10","2661","5593","19","Female","true","true","false","false","""event"",""trial"",""time""
""fullscreenenter"",""5"",""26390""
","
","
","""event"",""trial"",""time""
""fullscreenenter"",""5"",""26390""
","
","254.5","","48","","","3000","1","","","images/tutyellowplanet.jpg","images/tutalien4","images/tutalien3","images/tutrocket1","images/tutalien4","images/nothing.png","2","practice","false","2","rare","0","2022-12-30 22:04:10.960"
"two-step-fixation","93","461220","0.0-61.0-2.10","2661","5593","19","Female","true","true","false","false","""event"",""trial"",""time""
""fullscreenenter"",""5"",""26390""
","
","
","""event"",""trial"",""time""
""fullscreenenter"",""5"",""26390""
","
","","images/earth.jpg","","","","","","","","","","","","","","fixation","","","","","",""
"d3-animate-choice","94","463367","0.0-61.0-0.11","2661","5593","19","Female","true","true","false","false","""event"",""trial"",""time""
""fullscreenenter"",""5"",""26390""
","
","
","""event"",""trial"",""time""
""fullscreenenter"",""5"",""26390""
","
","139.70000000018626","","48","","","3000","1","","","images/earth.jpg","images/tutrocket2","images/tutrocket1","null","images/tutrocket2","","1","practice","null","2","","",""
"d3-animate-choice","95","465705","0.0-61.0-1.11","2661","5593","19","Female","true","true","false","false","""event"",""trial"",""time""
""fullscreenenter"",""5"",""26390""
","
","
","""event"",""trial"",""time""
""fullscreenenter"",""5"",""26390""
","
","334.10000000009313","","48","","","3000","1","","","images/tutgreenplanet.jpg","images/tutalien2","images/tutalien1","images/tutrocket2","images/tutalien2","images/nothing.png","2","practice","false","2","rare","0","2022-12-30 22:04:16.454"
"two-step-fixation","96","466711","0.0-61.0-2.11","2661","5593","19","Female","true","true","false","false","""event"",""trial"",""time""
""fullscreenenter"",""5"",""26390""
","
","
","""event"",""trial"",""time""
""fullscreenenter"",""5"",""26390""
","
","","images/earth.jpg","","","","","","","","","","","","","","fixation","","","","","",""
"d3-animate-choice","97","468956","0.0-61.0-0.12","2661","5593","19","Female","true","true","false","false","""event"",""trial"",""time""
""fullscreenenter"",""5"",""26390""
","
","
","""event"",""trial"",""time""
""fullscreenenter"",""5"",""26390""
","
","240.0999999998603","","48","","","3000","1","","","images/earth.jpg","images/tutrocket2","images/tutrocket1","null","images/tutrocket2","","1","practice","null","2","","",""
"d3-animate-choice","98","471200","0.0-61.0-1.12","2661","5593","19","Female","true","true","false","false","""event"",""trial"",""time""
""fullscreenenter"",""5"",""26390""
","
","
","""event"",""trial"",""time""
""fullscreenenter"",""5"",""26390""
","
","238.20000000018626","","49","","","3000","1","","","images/tutyellowplanet.jpg","images/tutalien4","images/tutalien3","images/tutrocket2","images/tutalien3","images/nothing.png","2","practice","true","1","common","0","2022-12-30 22:04:21.948"
"two-step-fixation","99","472204","0.0-61.0-2.12","2661","5593","19","Female","true","true","false","false","""event"",""trial"",""time""
""fullscreenenter"",""5"",""26390""
","
","
","""event"",""trial"",""time""
""fullscreenenter"",""5"",""26390""
","
","","images/earth.jpg","","","","","","","","","","","","","","fixation","","","","","",""
"d3-animate-choice","100","474562","0.0-61.0-0.13","2661","5593","19","Female","true","true","false","false","""event"",""trial"",""time""
""fullscreenenter"",""5"",""26390""
","
","
","""event"",""trial"",""time""
""fullscreenenter"",""5"",""26390""
","
","350.5999999998603","","48","","","3000","1","","","images/earth.jpg","images/tutrocket2","images/tutrocket1","null","images/tutrocket2","","1","practice","null","2","","",""
"d3-animate-choice","101","476991","0.0-61.0-1.13","2661","5593","19","Female","true","true","false","false","""event"",""trial"",""time""
""fullscreenenter"",""5"",""26390""
","
","
","""event"",""trial"",""time""
""fullscreenenter"",""5"",""26390""
","
","421.80000000004657","","48","","","3000","1","","","images/tutyellowplanet.jpg","images/tutalien4","images/tutalien3","images/tutrocket2","images/tutalien4","images/nothing.png","2","practice","true","2","common","0","2022-12-30 22:04:27.739"
"two-step-fixation","102","477997","0.0-61.0-2.13","2661","5593","19","Female","true","true","false","false","""event"",""trial"",""time""
""fullscreenenter"",""5"",""26390""
","
","
","""event"",""trial"",""time""
""fullscreenenter"",""5"",""26390""
","
","","images/earth.jpg","","","","","","","","","","","","","","fixation","","","","","",""
"d3-animate-choice","103","480236","0.0-61.0-0.14","2661","5593","19","Female","true","true","false","false","""event"",""trial"",""time""
""fullscreenenter"",""5"",""26390""
","
","
","""event"",""trial"",""time""
""fullscreenenter"",""5"",""26390""
","
","235.9000000001397","","49","","","3000","1","","","images/earth.jpg","images/tutrocket2","images/tutrocket1","null","images/tutrocket1","","1","practice","null","1","","",""
"d3-animate-choice","104","482618","0.0-61.0-1.14","2661","5593","19","Female","true","true","false","false","""event"",""trial"",""time""
""fullscreenenter"",""5"",""26390""
","
","
","""event"",""trial"",""time""
""fullscreenenter"",""5"",""26390""
","
","377.9000000001397","","48","","","3000","1","","","images/tutgreenplanet.jpg","images/tutalien2","images/tutalien1","images/tutrocket1","images/tutalien2","images/nothing.png","2","practice","true","2","common","0","2022-12-30 22:04:33.367"
"two-step-fixation","105","483623","0.0-61.0-2.14","2661","5593","19","Female","true","true","false","false","""event"",""trial"",""time""
""fullscreenenter"",""5"",""26390""
","
","
","""event"",""trial"",""time""
""fullscreenenter"",""5"",""26390""
","
","","images/earth.jpg","","","","","","","","","","","","","","fixation","","","","","",""
"d3-animate-choice","106","485959","0.0-61.0-0.15","2661","5593","19","Female","true","true","false","false","""event"",""trial"",""time""
""fullscreenenter"",""5"",""26390""
","
","
","""event"",""trial"",""time""
""fullscreenenter"",""5"",""26390""
","
","328.39999999990687","","49","","","3000","1","","","images/earth.jpg","images/tutrocket2","images/tutrocket1","null","images/tutrocket1","","1","practice","null","1","","",""
"d3-animate-choice","107","488258","0.0-61.0-1.15","2661","5593","19","Female","true","true","false","false","""event"",""trial"",""time""
""fullscreenenter"",""5"",""26390""
","
","
","""event"",""trial"",""time""
""fullscreenenter"",""5"",""26390""
","
","294.39999999990687","","49","","","3000","1","","","images/tutyellowplanet.jpg","images/tutalien4","images/tutalien3","images/tutrocket1","images/tutalien3","images/nothing.png","2","practice","false","1","rare","0","2022-12-30 22:04:39.006"
"two-step-fixation","108","489263","0.0-61.0-2.15","2661","5593","19","Female","true","true","false","false","""event"",""trial"",""time""
""fullscreenenter"",""5"",""26390""
","
","
","""event"",""trial"",""time""
""fullscreenenter"",""5"",""26390""
","
","","images/earth.jpg","","","","","","","","","","","","","","fixation","","","","","",""
"d3-animate-choice","109","491599","0.0-61.0-0.16","2661","5593","19","Female","true","true","false","false","""event"",""trial"",""time""
""fullscreenenter"",""5"",""26390""
","
","
","""event"",""trial"",""time""
""fullscreenenter"",""5"",""26390""
","
","329.79999999981374","","48","","","3000","1","","","images/earth.jpg","images/tutrocket2","images/tutrocket1","null","images/tutrocket2","","1","practice","null","2","","",""
"d3-animate-choice","110","493989","0.0-61.0-1.16","2661","5593","19","Female","true","true","false","false","""event"",""trial"",""time""
""fullscreenenter"",""5"",""26390""
","
","
","""event"",""trial"",""time""
""fullscreenenter"",""5"",""26390""
","
","383.70000000018626","","48","","","3000","1","","","images/tutyellowplanet.jpg","images/tutalien4","images/tutalien3","images/tutrocket2","images/tutalien4","images/t.png","2","practice","true","2","common","1","2022-12-30 22:04:44.737"
"two-step-fixation","111","494994","0.0-61.0-2.16","2661","5593","19","Female","true","true","false","false","""event"",""trial"",""time""
""fullscreenenter"",""5"",""26390""
","
","
","""event"",""trial"",""time""
""fullscreenenter"",""5"",""26390""
","
","","images/earth.jpg","","","","","","","","","","","","","","fixation","","","","","",""
"d3-animate-choice","112","497349","0.0-61.0-0.17","2661","5593","19","Female","true","true","false","false","""event"",""trial"",""time""
""fullscreenenter"",""5"",""26390""
","
","
","""event"",""trial"",""time""
""fullscreenenter"",""5"",""26390""
","
","349.60000000009313","","48","","","3000","1","","","images/earth.jpg","images/tutrocket2","images/tutrocket1","null","images/tutrocket2","","1","practice","null","2","","",""
"d3-animate-choice","113","499789","0.0-61.0-1.17","2661","5593","19","Female","true","true","false","false","""event"",""trial"",""time""
""fullscreenenter"",""5"",""26390""
","
","
","""event"",""trial"",""time""
""fullscreenenter"",""5"",""26390""
","
","434","","48","","","3000","1","","","images/tutyellowplanet.jpg","images/tutalien4","images/tutalien3","images/tutrocket2","images/tutalien4","images/nothing.png","2","practice","true","2","common","0","2022-12-30 22:04:50.537"
"two-step-fixation","114","500794","0.0-61.0-2.17","2661","5593","19","Female","true","true","false","false","""event"",""trial"",""time""
""fullscreenenter"",""5"",""26390""
","
","
","""event"",""trial"",""time""
""fullscreenenter"",""5"",""26390""
","
","","images/earth.jpg","","","","","","","","","","","","","","fixation","","","","","",""
"d3-animate-choice","115","503167","0.0-61.0-0.18","2661","5593","19","Female","true","true","false","false","""event"",""trial"",""time""
""fullscreenenter"",""5"",""26390""
","
","
","""event"",""trial"",""time""
""fullscreenenter"",""5"",""26390""
","
","368.80000000004657","","48","","","3000","1","","","images/earth.jpg","images/tutrocket2","images/tutrocket1","null","images/tutrocket2","","1","practice","null","2","","",""
"d3-animate-choice","116","505487","0.0-61.0-1.18","2661","5593","19","Female","true","true","false","false","""event"",""trial"",""time""
""fullscreenenter"",""5"",""26390""
","
","
","""event"",""trial"",""time""
""fullscreenenter"",""5"",""26390""
","
","312.29999999981374","","48","","","3000","1","","","images/tutyellowplanet.jpg","images/tutalien4","images/tutalien3","images/tutrocket2","images/tutalien4","images/t.png","2","practice","true","2","common","1","2022-12-30 22:04:56.235"
"two-step-fixation","117","506493","0.0-61.0-2.18","2661","5593","19","Female","true","true","false","false","""event"",""trial"",""time""
""fullscreenenter"",""5"",""26390""
","
","
","""event"",""trial"",""time""
""fullscreenenter"",""5"",""26390""
","
","","images/earth.jpg","","","","","","","","","","","","","","fixation","","","","","",""
"d3-animate-choice","118","508879","0.0-61.0-0.19","2661","5593","19","Female","true","true","false","false","""event"",""trial"",""time""
""fullscreenenter"",""5"",""26390""
","
","
","""event"",""trial"",""time""
""fullscreenenter"",""5"",""26390""
","
","379.70000000018626","","48","","","3000","1","","","images/earth.jpg","images/tutrocket2","images/tutrocket1","null","images/tutrocket2","","1","practice","null","2","","",""
"d3-animate-choice","119","511378","0.0-61.0-1.19","2661","5593","19","Female","true","true","false","false","""event"",""trial"",""time""
""fullscreenenter"",""5"",""26390""
","
","
","""event"",""trial"",""time""
""fullscreenenter"",""5"",""26390""
","
","492.69999999995343","","48","","","3000","1","","","images/tutgreenplanet.jpg","images/tutalien2","images/tutalien1","images/tutrocket2","images/tutalien2","images/t.png","2","practice","false","2","rare","1","2022-12-30 22:05:02.126"
"two-step-fixation","120","512383","0.0-61.0-2.19","2661","5593","19","Female","true","true","false","false","""event"",""trial"",""time""
""fullscreenenter"",""5"",""26390""
","
","
","""event"",""trial"",""time""
""fullscreenenter"",""5"",""26390""
","
","","images/earth.jpg","","","","","","","","","","","","","","fixation","","","","","",""
"d3-instructions","121","519618","0.0-62.0","2661","5593","19","Female","true","true","false","false","""event"",""trial"",""time""
""fullscreenenter"",""5"",""26390""
","
","
","""event"",""trial"",""time""
""fullscreenenter"",""5"",""26390""
","
","","","","","","","","","","","","","","","","","","","","","",""
"audio-keyboard-response","122","525022","0.0-63.0","2661","5593","19","Female","true","true","false","false","""event"",""trial"",""time""
""fullscreenenter"",""5"",""26390""
","
","
","""event"",""trial"",""time""
""fullscreenenter"",""5"",""26390""
","
","5403","audio/instructions/treasure_feedback.wav","32","","","","","","","","","","","","","","","","","","",""
"d3-instructions","123","544430","0.0-64.0","2661","5593","19","Female","true","true","false","false","""event"",""trial"",""time""
""fullscreenenter"",""5"",""26390""
","
","
","""event"",""trial"",""time""
""fullscreenenter"",""5"",""26390""
","
","","","","","","","","","","","","","","","","","","","","","",""
"d3-instructions","124","558977","0.0-65.0","2661","5593","19","Female","true","true","false","false","""event"",""trial"",""time""
""fullscreenenter"",""5"",""26390""
","
","
","""event"",""trial"",""time""
""fullscreenenter"",""5"",""26390""
","
","","","","","","","","","","","","","","","","","","","","","",""
"d3-instructions","125","583795","0.0-66.0","2661","5593","19","Female","true","true","false","false","""event"",""trial"",""time""
""fullscreenenter"",""5"",""26390""
","
","
","""event"",""trial"",""time""
""fullscreenenter"",""5"",""26390""
","
","","","","","","","","","","","","","","","","","","","","","",""
"d3-instructions","126","600232","0.0-67.0","2661","5593","19","Female","true","true","false","false","""event"",""trial"",""time""
""fullscreenenter"",""5"",""26390""
","
","
","""event"",""trial"",""time""
""fullscreenenter"",""5"",""26390""
","
","","","","","","","","","","","","","","","","","","","","","",""
"d3-instructions","127","609216","0.0-68.0","2661","5593","19","Female","true","true","false","false","""event"",""trial"",""time""
""fullscreenenter"",""5"",""26390""
","
","
","""event"",""trial"",""time""
""fullscreenenter"",""5"",""26390""
","
","","","","","","","","","","","","","","","","","","","","","",""
"instructions-quiz","128","614175","0.0-69.0","2661","5593","19","Female","true","true","false","false","""event"",""trial"",""time""
""fullscreenenter"",""5"",""26390""
","
","
","""event"",""trial"",""time""
""fullscreenenter"",""5"",""26390""
","
","4957","audio/quiz/Q1_Prompt.wav","","1","","","","","","","","","","","","","","","","","",""
"audio-keyboard-response","129","623344","0.0-70.0","2661","5593","19","Female","true","true","false","false","""event"",""trial"",""time""
""fullscreenenter"",""5"",""26390""
","
","
","""event"",""trial"",""time""
""fullscreenenter"",""5"",""26390""
","
","null","audio/quiz/Q1_Correct.wav","null","","","","","","","","","","","","","","","","","","",""
"instructions-quiz","130","632295","0.0-71.0","2661","5593","19","Female","true","true","false","false","""event"",""trial"",""time""
""fullscreenenter"",""5"",""26390""
","
","
","""event"",""trial"",""time""
""fullscreenenter"",""5"",""26390""
","
","8949.399999999907","audio/quiz/Q2_Prompt.wav","","0","","","","","","","","","","","","","","","","","",""
"audio-keyboard-response","131","645163","0.0-72.0","2661","5593","19","Female","true","true","false","false","""event"",""trial"",""time""
""fullscreenenter"",""5"",""26390""
","
","
","""event"",""trial"",""time""
""fullscreenenter"",""5"",""26390""
","
","null","audio/quiz/Q2_Correct.wav","null","","","","","","","","","","","","","","","","","","",""
"instructions-quiz","132","649508","0.0-73.0","2661","5593","19","Female","true","true","false","false","""event"",""trial"",""time""
""fullscreenenter"",""5"",""26390""
","
","
","""event"",""trial"",""time""
""fullscreenenter"",""5"",""26390""
","
","4344.600000000093","audio/quiz/Q3_Prompt.wav","","1","","","","","","","","","","","","","","","","","",""
"audio-keyboard-response","133","655310","0.0-74.0","2661","5593","19","Female","true","true","false","false","""event"",""trial"",""time""
""fullscreenenter"",""5"",""26390""
","
","
","""event"",""trial"",""time""
""fullscreenenter"",""5"",""26390""
","
","null","audio/quiz/Q3_Correct.wav","null","","","","","","","","","","","","","","","","","","",""
"d3-instructions","134","669187","0.0-75.0","2661","5593","19","Female","true","true","false","false","""event"",""trial"",""time""
""fullscreenenter"",""5"",""26390""
","
","
","""event"",""trial"",""time""
""fullscreenenter"",""5"",""26390""
","
","","","","","","","","","","","","","","","","","","","","","",""
"d3-animate-choice","135","671952","0.0-76.0-0.0","2661","5593","19","Female","true","true","false","false","""event"",""trial"",""time""
""fullscreenenter"",""5"",""26390""
","
","
","""event"",""trial"",""time""
""fullscreenenter"",""5"",""26390""
","
","762.5","","49","","","3000","1","","","images/earth.jpg","images/rocket2","images/rocket1","null","images/rocket1","","1","real","null","1","","",""
"d3-animate-choice","136","675504","0.0-76.0-1.0","2661","5593","19","Female","true","true","false","false","""event"",""trial"",""time""
""fullscreenenter"",""5"",""26390""
","
","
","""event"",""trial"",""time""
""fullscreenenter"",""5"",""26390""
","
","1549.8000000000466","","49","","","3000","1","","","images/redplanet1.jpg","images/alien2","images/alien1","images/rocket1","images/alien1","images/nothing.png","2","real","true","1","common","0","2022-12-30 22:07:46.252"
"two-step-fixation","137","676507","0.0-76.0-2.0","2661","5593","19","Female","true","true","false","false","""event"",""trial"",""time""
""fullscreenenter"",""5"",""26390""
","
","
","""event"",""trial"",""time""
""fullscreenenter"",""5"",""26390""
","
","","images/earth.jpg","","","","","","","","","","","","","","fixation","","","","","",""
"d3-animate-choice","138","678766","0.0-76.0-0.1","2661","5593","19","Female","true","true","false","false","""event"",""trial"",""time""
""fullscreenenter"",""5"",""26390""
","
","
","""event"",""trial"",""time""
""fullscreenenter"",""5"",""26390""
","
","255.30000000004657","","49","","","3000","1","","","images/earth.jpg","images/rocket2","images/rocket1","null","images/rocket1","","1","real","null","1","","",""
"d3-animate-choice","139","681246","0.0-76.0-1.1","2661","5593","19","Female","true","true","false","false","""event"",""trial"",""time""
""fullscreenenter"",""5"",""26390""
","
","
","""event"",""trial"",""time""
""fullscreenenter"",""5"",""26390""
","
","474","","48","","","3000","1","","","images/purpleplanet.jpg","images/alien4","images/alien3","images/rocket1","images/alien4","images/t.png","2","real","false","2","rare","1","2022-12-30 22:07:51.994"
"two-step-fixation","140","682253","0.0-76.0-2.1","2661","5593","19","Female","true","true","false","false","""event"",""trial"",""time""
""fullscreenenter"",""5"",""26390""
","
","
","""event"",""trial"",""time""
""fullscreenenter"",""5"",""26390""
","
","","images/earth.jpg","","","","","","","","","","","","","","fixation","","","","","",""
"d3-animate-choice","141","684641","0.0-76.0-0.2","2661","5593","19","Female","true","true","false","false","""event"",""trial"",""time""
""fullscreenenter"",""5"",""26390""
","
","
","""event"",""trial"",""time""
""fullscreenenter"",""5"",""26390""
","
","383","","49","","","3000","1","","","images/earth.jpg","images/rocket2","images/rocket1","null","images/rocket1","","1","real","null","1","","",""
"d3-animate-choice","142","687054","0.0-76.0-1.2","2661","5593","19","Female","true","true","false","false","""event"",""trial"",""time""
""fullscreenenter"",""5"",""26390""
","
","
","""event"",""trial"",""time""
""fullscreenenter"",""5"",""26390""
","
","407.60000000009313","","48","","","3000","1","","","images/purpleplanet.jpg","images/alien4","images/alien3","images/rocket1","images/alien4","images/t.png","2","real","false","2","rare","1","2022-12-30 22:07:57.802"
"two-step-fixation","143","688061","0.0-76.0-2.2","2661","5593","19","Female","true","true","false","false","""event"",""trial"",""time""
""fullscreenenter"",""5"",""26390""
","
","
","""event"",""trial"",""time""
""fullscreenenter"",""5"",""26390""
","
","","images/earth.jpg","","","","","","","","","","","","","","fixation","","","","","",""
"d3-animate-choice","144","690416","0.0-76.0-0.3","2661","5593","19","Female","true","true","false","false","""event"",""trial"",""time""
""fullscreenenter"",""5"",""26390""
","
","
","""event"",""trial"",""time""
""fullscreenenter"",""5"",""26390""
","
","353","","49","","","3000","1","","","images/earth.jpg","images/rocket2","images/rocket1","null","images/rocket1","","1","real","null","1","","",""
"d3-animate-choice","145","693110","0.0-76.0-1.3","2661","5593","19","Female","true","true","false","false","""event"",""trial"",""time""
""fullscreenenter"",""5"",""26390""
","
","
","""event"",""trial"",""time""
""fullscreenenter"",""5"",""26390""
","
","689.6999999999534","","49","","","3000","1","","","images/redplanet1.jpg","images/alien2","images/alien1","images/rocket1","images/alien1","images/nothing.png","2","real","true","1","common","0","2022-12-30 22:08:03.858"
"two-step-fixation","146","694115","0.0-76.0-2.3","2661","5593","19","Female","true","true","false","false","""event"",""trial"",""time""
""fullscreenenter"",""5"",""26390""
","
","
","""event"",""trial"",""time""
""fullscreenenter"",""5"",""26390""
","
","","images/earth.jpg","","","","","","","","","","","","","","fixation","","","","","",""
"d3-animate-choice","147","696395","0.0-76.0-0.4","2661","5593","19","Female","true","true","false","false","""event"",""trial"",""time""
""fullscreenenter"",""5"",""26390""
","
","
","""event"",""trial"",""time""
""fullscreenenter"",""5"",""26390""
","
","276.9000000001397","","49","","","3000","1","","","images/earth.jpg","images/rocket2","images/rocket1","null","images/rocket1","","1","real","null","1","","",""
"d3-animate-choice","148","698753","0.0-76.0-1.4","2661","5593","19","Female","true","true","false","false","""event"",""trial"",""time""
""fullscreenenter"",""5"",""26390""
","
","
","""event"",""trial"",""time""
""fullscreenenter"",""5"",""26390""
","
","353.80000000004657","","48","","","3000","1","","","images/redplanet1.jpg","images/alien2","images/alien1","images/rocket1","images/alien2","images/t.png","2","real","true","2","common","1","2022-12-30 22:08:09.501"
"two-step-fixation","149","699759","0.0-76.0-2.4","2661","5593","19","Female","true","true","false","false","""event"",""trial"",""time""
""fullscreenenter"",""5"",""26390""
","
","
","""event"",""trial"",""time""
""fullscreenenter"",""5"",""26390""
","
","","images/earth.jpg","","","","","","","","","","","","","","fixation","","","","","",""
"d3-animate-choice","150","702029","0.0-76.0-0.5","2661","5593","19","Female","true","true","false","false","""event"",""trial"",""time""
""fullscreenenter"",""5"",""26390""
","
","
","""event"",""trial"",""time""
""fullscreenenter"",""5"",""26390""
","
","265.29999999981374","","48","","","3000","1","","","images/earth.jpg","images/rocket2","images/rocket1","null","images/rocket2","","1","real","null","2","","",""
"d3-animate-choice","151","704425","0.0-76.0-1.5","2661","5593","19","Female","true","true","false","false","""event"",""trial"",""time""
""fullscreenenter"",""5"",""26390""
","
","
","""event"",""trial"",""time""
""fullscreenenter"",""5"",""26390""
","
","391.5","","49","","","3000","1","","","images/purpleplanet.jpg","images/alien4","images/alien3","images/rocket2","images/alien3","images/t.png","2","real","true","1","common","1","2022-12-30 22:08:15.173"
"two-step-fixation","152","705431","0.0-76.0-2.5","2661","5593","19","Female","true","true","false","false","""event"",""trial"",""time""
""fullscreenenter"",""5"",""26390""
","
","
","""event"",""trial"",""time""
""fullscreenenter"",""5"",""26390""
","
","","images/earth.jpg","","","","","","","","","","","","","","fixation","","","","","",""
"d3-animate-choice","153","707825","0.0-76.0-0.6","2661","5593","19","Female","true","true","false","false","""event"",""trial"",""time""
""fullscreenenter"",""5"",""26390""
","
","
","""event"",""trial"",""time""
""fullscreenenter"",""5"",""26390""
","
","389.19999999995343","","49","","","3000","1","","","images/earth.jpg","images/rocket2","images/rocket1","null","images/rocket1","","1","real","null","1","","",""
"d3-animate-choice","154","710191","0.0-76.0-1.6","2661","5593","19","Female","true","true","false","false","""event"",""trial"",""time""
""fullscreenenter"",""5"",""26390""
","
","
","""event"",""trial"",""time""
""fullscreenenter"",""5"",""26390""
","
","359.89999999990687","","48","","","3000","1","","","images/redplanet1.jpg","images/alien2","images/alien1","images/rocket1","images/alien2","images/t.png","2","real","true","2","common","1","2022-12-30 22:08:20.939"
"two-step-fixation","155","711196","0.0-76.0-2.6","2661","5593","19","Female","true","true","false","false","""event"",""trial"",""time""
""fullscreenenter"",""5"",""26390""
","
","
","""event"",""trial"",""time""
""fullscreenenter"",""5"",""26390""
","
","","images/earth.jpg","","","","","","","","","","","","","","fixation","","","","","",""
"d3-animate-choice","156","713516","0.0-76.0-0.7","2661","5593","19","Female","true","true","false","false","""event"",""trial"",""time""
""fullscreenenter"",""5"",""26390""
","
","
","""event"",""trial"",""time""
""fullscreenenter"",""5"",""26390""
","
","314.30000000004657","","49","","","3000","1","","","images/earth.jpg","images/rocket2","images/rocket1","null","images/rocket1","","1","real","null","1","","",""
"d3-animate-choice","157","715788","0.0-76.0-1.7","2661","5593","19","Female","true","true","false","false","""event"",""trial"",""time""
""fullscreenenter"",""5"",""26390""
","
","
","""event"",""trial"",""time""
""fullscreenenter"",""5"",""26390""
","
","267","","48","","","3000","1","","","images/redplanet1.jpg","images/alien2","images/alien1","images/rocket1","images/alien2","images/t.png","2","real","true","2","common","1","2022-12-30 22:08:26.536"
"two-step-fixation","158","716794","0.0-76.0-2.7","2661","5593","19","Female","true","true","false","false","""event"",""trial"",""time""
""fullscreenenter"",""5"",""26390""
","
","
","""event"",""trial"",""time""
""fullscreenenter"",""5"",""26390""
","
","","images/earth.jpg","","","","","","","","","","","","","","fixation","","","","","",""
"d3-animate-choice","159","719062","0.0-76.0-0.8","2661","5593","19","Female","true","true","false","false","""event"",""trial"",""time""
""fullscreenenter"",""5"",""26390""
","
","
","""event"",""trial"",""time""
""fullscreenenter"",""5"",""26390""
","
","263.19999999995343","","49","","","3000","1","","","images/earth.jpg","images/rocket2","images/rocket1","null","images/rocket1","","1","real","null","1","","",""
"d3-animate-choice","160","721560","0.0-76.0-1.8","2661","5593","19","Female","true","true","false","false","""event"",""trial"",""time""
""fullscreenenter"",""5"",""26390""
","
","
","""event"",""trial"",""time""
""fullscreenenter"",""5"",""26390""
","
","492.79999999981374","","48","","","3000","1","","","images/purpleplanet.jpg","images/alien4","images/alien3","images/rocket1","images/alien4","images/t.png","2","real","false","2","rare","1","2022-12-30 22:08:32.308"
"two-step-fixation","161","722567","0.0-76.0-2.8","2661","5593","19","Female","true","true","false","false","""event"",""trial"",""time""
""fullscreenenter"",""5"",""26390""
","
","
","""event"",""trial"",""time""
""fullscreenenter"",""5"",""26390""
","
","","images/earth.jpg","","","","","","","","","","","","","","fixation","","","","","",""
"d3-animate-choice","162","724972","0.0-76.0-0.9","2661","5593","19","Female","true","true","false","false","""event"",""trial"",""time""
""fullscreenenter"",""5"",""26390""
","
","
","""event"",""trial"",""time""
""fullscreenenter"",""5"",""26390""
","
","398.30000000004657","","49","","","3000","1","","","images/earth.jpg","images/rocket2","images/rocket1","null","images/rocket1","","1","real","null","1","","",""
"d3-animate-choice","163","727231","0.0-76.0-1.9","2661","5593","19","Female","true","true","false","false","""event"",""trial"",""time""
""fullscreenenter"",""5"",""26390""
","
","
","""event"",""trial"",""time""
""fullscreenenter"",""5"",""26390""
","
","253.69999999995343","","48","","","3000","1","","","images/purpleplanet.jpg","images/alien4","images/alien3","images/rocket1","images/alien4","images/t.png","2","real","false","2","rare","1","2022-12-30 22:08:37.979"
"two-step-fixation","164","728236","0.0-76.0-2.9","2661","5593","19","Female","true","true","false","false","""event"",""trial"",""time""
""fullscreenenter"",""5"",""26390""
","
","
","""event"",""trial"",""time""
""fullscreenenter"",""5"",""26390""
","
","","images/earth.jpg","","","","","","","","","","","","","","fixation","","","","","",""
"d3-animate-choice","165","730551","0.0-76.0-0.10","2661","5593","19","Female","true","true","false","false","""event"",""trial"",""time""
""fullscreenenter"",""5"",""26390""
","
","
","""event"",""trial"",""time""
""fullscreenenter"",""5"",""26390""
","
","307","","49","","","3000","1","","","images/earth.jpg","images/rocket2","images/rocket1","null","images/rocket1","","1","real","null","1","","",""
"d3-animate-choice","166","732805","0.0-76.0-1.10","2661","5593","19","Female","true","true","false","false","""event"",""trial"",""time""
""fullscreenenter"",""5"",""26390""
","
","
","""event"",""trial"",""time""
""fullscreenenter"",""5"",""26390""
","
","246.89999999990687","","48","","","3000","1","","","images/purpleplanet.jpg","images/alien4","images/alien3","images/rocket1","images/alien4","images/t.png","2","real","false","2","rare","1","2022-12-30 22:08:43.553"
"two-step-fixation","167","733810","0.0-76.0-2.10","2661","5593","19","Female","true","true","false","false","""event"",""trial"",""time""
""fullscreenenter"",""5"",""26390""
","
","
","""event"",""trial"",""time""
""fullscreenenter"",""5"",""26390""
","
","","images/earth.jpg","","","","","","","","","","","","","","fixation","","","","","",""
"d3-animate-choice","168","736148","0.0-76.0-0.11","2661","5593","19","Female","true","true","false","false","""event"",""trial"",""time""
""fullscreenenter"",""5"",""26390""
","
","
","""event"",""trial"",""time""
""fullscreenenter"",""5"",""26390""
","
","331.39999999990687","","49","","","3000","1","","","images/earth.jpg","images/rocket2","images/rocket1","null","images/rocket1","","1","real","null","1","","",""
"d3-animate-choice","169","738474","0.0-76.0-1.11","2661","5593","19","Female","true","true","false","false","""event"",""trial"",""time""
""fullscreenenter"",""5"",""26390""
","
","
","""event"",""trial"",""time""
""fullscreenenter"",""5"",""26390""
","
","320.60000000009313","","48","","","3000","1","","","images/purpleplanet.jpg","images/alien4","images/alien3","images/rocket1","images/alien4","images/nothing.png","2","real","false","2","rare","0","2022-12-30 22:08:49.222"
"two-step-fixation","170","739484","0.0-76.0-2.11","2661","5593","19","Female","true","true","false","false","""event"",""trial"",""time""
""fullscreenenter"",""5"",""26390""
","
","
","""event"",""trial"",""time""
""fullscreenenter"",""5"",""26390""
","
","","images/earth.jpg","","","","","","","","","","","","","","fixation","","","","","",""
"d3-animate-choice","171","741810","0.0-76.0-0.12","2661","5593","19","Female","true","true","false","false","""event"",""trial"",""time""
""fullscreenenter"",""5"",""26390""
","
","
","""event"",""trial"",""time""
""fullscreenenter"",""5"",""26390""
","
","317.5","","48","","","3000","1","","","images/earth.jpg","images/rocket2","images/rocket1","null","images/rocket2","","1","real","null","2","","",""
"d3-animate-choice","172","744085","0.0-76.0-1.12","2661","5593","19","Female","true","true","false","false","""event"",""trial"",""time""
""fullscreenenter"",""5"",""26390""
","
","
","""event"",""trial"",""time""
""fullscreenenter"",""5"",""26390""
","
","270.19999999995343","","49","","","3000","1","","","images/redplanet1.jpg","images/alien2","images/alien1","images/rocket2","images/alien1","images/nothing.png","2","real","false","1","rare","0","2022-12-30 22:08:54.833"
"two-step-fixation","173","745090","0.0-76.0-2.12","2661","5593","19","Female","true","true","false","false","""event"",""trial"",""time""
""fullscreenenter"",""5"",""26390""
","
","
","""event"",""trial"",""time""
""fullscreenenter"",""5"",""26390""
","
","","images/earth.jpg","","","","","","","","","","","","","","fixation","","","","","",""
"d3-animate-choice","174","747370","0.0-76.0-0.13","2661","5593","19","Female","true","true","false","false","""event"",""trial"",""time""
""fullscreenenter"",""5"",""26390""
","
","
","""event"",""trial"",""time""
""fullscreenenter"",""5"",""26390""
","
","273.20000000018626","","48","","","3000","1","","","images/earth.jpg","images/rocket2","images/rocket1","null","images/rocket2","","1","real","null","2","","",""
"d3-animate-choice","175","750141","0.0-76.0-1.13","2661","5593","19","Female","true","true","false","false","""event"",""trial"",""time""
""fullscreenenter"",""5"",""26390""
","
","
","""event"",""trial"",""time""
""fullscreenenter"",""5"",""26390""
","
","763.8000000000466","","48","","","3000","1","","","images/purpleplanet.jpg","images/alien4","images/alien3","images/rocket2","images/alien4","images/t.png","2","real","true","2","common","1","2022-12-30 22:09:00.889"
"two-step-fixation","176","751146","0.0-76.0-2.13","2661","5593","19","Female","true","true","false","false","""event"",""trial"",""time""
""fullscreenenter"",""5"",""26390""
","
","
","""event"",""trial"",""time""
""fullscreenenter"",""5"",""26390""
","
","","images/earth.jpg","","","","","","","","","","","","","","fixation","","","","","",""
"d3-animate-choice","177","753688","0.0-76.0-0.14","2661","5593","19","Female","true","true","false","false","""event"",""trial"",""time""
""fullscreenenter"",""5"",""26390""
","
","
","""event"",""trial"",""time""
""fullscreenenter"",""5"",""26390""
","
","536.6999999999534","","48","","","3000","1","","","images/earth.jpg","images/rocket2","images/rocket1","null","images/rocket2","","1","real","null","2","","",""
"d3-animate-choice","178","756527","0.0-76.0-1.14","2661","5593","19","Female","true","true","false","false","""event"",""trial"",""time""
""fullscreenenter"",""5"",""26390""
","
","
","""event"",""trial"",""time""
""fullscreenenter"",""5"",""26390""
","
","834.4000000001397","","49","","","3000","1","","","images/redplanet1.jpg","images/alien2","images/alien1","images/rocket2","images/alien1","images/nothing.png","2","real","false","1","rare","0","2022-12-30 22:09:07.276"
"two-step-fixation","179","757533","0.0-76.0-2.14","2661","5593","19","Female","true","true","false","false","""event"",""trial"",""time""
""fullscreenenter"",""5"",""26390""
","
","
","""event"",""trial"",""time""
""fullscreenenter"",""5"",""26390""
","
","","images/earth.jpg","","","","","","","","","","","","","","fixation","","","","","",""
"d3-animate-choice","180","760066","0.0-76.0-0.15","2661","5593","19","Female","true","true","false","false","""event"",""trial"",""time""
""fullscreenenter"",""5"",""26390""
","
","
","""event"",""trial"",""time""
""fullscreenenter"",""5"",""26390""
","
","527.8999999999069","","48","","","3000","1","","","images/earth.jpg","images/rocket2","images/rocket1","null","images/rocket2","","1","real","null","2","","",""
"d3-animate-choice","181","762404","0.0-76.0-1.15","2661","5593","19","Female","true","true","false","false","""event"",""trial"",""time""
""fullscreenenter"",""5"",""26390""
","
","
","""event"",""trial"",""time""
""fullscreenenter"",""5"",""26390""
","
","329.39999999990687","","48","","","3000","1","","","images/purpleplanet.jpg","images/alien4","images/alien3","images/rocket2","images/alien4","images/nothing.png","2","real","true","2","common","0","2022-12-30 22:09:13.152"
"two-step-fixation","182","763413","0.0-76.0-2.15","2661","5593","19","Female","true","true","false","false","""event"",""trial"",""time""
""fullscreenenter"",""5"",""26390""
","
","
","""event"",""trial"",""time""
""fullscreenenter"",""5"",""26390""
","
","","images/earth.jpg","","","","","","","","","","","","","","fixation","","","","","",""
"d3-animate-choice","183","765690","0.0-76.0-0.16","2661","5593","19","Female","true","true","false","false","""event"",""trial"",""time""
""fullscreenenter"",""5"",""26390""
","
","
","""event"",""trial"",""time""
""fullscreenenter"",""5"",""26390""
","
","270.69999999995343","","49","","","3000","1","","","images/earth.jpg","images/rocket2","images/rocket1","null","images/rocket1","","1","real","null","1","","",""
"d3-animate-choice","184","768290","0.0-76.0-1.16","2661","5593","19","Female","true","true","false","false","""event"",""trial"",""time""
""fullscreenenter"",""5"",""26390""
","
","
","""event"",""trial"",""time""
""fullscreenenter"",""5"",""26390""
","
","594.6999999999534","","48","","","3000","1","","","images/redplanet1.jpg","images/alien2","images/alien1","images/rocket1","images/alien2","images/t.png","2","real","true","2","common","1","2022-12-30 22:09:19.039"
"two-step-fixation","185","769296","0.0-76.0-2.16","2661","5593","19","Female","true","true","false","false","""event"",""trial"",""time""
""fullscreenenter"",""5"",""26390""
","
","
","""event"",""trial"",""time""
""fullscreenenter"",""5"",""26390""
","
","","images/earth.jpg","","","","","","","","","","","","","","fixation","","","","","",""
"d3-animate-choice","186","771592","0.0-76.0-0.17","2661","5593","19","Female","true","true","false","false","""event"",""trial"",""time""
""fullscreenenter"",""5"",""26390""
","
","
","""event"",""trial"",""time""
""fullscreenenter"",""5"",""26390""
","
","289","","49","","","3000","1","","","images/earth.jpg","images/rocket2","images/rocket1","null","images/rocket1","","1","real","null","1","","",""
"d3-animate-choice","187","773848","0.0-76.0-1.17","2661","5593","19","Female","true","true","false","false","""event"",""trial"",""time""
""fullscreenenter"",""5"",""26390""
","
","
","""event"",""trial"",""time""
""fullscreenenter"",""5"",""26390""
","
","250.80000000004657","","48","","","3000","1","","","images/redplanet1.jpg","images/alien2","images/alien1","images/rocket1","images/alien2","images/nothing.png","2","real","true","2","common","0","2022-12-30 22:09:24.596"
"two-step-fixation","188","774853","0.0-76.0-2.17","2661","5593","19","Female","true","true","false","false","""event"",""trial"",""time""
""fullscreenenter"",""5"",""26390""
","
","
","""event"",""trial"",""time""
""fullscreenenter"",""5"",""26390""
","
","","images/earth.jpg","","","","","","","","","","","","","","fixation","","","","","",""
"d3-animate-choice","189","777157","0.0-76.0-0.18","2661","5593","19","Female","true","true","false","false","""event"",""trial"",""time""
""fullscreenenter"",""5"",""26390""
","
","
","""event"",""trial"",""time""
""fullscreenenter"",""5"",""26390""
","
","297.39999999990687","","49","","","3000","1","","","images/earth.jpg","images/rocket2","images/rocket1","null","images/rocket1","","1","real","null","1","","",""
"d3-animate-choice","190","779598","0.0-76.0-1.18","2661","5593","19","Female","true","true","false","false","""event"",""trial"",""time""
""fullscreenenter"",""5"",""26390""
","
","
","""event"",""trial"",""time""
""fullscreenenter"",""5"",""26390""
","
","435.89999999990687","","49","","","3000","1","","","images/redplanet1.jpg","images/alien2","images/alien1","images/rocket1","images/alien1","images/t.png","2","real","true","1","common","1","2022-12-30 22:09:30.346"
"two-step-fixation","191","780603","0.0-76.0-2.18","2661","5593","19","Female","true","true","false","false","""event"",""trial"",""time""
""fullscreenenter"",""5"",""26390""
","
","
","""event"",""trial"",""time""
""fullscreenenter"",""5"",""26390""
","
","","images/earth.jpg","","","","","","","","","","","","","","fixation","","","","","",""
"d3-animate-choice","192","782904","0.0-76.0-0.19","2661","5593","19","Female","true","true","false","false","""event"",""trial"",""time""
""fullscreenenter"",""5"",""26390""
","
","
","""event"",""trial"",""time""
""fullscreenenter"",""5"",""26390""
","
","295.19999999995343","","49","","","3000","1","","","images/earth.jpg","images/rocket2","images/rocket1","null","images/rocket1","","1","real","null","1","","",""
"d3-animate-choice","193","785408","0.0-76.0-1.19","2661","5593","19","Female","true","true","false","false","""event"",""trial"",""time""
""fullscreenenter"",""5"",""26390""
","
","
","""event"",""trial"",""time""
""fullscreenenter"",""5"",""26390""
","
","498.79999999981374","","49","","","3000","1","","","images/redplanet1.jpg","images/alien2","images/alien1","images/rocket1","images/alien1","images/t.png","2","real","true","1","common","1","2022-12-30 22:09:36.156"
"two-step-fixation","194","786413","0.0-76.0-2.19","2661","5593","19","Female","true","true","false","false","""event"",""trial"",""time""
""fullscreenenter"",""5"",""26390""
","
","
","""event"",""trial"",""time""
""fullscreenenter"",""5"",""26390""
","
","","images/earth.jpg","","","","","","","","","","","","","","fixation","","","","","",""
"d3-animate-choice","195","788689","0.0-76.0-0.20","2661","5593","19","Female","true","true","false","false","""event"",""trial"",""time""
""fullscreenenter"",""5"",""26390""
","
","
","""event"",""trial"",""time""
""fullscreenenter"",""5"",""26390""
","
","266","","49","","","3000","1","","","images/earth.jpg","images/rocket2","images/rocket1","null","images/rocket1","","1","real","null","1","","",""
"d3-animate-choice","196","791187","0.0-76.0-1.20","2661","5593","19","Female","true","true","false","false","""event"",""trial"",""time""
""fullscreenenter"",""5"",""26390""
","
","
","""event"",""trial"",""time""
""fullscreenenter"",""5"",""26390""
","
","493.0999999998603","","49","","","3000","1","","","images/redplanet1.jpg","images/alien2","images/alien1","images/rocket1","images/alien1","images/t.png","2","real","true","1","common","1","2022-12-30 22:09:41.935"
"two-step-fixation","197","792192","0.0-76.0-2.20","2661","5593","19","Female","true","true","false","false","""event"",""trial"",""time""
""fullscreenenter"",""5"",""26390""
","
","
","""event"",""trial"",""time""
""fullscreenenter"",""5"",""26390""
","
","","images/earth.jpg","","","","","","","","","","","","","","fixation","","","","","",""
"d3-animate-choice","198","794587","0.0-76.0-0.21","2661","5593","19","Female","true","true","false","false","""event"",""trial"",""time""
""fullscreenenter"",""5"",""26390""
","
","
","""event"",""trial"",""time""
""fullscreenenter"",""5"",""26390""
","
","389.60000000009313","","49","","","3000","1","","","images/earth.jpg","images/rocket2","images/rocket1","null","images/rocket1","","1","real","null","1","","",""
"d3-animate-choice","199","797019","0.0-76.0-1.21","2661","5593","19","Female","true","true","false","false","""event"",""trial"",""time""
""fullscreenenter"",""5"",""26390""
","
","
","""event"",""trial"",""time""
""fullscreenenter"",""5"",""26390""
","
","425.10000000009313","","48","","","3000","1","","","images/purpleplanet.jpg","images/alien4","images/alien3","images/rocket1","images/alien4","images/t.png","2","real","false","2","rare","1","2022-12-30 22:09:47.767"
"two-step-fixation","200","798024","0.0-76.0-2.21","2661","5593","19","Female","true","true","false","false","""event"",""trial"",""time""
""fullscreenenter"",""5"",""26390""
","
","
","""event"",""trial"",""time""
""fullscreenenter"",""5"",""26390""
","
","","images/earth.jpg","","","","","","","","","","","","","","fixation","","","","","",""
"d3-animate-choice","201","800384","0.0-76.0-0.22","2661","5593","19","Female","true","true","false","false","""event"",""trial"",""time""
""fullscreenenter"",""5"",""26390""
","
","
","""event"",""trial"",""time""
""fullscreenenter"",""5"",""26390""
","
","353.10000000009313","","49","","","3000","1","","","images/earth.jpg","images/rocket2","images/rocket1","null","images/rocket1","","1","real","null","1","","",""
"d3-animate-choice","202","803134","0.0-76.0-1.22","2661","5593","19","Female","true","true","false","false","""event"",""trial"",""time""
""fullscreenenter"",""5"",""26390""
","
","
","""event"",""trial"",""time""
""fullscreenenter"",""5"",""26390""
","
","743.3999999999069","","49","","","3000","1","","","images/redplanet1.jpg","images/alien2","images/alien1","images/rocket1","images/alien1","images/t.png","2","real","true","1","common","1","2022-12-30 22:09:53.882"
"two-step-fixation","203","804139","0.0-76.0-2.22","2661","5593","19","Female","true","true","false","false","""event"",""trial"",""time""
""fullscreenenter"",""5"",""26390""
","
","
","""event"",""trial"",""time""
""fullscreenenter"",""5"",""26390""
","
","","images/earth.jpg","","","","","","","","","","","","","","fixation","","","","","",""
"d3-animate-choice","204","806376","0.0-76.0-0.23","2661","5593","19","Female","true","true","false","false","""event"",""trial"",""time""
""fullscreenenter"",""5"",""26390""
","
","
","""event"",""trial"",""time""
""fullscreenenter"",""5"",""26390""
","
","232","","49","","","3000","1","","","images/earth.jpg","images/rocket2","images/rocket1","null","images/rocket1","","1","real","null","1","","",""
"d3-animate-choice","205","809291","0.0-76.0-1.23","2661","5593","19","Female","true","true","false","false","""event"",""trial"",""time""
""fullscreenenter"",""5"",""26390""
","
","
","""event"",""trial"",""time""
""fullscreenenter"",""5"",""26390""
","
","909.5","","49","","","3000","1","","","images/redplanet1.jpg","images/alien2","images/alien1","images/rocket1","images/alien1","images/t.png","2","real","true","1","common","1","2022-12-30 22:10:00.039"
"two-step-fixation","206","810296","0.0-76.0-2.23","2661","5593","19","Female","true","true","false","false","""event"",""trial"",""time""
""fullscreenenter"",""5"",""26390""
","
","
","""event"",""trial"",""time""
""fullscreenenter"",""5"",""26390""
","
","","images/earth.jpg","","","","","","","","","","","","","","fixation","","","","","",""
"d3-animate-choice","207","812763","0.0-76.0-0.24","2661","5593","19","Female","true","true","false","false","""event"",""trial"",""time""
""fullscreenenter"",""5"",""26390""
","
","
","""event"",""trial"",""time""
""fullscreenenter"",""5"",""26390""
","
","459.69999999995343","","49","","","3000","1","","","images/earth.jpg","images/rocket2","images/rocket1","null","images/rocket1","","1","real","null","1","","",""
"d3-animate-choice","208","815694","0.0-76.0-1.24","2661","5593","19","Female","true","true","false","false","""event"",""trial"",""time""
""fullscreenenter"",""5"",""26390""
","
","
","""event"",""trial"",""time""
""fullscreenenter"",""5"",""26390""
","
","924.7999999998137","","49","","","3000","1","","","images/redplanet1.jpg","images/alien2","images/alien1","images/rocket1","images/alien1","images/t.png","2","real","true","1","common","1","2022-12-30 22:10:06.442"
"two-step-fixation","209","816699","0.0-76.0-2.24","2661","5593","19","Female","true","true","false","false","""event"",""trial"",""time""
""fullscreenenter"",""5"",""26390""
","
","
","""event"",""trial"",""time""
""fullscreenenter"",""5"",""26390""
","
","","images/earth.jpg","","","","","","","","","","","","","","fixation","","","","","",""
"d3-animate-choice","210","818774","0.0-76.0-0.25","2661","5593","19","Female","true","true","false","false","""event"",""trial"",""time""
""fullscreenenter"",""5"",""26390""
","
","
","""event"",""trial"",""time""
""fullscreenenter"",""5"",""26390""
","
","67.5","","49","","","3000","1","","","images/earth.jpg","images/rocket2","images/rocket1","null","images/rocket1","","1","real","null","1","","",""
"d3-animate-choice","211","821373","0.0-76.0-1.25","2661","5593","19","Female","true","true","false","false","""event"",""trial"",""time""
""fullscreenenter"",""5"",""26390""
","
","
","""event"",""trial"",""time""
""fullscreenenter"",""5"",""26390""
","
","593.3999999999069","","49","","","3000","1","","","images/redplanet1.jpg","images/alien2","images/alien1","images/rocket1","images/alien1","images/t.png","2","real","true","1","common","1","2022-12-30 22:10:12.122"
"two-step-fixation","212","822379","0.0-76.0-2.25","2661","5593","19","Female","true","true","false","false","""event"",""trial"",""time""
""fullscreenenter"",""5"",""26390""
","
","
","""event"",""trial"",""time""
""fullscreenenter"",""5"",""26390""
","
","","images/earth.jpg","","","","","","","","","","","","","","fixation","","","","","",""
"d3-animate-choice","213","825128","0.0-76.0-0.26","2661","5593","19","Female","true","true","false","false","""event"",""trial"",""time""
""fullscreenenter"",""5"",""26390""
","
","
","""event"",""trial"",""time""
""fullscreenenter"",""5"",""26390""
","
","743.2000000001863","","49","","","3000","1","","","images/earth.jpg","images/rocket2","images/rocket1","null","images/rocket1","","1","real","null","1","","",""
"d3-animate-choice","214","827685","0.0-76.0-1.26","2661","5593","19","Female","true","true","false","false","""event"",""trial"",""time""
""fullscreenenter"",""5"",""26390""
","
","
","""event"",""trial"",""time""
""fullscreenenter"",""5"",""26390""
","
","553","","49","","","3000","1","","","images/redplanet1.jpg","images/alien2","images/alien1","images/rocket1","images/alien1","images/nothing.png","2","real","true","1","common","0","2022-12-30 22:10:18.434"
"two-step-fixation","215","828691","0.0-76.0-2.26","2661","5593","19","Female","true","true","false","false","""event"",""trial"",""time""
""fullscreenenter"",""5"",""26390""
","
","
","""event"",""trial"",""time""
""fullscreenenter"",""5"",""26390""
","
","","images/earth.jpg","","","","","","","","","","","","","","fixation","","","","","",""
"d3-animate-choice","216","831176","0.0-76.0-0.27","2661","5593","19","Female","true","true","false","false","""event"",""trial"",""time""
""fullscreenenter"",""5"",""26390""
","
","
","""event"",""trial"",""time""
""fullscreenenter"",""5"",""26390""
","
","479.30000000004657","","48","","","3000","1","","","images/earth.jpg","images/rocket2","images/rocket1","null","images/rocket2","","1","real","null","2","","",""
"d3-animate-choice","217","833704","0.0-76.0-1.27","2661","5593","19","Female","true","true","false","false","""event"",""trial"",""time""
""fullscreenenter"",""5"",""26390""
","
","
","""event"",""trial"",""time""
""fullscreenenter"",""5"",""26390""
","
","522.7000000001863","","48","","","3000","1","","","images/purpleplanet.jpg","images/alien4","images/alien3","images/rocket2","images/alien4","images/t.png","2","real","true","2","common","1","2022-12-30 22:10:24.452"
"two-step-fixation","218","834710","0.0-76.0-2.27","2661","5593","19","Female","true","true","false","false","""event"",""trial"",""time""
""fullscreenenter"",""5"",""26390""
","
","
","""event"",""trial"",""time""
""fullscreenenter"",""5"",""26390""
","
","","images/earth.jpg","","","","","","","","","","","","","","fixation","","","","","",""
"d3-animate-choice","219","836984","0.0-76.0-0.28","2661","5593","19","Female","true","true","false","false","""event"",""trial"",""time""
""fullscreenenter"",""5"",""26390""
","
","
","""event"",""trial"",""time""
""fullscreenenter"",""5"",""26390""
","
","270.29999999981374","","48","","","3000","1","","","images/earth.jpg","images/rocket2","images/rocket1","null","images/rocket2","","1","real","null","2","","",""
"d3-animate-choice","220","839361","0.0-76.0-1.28","2661","5593","19","Female","true","true","false","false","""event"",""trial"",""time""
""fullscreenenter"",""5"",""26390""
","
","
","""event"",""trial"",""time""
""fullscreenenter"",""5"",""26390""
","
","369.9000000001397","","48","","","3000","1","","","images/purpleplanet.jpg","images/alien4","images/alien3","images/rocket2","images/alien4","images/t.png","2","real","true","2","common","1","2022-12-30 22:10:30.109"
"two-step-fixation","221","840366","0.0-76.0-2.28","2661","5593","19","Female","true","true","false","false","""event"",""trial"",""time""
""fullscreenenter"",""5"",""26390""
","
","
","""event"",""trial"",""time""
""fullscreenenter"",""5"",""26390""
","
","","images/earth.jpg","","","","","","","","","","","","","","fixation","","","","","",""
"d3-animate-choice","222","842624","0.0-76.0-0.29","2661","5593","19","Female","true","true","false","false","""event"",""trial"",""time""
""fullscreenenter"",""5"",""26390""
","
","
","""event"",""trial"",""time""
""fullscreenenter"",""5"",""26390""
","
","253.30000000004657","","48","","","3000","1","","","images/earth.jpg","images/rocket2","images/rocket1","null","images/rocket2","","1","real","null","2","","",""
"d3-animate-choice","223","845043","0.0-76.0-1.29","2661","5593","19","Female","true","true","false","false","""event"",""trial"",""time""
""fullscreenenter"",""5"",""26390""
","
","
","""event"",""trial"",""time""
""fullscreenenter"",""5"",""26390""
","
","414","","48","","","3000","1","","","images/purpleplanet.jpg","images/alien4","images/alien3","images/rocket2","images/alien4","images/nothing.png","2","real","true","2","common","0","2022-12-30 22:10:35.791"
"two-step-fixation","224","846048","0.0-76.0-2.29","2661","5593","19","Female","true","true","false","false","""event"",""trial"",""time""
""fullscreenenter"",""5"",""26390""
","
","
","""event"",""trial"",""time""
""fullscreenenter"",""5"",""26390""
","
","","images/earth.jpg","","","","","","","","","","","","","","fixation","","","","","",""
"d3-animate-choice","225","848318","0.0-76.0-0.30","2661","5593","19","Female","true","true","false","false","""event"",""trial"",""time""
""fullscreenenter"",""5"",""26390""
","
","
","""event"",""trial"",""time""
""fullscreenenter"",""5"",""26390""
","
","263.39999999990687","","49","","","3000","1","","","images/earth.jpg","images/rocket2","images/rocket1","null","images/rocket1","","1","real","null","1","","",""
"d3-animate-choice","226","850651","0.0-76.0-1.30","2661","5593","19","Female","true","true","false","false","""event"",""trial"",""time""
""fullscreenenter"",""5"",""26390""
","
","
","""event"",""trial"",""time""
""fullscreenenter"",""5"",""26390""
","
","327.5","","49","","","3000","1","","","images/redplanet1.jpg","images/alien2","images/alien1","images/rocket1","images/alien1","images/t.png","2","real","true","1","common","1","2022-12-30 22:10:41.399"
"two-step-fixation","227","851657","0.0-76.0-2.30","2661","5593","19","Female","true","true","false","false","""event"",""trial"",""time""
""fullscreenenter"",""5"",""26390""
","
","
","""event"",""trial"",""time""
""fullscreenenter"",""5"",""26390""
","
","","images/earth.jpg","","","","","","","","","","","","","","fixation","","","","","",""
"d3-animate-choice","228","853934","0.0-76.0-0.31","2661","5593","19","Female","true","true","false","false","""event"",""trial"",""time""
""fullscreenenter"",""5"",""26390""
","
","
","""event"",""trial"",""time""
""fullscreenenter"",""5"",""26390""
","
","270.80000000004657","","49","","","3000","1","","","images/earth.jpg","images/rocket2","images/rocket1","null","images/rocket1","","1","real","null","1","","",""
"d3-animate-choice","229","856449","0.0-76.0-1.31","2661","5593","19","Female","true","true","false","false","""event"",""trial"",""time""
""fullscreenenter"",""5"",""26390""
","
","
","""event"",""trial"",""time""
""fullscreenenter"",""5"",""26390""
","
","509.4000000001397","","48","","","3000","1","","","images/purpleplanet.jpg","images/alien4","images/alien3","images/rocket1","images/alien4","images/t.png","2","real","false","2","rare","1","2022-12-30 22:10:47.197"
"two-step-fixation","230","857454","0.0-76.0-2.31","2661","5593","19","Female","true","true","false","false","""event"",""trial"",""time""
""fullscreenenter"",""5"",""26390""
","
","
","""event"",""trial"",""time""
""fullscreenenter"",""5"",""26390""
","
","","images/earth.jpg","","","","","","","","","","","","","","fixation","","","","","",""
"d3-animate-choice","231","859678","0.0-76.0-0.32","2661","5593","19","Female","true","true","false","false","""event"",""trial"",""time""
""fullscreenenter"",""5"",""26390""
","
","
","""event"",""trial"",""time""
""fullscreenenter"",""5"",""26390""
","
","217.5","","49","","","3000","1","","","images/earth.jpg","images/rocket2","images/rocket1","null","images/rocket1","","1","real","null","1","","",""
"d3-animate-choice","232","862158","0.0-76.0-1.32","2661","5593","19","Female","true","true","false","false","""event"",""trial"",""time""
""fullscreenenter"",""5"",""26390""
","
","
","""event"",""trial"",""time""
""fullscreenenter"",""5"",""26390""
","
","475.19999999995343","","48","","","3000","1","","","images/purpleplanet.jpg","images/alien4","images/alien3","images/rocket1","images/alien4","images/t.png","2","real","false","2","rare","1","2022-12-30 22:10:52.906"
"two-step-fixation","233","863163","0.0-76.0-2.32","2661","5593","19","Female","true","true","false","false","""event"",""trial"",""time""
""fullscreenenter"",""5"",""26390""
","
","
","""event"",""trial"",""time""
""fullscreenenter"",""5"",""26390""
","
","","images/earth.jpg","","","","","","","","","","","","","","fixation","","","","","",""
"d3-animate-choice","234","865486","0.0-76.0-0.33","2661","5593","19","Female","true","true","false","false","""event"",""trial"",""time""
""fullscreenenter"",""5"",""26390""
","
","
","""event"",""trial"",""time""
""fullscreenenter"",""5"",""26390""
","
","317.60000000009313","","49","","","3000","1","","","images/earth.jpg","images/rocket2","images/rocket1","null","images/rocket1","","1","real","null","1","","",""
"d3-animate-choice","235","868190","0.0-76.0-1.33","2661","5593","19","Female","true","true","false","false","""event"",""trial"",""time""
""fullscreenenter"",""5"",""26390""
","
","
","""event"",""trial"",""time""
""fullscreenenter"",""5"",""26390""
","
","699.2000000001863","","49","","","3000","1","","","images/redplanet1.jpg","images/alien2","images/alien1","images/rocket1","images/alien1","images/t.png","2","real","true","1","common","1","2022-12-30 22:10:58.938"
"two-step-fixation","236","869195","0.0-76.0-2.33","2661","5593","19","Female","true","true","false","false","""event"",""trial"",""time""
""fullscreenenter"",""5"",""26390""
","
","
","""event"",""trial"",""time""
""fullscreenenter"",""5"",""26390""
","
","","images/earth.jpg","","","","","","","","","","","","","","fixation","","","","","",""
"d3-animate-choice","237","871515","0.0-76.0-0.34","2661","5593","19","Female","true","true","false","false","""event"",""trial"",""time""
""fullscreenenter"",""5"",""26390""
","
","
","""event"",""trial"",""time""
""fullscreenenter"",""5"",""26390""
","
","314.5","","49","","","3000","1","","","images/earth.jpg","images/rocket2","images/rocket1","null","images/rocket1","","1","real","null","1","","",""
"d3-animate-choice","238","874252","0.0-76.0-1.34","2661","5593","19","Female","true","true","false","false","""event"",""trial"",""time""
""fullscreenenter"",""5"",""26390""
","
","
","""event"",""trial"",""time""
""fullscreenenter"",""5"",""26390""
","
","731.7999999998137","","48","","","3000","1","","","images/redplanet1.jpg","images/alien2","images/alien1","images/rocket1","images/alien2","images/nothing.png","2","real","true","2","common","0","2022-12-30 22:11:05.000"
"two-step-fixation","239","875257","0.0-76.0-2.34","2661","5593","19","Female","true","true","false","false","""event"",""trial"",""time""
""fullscreenenter"",""5"",""26390""
","
","
","""event"",""trial"",""time""
""fullscreenenter"",""5"",""26390""
","
","","images/earth.jpg","","","","","","","","","","","","","","fixation","","","","","",""
"d3-animate-choice","240","877513","0.0-76.0-0.35","2661","5593","19","Female","true","true","false","false","""event"",""trial"",""time""
""fullscreenenter"",""5"",""26390""
","
","
","""event"",""trial"",""time""
""fullscreenenter"",""5"",""26390""
","
","249.5","","49","","","3000","1","","","images/earth.jpg","images/rocket2","images/rocket1","null","images/rocket1","","1","real","null","1","","",""
"d3-animate-choice","241","879894","0.0-76.0-1.35","2661","5593","19","Female","true","true","false","false","""event"",""trial"",""time""
""fullscreenenter"",""5"",""26390""
","
","
","""event"",""trial"",""time""
""fullscreenenter"",""5"",""26390""
","
","375.5","","49","","","3000","1","","","images/redplanet1.jpg","images/alien2","images/alien1","images/rocket1","images/alien1","images/t.png","2","real","true","1","common","1","2022-12-30 22:11:10.642"
"two-step-fixation","242","880900","0.0-76.0-2.35","2661","5593","19","Female","true","true","false","false","""event"",""trial"",""time""
""fullscreenenter"",""5"",""26390""
","
","
","""event"",""trial"",""time""
""fullscreenenter"",""5"",""26390""
","
","","images/earth.jpg","","","","","","","","","","","","","","fixation","","","","","",""
"d3-animate-choice","243","883177","0.0-76.0-0.36","2661","5593","19","Female","true","true","false","false","""event"",""trial"",""time""
""fullscreenenter"",""5"",""26390""
","
","
","""event"",""trial"",""time""
""fullscreenenter"",""5"",""26390""
","
","272.5","","49","","","3000","1","","","images/earth.jpg","images/rocket2","images/rocket1","null","images/rocket1","","1","real","null","1","","",""
"d3-animate-choice","244","885721","0.0-76.0-1.36","2661","5593","19","Female","true","true","false","false","""event"",""trial"",""time""
""fullscreenenter"",""5"",""26390""
","
","
","""event"",""trial"",""time""
""fullscreenenter"",""5"",""26390""
","
","538.6000000000931","","48","","","3000","1","","","images/purpleplanet.jpg","images/alien4","images/alien3","images/rocket1","images/alien4","images/nothing.png","2","real","false","2","rare","0","2022-12-30 22:11:16.469"
"two-step-fixation","245","886726","0.0-76.0-2.36","2661","5593","19","Female","true","true","false","false","""event"",""trial"",""time""
""fullscreenenter"",""5"",""26390""
","
","
","""event"",""trial"",""time""
""fullscreenenter"",""5"",""26390""
","
","","images/earth.jpg","","","","","","","","","","","","","","fixation","","","","","",""
