"trial_type","trial_index","time_elapsed","internal_node_id","participant_id","subject_id","age","gender","rocket_sides","red_planet_first_rocket","red_display_order","purple_display_order","interactions","blur_events","focus_events","fullscreenenter_events","fullscreenexit_events","rt","stimulus","key_press","button_pressed","success","duration","valid_pressed","rts","keys","planet_text","right_text","left_text","center_text","chosen_text","reward_text","trial_stage","practice_trial","transition_type","choice","transition","reward","timestamp"
"pavlovia","0","4","0.0-0.0","2365","4991","21","Male","false","false","false","false","""event"",""trial"",""time""
""focus"",""1"",""32335""
","
","""event"",""trial"",""time""
""focus"",""1"",""32335""
","
","
","","","","","","","","","","","","","","","","","","","","","",""
"html-keyboard-response","1","33026","0.0-1.0","2365","4991","21","Male","false","false","false","false","""event"",""trial"",""time""
""focus"",""1"",""32335""
","
","""event"",""trial"",""time""
""focus"",""1"",""32335""
","
","
","33021.79999999888","Welcome! Press the space bar to begin.","32","","","","","","","","","","","","","","","","","","",""
"audio-keyboard-response","2","35733","0.0-2.0","2365","4991","21","Male","false","false","false","false","""event"",""trial"",""time""
""focus"",""1"",""32335""
","
","""event"",""trial"",""time""
""focus"",""1"",""32335""
","
","
","2621","audio/beep_loop.wav","32","","","","","","","","","","","","","","","","","","",""
"audio-button-response","3","38042","0.0-3.0","2365","4991","21","Male","false","false","false","false","""event"",""trial"",""time""
""focus"",""1"",""32335""
","
","""event"",""trial"",""time""
""focus"",""1"",""32335""
","
","
","NaN","audio/fish.mp3","","1","","","","","","","","","","","","","","","","","",""
"audio-button-response","4","40373","0.0-4.0","2365","4991","21","Male","false","false","false","false","""event"",""trial"",""time""
""focus"",""1"",""32335""
""fullscreenenter"",""5"",""42558""
","
","""event"",""trial"",""time""
""focus"",""1"",""32335""
","""event"",""trial"",""time""
""fullscreenenter"",""5"",""42558""
","
","NaN","audio/tiger.mp3","","4","","","","","","","","","","","","","","","","","",""
"fullscreen","5","43516","0.0-5.0","2365","4991","21","Male","false","false","false","false","""event"",""trial"",""time""
""focus"",""1"",""32335""
""fullscreenenter"",""5"",""42558""
","
","""event"",""trial"",""time""
""focus"",""1"",""32335""
","""event"",""trial"",""time""
""fullscreenenter"",""5"",""42558""
","
","","","","","true","","","","","","","","","","","","","","","","",""
"d3-instructions","6","56834","0.0-6.0","2365","4991","21","Male","false","false","false","false","""event"",""trial"",""time""
""focus"",""1"",""32335""
""fullscreenenter"",""5"",""42558""
","
","""event"",""trial"",""time""
""focus"",""1"",""32335""
","""event"",""trial"",""time""
""fullscreenenter"",""5"",""42558""
","
","","","","","","","","","","","","","","","","","","","","","",""
"d3-instructions","7","65765","0.0-7.0","2365","4991","21","Male","false","false","false","false","""event"",""trial"",""time""
""focus"",""1"",""32335""
""fullscreenenter"",""5"",""42558""
","
","""event"",""trial"",""time""
""focus"",""1"",""32335""
","""event"",""trial"",""time""
""fullscreenenter"",""5"",""42558""
","
","","","","","","","","","","","","","","","","","","","","","",""
"d3-instructions","8","72258","0.0-8.0","2365","4991","21","Male","false","false","false","false","""event"",""trial"",""time""
""focus"",""1"",""32335""
""fullscreenenter"",""5"",""42558""
","
","""event"",""trial"",""time""
""focus"",""1"",""32335""
","""event"",""trial"",""time""
""fullscreenenter"",""5"",""42558""
","
","","","","","","","","","","","","","","","","","","","","","",""
"d3-instructions","9","87152","0.0-9.0","2365","4991","21","Male","false","false","false","false","""event"",""trial"",""time""
""focus"",""1"",""32335""
""fullscreenenter"",""5"",""42558""
","
","""event"",""trial"",""time""
""focus"",""1"",""32335""
","""event"",""trial"",""time""
""fullscreenenter"",""5"",""42558""
","
","","","","","","","","","","","","","","","","","","","","","",""
"d3-instructions","10","102550","0.0-10.0","2365","4991","21","Male","false","false","false","false","""event"",""trial"",""time""
""focus"",""1"",""32335""
""fullscreenenter"",""5"",""42558""
","
","""event"",""trial"",""time""
""focus"",""1"",""32335""
","""event"",""trial"",""time""
""fullscreenenter"",""5"",""42558""
","
","","","","","","","","","","","","","","","","","","","","","",""
"d3-animate-choice","11","106213","0.0-11.0","2365","4991","21","Male","false","false","false","false","""event"",""trial"",""time""
""focus"",""1"",""32335""
""fullscreenenter"",""5"",""42558""
","
","""event"",""trial"",""time""
""focus"",""1"",""32335""
","""event"",""trial"",""time""
""fullscreenenter"",""5"",""42558""
","
","1652.0999999996275","","49","","","3000","1","2369.2999999988824,3531.5","48,48","images/tutgreenplanet.jpg","images/tutalien1","images/tutalien2","null","images/tutalien2","","NA","practice","null","","","",""
"d3-animate-choice","12","108695","0.0-12.0","2365","4991","21","Male","false","false","false","false","""event"",""trial"",""time""
""focus"",""1"",""32335""
""fullscreenenter"",""5"",""42558""
","
","""event"",""trial"",""time""
""focus"",""1"",""32335""
","""event"",""trial"",""time""
""fullscreenenter"",""5"",""42558""
","
","467.09999999962747","","48","","","3000","1","","","images/tutgreenplanet.jpg","images/tutalien1","images/tutalien2","null","images/tutalien1","","NA","practice","null","","","",""
"d3-animate-choice","13","111303","0.0-13.0","2365","4991","21","Male","false","false","false","false","""event"",""trial"",""time""
""focus"",""1"",""32335""
""fullscreenenter"",""5"",""42558""
","
","""event"",""trial"",""time""
""focus"",""1"",""32335""
","""event"",""trial"",""time""
""fullscreenenter"",""5"",""42558""
","
","591.9000000003725","","49","","","3000","1","2116","48","images/tutgreenplanet.jpg","images/tutalien1","images/tutalien2","null","images/tutalien2","","NA","practice","null","","","",""
"d3-animate-choice","14","113383","0.0-14.0","2365","4991","21","Male","false","false","false","false","""event"",""trial"",""time""
""focus"",""1"",""32335""
""fullscreenenter"",""5"",""42558""
","
","""event"",""trial"",""time""
""focus"",""1"",""32335""
","""event"",""trial"",""time""
""fullscreenenter"",""5"",""42558""
","
","59.899999998509884","","48","","","3000","1","","","images/tutgreenplanet.jpg","images/tutalien1","images/tutalien2","null","images/tutalien1","","NA","practice","null","","","",""
"d3-instructions","15","127411","0.0-15.0","2365","4991","21","Male","false","false","false","false","""event"",""trial"",""time""
""focus"",""1"",""32335""
""fullscreenenter"",""5"",""42558""
","
","""event"",""trial"",""time""
""focus"",""1"",""32335""
","""event"",""trial"",""time""
""fullscreenenter"",""5"",""42558""
","
","","","","","","","","","","","","","","","","","","","","","",""
"d3-instructions","16","139869","0.0-16.0","2365","4991","21","Male","false","false","false","false","""event"",""trial"",""time""
""focus"",""1"",""32335""
""fullscreenenter"",""5"",""42558""
","
","""event"",""trial"",""time""
""focus"",""1"",""32335""
","""event"",""trial"",""time""
""fullscreenenter"",""5"",""42558""
","
","","","","","","","","","","","","","","","","","","","","","",""
"d3-instructions","17","150983","0.0-17.0","2365","4991","21","Male","false","false","false","false","""event"",""trial"",""time""
""focus"",""1"",""32335""
""fullscreenenter"",""5"",""42558""
","
","""event"",""trial"",""time""
""focus"",""1"",""32335""
","""event"",""trial"",""time""
""fullscreenenter"",""5"",""42558""
","
","","","","","","","","","","","","","","","","","","","","","",""
"d3-instructions","18","164791","0.0-18.0","2365","4991","21","Male","false","false","false","false","""event"",""trial"",""time""
""focus"",""1"",""32335""
""fullscreenenter"",""5"",""42558""
","
","""event"",""trial"",""time""
""focus"",""1"",""32335""
","""event"",""trial"",""time""
""fullscreenenter"",""5"",""42558""
","
","","","","","","","","","","","","","","","","","","","","","",""
"d3-instructions","19","179062","0.0-19.0","2365","4991","21","Male","false","false","false","false","""event"",""trial"",""time""
""focus"",""1"",""32335""
""fullscreenenter"",""5"",""42558""
","
","""event"",""trial"",""time""
""focus"",""1"",""32335""
","""event"",""trial"",""time""
""fullscreenenter"",""5"",""42558""
","
","","","","","","","","","","","","","","","","","","","","","",""
"d3-animate-choice","20","182024","0.0-20.0","2365","4991","21","Male","false","false","false","false","""event"",""trial"",""time""
""focus"",""1"",""32335""
""fullscreenenter"",""5"",""42558""
","
","""event"",""trial"",""time""
""focus"",""1"",""32335""
","""event"",""trial"",""time""
""fullscreenenter"",""5"",""42558""
","
","952.6999999992549","","49","","","3000","1","2507.5","49","images/tutyellowplanet.jpg","null","images/tutalien3","null","images/tutalien3","images/nothing.png","NA","practice","null","","","",""
"d3-animate-choice","21","184353","0.0-21.0","2365","4991","21","Male","false","false","false","false","""event"",""trial"",""time""
""focus"",""1"",""32335""
""fullscreenenter"",""5"",""42558""
","
","""event"",""trial"",""time""
""focus"",""1"",""32335""
","""event"",""trial"",""time""
""fullscreenenter"",""5"",""42558""
","
","319.5","","49","","","3000","1","2262.800000000745","49","images/tutyellowplanet.jpg","null","images/tutalien3","null","images/tutalien3","images/t.png","NA","practice","null","","","",""
"d3-animate-choice","22","187054","0.0-22.0","2365","4991","21","Male","false","false","false","false","""event"",""trial"",""time""
""focus"",""1"",""32335""
""fullscreenenter"",""5"",""42558""
","
","""event"",""trial"",""time""
""focus"",""1"",""32335""
","""event"",""trial"",""time""
""fullscreenenter"",""5"",""42558""
","
","684.2999999988824","","49","","","3000","1","","","images/tutyellowplanet.jpg","null","images/tutalien3","null","images/tutalien3","images/t.png","NA","practice","null","","","",""
"d3-animate-choice","23","189472","0.0-23.0","2365","4991","21","Male","false","false","false","false","""event"",""trial"",""time""
""focus"",""1"",""32335""
""fullscreenenter"",""5"",""42558""
","
","""event"",""trial"",""time""
""focus"",""1"",""32335""
","""event"",""trial"",""time""
""fullscreenenter"",""5"",""42558""
","
","408.80000000074506","","49","","","3000","1","2116","49","images/tutyellowplanet.jpg","null","images/tutalien3","null","images/tutalien3","images/nothing.png","NA","practice","null","","","",""
"d3-animate-choice","24","191666","0.0-24.0","2365","4991","21","Male","false","false","false","false","""event"",""trial"",""time""
""focus"",""1"",""32335""
""fullscreenenter"",""5"",""42558""
","
","""event"",""trial"",""time""
""focus"",""1"",""32335""
","""event"",""trial"",""time""
""fullscreenenter"",""5"",""42558""
","
","182.80000000074506","","49","","","3000","1","1888.800000000745","49","images/tutyellowplanet.jpg","null","images/tutalien3","null","images/tutalien3","images/t.png","NA","practice","null","","","",""
"d3-animate-choice","25","193979","0.0-25.0","2365","4991","21","Male","false","false","false","false","""event"",""trial"",""time""
""focus"",""1"",""32335""
""fullscreenenter"",""5"",""42558""
","
","""event"",""trial"",""time""
""focus"",""1"",""32335""
","""event"",""trial"",""time""
""fullscreenenter"",""5"",""42558""
","
","290","","49","","","3000","1","1953.199999999255","49","images/tutyellowplanet.jpg","null","images/tutalien3","null","images/tutalien3","images/t.png","NA","practice","null","","","",""
"d3-animate-choice","26","196118","0.0-26.0","2365","4991","21","Male","false","false","false","false","""event"",""trial"",""time""
""focus"",""1"",""32335""
""fullscreenenter"",""5"",""42558""
","
","""event"",""trial"",""time""
""focus"",""1"",""32335""
","""event"",""trial"",""time""
""fullscreenenter"",""5"",""42558""
","
","129","","49","","","3000","1","1726.199999999255","49","images/tutyellowplanet.jpg","null","images/tutalien3","null","images/tutalien3","images/t.png","NA","practice","null","","","",""
"d3-animate-choice","27","198573","0.0-27.0","2365","4991","21","Male","false","false","false","false","""event"",""trial"",""time""
""focus"",""1"",""32335""
""fullscreenenter"",""5"",""42558""
","
","""event"",""trial"",""time""
""focus"",""1"",""32335""
","""event"",""trial"",""time""
""fullscreenenter"",""5"",""42558""
","
","444.09999999962747","","49","","","3000","1","1933.5999999996275","49","images/tutyellowplanet.jpg","null","images/tutalien3","null","images/tutalien3","images/t.png","NA","practice","null","","","",""
"d3-animate-choice","28","204753","0.0-28.0","2365","4991","21","Male","false","false","false","false","""event"",""trial"",""time""
""focus"",""1"",""32335""
""fullscreenenter"",""5"",""42558""
","
","""event"",""trial"",""time""
""focus"",""1"",""32335""
","""event"",""trial"",""time""
""fullscreenenter"",""5"",""42558""
","
","4166.699999999255","","49","","","3000","1","","","images/tutyellowplanet.jpg","null","images/tutalien3","null","images/tutalien3","images/nothing.png","NA","practice","null","","","",""
"d3-animate-choice","29","209747","0.0-29.0","2365","4991","21","Male","false","false","false","false","""event"",""trial"",""time""
""focus"",""1"",""32335""
""fullscreenenter"",""5"",""42558""
","
","""event"",""trial"",""time""
""focus"",""1"",""32335""
","""event"",""trial"",""time""
""fullscreenenter"",""5"",""42558""
","
","2979.9000000003725","","49","","","3000","1","","","images/tutyellowplanet.jpg","null","images/tutalien3","null","images/tutalien3","images/nothing.png","NA","practice","null","","","",""
"d3-instructions","30","223992","0.0-30.0","2365","4991","21","Male","false","false","false","false","""event"",""trial"",""time""
""focus"",""1"",""32335""
""fullscreenenter"",""5"",""42558""
","
","""event"",""trial"",""time""
""focus"",""1"",""32335""
","""event"",""trial"",""time""
""fullscreenenter"",""5"",""42558""
","
","","","","","","","","","","","","","","","","","","","","","",""
"d3-instructions","31","230902","0.0-31.0","2365","4991","21","Male","false","false","false","false","""event"",""trial"",""time""
""focus"",""1"",""32335""
""fullscreenenter"",""5"",""42558""
","
","""event"",""trial"",""time""
""focus"",""1"",""32335""
","""event"",""trial"",""time""
""fullscreenenter"",""5"",""42558""
","
","","","","","","","","","","","","","","","","","","","","","",""
"d3-instructions","32","234650","0.0-32.0","2365","4991","21","Male","false","false","false","false","""event"",""trial"",""time""
""focus"",""1"",""32335""
""fullscreenenter"",""5"",""42558""
","
","""event"",""trial"",""time""
""focus"",""1"",""32335""
","""event"",""trial"",""time""
""fullscreenenter"",""5"",""42558""
","
","","","","","","","","","","","","","","","","","","","","","",""
"d3-instructions","33","236857","0.0-33.0","2365","4991","21","Male","false","false","false","false","""event"",""trial"",""time""
""focus"",""1"",""32335""
""fullscreenenter"",""5"",""42558""
","
","""event"",""trial"",""time""
""focus"",""1"",""32335""
","""event"",""trial"",""time""
""fullscreenenter"",""5"",""42558""
","
","","","","","","","","","","","","","","","","","","","","","",""
"d3-animate-choice","34","239728","0.0-34.0","2365","4991","21","Male","false","false","false","false","""event"",""trial"",""time""
""focus"",""1"",""32335""
""fullscreenenter"",""5"",""42558""
","
","""event"",""trial"",""time""
""focus"",""1"",""32335""
","""event"",""trial"",""time""
""fullscreenenter"",""5"",""42558""
","
","849.3000000007451","","49","","","3000","1","","","images/tutgreenplanet.jpg","images/tutalien1","images/tutalien2","null","images/tutalien2","images/t.png","NA","practice","null","","","",""
"d3-animate-choice","35","242036","0.0-35.0","2365","4991","21","Male","false","false","false","false","""event"",""trial"",""time""
""focus"",""1"",""32335""
""fullscreenenter"",""5"",""42558""
","
","""event"",""trial"",""time""
""focus"",""1"",""32335""
","""event"",""trial"",""time""
""fullscreenenter"",""5"",""42558""
","
","304.5","","48","","","3000","1","","","images/tutgreenplanet.jpg","images/tutalien1","images/tutalien2","null","images/tutalien1","images/nothing.png","NA","practice","null","","","",""
"d3-animate-choice","36","244270","0.0-36.0","2365","4991","21","Male","false","false","false","false","""event"",""trial"",""time""
""focus"",""1"",""32335""
""fullscreenenter"",""5"",""42558""
","
","""event"",""trial"",""time""
""focus"",""1"",""32335""
","""event"",""trial"",""time""
""fullscreenenter"",""5"",""42558""
","
","228.59999999962747","","48","","","3000","1","2050.199999999255","49","images/tutgreenplanet.jpg","images/tutalien1","images/tutalien2","null","images/tutalien1","images/nothing.png","NA","practice","null","","","",""
"d3-animate-choice","37","246370","0.0-37.0","2365","4991","21","Male","false","false","false","false","""event"",""trial"",""time""
""focus"",""1"",""32335""
""fullscreenenter"",""5"",""42558""
","
","""event"",""trial"",""time""
""focus"",""1"",""32335""
","""event"",""trial"",""time""
""fullscreenenter"",""5"",""42558""
","
","87.30000000074506","","49","","","3000","1","1642.199999999255","49","images/tutgreenplanet.jpg","images/tutalien1","images/tutalien2","null","images/tutalien2","images/t.png","NA","practice","null","","","",""
"d3-animate-choice","38","248392","0.0-38.0","2365","4991","21","Male","false","false","false","false","""event"",""trial"",""time""
""focus"",""1"",""32335""
""fullscreenenter"",""5"",""42558""
","
","""event"",""trial"",""time""
""focus"",""1"",""32335""
","""event"",""trial"",""time""
""fullscreenenter"",""5"",""42558""
","
","5.900000000372529","","49","","","3000","1","","","images/tutgreenplanet.jpg","images/tutalien1","images/tutalien2","null","images/tutalien2","images/t.png","NA","practice","null","","","",""
"d3-animate-choice","39","250769","0.0-39.0","2365","4991","21","Male","false","false","false","false","""event"",""trial"",""time""
""focus"",""1"",""32335""
""fullscreenenter"",""5"",""42558""
","
","""event"",""trial"",""time""
""focus"",""1"",""32335""
","""event"",""trial"",""time""
""fullscreenenter"",""5"",""42558""
","
","366.5","","49","","","3000","1","","","images/tutgreenplanet.jpg","images/tutalien1","images/tutalien2","null","images/tutalien2","images/t.png","NA","practice","null","","","",""
"d3-animate-choice","40","253073","0.0-40.0","2365","4991","21","Male","false","false","false","false","""event"",""trial"",""time""
""focus"",""1"",""32335""
""fullscreenenter"",""5"",""42558""
","
","""event"",""trial"",""time""
""focus"",""1"",""32335""
","""event"",""trial"",""time""
""fullscreenenter"",""5"",""42558""
","
","283.40000000037253","","49","","","3000","1","","","images/tutgreenplanet.jpg","images/tutalien1","images/tutalien2","null","images/tutalien2","images/t.png","NA","practice","null","","","",""
"d3-animate-choice","41","255842","0.0-41.0","2365","4991","21","Male","false","false","false","false","""event"",""trial"",""time""
""focus"",""1"",""32335""
""fullscreenenter"",""5"",""42558""
","
","""event"",""trial"",""time""
""focus"",""1"",""32335""
","""event"",""trial"",""time""
""fullscreenenter"",""5"",""42558""
","
","766.2999999988824","","48","","","3000","1","2435.89999999851,2727","49,49","images/tutgreenplanet.jpg","images/tutalien1","images/tutalien2","null","images/tutalien1","images/nothing.png","NA","practice","null","","","",""
"d3-animate-choice","42","258256","0.0-42.0","2365","4991","21","Male","false","false","false","false","""event"",""trial"",""time""
""focus"",""1"",""32335""
""fullscreenenter"",""5"",""42558""
","
","""event"",""trial"",""time""
""focus"",""1"",""32335""
","""event"",""trial"",""time""
""fullscreenenter"",""5"",""42558""
","
","401.40000000037253","","49","","","3000","1","","","images/tutgreenplanet.jpg","images/tutalien1","images/tutalien2","null","images/tutalien2","images/t.png","NA","practice","null","","","",""
"d3-animate-choice","43","260730","0.0-43.0","2365","4991","21","Male","false","false","false","false","""event"",""trial"",""time""
""focus"",""1"",""32335""
""fullscreenenter"",""5"",""42558""
","
","""event"",""trial"",""time""
""focus"",""1"",""32335""
","""event"",""trial"",""time""
""fullscreenenter"",""5"",""42558""
","
","456.59999999962747","","49","","","3000","1","","","images/tutgreenplanet.jpg","images/tutalien1","images/tutalien2","null","images/tutalien2","images/t.png","NA","practice","null","","","",""
"d3-instructions","44","275078","0.0-44.0","2365","4991","21","Male","false","false","false","false","""event"",""trial"",""time""
""focus"",""1"",""32335""
""fullscreenenter"",""5"",""42558""
","
","""event"",""trial"",""time""
""focus"",""1"",""32335""
","""event"",""trial"",""time""
""fullscreenenter"",""5"",""42558""
","
","","","","","","","","","","","","","","","","","","","","","",""
"d3-instructions","45","277265","0.0-45.0","2365","4991","21","Male","false","false","false","false","""event"",""trial"",""time""
""focus"",""1"",""32335""
""fullscreenenter"",""5"",""42558""
","
","""event"",""trial"",""time""
""focus"",""1"",""32335""
","""event"",""trial"",""time""
""fullscreenenter"",""5"",""42558""
","
","","","","","","","","","","","","","","","","","","","","","",""
"d3-instructions","46","279342","0.0-46.0","2365","4991","21","Male","false","false","false","false","""event"",""trial"",""time""
""focus"",""1"",""32335""
""fullscreenenter"",""5"",""42558""
","
","""event"",""trial"",""time""
""focus"",""1"",""32335""
","""event"",""trial"",""time""
""fullscreenenter"",""5"",""42558""
","
","","","","","","","","","","","","","","","","","","","","","",""
"d3-instructions","47","286075","0.0-47.0","2365","4991","21","Male","false","false","false","false","""event"",""trial"",""time""
""focus"",""1"",""32335""
""fullscreenenter"",""5"",""42558""
","
","""event"",""trial"",""time""
""focus"",""1"",""32335""
","""event"",""trial"",""time""
""fullscreenenter"",""5"",""42558""
","
","","","","","","","","","","","","","","","","","","","","","",""
"d3-instructions","48","293007","0.0-48.0","2365","4991","21","Male","false","false","false","false","""event"",""trial"",""time""
""focus"",""1"",""32335""
""fullscreenenter"",""5"",""42558""
","
","""event"",""trial"",""time""
""focus"",""1"",""32335""
","""event"",""trial"",""time""
""fullscreenenter"",""5"",""42558""
","
","","","","","","","","","","","","","","","","","","","","","",""
"d3-instructions","49","306217","0.0-49.0","2365","4991","21","Male","false","false","false","false","""event"",""trial"",""time""
""focus"",""1"",""32335""
""fullscreenenter"",""5"",""42558""
","
","""event"",""trial"",""time""
""focus"",""1"",""32335""
","""event"",""trial"",""time""
""fullscreenenter"",""5"",""42558""
","
","","","","","","","","","","","","","","","","","","","","","",""
"d3-instructions","50","314149","0.0-50.0","2365","4991","21","Male","false","false","false","false","""event"",""trial"",""time""
""focus"",""1"",""32335""
""fullscreenenter"",""5"",""42558""
","
","""event"",""trial"",""time""
""focus"",""1"",""32335""
","""event"",""trial"",""time""
""fullscreenenter"",""5"",""42558""
","
","","","","","","","","","","","","","","","","","","","","","",""
"d3-instructions","51","318105","0.0-51.0","2365","4991","21","Male","false","false","false","false","""event"",""trial"",""time""
""focus"",""1"",""32335""
""fullscreenenter"",""5"",""42558""
","
","""event"",""trial"",""time""
""focus"",""1"",""32335""
","""event"",""trial"",""time""
""fullscreenenter"",""5"",""42558""
","
","","","","","","","","","","","","","","","","","","","","","",""
"d3-instructions","52","320572","0.0-52.0","2365","4991","21","Male","false","false","false","false","""event"",""trial"",""time""
""focus"",""1"",""32335""
""fullscreenenter"",""5"",""42558""
","
","""event"",""trial"",""time""
""focus"",""1"",""32335""
","""event"",""trial"",""time""
""fullscreenenter"",""5"",""42558""
","
","","","","","","","","","","","","","","","","","","","","","",""
"d3-instructions","53","340455","0.0-53.0","2365","4991","21","Male","false","false","false","false","""event"",""trial"",""time""
""focus"",""1"",""32335""
""fullscreenenter"",""5"",""42558""
","
","""event"",""trial"",""time""
""focus"",""1"",""32335""
","""event"",""trial"",""time""
""fullscreenenter"",""5"",""42558""
","
","","","","","","","","","","","","","","","","","","","","","",""
"d3-instructions","54","356764","0.0-54.0","2365","4991","21","Male","false","false","false","false","""event"",""trial"",""time""
""focus"",""1"",""32335""
""fullscreenenter"",""5"",""42558""
","
","""event"",""trial"",""time""
""focus"",""1"",""32335""
","""event"",""trial"",""time""
""fullscreenenter"",""5"",""42558""
","
","","","","","","","","","","","","","","","","","","","","","",""
"d3-instructions","55","360128","0.0-55.0","2365","4991","21","Male","false","false","false","false","""event"",""trial"",""time""
""focus"",""1"",""32335""
""fullscreenenter"",""5"",""42558""
","
","""event"",""trial"",""time""
""focus"",""1"",""32335""
","""event"",""trial"",""time""
""fullscreenenter"",""5"",""42558""
","
","","","","","","","","","","","","","","","","","","","","","",""
"d3-instructions","56","369646","0.0-56.0","2365","4991","21","Male","false","false","false","false","""event"",""trial"",""time""
""focus"",""1"",""32335""
""fullscreenenter"",""5"",""42558""
","
","""event"",""trial"",""time""
""focus"",""1"",""32335""
","""event"",""trial"",""time""
""fullscreenenter"",""5"",""42558""
","
","","","","","","","","","","","","","","","","","","","","","",""
"d3-instructions","57","381977","0.0-57.0","2365","4991","21","Male","false","false","false","false","""event"",""trial"",""time""
""focus"",""1"",""32335""
""fullscreenenter"",""5"",""42558""
","
","""event"",""trial"",""time""
""focus"",""1"",""32335""
","""event"",""trial"",""time""
""fullscreenenter"",""5"",""42558""
","
","","","","","","","","","","","","","","","","","","","","","",""
"d3-instructions","58","385402","0.0-58.0","2365","4991","21","Male","false","false","false","false","""event"",""trial"",""time""
""focus"",""1"",""32335""
""fullscreenenter"",""5"",""42558""
","
","""event"",""trial"",""time""
""focus"",""1"",""32335""
","""event"",""trial"",""time""
""fullscreenenter"",""5"",""42558""
","
","","","","","","","","","","","","","","","","","","","","","",""
"d3-instructions","59","386998","0.0-59.0","2365","4991","21","Male","false","false","false","false","""event"",""trial"",""time""
""focus"",""1"",""32335""
""fullscreenenter"",""5"",""42558""
","
","""event"",""trial"",""time""
""focus"",""1"",""32335""
","""event"",""trial"",""time""
""fullscreenenter"",""5"",""42558""
","
","","","","","","","","","","","","","","","","","","","","","",""
"d3-instructions","60","388923","0.0-60.0","2365","4991","21","Male","false","false","false","false","""event"",""trial"",""time""
""focus"",""1"",""32335""
""fullscreenenter"",""5"",""42558""
","
","""event"",""trial"",""time""
""focus"",""1"",""32335""
","""event"",""trial"",""time""
""fullscreenenter"",""5"",""42558""
","
","","","","","","","","","","","","","","","","","","","","","",""
"d3-animate-choice","61","391643","0.0-61.0-0.0","2365","4991","21","Male","false","false","false","false","""event"",""trial"",""time""
""focus"",""1"",""32335""
""fullscreenenter"",""5"",""42558""
","
","""event"",""trial"",""time""
""focus"",""1"",""32335""
","""event"",""trial"",""time""
""fullscreenenter"",""5"",""42558""
","
","692.5999999996275","","49","","","3000","1","","","images/earth.jpg","images/tutrocket2","images/tutrocket1","null","images/tutrocket1","","1","practice","null","1","","",""
"d3-animate-choice","62","394493","0.0-61.0-1.0","2365","4991","21","Male","false","false","false","false","""event"",""trial"",""time""
""focus"",""1"",""32335""
""fullscreenenter"",""5"",""42558""
","
","""event"",""trial"",""time""
""focus"",""1"",""32335""
","""event"",""trial"",""time""
""fullscreenenter"",""5"",""42558""
","
","834.8999999985099","","49","","","3000","1","","","images/tutgreenplanet.jpg","images/tutalien2","images/tutalien1","images/tutrocket1","images/tutalien1","images/nothing.png","2","practice","false","1","rare","0","2022-12-14 05:25:52.241"
"two-step-fixation","63","395501","0.0-61.0-2.0","2365","4991","21","Male","false","false","false","false","""event"",""trial"",""time""
""focus"",""1"",""32335""
""fullscreenenter"",""5"",""42558""
","
","""event"",""trial"",""time""
""focus"",""1"",""32335""
","""event"",""trial"",""time""
""fullscreenenter"",""5"",""42558""
","
","","images/earth.jpg","","","","","","","","","","","","","","fixation","","","","","",""
"d3-animate-choice","64","397619","0.0-61.0-0.1","2365","4991","21","Male","false","false","false","false","""event"",""trial"",""time""
""focus"",""1"",""32335""
""fullscreenenter"",""5"",""42558""
","
","""event"",""trial"",""time""
""focus"",""1"",""32335""
","""event"",""trial"",""time""
""fullscreenenter"",""5"",""42558""
","
","106.09999999962747","","49","","","3000","1","","","images/earth.jpg","images/tutrocket2","images/tutrocket1","null","images/tutrocket1","","1","practice","null","1","","",""
"d3-animate-choice","65","401347","0.0-61.0-1.1","2365","4991","21","Male","false","false","false","false","""event"",""trial"",""time""
""focus"",""1"",""32335""
""fullscreenenter"",""5"",""42558""
","
","""event"",""trial"",""time""
""focus"",""1"",""32335""
","""event"",""trial"",""time""
""fullscreenenter"",""5"",""42558""
","
","263","","50","","","3000","1","1122.2999999988824,1586.3999999985099,1714.5,2004.7999999988824,2904.5,3131.699999999255","50,50,48,48,48,48","images/tutyellowplanet.jpg","images/tutalien4","images/tutalien3","images/tutrocket1","images/tutalien4","images/t.png","2","practice","true","","common","1","2022-12-14 05:25:59.095"
"two-step-fixation","66","402361","0.0-61.0-2.1","2365","4991","21","Male","false","false","false","false","""event"",""trial"",""time""
""focus"",""1"",""32335""
""fullscreenenter"",""5"",""42558""
","
","""event"",""trial"",""time""
""focus"",""1"",""32335""
","""event"",""trial"",""time""
""fullscreenenter"",""5"",""42558""
","
","","images/earth.jpg","","","","","","","","","","","","","","fixation","","","","","",""
"d3-animate-choice","67","405347","0.0-61.0-0.2","2365","4991","21","Male","false","false","false","false","""event"",""trial"",""time""
""focus"",""1"",""32335""
""fullscreenenter"",""5"",""42558""
","
","""event"",""trial"",""time""
""focus"",""1"",""32335""
","""event"",""trial"",""time""
""fullscreenenter"",""5"",""42558""
","
","966.5999999996275","","48","","","3000","1","","","images/earth.jpg","images/tutrocket2","images/tutrocket1","null","images/tutrocket2","","1","practice","null","2","","",""
"d3-animate-choice","68","408508","0.0-61.0-1.2","2365","4991","21","Male","false","false","false","false","""event"",""trial"",""time""
""focus"",""1"",""32335""
""fullscreenenter"",""5"",""42558""
","
","""event"",""trial"",""time""
""focus"",""1"",""32335""
","""event"",""trial"",""time""
""fullscreenenter"",""5"",""42558""
","
","1152.300000000745","","49","","","3000","1","","","images/tutgreenplanet.jpg","images/tutalien2","images/tutalien1","images/tutrocket2","images/tutalien1","images/t.png","2","practice","true","1","common","1","2022-12-14 05:26:06.256"
"two-step-fixation","69","409517","0.0-61.0-2.2","2365","4991","21","Male","false","false","false","false","""event"",""trial"",""time""
""focus"",""1"",""32335""
""fullscreenenter"",""5"",""42558""
","
","""event"",""trial"",""time""
""focus"",""1"",""32335""
","""event"",""trial"",""time""
""fullscreenenter"",""5"",""42558""
","
","","images/earth.jpg","","","","","","","","","","","","","","fixation","","","","","",""
"d3-animate-choice","70","411881","0.0-61.0-0.3","2365","4991","21","Male","false","false","false","false","""event"",""trial"",""time""
""focus"",""1"",""32335""
""fullscreenenter"",""5"",""42558""
","
","""event"",""trial"",""time""
""focus"",""1"",""32335""
","""event"",""trial"",""time""
""fullscreenenter"",""5"",""42558""
","
","355.69999999925494","","48","","","3000","1","","","images/earth.jpg","images/tutrocket2","images/tutrocket1","null","images/tutrocket2","","1","practice","null","2","","",""
"d3-animate-choice","71","414765","0.0-61.0-1.3","2365","4991","21","Male","false","false","false","false","""event"",""trial"",""time""
""focus"",""1"",""32335""
""fullscreenenter"",""5"",""42558""
","
","""event"",""trial"",""time""
""focus"",""1"",""32335""
","""event"",""trial"",""time""
""fullscreenenter"",""5"",""42558""
","
","872.6000000014901","","48","","","3000","1","","","images/tutyellowplanet.jpg","images/tutalien4","images/tutalien3","images/tutrocket2","images/tutalien4","images/t.png","2","practice","false","2","rare","1","2022-12-14 05:26:12.514"
"two-step-fixation","72","415772","0.0-61.0-2.3","2365","4991","21","Male","false","false","false","false","""event"",""trial"",""time""
""focus"",""1"",""32335""
""fullscreenenter"",""5"",""42558""
","
","""event"",""trial"",""time""
""focus"",""1"",""32335""
","""event"",""trial"",""time""
""fullscreenenter"",""5"",""42558""
","
","","images/earth.jpg","","","","","","","","","","","","","","fixation","","","","","",""
"d3-animate-choice","73","418223","0.0-61.0-0.4","2365","4991","21","Male","false","false","false","false","""event"",""trial"",""time""
""focus"",""1"",""32335""
""fullscreenenter"",""5"",""42558""
","
","""event"",""trial"",""time""
""focus"",""1"",""32335""
","""event"",""trial"",""time""
""fullscreenenter"",""5"",""42558""
","
","440.59999999962747","","49","","","3000","1","","","images/earth.jpg","images/tutrocket2","images/tutrocket1","null","images/tutrocket1","","1","practice","null","1","","",""
"d3-animate-choice","74","421174","0.0-61.0-1.4","2365","4991","21","Male","false","false","false","false","""event"",""trial"",""time""
""focus"",""1"",""32335""
""fullscreenenter"",""5"",""42558""
","
","""event"",""trial"",""time""
""focus"",""1"",""32335""
","""event"",""trial"",""time""
""fullscreenenter"",""5"",""42558""
","
","947.2999999988824","","48","","","3000","1","","","images/tutyellowplanet.jpg","images/tutalien4","images/tutalien3","images/tutrocket1","images/tutalien4","images/t.png","2","practice","true","2","common","1","2022-12-14 05:26:18.922"
"two-step-fixation","75","422188","0.0-61.0-2.4","2365","4991","21","Male","false","false","false","false","""event"",""trial"",""time""
""focus"",""1"",""32335""
""fullscreenenter"",""5"",""42558""
","
","""event"",""trial"",""time""
""focus"",""1"",""32335""
","""event"",""trial"",""time""
""fullscreenenter"",""5"",""42558""
","
","","images/earth.jpg","","","","","","","","","","","","","","fixation","","","","","",""
"d3-animate-choice","76","424564","0.0-61.0-0.5","2365","4991","21","Male","false","false","false","false","""event"",""trial"",""time""
""focus"",""1"",""32335""
""fullscreenenter"",""5"",""42558""
","
","""event"",""trial"",""time""
""focus"",""1"",""32335""
","""event"",""trial"",""time""
""fullscreenenter"",""5"",""42558""
","
","366.30000000074506","","48","","","3000","1","","","images/earth.jpg","images/tutrocket2","images/tutrocket1","null","images/tutrocket2","","1","practice","null","2","","",""
"d3-animate-choice","77","427324","0.0-61.0-1.5","2365","4991","21","Male","false","false","false","false","""event"",""trial"",""time""
""focus"",""1"",""32335""
""fullscreenenter"",""5"",""42558""
","
","""event"",""trial"",""time""
""focus"",""1"",""32335""
","""event"",""trial"",""time""
""fullscreenenter"",""5"",""42558""
","
","752.4000000003725","","49","","","3000","1","","","images/tutyellowplanet.jpg","images/tutalien4","images/tutalien3","images/tutrocket2","images/tutalien3","images/nothing.png","2","practice","false","1","rare","0","2022-12-14 05:26:25.072"
"two-step-fixation","78","428332","0.0-61.0-2.5","2365","4991","21","Male","false","false","false","false","""event"",""trial"",""time""
""focus"",""1"",""32335""
""fullscreenenter"",""5"",""42558""
","
","""event"",""trial"",""time""
""focus"",""1"",""32335""
","""event"",""trial"",""time""
""fullscreenenter"",""5"",""42558""
","
","","images/earth.jpg","","","","","","","","","","","","","","fixation","","","","","",""
"d3-animate-choice","79","430629","0.0-61.0-0.6","2365","4991","21","Male","false","false","false","false","""event"",""trial"",""time""
""focus"",""1"",""32335""
""fullscreenenter"",""5"",""42558""
","
","""event"",""trial"",""time""
""focus"",""1"",""32335""
","""event"",""trial"",""time""
""fullscreenenter"",""5"",""42558""
","
","288.90000000037253","","48","","","3000","1","861.9000000003725","48","images/earth.jpg","images/tutrocket2","images/tutrocket1","null","images/tutrocket2","","1","practice","null","2","","",""
"d3-animate-choice","80","434092","0.0-61.0-1.6","2365","4991","21","Male","false","false","false","false","""event"",""trial"",""time""
""focus"",""1"",""32335""
""fullscreenenter"",""5"",""42558""
","
","""event"",""trial"",""time""
""focus"",""1"",""32335""
","""event"",""trial"",""time""
""fullscreenenter"",""5"",""42558""
","
","1450.800000000745","","48","","","3000","1","","","images/tutgreenplanet.jpg","images/tutalien2","images/tutalien1","images/tutrocket2","images/tutalien2","images/t.png","2","practice","true","2","common","1","2022-12-14 05:26:31.840"
"two-step-fixation","81","435100","0.0-61.0-2.6","2365","4991","21","Male","false","false","false","false","""event"",""trial"",""time""
""focus"",""1"",""32335""
""fullscreenenter"",""5"",""42558""
","
","""event"",""trial"",""time""
""focus"",""1"",""32335""
","""event"",""trial"",""time""
""fullscreenenter"",""5"",""42558""
","
","","images/earth.jpg","","","","","","","","","","","","","","fixation","","","","","",""
"d3-animate-choice","82","438196","0.0-61.0-0.7","2365","4991","21","Male","false","false","false","false","""event"",""trial"",""time""
""focus"",""1"",""32335""
""fullscreenenter"",""5"",""42558""
","
","""event"",""trial"",""time""
""focus"",""1"",""32335""
","""event"",""trial"",""time""
""fullscreenenter"",""5"",""42558""
","
","769","","32","","","3000","1","1087.800000000745","48","images/earth.jpg","images/tutrocket2","images/tutrocket1","null","images/tutrocket2","","1","practice","null","","","",""
"d3-animate-choice","83","441164","0.0-61.0-1.7","2365","4991","21","Male","false","false","false","false","""event"",""trial"",""time""
""focus"",""1"",""32335""
""fullscreenenter"",""5"",""42558""
","
","""event"",""trial"",""time""
""focus"",""1"",""32335""
","""event"",""trial"",""time""
""fullscreenenter"",""5"",""42558""
","
","961.6999999992549","","48","","","3000","1","","","images/tutyellowplanet.jpg","images/tutalien4","images/tutalien3","images/tutrocket2","images/tutalien4","images/t.png","2","practice","false","2","rare","1","2022-12-14 05:26:38.912"
"two-step-fixation","84","442172","0.0-61.0-2.7","2365","4991","21","Male","false","false","false","false","""event"",""trial"",""time""
""focus"",""1"",""32335""
""fullscreenenter"",""5"",""42558""
","
","""event"",""trial"",""time""
""focus"",""1"",""32335""
","""event"",""trial"",""time""
""fullscreenenter"",""5"",""42558""
","
","","images/earth.jpg","","","","","","","","","","","","","","fixation","","","","","",""
"d3-animate-choice","85","444609","0.0-61.0-0.8","2365","4991","21","Male","false","false","false","false","""event"",""trial"",""time""
""focus"",""1"",""32335""
""fullscreenenter"",""5"",""42558""
","
","""event"",""trial"",""time""
""focus"",""1"",""32335""
","""event"",""trial"",""time""
""fullscreenenter"",""5"",""42558""
","
","418.7000000011176","","49","","","3000","1","","","images/earth.jpg","images/tutrocket2","images/tutrocket1","null","images/tutrocket1","","1","practice","null","1","","",""
"d3-animate-choice","86","447477","0.0-61.0-1.8","2365","4991","21","Male","false","false","false","false","""event"",""trial"",""time""
""focus"",""1"",""32335""
""fullscreenenter"",""5"",""42558""
","
","""event"",""trial"",""time""
""focus"",""1"",""32335""
","""event"",""trial"",""time""
""fullscreenenter"",""5"",""42558""
","
","854.1999999992549","","48","","","3000","1","","","images/tutgreenplanet.jpg","images/tutalien2","images/tutalien1","images/tutrocket1","images/tutalien2","images/nothing.png","2","practice","false","2","rare","0","2022-12-14 05:26:45.225"
"two-step-fixation","87","448484","0.0-61.0-2.8","2365","4991","21","Male","false","false","false","false","""event"",""trial"",""time""
""focus"",""1"",""32335""
""fullscreenenter"",""5"",""42558""
","
","""event"",""trial"",""time""
""focus"",""1"",""32335""
","""event"",""trial"",""time""
""fullscreenenter"",""5"",""42558""
","
","","images/earth.jpg","","","","","","","","","","","","","","fixation","","","","","",""
"d3-animate-choice","88","450885","0.0-61.0-0.9","2365","4991","21","Male","false","false","false","false","""event"",""trial"",""time""
""focus"",""1"",""32335""
""fullscreenenter"",""5"",""42558""
","
","""event"",""trial"",""time""
""focus"",""1"",""32335""
","""event"",""trial"",""time""
""fullscreenenter"",""5"",""42558""
","
","394.1000000014901","","49","","","3000","1","","","images/earth.jpg","images/tutrocket2","images/tutrocket1","null","images/tutrocket1","","1","practice","null","1","","",""
"d3-animate-choice","89","453708","0.0-61.0-1.9","2365","4991","21","Male","false","false","false","false","""event"",""trial"",""time""
""focus"",""1"",""32335""
""fullscreenenter"",""5"",""42558""
","
","""event"",""trial"",""time""
""focus"",""1"",""32335""
","""event"",""trial"",""time""
""fullscreenenter"",""5"",""42558""
","
","812.8999999985099","","49","","","3000","1","","","images/tutgreenplanet.jpg","images/tutalien2","images/tutalien1","images/tutrocket1","images/tutalien1","images/t.png","2","practice","false","1","rare","1","2022-12-14 05:26:51.456"
"two-step-fixation","90","454716","0.0-61.0-2.9","2365","4991","21","Male","false","false","false","false","""event"",""trial"",""time""
""focus"",""1"",""32335""
""fullscreenenter"",""5"",""42558""
","
","""event"",""trial"",""time""
""focus"",""1"",""32335""
","""event"",""trial"",""time""
""fullscreenenter"",""5"",""42558""
","
","","images/earth.jpg","","","","","","","","","","","","","","fixation","","","","","",""
"d3-animate-choice","91","457065","0.0-61.0-0.10","2365","4991","21","Male","false","false","false","false","""event"",""trial"",""time""
""focus"",""1"",""32335""
""fullscreenenter"",""5"",""42558""
","
","""event"",""trial"",""time""
""focus"",""1"",""32335""
","""event"",""trial"",""time""
""fullscreenenter"",""5"",""42558""
","
","326","","49","","","3000","1","","","images/earth.jpg","images/tutrocket2","images/tutrocket1","null","images/tutrocket1","","1","practice","null","1","","",""
"d3-animate-choice","92","459684","0.0-61.0-1.10","2365","4991","21","Male","false","false","false","false","""event"",""trial"",""time""
""focus"",""1"",""32335""
""fullscreenenter"",""5"",""42558""
","
","""event"",""trial"",""time""
""focus"",""1"",""32335""
","""event"",""trial"",""time""
""fullscreenenter"",""5"",""42558""
","
","610.5999999996275","","48","","","3000","1","","","images/tutyellowplanet.jpg","images/tutalien4","images/tutalien3","images/tutrocket1","images/tutalien4","images/nothing.png","2","practice","true","2","common","0","2022-12-14 05:26:57.433"
"two-step-fixation","93","460692","0.0-61.0-2.10","2365","4991","21","Male","false","false","false","false","""event"",""trial"",""time""
""focus"",""1"",""32335""
""fullscreenenter"",""5"",""42558""
","
","""event"",""trial"",""time""
""focus"",""1"",""32335""
","""event"",""trial"",""time""
""fullscreenenter"",""5"",""42558""
","
","","images/earth.jpg","","","","","","","","","","","","","","fixation","","","","","",""
"d3-animate-choice","94","463008","0.0-61.0-0.11","2365","4991","21","Male","false","false","false","false","""event"",""trial"",""time""
""focus"",""1"",""32335""
""fullscreenenter"",""5"",""42558""
","
","""event"",""trial"",""time""
""focus"",""1"",""32335""
","""event"",""trial"",""time""
""fullscreenenter"",""5"",""42558""
","
","296.59999999962747","","49","","","3000","1","","","images/earth.jpg","images/tutrocket2","images/tutrocket1","null","images/tutrocket1","","1","practice","null","1","","",""
"d3-animate-choice","95","465684","0.0-61.0-1.11","2365","4991","21","Male","false","false","false","false","""event"",""trial"",""time""
""focus"",""1"",""32335""
""fullscreenenter"",""5"",""42558""
","
","""event"",""trial"",""time""
""focus"",""1"",""32335""
","""event"",""trial"",""time""
""fullscreenenter"",""5"",""42558""
","
","669.9000000003725","","49","","","3000","1","","","images/tutgreenplanet.jpg","images/tutalien2","images/tutalien1","images/tutrocket1","images/tutalien1","images/nothing.png","2","practice","false","1","rare","0","2022-12-14 05:27:03.432"
"two-step-fixation","96","466693","0.0-61.0-2.11","2365","4991","21","Male","false","false","false","false","""event"",""trial"",""time""
""focus"",""1"",""32335""
""fullscreenenter"",""5"",""42558""
","
","""event"",""trial"",""time""
""focus"",""1"",""32335""
","""event"",""trial"",""time""
""fullscreenenter"",""5"",""42558""
","
","","images/earth.jpg","","","","","","","","","","","","","","fixation","","","","","",""
"d3-animate-choice","97","470708","0.0-61.0-0.12","2365","4991","21","Male","false","false","false","false","""event"",""trial"",""time""
""focus"",""1"",""32335""
""fullscreenenter"",""5"",""42558""
","
","""event"",""trial"",""time""
""focus"",""1"",""32335""
","""event"",""trial"",""time""
""fullscreenenter"",""5"",""42558""
","
","2225.699999999255","","48","","","3000","1","","","images/earth.jpg","images/tutrocket2","images/tutrocket1","null","images/tutrocket2","","1","practice","null","2","","",""
"d3-animate-choice","98","473659","0.0-61.0-1.12","2365","4991","21","Male","false","false","false","false","""event"",""trial"",""time""
""focus"",""1"",""32335""
""fullscreenenter"",""5"",""42558""
","
","""event"",""trial"",""time""
""focus"",""1"",""32335""
","""event"",""trial"",""time""
""fullscreenenter"",""5"",""42558""
","
","942.0999999996275","","48","","","3000","1","","","images/tutyellowplanet.jpg","images/tutalien4","images/tutalien3","images/tutrocket2","images/tutalien4","images/nothing.png","2","practice","false","2","rare","0","2022-12-14 05:27:11.408"
"two-step-fixation","99","474679","0.0-61.0-2.12","2365","4991","21","Male","false","false","false","false","""event"",""trial"",""time""
""focus"",""1"",""32335""
""fullscreenenter"",""5"",""42558""
","
","""event"",""trial"",""time""
""focus"",""1"",""32335""
","""event"",""trial"",""time""
""fullscreenenter"",""5"",""42558""
","
","","images/earth.jpg","","","","","","","","","","","","","","fixation","","","","","",""
"d3-animate-choice","100","477109","0.0-61.0-0.13","2365","4991","21","Male","false","false","false","false","""event"",""trial"",""time""
""focus"",""1"",""32335""
""fullscreenenter"",""5"",""42558""
","
","""event"",""trial"",""time""
""focus"",""1"",""32335""
","""event"",""trial"",""time""
""fullscreenenter"",""5"",""42558""
","
","416.5","","48","","","3000","1","","","images/earth.jpg","images/tutrocket2","images/tutrocket1","null","images/tutrocket2","","1","practice","null","2","","",""
"d3-animate-choice","101","479779","0.0-61.0-1.13","2365","4991","21","Male","false","false","false","false","""event"",""trial"",""time""
""focus"",""1"",""32335""
""fullscreenenter"",""5"",""42558""
","
","""event"",""trial"",""time""
""focus"",""1"",""32335""
","""event"",""trial"",""time""
""fullscreenenter"",""5"",""42558""
","
","661","","49","","","3000","1","1386.2999999988824","49","images/tutgreenplanet.jpg","images/tutalien2","images/tutalien1","images/tutrocket2","images/tutalien1","images/nothing.png","2","practice","true","1","common","0","2022-12-14 05:27:17.527"
"two-step-fixation","102","480788","0.0-61.0-2.13","2365","4991","21","Male","false","false","false","false","""event"",""trial"",""time""
""focus"",""1"",""32335""
""fullscreenenter"",""5"",""42558""
","
","""event"",""trial"",""time""
""focus"",""1"",""32335""
","""event"",""trial"",""time""
""fullscreenenter"",""5"",""42558""
","
","","images/earth.jpg","","","","","","","","","","","","","","fixation","","","","","",""
"d3-animate-choice","103","483573","0.0-61.0-0.14","2365","4991","21","Male","false","false","false","false","""event"",""trial"",""time""
""focus"",""1"",""32335""
""fullscreenenter"",""5"",""42558""
","
","""event"",""trial"",""time""
""focus"",""1"",""32335""
","""event"",""trial"",""time""
""fullscreenenter"",""5"",""42558""
","
","775.5","","48","","","3000","1","2482","48","images/earth.jpg","images/tutrocket2","images/tutrocket1","null","images/tutrocket2","","1","practice","null","2","","",""
"d3-animate-choice","104","486724","0.0-61.0-1.14","2365","4991","21","Male","false","false","false","false","""event"",""trial"",""time""
""focus"",""1"",""32335""
""fullscreenenter"",""5"",""42558""
","
","""event"",""trial"",""time""
""focus"",""1"",""32335""
","""event"",""trial"",""time""
""fullscreenenter"",""5"",""42558""
","
","1141.5999999996275","","48","","","3000","1","","","images/tutgreenplanet.jpg","images/tutalien2","images/tutalien1","images/tutrocket2","images/tutalien2","images/t.png","2","practice","true","2","common","1","2022-12-14 05:27:24.472"
"two-step-fixation","105","487732","0.0-61.0-2.14","2365","4991","21","Male","false","false","false","false","""event"",""trial"",""time""
""focus"",""1"",""32335""
""fullscreenenter"",""5"",""42558""
","
","""event"",""trial"",""time""
""focus"",""1"",""32335""
","""event"",""trial"",""time""
""fullscreenenter"",""5"",""42558""
","
","","images/earth.jpg","","","","","","","","","","","","","","fixation","","","","","",""
"d3-animate-choice","106","491748","0.0-61.0-0.15","2365","4991","21","Male","false","false","false","false","""event"",""trial"",""time""
""focus"",""1"",""32335""
""fullscreenenter"",""5"",""42558""
","
","""event"",""trial"",""time""
""focus"",""1"",""32335""
","""event"",""trial"",""time""
""fullscreenenter"",""5"",""42558""
","
","2441.7999999988824","","48","","","3000","1","3637,3819.2999999988824","49,49","images/earth.jpg","images/tutrocket2","images/tutrocket1","null","images/tutrocket2","","1","practice","null","2","","",""
"d3-animate-choice","107","493960","0.0-61.0-1.15","2365","4991","21","Male","false","false","false","false","""event"",""trial"",""time""
""focus"",""1"",""32335""
""fullscreenenter"",""5"",""42558""
","
","""event"",""trial"",""time""
""focus"",""1"",""32335""
","""event"",""trial"",""time""
""fullscreenenter"",""5"",""42558""
","
","202.09999999962747","","49","","","3000","1","2138.699999999255","48","images/tutgreenplanet.jpg","images/tutalien2","images/tutalien1","images/tutrocket2","images/tutalien1","images/nothing.png","2","practice","true","1","common","0","2022-12-14 05:27:31.708"
"two-step-fixation","108","494972","0.0-61.0-2.15","2365","4991","21","Male","false","false","false","false","""event"",""trial"",""time""
""focus"",""1"",""32335""
""fullscreenenter"",""5"",""42558""
","
","""event"",""trial"",""time""
""focus"",""1"",""32335""
","""event"",""trial"",""time""
""fullscreenenter"",""5"",""42558""
","
","","images/earth.jpg","","","","","","","","","","","","","","fixation","","","","","",""
"d3-animate-choice","109","498996","0.0-61.0-0.16","2365","4991","21","Male","false","false","false","false","""event"",""trial"",""time""
""focus"",""1"",""32335""
""fullscreenenter"",""5"",""42558""
","
","""event"",""trial"",""time""
""focus"",""1"",""32335""
","""event"",""trial"",""time""
""fullscreenenter"",""5"",""42558""
","
","3327.699999999255","","48","","","3000","0","","","images/earth.jpg","images/tutrocket2","images/tutrocket1","null","","","1","practice","null","2","","",""
"d3-animate-choice","110","500004","0.0-61.0-1.16","2365","4991","21","Male","false","false","false","false","""event"",""trial"",""time""
""focus"",""1"",""32335""
""fullscreenenter"",""5"",""42558""
","
","""event"",""trial"",""time""
""focus"",""1"",""32335""
","""event"",""trial"",""time""
""fullscreenenter"",""5"",""42558""
","
","135.19999999925494","","32","","","0","0","411.5","48","images/earth.jpg","images/tutrocket2","images/tutrocket1","null","","","2","practice","null","","","0","2022-12-14 05:27:37.752"
"two-step-fixation","111","501012","0.0-61.0-2.16","2365","4991","21","Male","false","false","false","false","""event"",""trial"",""time""
""focus"",""1"",""32335""
""fullscreenenter"",""5"",""42558""
","
","""event"",""trial"",""time""
""focus"",""1"",""32335""
","""event"",""trial"",""time""
""fullscreenenter"",""5"",""42558""
","
","","images/earth.jpg","","","","","","","","","","","","","","fixation","","","","","",""
"d3-animate-choice","112","503567","0.0-61.0-0.17","2365","4991","21","Male","false","false","false","false","""event"",""trial"",""time""
""focus"",""1"",""32335""
""fullscreenenter"",""5"",""42558""
","
","""event"",""trial"",""time""
""focus"",""1"",""32335""
","""event"",""trial"",""time""
""fullscreenenter"",""5"",""42558""
","
","542.5999999996275","","48","","","3000","1","","","images/earth.jpg","images/tutrocket2","images/tutrocket1","null","images/tutrocket2","","1","practice","null","2","","",""
"d3-animate-choice","113","506931","0.0-61.0-1.17","2365","4991","21","Male","false","false","false","false","""event"",""trial"",""time""
""focus"",""1"",""32335""
""fullscreenenter"",""5"",""42558""
","
","""event"",""trial"",""time""
""focus"",""1"",""32335""
","""event"",""trial"",""time""
""fullscreenenter"",""5"",""42558""
","
","1360.0999999996275","","49","","","3000","1","","","images/tutgreenplanet.jpg","images/tutalien2","images/tutalien1","images/tutrocket2","images/tutalien1","images/nothing.png","2","practice","true","1","common","0","2022-12-14 05:27:44.679"
"two-step-fixation","114","507941","0.0-61.0-2.17","2365","4991","21","Male","false","false","false","false","""event"",""trial"",""time""
""focus"",""1"",""32335""
""fullscreenenter"",""5"",""42558""
","
","""event"",""trial"",""time""
""focus"",""1"",""32335""
","""event"",""trial"",""time""
""fullscreenenter"",""5"",""42558""
","
","","images/earth.jpg","","","","","","","","","","","","","","fixation","","","","","",""
"d3-animate-choice","115","510413","0.0-61.0-0.18","2365","4991","21","Male","false","false","false","false","""event"",""trial"",""time""
""focus"",""1"",""32335""
""fullscreenenter"",""5"",""42558""
","
","""event"",""trial"",""time""
""focus"",""1"",""32335""
","""event"",""trial"",""time""
""fullscreenenter"",""5"",""42558""
","
","462.19999999925494","","48","","","3000","1","","","images/earth.jpg","images/tutrocket2","images/tutrocket1","null","images/tutrocket2","","1","practice","null","2","","",""
"d3-animate-choice","116","513924","0.0-61.0-1.18","2365","4991","21","Male","false","false","false","false","""event"",""trial"",""time""
""focus"",""1"",""32335""
""fullscreenenter"",""5"",""42558""
","
","""event"",""trial"",""time""
""focus"",""1"",""32335""
","""event"",""trial"",""time""
""fullscreenenter"",""5"",""42558""
","
","1502.699999999255","","48","","","3000","1","","","images/tutgreenplanet.jpg","images/tutalien2","images/tutalien1","images/tutrocket2","images/tutalien2","images/nothing.png","2","practice","true","2","common","0","2022-12-14 05:27:51.672"
"two-step-fixation","117","514932","0.0-61.0-2.18","2365","4991","21","Male","false","false","false","false","""event"",""trial"",""time""
""focus"",""1"",""32335""
""fullscreenenter"",""5"",""42558""
","
","""event"",""trial"",""time""
""focus"",""1"",""32335""
","""event"",""trial"",""time""
""fullscreenenter"",""5"",""42558""
","
","","images/earth.jpg","","","","","","","","","","","","","","fixation","","","","","",""
"d3-animate-choice","118","517564","0.0-61.0-0.19","2365","4991","21","Male","false","false","false","false","""event"",""trial"",""time""
""focus"",""1"",""32335""
""fullscreenenter"",""5"",""42558""
","
","""event"",""trial"",""time""
""focus"",""1"",""32335""
","""event"",""trial"",""time""
""fullscreenenter"",""5"",""42558""
","
","620.7000000011176","","49","","","3000","1","","","images/earth.jpg","images/tutrocket2","images/tutrocket1","null","images/tutrocket1","","1","practice","null","1","","",""
"d3-animate-choice","119","520009","0.0-61.0-1.19","2365","4991","21","Male","false","false","false","false","""event"",""trial"",""time""
""focus"",""1"",""32335""
""fullscreenenter"",""5"",""42558""
","
","""event"",""trial"",""time""
""focus"",""1"",""32335""
","""event"",""trial"",""time""
""fullscreenenter"",""5"",""42558""
","
","425","","48","","","3000","1","","","images/tutyellowplanet.jpg","images/tutalien4","images/tutalien3","images/tutrocket1","images/tutalien4","images/t.png","2","practice","true","2","common","1","2022-12-14 05:27:57.757"
"two-step-fixation","120","521013","0.0-61.0-2.19","2365","4991","21","Male","false","false","false","false","""event"",""trial"",""time""
""focus"",""1"",""32335""
""fullscreenenter"",""5"",""42558""
","
","""event"",""trial"",""time""
""focus"",""1"",""32335""
","""event"",""trial"",""time""
""fullscreenenter"",""5"",""42558""
","
","","images/earth.jpg","","","","","","","","","","","","","","fixation","","","","","",""
"d3-instructions","121","525744","0.0-62.0","2365","4991","21","Male","false","false","false","false","""event"",""trial"",""time""
""focus"",""1"",""32335""
""fullscreenenter"",""5"",""42558""
","
","""event"",""trial"",""time""
""focus"",""1"",""32335""
","""event"",""trial"",""time""
""fullscreenenter"",""5"",""42558""
","
","","","","","","","","","","","","","","","","","","","","","",""
"audio-keyboard-response","122","531067","0.0-63.0","2365","4991","21","Male","false","false","false","false","""event"",""trial"",""time""
""focus"",""1"",""32335""
""fullscreenenter"",""5"",""42558""
","
","""event"",""trial"",""time""
""focus"",""1"",""32335""
","""event"",""trial"",""time""
""fullscreenenter"",""5"",""42558""
","
","5320","audio/instructions/treasure_feedback.wav","32","","","","","","","","","","","","","","","","","","",""
"d3-instructions","123","552953","0.0-64.0","2365","4991","21","Male","false","false","false","false","""event"",""trial"",""time""
""focus"",""1"",""32335""
""fullscreenenter"",""5"",""42558""
","
","""event"",""trial"",""time""
""focus"",""1"",""32335""
","""event"",""trial"",""time""
""fullscreenenter"",""5"",""42558""
","
","","","","","","","","","","","","","","","","","","","","","",""
"d3-instructions","124","568001","0.0-65.0","2365","4991","21","Male","false","false","false","false","""event"",""trial"",""time""
""focus"",""1"",""32335""
""fullscreenenter"",""5"",""42558""
","
","""event"",""trial"",""time""
""focus"",""1"",""32335""
","""event"",""trial"",""time""
""fullscreenenter"",""5"",""42558""
","
","","","","","","","","","","","","","","","","","","","","","",""
"d3-instructions","125","595111","0.0-66.0","2365","4991","21","Male","false","false","false","false","""event"",""trial"",""time""
""focus"",""1"",""32335""
""fullscreenenter"",""5"",""42558""
","
","""event"",""trial"",""time""
""focus"",""1"",""32335""
","""event"",""trial"",""time""
""fullscreenenter"",""5"",""42558""
","
","","","","","","","","","","","","","","","","","","","","","",""
"d3-instructions","126","614564","0.0-67.0","2365","4991","21","Male","false","false","false","false","""event"",""trial"",""time""
""focus"",""1"",""32335""
""fullscreenenter"",""5"",""42558""
","
","""event"",""trial"",""time""
""focus"",""1"",""32335""
","""event"",""trial"",""time""
""fullscreenenter"",""5"",""42558""
","
","","","","","","","","","","","","","","","","","","","","","",""
"d3-instructions","127","617009","0.0-68.0","2365","4991","21","Male","false","false","false","false","""event"",""trial"",""time""
""focus"",""1"",""32335""
""fullscreenenter"",""5"",""42558""
","
","""event"",""trial"",""time""
""focus"",""1"",""32335""
","""event"",""trial"",""time""
""fullscreenenter"",""5"",""42558""
","
","","","","","","","","","","","","","","","","","","","","","",""
"instructions-quiz","128","621603","0.0-69.0","2365","4991","21","Male","false","false","false","false","""event"",""trial"",""time""
""focus"",""1"",""32335""
""fullscreenenter"",""5"",""42558""
","
","""event"",""trial"",""time""
""focus"",""1"",""32335""
","""event"",""trial"",""time""
""fullscreenenter"",""5"",""42558""
","
","4588.10000000149","audio/quiz/Q1_Prompt.wav","","1","","","","","","","","","","","","","","","","","",""
"audio-keyboard-response","129","630771","0.0-70.0","2365","4991","21","Male","false","false","false","false","""event"",""trial"",""time""
""focus"",""1"",""32335""
""fullscreenenter"",""5"",""42558""
","
","""event"",""trial"",""time""
""focus"",""1"",""32335""
","""event"",""trial"",""time""
""fullscreenenter"",""5"",""42558""
","
","null","audio/quiz/Q1_Correct.wav","null","","","","","","","","","","","","","","","","","","",""
"instructions-quiz","130","635423","0.0-71.0","2365","4991","21","Male","false","false","false","false","""event"",""trial"",""time""
""focus"",""1"",""32335""
""fullscreenenter"",""5"",""42558""
","
","""event"",""trial"",""time""
""focus"",""1"",""32335""
","""event"",""trial"",""time""
""fullscreenenter"",""5"",""42558""
","
","4649.9000000003725","audio/quiz/Q2_Prompt.wav","","1","","","","","","","","","","","","","","","","","",""
"audio-keyboard-response","131","637126","0.0-72.0","2365","4991","21","Male","false","false","false","false","""event"",""trial"",""time""
""focus"",""1"",""32335""
""fullscreenenter"",""5"",""42558""
","
","""event"",""trial"",""time""
""focus"",""1"",""32335""
","""event"",""trial"",""time""
""fullscreenenter"",""5"",""42558""
","
","1701","audio/quiz/Q2_Incorrect.wav","32","","","","","","","","","","","","","","","","","","",""
"instructions-quiz","132","639223","0.0-73.0","2365","4991","21","Male","false","false","false","false","""event"",""trial"",""time""
""focus"",""1"",""32335""
""fullscreenenter"",""5"",""42558""
","
","""event"",""trial"",""time""
""focus"",""1"",""32335""
","""event"",""trial"",""time""
""fullscreenenter"",""5"",""42558""
","
","2095.5","audio/quiz/Q3_Prompt.wav","","1","","","","","","","","","","","","","","","","","",""
"audio-keyboard-response","133","639756","0.0-74.0","2365","4991","21","Male","false","false","false","false","""event"",""trial"",""time""
""focus"",""1"",""32335""
""fullscreenenter"",""5"",""42558""
","
","""event"",""trial"",""time""
""focus"",""1"",""32335""
","""event"",""trial"",""time""
""fullscreenenter"",""5"",""42558""
","
","531","audio/quiz/Q3_Correct.wav","32","","","","","","","","","","","","","","","","","","",""
"d3-instructions","134","641605","0.0-75.0","2365","4991","21","Male","false","false","false","false","""event"",""trial"",""time""
""focus"",""1"",""32335""
""fullscreenenter"",""5"",""42558""
","
","""event"",""trial"",""time""
""focus"",""1"",""32335""
","""event"",""trial"",""time""
""fullscreenenter"",""5"",""42558""
","
","","","","","","","","","","","","","","","","","","","","","",""
"d3-animate-choice","135","644155","0.0-76.0-0.0","2365","4991","21","Male","false","false","false","false","""event"",""trial"",""time""
""focus"",""1"",""32335""
""fullscreenenter"",""5"",""42558""
","
","""event"",""trial"",""time""
""focus"",""1"",""32335""
","""event"",""trial"",""time""
""fullscreenenter"",""5"",""42558""
","
","540.8000000007451","","49","","","3000","1","","","images/earth.jpg","images/rocket1","images/rocket2","null","images/rocket2","","1","real","null","1","","",""
"d3-animate-choice","136","646789","0.0-76.0-1.0","2365","4991","21","Male","false","false","false","false","""event"",""trial"",""time""
""focus"",""1"",""32335""
""fullscreenenter"",""5"",""42558""
","
","""event"",""trial"",""time""
""focus"",""1"",""32335""
","""event"",""trial"",""time""
""fullscreenenter"",""5"",""42558""
","
","624.7000000011176","","48","","","3000","1","","","images/purpleplanet.jpg","images/alien4","images/alien3","images/rocket2","images/alien4","images/t.png","2","real","false","2","rare","1","2022-12-14 05:30:04.537"
"two-step-fixation","137","647802","0.0-76.0-2.0","2365","4991","21","Male","false","false","false","false","""event"",""trial"",""time""
""focus"",""1"",""32335""
""fullscreenenter"",""5"",""42558""
","
","""event"",""trial"",""time""
""focus"",""1"",""32335""
","""event"",""trial"",""time""
""fullscreenenter"",""5"",""42558""
","
","","images/earth.jpg","","","","","","","","","","","","","","fixation","","","","","",""
"d3-animate-choice","138","650051","0.0-76.0-0.1","2365","4991","21","Male","false","false","false","false","""event"",""trial"",""time""
""focus"",""1"",""32335""
""fullscreenenter"",""5"",""42558""
","
","""event"",""trial"",""time""
""focus"",""1"",""32335""
","""event"",""trial"",""time""
""fullscreenenter"",""5"",""42558""
","
","237.40000000037253","","49","","","3000","1","","","images/earth.jpg","images/rocket1","images/rocket2","null","images/rocket2","","1","real","null","1","","",""
"d3-animate-choice","139","652998","0.0-76.0-1.1","2365","4991","21","Male","false","false","false","false","""event"",""trial"",""time""
""focus"",""1"",""32335""
""fullscreenenter"",""5"",""42558""
","
","""event"",""trial"",""time""
""focus"",""1"",""32335""
","""event"",""trial"",""time""
""fullscreenenter"",""5"",""42558""
","
","936.5999999996275","","49","","","3000","1","","","images/redplanet1.jpg","images/alien2","images/alien1","images/rocket2","images/alien1","images/nothing.png","2","real","true","1","common","0","2022-12-14 05:30:10.747"
"two-step-fixation","140","654017","0.0-76.0-2.1","2365","4991","21","Male","false","false","false","false","""event"",""trial"",""time""
""focus"",""1"",""32335""
""fullscreenenter"",""5"",""42558""
","
","""event"",""trial"",""time""
""focus"",""1"",""32335""
","""event"",""trial"",""time""
""fullscreenenter"",""5"",""42558""
","
","","images/earth.jpg","","","","","","","","","","","","","","fixation","","","","","",""
"d3-animate-choice","141","656396","0.0-76.0-0.2","2365","4991","21","Male","false","false","false","false","""event"",""trial"",""time""
""focus"",""1"",""32335""
""fullscreenenter"",""5"",""42558""
","
","""event"",""trial"",""time""
""focus"",""1"",""32335""
","""event"",""trial"",""time""
""fullscreenenter"",""5"",""42558""
","
","369.5","","48","","","3000","1","","","images/earth.jpg","images/rocket1","images/rocket2","null","images/rocket1","","1","real","null","2","","",""
"d3-animate-choice","142","659257","0.0-76.0-1.2","2365","4991","21","Male","false","false","false","false","""event"",""trial"",""time""
""focus"",""1"",""32335""
""fullscreenenter"",""5"",""42558""
","
","""event"",""trial"",""time""
""focus"",""1"",""32335""
","""event"",""trial"",""time""
""fullscreenenter"",""5"",""42558""
","
","850.0999999996275","","48","","","3000","1","","","images/redplanet1.jpg","images/alien2","images/alien1","images/rocket1","images/alien2","images/t.png","2","real","false","2","rare","1","2022-12-14 05:30:17.006"
"two-step-fixation","143","660272","0.0-76.0-2.2","2365","4991","21","Male","false","false","false","false","""event"",""trial"",""time""
""focus"",""1"",""32335""
""fullscreenenter"",""5"",""42558""
","
","""event"",""trial"",""time""
""focus"",""1"",""32335""
","""event"",""trial"",""time""
""fullscreenenter"",""5"",""42558""
","
","","images/earth.jpg","","","","","","","","","","","","","","fixation","","","","","",""
"d3-animate-choice","144","662554","0.0-76.0-0.3","2365","4991","21","Male","false","false","false","false","""event"",""trial"",""time""
""focus"",""1"",""32335""
""fullscreenenter"",""5"",""42558""
","
","""event"",""trial"",""time""
""focus"",""1"",""32335""
","""event"",""trial"",""time""
""fullscreenenter"",""5"",""42558""
","
","266.30000000074506","","48","","","3000","1","","","images/earth.jpg","images/rocket1","images/rocket2","null","images/rocket1","","1","real","null","2","","",""
"d3-animate-choice","145","665741","0.0-76.0-1.3","2365","4991","21","Male","false","false","false","false","""event"",""trial"",""time""
""focus"",""1"",""32335""
""fullscreenenter"",""5"",""42558""
","
","""event"",""trial"",""time""
""focus"",""1"",""32335""
","""event"",""trial"",""time""
""fullscreenenter"",""5"",""42558""
","
","1176.8999999985099","","49","","","3000","1","","","images/purpleplanet.jpg","images/alien4","images/alien3","images/rocket1","images/alien3","images/nothing.png","2","real","true","1","common","0","2022-12-14 05:30:23.489"
"two-step-fixation","146","666758","0.0-76.0-2.3","2365","4991","21","Male","false","false","false","false","""event"",""trial"",""time""
""focus"",""1"",""32335""
""fullscreenenter"",""5"",""42558""
","
","""event"",""trial"",""time""
""focus"",""1"",""32335""
","""event"",""trial"",""time""
""fullscreenenter"",""5"",""42558""
","
","","images/earth.jpg","","","","","","","","","","","","","","fixation","","","","","",""
"d3-animate-choice","147","669205","0.0-76.0-0.4","2365","4991","21","Male","false","false","false","false","""event"",""trial"",""time""
""focus"",""1"",""32335""
""fullscreenenter"",""5"",""42558""
","
","""event"",""trial"",""time""
""focus"",""1"",""32335""
","""event"",""trial"",""time""
""fullscreenenter"",""5"",""42558""
","
","434.40000000037253","","48","","","3000","1","","","images/earth.jpg","images/rocket1","images/rocket2","null","images/rocket1","","1","real","null","2","","",""
"d3-animate-choice","148","671757","0.0-76.0-1.4","2365","4991","21","Male","false","false","false","false","""event"",""trial"",""time""
""focus"",""1"",""32335""
""fullscreenenter"",""5"",""42558""
","
","""event"",""trial"",""time""
""focus"",""1"",""32335""
","""event"",""trial"",""time""
""fullscreenenter"",""5"",""42558""
","
","543","","48","","","3000","1","","","images/redplanet1.jpg","images/alien2","images/alien1","images/rocket1","images/alien2","images/t.png","2","real","false","2","rare","1","2022-12-14 05:30:29.505"
"two-step-fixation","149","672775","0.0-76.0-2.4","2365","4991","21","Male","false","false","false","false","""event"",""trial"",""time""
""focus"",""1"",""32335""
""fullscreenenter"",""5"",""42558""
","
","""event"",""trial"",""time""
""focus"",""1"",""32335""
","""event"",""trial"",""time""
""fullscreenenter"",""5"",""42558""
","
","","images/earth.jpg","","","","","","","","","","","","","","fixation","","","","","",""
"d3-animate-choice","150","674829","0.0-76.0-0.5","2365","4991","21","Male","false","false","false","false","""event"",""trial"",""time""
""focus"",""1"",""32335""
""fullscreenenter"",""5"",""42558""
","
","""event"",""trial"",""time""
""focus"",""1"",""32335""
","""event"",""trial"",""time""
""fullscreenenter"",""5"",""42558""
","
","46.59999999962747","","49","","","3000","1","","","images/earth.jpg","images/rocket1","images/rocket2","null","images/rocket2","","1","real","null","1","","",""
"d3-animate-choice","151","678001","0.0-76.0-1.5","2365","4991","21","Male","false","false","false","false","""event"",""trial"",""time""
""focus"",""1"",""32335""
""fullscreenenter"",""5"",""42558""
","
","""event"",""trial"",""time""
""focus"",""1"",""32335""
","""event"",""trial"",""time""
""fullscreenenter"",""5"",""42558""
","
","1149.300000000745","","48","","","3000","1","","","images/purpleplanet.jpg","images/alien4","images/alien3","images/rocket2","images/alien4","images/nothing.png","2","real","false","2","rare","0","2022-12-14 05:30:35.749"
"two-step-fixation","152","679013","0.0-76.0-2.5","2365","4991","21","Male","false","false","false","false","""event"",""trial"",""time""
""focus"",""1"",""32335""
""fullscreenenter"",""5"",""42558""
","
","""event"",""trial"",""time""
""focus"",""1"",""32335""
","""event"",""trial"",""time""
""fullscreenenter"",""5"",""42558""
","
","","images/earth.jpg","","","","","","","","","","","","","","fixation","","","","","",""
"d3-animate-choice","153","681204","0.0-76.0-0.6","2365","4991","21","Male","false","false","false","false","""event"",""trial"",""time""
""focus"",""1"",""32335""
""fullscreenenter"",""5"",""42558""
","
","""event"",""trial"",""time""
""focus"",""1"",""32335""
","""event"",""trial"",""time""
""fullscreenenter"",""5"",""42558""
","
","180.7000000011176","","48","","","3000","1","","","images/earth.jpg","images/rocket1","images/rocket2","null","images/rocket1","","1","real","null","2","","",""
"d3-animate-choice","154","683652","0.0-76.0-1.6","2365","4991","21","Male","false","false","false","false","""event"",""trial"",""time""
""focus"",""1"",""32335""
""fullscreenenter"",""5"",""42558""
","
","""event"",""trial"",""time""
""focus"",""1"",""32335""
","""event"",""trial"",""time""
""fullscreenenter"",""5"",""42558""
","
","437","","48","","","3000","1","","","images/redplanet1.jpg","images/alien2","images/alien1","images/rocket1","images/alien2","images/t.png","2","real","false","2","rare","1","2022-12-14 05:30:41.401"
"two-step-fixation","155","684661","0.0-76.0-2.6","2365","4991","21","Male","false","false","false","false","""event"",""trial"",""time""
""focus"",""1"",""32335""
""fullscreenenter"",""5"",""42558""
","
","""event"",""trial"",""time""
""focus"",""1"",""32335""
","""event"",""trial"",""time""
""fullscreenenter"",""5"",""42558""
","
","","images/earth.jpg","","","","","","","","","","","","","","fixation","","","","","",""
"d3-animate-choice","156","686885","0.0-76.0-0.7","2365","4991","21","Male","false","false","false","false","""event"",""trial"",""time""
""focus"",""1"",""32335""
""fullscreenenter"",""5"",""42558""
","
","""event"",""trial"",""time""
""focus"",""1"",""32335""
","""event"",""trial"",""time""
""fullscreenenter"",""5"",""42558""
","
","215.90000000037253","","48","","","3000","1","","","images/earth.jpg","images/rocket1","images/rocket2","null","images/rocket1","","1","real","null","2","","",""
"d3-animate-choice","157","689292","0.0-76.0-1.7","2365","4991","21","Male","false","false","false","false","""event"",""trial"",""time""
""focus"",""1"",""32335""
""fullscreenenter"",""5"",""42558""
","
","""event"",""trial"",""time""
""focus"",""1"",""32335""
","""event"",""trial"",""time""
""fullscreenenter"",""5"",""42558""
","
","398","","48","","","3000","1","","","images/redplanet1.jpg","images/alien2","images/alien1","images/rocket1","images/alien2","images/t.png","2","real","false","2","rare","1","2022-12-14 05:30:47.040"
"two-step-fixation","158","690301","0.0-76.0-2.7","2365","4991","21","Male","false","false","false","false","""event"",""trial"",""time""
""focus"",""1"",""32335""
""fullscreenenter"",""5"",""42558""
","
","""event"",""trial"",""time""
""focus"",""1"",""32335""
","""event"",""trial"",""time""
""fullscreenenter"",""5"",""42558""
","
","","images/earth.jpg","","","","","","","","","","","","","","fixation","","","","","",""
"d3-animate-choice","159","692630","0.0-76.0-0.8","2365","4991","21","Male","false","false","false","false","""event"",""trial"",""time""
""focus"",""1"",""32335""
""fullscreenenter"",""5"",""42558""
","
","""event"",""trial"",""time""
""focus"",""1"",""32335""
","""event"",""trial"",""time""
""fullscreenenter"",""5"",""42558""
","
","320.2999999988824","","48","","","3000","1","","","images/earth.jpg","images/rocket1","images/rocket2","null","images/rocket1","","1","real","null","2","","",""
"d3-animate-choice","160","694748","0.0-76.0-1.8","2365","4991","21","Male","false","false","false","false","""event"",""trial"",""time""
""focus"",""1"",""32335""
""fullscreenenter"",""5"",""42558""
","
","""event"",""trial"",""time""
""focus"",""1"",""32335""
","""event"",""trial"",""time""
""fullscreenenter"",""5"",""42558""
","
","109.5","","48","","","3000","1","","","images/redplanet1.jpg","images/alien2","images/alien1","images/rocket1","images/alien2","images/t.png","2","real","false","2","rare","1","2022-12-14 05:30:52.496"
"two-step-fixation","161","695757","0.0-76.0-2.8","2365","4991","21","Male","false","false","false","false","""event"",""trial"",""time""
""focus"",""1"",""32335""
""fullscreenenter"",""5"",""42558""
","
","""event"",""trial"",""time""
""focus"",""1"",""32335""
","""event"",""trial"",""time""
""fullscreenenter"",""5"",""42558""
","
","","images/earth.jpg","","","","","","","","","","","","","","fixation","","","","","",""
"d3-animate-choice","162","697852","0.0-76.0-0.9","2365","4991","21","Male","false","false","false","false","""event"",""trial"",""time""
""focus"",""1"",""32335""
""fullscreenenter"",""5"",""42558""
","
","""event"",""trial"",""time""
""focus"",""1"",""32335""
","""event"",""trial"",""time""
""fullscreenenter"",""5"",""42558""
","
","83.29999999888241","","48","","","3000","1","","","images/earth.jpg","images/rocket1","images/rocket2","null","images/rocket1","","1","real","null","2","","",""
"d3-animate-choice","163","700358","0.0-76.0-1.9","2365","4991","21","Male","false","false","false","false","""event"",""trial"",""time""
""focus"",""1"",""32335""
""fullscreenenter"",""5"",""42558""
","
","""event"",""trial"",""time""
""focus"",""1"",""32335""
","""event"",""trial"",""time""
""fullscreenenter"",""5"",""42558""
","
","498.19999999925494","","48","","","3000","1","","","images/redplanet1.jpg","images/alien2","images/alien1","images/rocket1","images/alien2","images/t.png","2","real","false","2","rare","1","2022-12-14 05:30:58.106"
"two-step-fixation","164","701364","0.0-76.0-2.9","2365","4991","21","Male","false","false","false","false","""event"",""trial"",""time""
""focus"",""1"",""32335""
""fullscreenenter"",""5"",""42558""
","
","""event"",""trial"",""time""
""focus"",""1"",""32335""
","""event"",""trial"",""time""
""fullscreenenter"",""5"",""42558""
","
","","images/earth.jpg","","","","","","","","","","","","","","fixation","","","","","",""
"d3-animate-choice","165","703660","0.0-76.0-0.10","2365","4991","21","Male","false","false","false","false","""event"",""trial"",""time""
""focus"",""1"",""32335""
""fullscreenenter"",""5"",""42558""
","
","""event"",""trial"",""time""
""focus"",""1"",""32335""
","""event"",""trial"",""time""
""fullscreenenter"",""5"",""42558""
","
","289.59999999962747","","48","","","3000","1","","","images/earth.jpg","images/rocket1","images/rocket2","null","images/rocket1","","1","real","null","2","","",""
"d3-animate-choice","166","705957","0.0-76.0-1.10","2365","4991","21","Male","false","false","false","false","""event"",""trial"",""time""
""focus"",""1"",""32335""
""fullscreenenter"",""5"",""42558""
","
","""event"",""trial"",""time""
""focus"",""1"",""32335""
","""event"",""trial"",""time""
""fullscreenenter"",""5"",""42558""
","
","287.69999999925494","","48","","","3000","1","","","images/purpleplanet.jpg","images/alien4","images/alien3","images/rocket1","images/alien4","images/t.png","2","real","true","2","common","1","2022-12-14 05:31:03.705"
"two-step-fixation","167","706965","0.0-76.0-2.10","2365","4991","21","Male","false","false","false","false","""event"",""trial"",""time""
""focus"",""1"",""32335""
""fullscreenenter"",""5"",""42558""
","
","""event"",""trial"",""time""
""focus"",""1"",""32335""
","""event"",""trial"",""time""
""fullscreenenter"",""5"",""42558""
","
","","images/earth.jpg","","","","","","","","","","","","","","fixation","","","","","",""
"d3-animate-choice","168","709276","0.0-76.0-0.11","2365","4991","21","Male","false","false","false","false","""event"",""trial"",""time""
""focus"",""1"",""32335""
""fullscreenenter"",""5"",""42558""
","
","""event"",""trial"",""time""
""focus"",""1"",""32335""
","""event"",""trial"",""time""
""fullscreenenter"",""5"",""42558""
","
","300.19999999925494","","48","","","3000","1","","","images/earth.jpg","images/rocket1","images/rocket2","null","images/rocket1","","1","real","null","2","","",""
"d3-animate-choice","169","711611","0.0-76.0-1.11","2365","4991","21","Male","false","false","false","false","""event"",""trial"",""time""
""focus"",""1"",""32335""
""fullscreenenter"",""5"",""42558""
","
","""event"",""trial"",""time""
""focus"",""1"",""32335""
","""event"",""trial"",""time""
""fullscreenenter"",""5"",""42558""
","
","325.7000000011176","","48","","","3000","1","","","images/redplanet1.jpg","images/alien2","images/alien1","images/rocket1","images/alien2","images/t.png","2","real","false","2","rare","1","2022-12-14 05:31:09.359"
"two-step-fixation","170","712621","0.0-76.0-2.11","2365","4991","21","Male","false","false","false","false","""event"",""trial"",""time""
""focus"",""1"",""32335""
""fullscreenenter"",""5"",""42558""
","
","""event"",""trial"",""time""
""focus"",""1"",""32335""
","""event"",""trial"",""time""
""fullscreenenter"",""5"",""42558""
","
","","images/earth.jpg","","","","","","","","","","","","","","fixation","","","","","",""
"d3-animate-choice","171","715222","0.0-76.0-0.12","2365","4991","21","Male","false","false","false","false","""event"",""trial"",""time""
""focus"",""1"",""32335""
""fullscreenenter"",""5"",""42558""
","
","""event"",""trial"",""time""
""focus"",""1"",""32335""
","""event"",""trial"",""time""
""fullscreenenter"",""5"",""42558""
","
","586.3000000007451","","49","","","3000","1","","","images/earth.jpg","images/rocket1","images/rocket2","null","images/rocket2","","1","real","null","1","","",""
"d3-animate-choice","172","717865","0.0-76.0-1.12","2365","4991","21","Male","false","false","false","false","""event"",""trial"",""time""
""focus"",""1"",""32335""
""fullscreenenter"",""5"",""42558""
","
","""event"",""trial"",""time""
""focus"",""1"",""32335""
","""event"",""trial"",""time""
""fullscreenenter"",""5"",""42558""
","
","637.9000000003725","","48","","","3000","1","","","images/redplanet1.jpg","images/alien2","images/alien1","images/rocket2","images/alien2","images/t.png","2","real","true","2","common","1","2022-12-14 05:31:15.613"
"two-step-fixation","173","718876","0.0-76.0-2.12","2365","4991","21","Male","false","false","false","false","""event"",""trial"",""time""
""focus"",""1"",""32335""
""fullscreenenter"",""5"",""42558""
","
","""event"",""trial"",""time""
""focus"",""1"",""32335""
","""event"",""trial"",""time""
""fullscreenenter"",""5"",""42558""
","
","","images/earth.jpg","","","","","","","","","","","","","","fixation","","","","","",""
"d3-animate-choice","174","721020","0.0-76.0-0.13","2365","4991","21","Male","false","false","false","false","""event"",""trial"",""time""
""focus"",""1"",""32335""
""fullscreenenter"",""5"",""42558""
","
","""event"",""trial"",""time""
""focus"",""1"",""32335""
","""event"",""trial"",""time""
""fullscreenenter"",""5"",""42558""
","
","131.09999999962747","","49","","","3000","1","","","images/earth.jpg","images/rocket1","images/rocket2","null","images/rocket2","","1","real","null","1","","",""
"d3-animate-choice","175","723388","0.0-76.0-1.13","2365","4991","21","Male","false","false","false","false","""event"",""trial"",""time""
""focus"",""1"",""32335""
""fullscreenenter"",""5"",""42558""
","
","""event"",""trial"",""time""
""focus"",""1"",""32335""
","""event"",""trial"",""time""
""fullscreenenter"",""5"",""42558""
","
","356.90000000037253","","48","","","3000","1","","","images/redplanet1.jpg","images/alien2","images/alien1","images/rocket2","images/alien2","images/t.png","2","real","true","2","common","1","2022-12-14 05:31:21.136"
"two-step-fixation","176","724395","0.0-76.0-2.13","2365","4991","21","Male","false","false","false","false","""event"",""trial"",""time""
""focus"",""1"",""32335""
""fullscreenenter"",""5"",""42558""
","
","""event"",""trial"",""time""
""focus"",""1"",""32335""
","""event"",""trial"",""time""
""fullscreenenter"",""5"",""42558""
","
","","images/earth.jpg","","","","","","","","","","","","","","fixation","","","","","",""
"d3-animate-choice","177","726661","0.0-76.0-0.14","2365","4991","21","Male","false","false","false","false","""event"",""trial"",""time""
""focus"",""1"",""32335""
""fullscreenenter"",""5"",""42558""
","
","""event"",""trial"",""time""
""focus"",""1"",""32335""
","""event"",""trial"",""time""
""fullscreenenter"",""5"",""42558""
","
","257.09999999962747","","49","","","3000","1","1235","48","images/earth.jpg","images/rocket1","images/rocket2","null","images/rocket2","","1","real","null","1","","",""
"d3-animate-choice","178","729083","0.0-76.0-1.14","2365","4991","21","Male","false","false","false","false","""event"",""trial"",""time""
""focus"",""1"",""32335""
""fullscreenenter"",""5"",""42558""
","
","""event"",""trial"",""time""
""focus"",""1"",""32335""
","""event"",""trial"",""time""
""fullscreenenter"",""5"",""42558""
","
","417.69999999925494","","48","","","3000","1","","","images/redplanet1.jpg","images/alien2","images/alien1","images/rocket2","images/alien2","images/t.png","2","real","true","2","common","1","2022-12-14 05:31:26.831"
"two-step-fixation","179","730087","0.0-76.0-2.14","2365","4991","21","Male","false","false","false","false","""event"",""trial"",""time""
""focus"",""1"",""32335""
""fullscreenenter"",""5"",""42558""
","
","""event"",""trial"",""time""
""focus"",""1"",""32335""
","""event"",""trial"",""time""
""fullscreenenter"",""5"",""42558""
","
","","images/earth.jpg","","","","","","","","","","","","","","fixation","","","","","",""
"d3-animate-choice","180","732579","0.0-76.0-0.15","2365","4991","21","Male","false","false","false","false","""event"",""trial"",""time""
""focus"",""1"",""32335""
""fullscreenenter"",""5"",""42558""
","
","""event"",""trial"",""time""
""focus"",""1"",""32335""
","""event"",""trial"",""time""
""fullscreenenter"",""5"",""42558""
","
","485.2999999988824","","49","","","3000","1","","","images/earth.jpg","images/rocket1","images/rocket2","null","images/rocket2","","1","real","null","1","","",""
"d3-animate-choice","181","735037","0.0-76.0-1.15","2365","4991","21","Male","false","false","false","false","""event"",""trial"",""time""
""focus"",""1"",""32335""
""fullscreenenter"",""5"",""42558""
","
","""event"",""trial"",""time""
""focus"",""1"",""32335""
","""event"",""trial"",""time""
""fullscreenenter"",""5"",""42558""
","
","451.69999999925494","","48","","","3000","1","","","images/purpleplanet.jpg","images/alien4","images/alien3","images/rocket2","images/alien4","images/t.png","2","real","false","2","rare","1","2022-12-14 05:31:32.785"
"two-step-fixation","182","736043","0.0-76.0-2.15","2365","4991","21","Male","false","false","false","false","""event"",""trial"",""time""
""focus"",""1"",""32335""
""fullscreenenter"",""5"",""42558""
","
","""event"",""trial"",""time""
""focus"",""1"",""32335""
","""event"",""trial"",""time""
""fullscreenenter"",""5"",""42558""
","
","","images/earth.jpg","","","","","","","","","","","","","","fixation","","","","","",""
"d3-animate-choice","183","738428","0.0-76.0-0.16","2365","4991","21","Male","false","false","false","false","""event"",""trial"",""time""
""focus"",""1"",""32335""
""fullscreenenter"",""5"",""42558""
","
","""event"",""trial"",""time""
""focus"",""1"",""32335""
","""event"",""trial"",""time""
""fullscreenenter"",""5"",""42558""
","
","377.09999999962747","","49","","","3000","1","","","images/earth.jpg","images/rocket1","images/rocket2","null","images/rocket2","","1","real","null","1","","",""
"d3-animate-choice","184","740803","0.0-76.0-1.16","2365","4991","21","Male","false","false","false","false","""event"",""trial"",""time""
""focus"",""1"",""32335""
""fullscreenenter"",""5"",""42558""
","
","""event"",""trial"",""time""
""focus"",""1"",""32335""
","""event"",""trial"",""time""
""fullscreenenter"",""5"",""42558""
","
","365.7000000011176","","48","","","3000","1","","","images/redplanet1.jpg","images/alien2","images/alien1","images/rocket2","images/alien2","images/t.png","2","real","true","2","common","1","2022-12-14 05:31:38.551"
"two-step-fixation","185","741812","0.0-76.0-2.16","2365","4991","21","Male","false","false","false","false","""event"",""trial"",""time""
""focus"",""1"",""32335""
""fullscreenenter"",""5"",""42558""
","
","""event"",""trial"",""time""
""focus"",""1"",""32335""
","""event"",""trial"",""time""
""fullscreenenter"",""5"",""42558""
","
","","images/earth.jpg","","","","","","","","","","","","","","fixation","","","","","",""
"d3-animate-choice","186","744196","0.0-76.0-0.17","2365","4991","21","Male","false","false","false","false","""event"",""trial"",""time""
""focus"",""1"",""32335""
""fullscreenenter"",""5"",""42558""
","
","""event"",""trial"",""time""
""focus"",""1"",""32335""
","""event"",""trial"",""time""
""fullscreenenter"",""5"",""42558""
","
","378.7000000011176","","48","","","3000","1","","","images/earth.jpg","images/rocket1","images/rocket2","null","images/rocket1","","1","real","null","2","","",""
"d3-animate-choice","187","746796","0.0-76.0-1.17","2365","4991","21","Male","false","false","false","false","""event"",""trial"",""time""
""focus"",""1"",""32335""
""fullscreenenter"",""5"",""42558""
","
","""event"",""trial"",""time""
""focus"",""1"",""32335""
","""event"",""trial"",""time""
""fullscreenenter"",""5"",""42558""
","
","594.0999999996275","","48","","","3000","1","","","images/redplanet1.jpg","images/alien2","images/alien1","images/rocket1","images/alien2","images/t.png","2","real","false","2","rare","1","2022-12-14 05:31:44.544"
"two-step-fixation","188","747803","0.0-76.0-2.17","2365","4991","21","Male","false","false","false","false","""event"",""trial"",""time""
""focus"",""1"",""32335""
""fullscreenenter"",""5"",""42558""
","
","""event"",""trial"",""time""
""focus"",""1"",""32335""
","""event"",""trial"",""time""
""fullscreenenter"",""5"",""42558""
","
","","images/earth.jpg","","","","","","","","","","","","","","fixation","","","","","",""
"d3-animate-choice","189","749933","0.0-76.0-0.18","2365","4991","21","Male","false","false","false","false","""event"",""trial"",""time""
""focus"",""1"",""32335""
""fullscreenenter"",""5"",""42558""
","
","""event"",""trial"",""time""
""focus"",""1"",""32335""
","""event"",""trial"",""time""
""fullscreenenter"",""5"",""42558""
","
","114.80000000074506","","48","","","3000","1","","","images/earth.jpg","images/rocket1","images/rocket2","null","images/rocket1","","1","real","null","2","","",""
"d3-animate-choice","190","752156","0.0-76.0-1.18","2365","4991","21","Male","false","false","false","false","""event"",""trial"",""time""
""focus"",""1"",""32335""
""fullscreenenter"",""5"",""42558""
","
","""event"",""trial"",""time""
""focus"",""1"",""32335""
","""event"",""trial"",""time""
""fullscreenenter"",""5"",""42558""
","
","212.59999999962747","","48","","","3000","1","","","images/redplanet1.jpg","images/alien2","images/alien1","images/rocket1","images/alien2","images/t.png","2","real","false","2","rare","1","2022-12-14 05:31:49.904"
"two-step-fixation","191","753164","0.0-76.0-2.18","2365","4991","21","Male","false","false","false","false","""event"",""trial"",""time""
""focus"",""1"",""32335""
""fullscreenenter"",""5"",""42558""
","
","""event"",""trial"",""time""
""focus"",""1"",""32335""
","""event"",""trial"",""time""
""fullscreenenter"",""5"",""42558""
","
","","images/earth.jpg","","","","","","","","","","","","","","fixation","","","","","",""
"d3-animate-choice","192","755269","0.0-76.0-0.19","2365","4991","21","Male","false","false","false","false","""event"",""trial"",""time""
""focus"",""1"",""32335""
""fullscreenenter"",""5"",""42558""
","
","""event"",""trial"",""time""
""focus"",""1"",""32335""
","""event"",""trial"",""time""
""fullscreenenter"",""5"",""42558""
","
","91","","48","","","3000","1","","","images/earth.jpg","images/rocket1","images/rocket2","null","images/rocket1","","1","real","null","2","","",""
"d3-animate-choice","193","757540","0.0-76.0-1.19","2365","4991","21","Male","false","false","false","false","""event"",""trial"",""time""
""focus"",""1"",""32335""
""fullscreenenter"",""5"",""42558""
","
","""event"",""trial"",""time""
""focus"",""1"",""32335""
","""event"",""trial"",""time""
""fullscreenenter"",""5"",""42558""
","
","258.59999999962747","","48","","","3000","1","","","images/purpleplanet.jpg","images/alien4","images/alien3","images/rocket1","images/alien4","images/t.png","2","real","true","2","common","1","2022-12-14 05:31:55.288"
"two-step-fixation","194","758556","0.0-76.0-2.19","2365","4991","21","Male","false","false","false","false","""event"",""trial"",""time""
""focus"",""1"",""32335""
""fullscreenenter"",""5"",""42558""
","
","""event"",""trial"",""time""
""focus"",""1"",""32335""
","""event"",""trial"",""time""
""fullscreenenter"",""5"",""42558""
","
","","images/earth.jpg","","","","","","","","","","","","","","fixation","","","","","",""
"d3-animate-choice","195","760643","0.0-76.0-0.20","2365","4991","21","Male","false","false","false","false","""event"",""trial"",""time""
""focus"",""1"",""32335""
""fullscreenenter"",""5"",""42558""
","
","""event"",""trial"",""time""
""focus"",""1"",""32335""
","""event"",""trial"",""time""
""fullscreenenter"",""5"",""42558""
","
","77.09999999962747","","48","","","3000","1","","","images/earth.jpg","images/rocket1","images/rocket2","null","images/rocket1","","1","real","null","2","","",""
"d3-animate-choice","196","763064","0.0-76.0-1.20","2365","4991","21","Male","false","false","false","false","""event"",""trial"",""time""
""focus"",""1"",""32335""
""fullscreenenter"",""5"",""42558""
","
","""event"",""trial"",""time""
""focus"",""1"",""32335""
","""event"",""trial"",""time""
""fullscreenenter"",""5"",""42558""
","
","415.3999999985099","","48","","","3000","1","","","images/purpleplanet.jpg","images/alien4","images/alien3","images/rocket1","images/alien4","images/t.png","2","real","true","2","common","1","2022-12-14 05:32:00.812"
"two-step-fixation","197","764076","0.0-76.0-2.20","2365","4991","21","Male","false","false","false","false","""event"",""trial"",""time""
""focus"",""1"",""32335""
""fullscreenenter"",""5"",""42558""
","
","""event"",""trial"",""time""
""focus"",""1"",""32335""
","""event"",""trial"",""time""
""fullscreenenter"",""5"",""42558""
","
","","images/earth.jpg","","","","","","","","","","","","","","fixation","","","","","",""
"d3-animate-choice","198","766339","0.0-76.0-0.21","2365","4991","21","Male","false","false","false","false","""event"",""trial"",""time""
""focus"",""1"",""32335""
""fullscreenenter"",""5"",""42558""
","
","""event"",""trial"",""time""
""focus"",""1"",""32335""
","""event"",""trial"",""time""
""fullscreenenter"",""5"",""42558""
","
","252.7999999988824","","48","","","3000","1","","","images/earth.jpg","images/rocket1","images/rocket2","null","images/rocket1","","1","real","null","2","","",""
"d3-animate-choice","199","768577","0.0-76.0-1.21","2365","4991","21","Male","false","false","false","false","""event"",""trial"",""time""
""focus"",""1"",""32335""
""fullscreenenter"",""5"",""42558""
","
","""event"",""trial"",""time""
""focus"",""1"",""32335""
","""event"",""trial"",""time""
""fullscreenenter"",""5"",""42558""
","
","216.59999999962747","","48","","","3000","1","","","images/purpleplanet.jpg","images/alien4","images/alien3","images/rocket1","images/alien4","images/t.png","2","real","true","2","common","1","2022-12-14 05:32:06.325"
"two-step-fixation","200","769588","0.0-76.0-2.21","2365","4991","21","Male","false","false","false","false","""event"",""trial"",""time""
""focus"",""1"",""32335""
""fullscreenenter"",""5"",""42558""
","
","""event"",""trial"",""time""
""focus"",""1"",""32335""
","""event"",""trial"",""time""
""fullscreenenter"",""5"",""42558""
","
","","images/earth.jpg","","","","","","","","","","","","","","fixation","","","","","",""
"d3-animate-choice","201","771980","0.0-76.0-0.22","2365","4991","21","Male","false","false","false","false","""event"",""trial"",""time""
""focus"",""1"",""32335""
""fullscreenenter"",""5"",""42558""
","
","""event"",""trial"",""time""
""focus"",""1"",""32335""
","""event"",""trial"",""time""
""fullscreenenter"",""5"",""42558""
","
","386.7000000011176","","48","","","3000","1","","","images/earth.jpg","images/rocket1","images/rocket2","null","images/rocket1","","1","real","null","2","","",""
"d3-animate-choice","202","774260","0.0-76.0-1.22","2365","4991","21","Male","false","false","false","false","""event"",""trial"",""time""
""focus"",""1"",""32335""
""fullscreenenter"",""5"",""42558""
","
","""event"",""trial"",""time""
""focus"",""1"",""32335""
","""event"",""trial"",""time""
""fullscreenenter"",""5"",""42558""
","
","268.5","","48","","","3000","1","","","images/redplanet1.jpg","images/alien2","images/alien1","images/rocket1","images/alien2","images/t.png","2","real","false","2","rare","1","2022-12-14 05:32:12.008"
"two-step-fixation","203","775268","0.0-76.0-2.22","2365","4991","21","Male","false","false","false","false","""event"",""trial"",""time""
""focus"",""1"",""32335""
""fullscreenenter"",""5"",""42558""
","
","""event"",""trial"",""time""
""focus"",""1"",""32335""
","""event"",""trial"",""time""
""fullscreenenter"",""5"",""42558""
","
","","images/earth.jpg","","","","","","","","","","","","","","fixation","","","","","",""
"d3-animate-choice","204","777628","0.0-76.0-0.23","2365","4991","21","Male","false","false","false","false","""event"",""trial"",""time""
""focus"",""1"",""32335""
""fullscreenenter"",""5"",""42558""
","
","""event"",""trial"",""time""
""focus"",""1"",""32335""
","""event"",""trial"",""time""
""fullscreenenter"",""5"",""42558""
","
