"trial_type","trial_index","time_elapsed","internal_node_id","participant_id","subject_id","age","gender","rocket_sides","red_planet_first_rocket","red_display_order","purple_display_order","interactions","blur_events","focus_events","fullscreenenter_events","fullscreenexit_events","rt","stimulus","key_press","button_pressed","success","duration","valid_pressed","rts","keys","planet_text","right_text","left_text","center_text","chosen_text","reward_text","trial_stage","practice_trial","transition_type","choice","transition","reward","timestamp"
"pavlovia","0","4","0.0-0.0","202","5226","9","Male","true","false","false","false","
","
","
","
","
","","","","","","","","","","","","","","","","","","","","","",""
"html-keyboard-response","1","8341","0.0-1.0","202","5226","9","Male","true","false","false","false","
","
","
","
","
","8337.10000000149","Welcome! Press the space bar to begin.","32","","","","","","","","","","","","","","","","","","",""
"audio-keyboard-response","2","11765","0.0-2.0","202","5226","9","Male","true","false","false","false","
","
","
","
","
","3269","audio/beep_loop.wav","32","","","","","","","","","","","","","","","","","","",""
"audio-button-response","3","17428","0.0-3.0","202","5226","9","Male","true","false","false","false","
","
","
","
","
","NaN","audio/fish.mp3","","1","","","","","","","","","","","","","","","","","",""
"audio-button-response","4","20516","0.0-4.0","202","5226","9","Male","true","false","false","false","""event"",""trial"",""time""
""fullscreenenter"",""5"",""24938""
","
","
","""event"",""trial"",""time""
""fullscreenenter"",""5"",""24938""
","
","NaN","audio/tiger.mp3","","4","","","","","","","","","","","","","","","","","",""
"fullscreen","5","25929","0.0-5.0","202","5226","9","Male","true","false","false","false","""event"",""trial"",""time""
""fullscreenenter"",""5"",""24938""
""blur"",""6"",""26350""
""focus"",""6"",""32871""
","""event"",""trial"",""time""
""blur"",""6"",""26350""
","""event"",""trial"",""time""
""focus"",""6"",""32871""
","""event"",""trial"",""time""
""fullscreenenter"",""5"",""24938""
","
","","","","","true","","","","","","","","","","","","","","","","",""
"d3-instructions","6","41957","0.0-6.0","202","5226","9","Male","true","false","false","false","""event"",""trial"",""time""
""fullscreenenter"",""5"",""24938""
""blur"",""6"",""26350""
""focus"",""6"",""32871""
","""event"",""trial"",""time""
""blur"",""6"",""26350""
","""event"",""trial"",""time""
""focus"",""6"",""32871""
","""event"",""trial"",""time""
""fullscreenenter"",""5"",""24938""
","
","","","","","","","","","","","","","","","","","","","","","",""
"d3-instructions","7","61581","0.0-7.0","202","5226","9","Male","true","false","false","false","""event"",""trial"",""time""
""fullscreenenter"",""5"",""24938""
""blur"",""6"",""26350""
""focus"",""6"",""32871""
","""event"",""trial"",""time""
""blur"",""6"",""26350""
","""event"",""trial"",""time""
""focus"",""6"",""32871""
","""event"",""trial"",""time""
""fullscreenenter"",""5"",""24938""
","
","","","","","","","","","","","","","","","","","","","","","",""
"d3-instructions","8","70860","0.0-8.0","202","5226","9","Male","true","false","false","false","""event"",""trial"",""time""
""fullscreenenter"",""5"",""24938""
""blur"",""6"",""26350""
""focus"",""6"",""32871""
","""event"",""trial"",""time""
""blur"",""6"",""26350""
","""event"",""trial"",""time""
""focus"",""6"",""32871""
","""event"",""trial"",""time""
""fullscreenenter"",""5"",""24938""
","
","","","","","","","","","","","","","","","","","","","","","",""
"d3-instructions","9","79205","0.0-9.0","202","5226","9","Male","true","false","false","false","""event"",""trial"",""time""
""fullscreenenter"",""5"",""24938""
""blur"",""6"",""26350""
""focus"",""6"",""32871""
","""event"",""trial"",""time""
""blur"",""6"",""26350""
","""event"",""trial"",""time""
""focus"",""6"",""32871""
","""event"",""trial"",""time""
""fullscreenenter"",""5"",""24938""
","
","","","","","","","","","","","","","","","","","","","","","",""
"d3-instructions","10","87957","0.0-10.0","202","5226","9","Male","true","false","false","false","""event"",""trial"",""time""
""fullscreenenter"",""5"",""24938""
""blur"",""6"",""26350""
""focus"",""6"",""32871""
","""event"",""trial"",""time""
""blur"",""6"",""26350""
","""event"",""trial"",""time""
""focus"",""6"",""32871""
","""event"",""trial"",""time""
""fullscreenenter"",""5"",""24938""
","
","","","","","","","","","","","","","","","","","","","","","",""
"d3-animate-choice","11","92649","0.0-11.0","202","5226","9","Male","true","false","false","false","""event"",""trial"",""time""
""fullscreenenter"",""5"",""24938""
""blur"",""6"",""26350""
""focus"",""6"",""32871""
","""event"",""trial"",""time""
""blur"",""6"",""26350""
","""event"",""trial"",""time""
""focus"",""6"",""32871""
","""event"",""trial"",""time""
""fullscreenenter"",""5"",""24938""
","
","2670.300000000745","","48","","","3000","1","","","images/tutgreenplanet.jpg","images/tutalien1","images/tutalien2","null","images/tutalien1","","NA","practice","null","","","",""
"d3-animate-choice","12","96129","0.0-12.0","202","5226","9","Male","true","false","false","false","""event"",""trial"",""time""
""fullscreenenter"",""5"",""24938""
""blur"",""6"",""26350""
""focus"",""6"",""32871""
","""event"",""trial"",""time""
""blur"",""6"",""26350""
","""event"",""trial"",""time""
""focus"",""6"",""32871""
","""event"",""trial"",""time""
""fullscreenenter"",""5"",""24938""
","
","1474.800000000745","","49","","","3000","1","","","images/tutgreenplanet.jpg","images/tutalien1","images/tutalien2","null","images/tutalien2","","NA","practice","null","","","",""
"d3-animate-choice","13","98780","0.0-13.0","202","5226","9","Male","true","false","false","false","""event"",""trial"",""time""
""fullscreenenter"",""5"",""24938""
""blur"",""6"",""26350""
""focus"",""6"",""32871""
","""event"",""trial"",""time""
""blur"",""6"",""26350""
","""event"",""trial"",""time""
""focus"",""6"",""32871""
","""event"",""trial"",""time""
""fullscreenenter"",""5"",""24938""
","
","642.8999999985099","","48","","","3000","1","","","images/tutgreenplanet.jpg","images/tutalien1","images/tutalien2","null","images/tutalien1","","NA","practice","null","","","",""
"d3-animate-choice","14","101528","0.0-14.0","202","5226","9","Male","true","false","false","false","""event"",""trial"",""time""
""fullscreenenter"",""5"",""24938""
""blur"",""6"",""26350""
""focus"",""6"",""32871""
","""event"",""trial"",""time""
""blur"",""6"",""26350""
","""event"",""trial"",""time""
""focus"",""6"",""32871""
","""event"",""trial"",""time""
""fullscreenenter"",""5"",""24938""
","
","743.3000000007451","","49","","","3000","1","2208.199999999255","49","images/tutgreenplanet.jpg","images/tutalien1","images/tutalien2","null","images/tutalien2","","NA","practice","null","","","",""
"d3-instructions","15","106405","0.0-15.0","202","5226","9","Male","true","false","false","false","""event"",""trial"",""time""
""fullscreenenter"",""5"",""24938""
""blur"",""6"",""26350""
""focus"",""6"",""32871""
","""event"",""trial"",""time""
""blur"",""6"",""26350""
","""event"",""trial"",""time""
""focus"",""6"",""32871""
","""event"",""trial"",""time""
""fullscreenenter"",""5"",""24938""
","
","","","","","","","","","","","","","","","","","","","","","",""
"d3-instructions","16","109941","0.0-16.0","202","5226","9","Male","true","false","false","false","""event"",""trial"",""time""
""fullscreenenter"",""5"",""24938""
""blur"",""6"",""26350""
""focus"",""6"",""32871""
","""event"",""trial"",""time""
""blur"",""6"",""26350""
","""event"",""trial"",""time""
""focus"",""6"",""32871""
","""event"",""trial"",""time""
""fullscreenenter"",""5"",""24938""
","
","","","","","","","","","","","","","","","","","","","","","",""
"d3-instructions","17","114021","0.0-17.0","202","5226","9","Male","true","false","false","false","""event"",""trial"",""time""
""fullscreenenter"",""5"",""24938""
""blur"",""6"",""26350""
""focus"",""6"",""32871""
","""event"",""trial"",""time""
""blur"",""6"",""26350""
","""event"",""trial"",""time""
""focus"",""6"",""32871""
","""event"",""trial"",""time""
""fullscreenenter"",""5"",""24938""
","
","","","","","","","","","","","","","","","","","","","","","",""
"d3-instructions","18","125781","0.0-18.0","202","5226","9","Male","true","false","false","false","""event"",""trial"",""time""
""fullscreenenter"",""5"",""24938""
""blur"",""6"",""26350""
""focus"",""6"",""32871""
","""event"",""trial"",""time""
""blur"",""6"",""26350""
","""event"",""trial"",""time""
""focus"",""6"",""32871""
","""event"",""trial"",""time""
""fullscreenenter"",""5"",""24938""
","
","","","","","","","","","","","","","","","","","","","","","",""
"d3-instructions","19","132997","0.0-19.0","202","5226","9","Male","true","false","false","false","""event"",""trial"",""time""
""fullscreenenter"",""5"",""24938""
""blur"",""6"",""26350""
""focus"",""6"",""32871""
","""event"",""trial"",""time""
""blur"",""6"",""26350""
","""event"",""trial"",""time""
""focus"",""6"",""32871""
","""event"",""trial"",""time""
""fullscreenenter"",""5"",""24938""
","
","","","","","","","","","","","","","","","","","","","","","",""
"d3-animate-choice","20","137667","0.0-20.0","202","5226","9","Male","true","false","false","false","""event"",""trial"",""time""
""fullscreenenter"",""5"",""24938""
""blur"",""6"",""26350""
""focus"",""6"",""32871""
","""event"",""trial"",""time""
""blur"",""6"",""26350""
","""event"",""trial"",""time""
""focus"",""6"",""32871""
","""event"",""trial"",""time""
""fullscreenenter"",""5"",""24938""
","
","2662.800000000745","","49","","","3000","1","","","images/tutyellowplanet.jpg","null","images/tutalien3","null","images/tutalien3","images/t.png","NA","practice","null","","","",""
"d3-animate-choice","21","139933","0.0-21.0","202","5226","9","Male","true","false","false","false","""event"",""trial"",""time""
""fullscreenenter"",""5"",""24938""
""blur"",""6"",""26350""
""focus"",""6"",""32871""
","""event"",""trial"",""time""
""blur"",""6"",""26350""
","""event"",""trial"",""time""
""focus"",""6"",""32871""
","""event"",""trial"",""time""
""fullscreenenter"",""5"",""24938""
","
","256.70000000298023","","49","","","3000","1","1753.1000000014901,2113","49,49","images/tutyellowplanet.jpg","null","images/tutalien3","null","images/tutalien3","images/t.png","NA","practice","null","","","",""
"d3-animate-choice","22","142072","0.0-22.0","202","5226","9","Male","true","false","false","false","""event"",""trial"",""time""
""fullscreenenter"",""5"",""24938""
""blur"",""6"",""26350""
""focus"",""6"",""32871""
","""event"",""trial"",""time""
""blur"",""6"",""26350""
","""event"",""trial"",""time""
""focus"",""6"",""32871""
","""event"",""trial"",""time""
""fullscreenenter"",""5"",""24938""
","
","126.69999999925494","","49","","","3000","1","1431,1910.3999999985099","49,49","images/tutyellowplanet.jpg","null","images/tutalien3","null","images/tutalien3","images/t.png","NA","practice","null","","","",""
"d3-animate-choice","23","144102","0.0-23.0","202","5226","9","Male","true","false","false","false","""event"",""trial"",""time""
""fullscreenenter"",""5"",""24938""
""blur"",""6"",""26350""
""focus"",""6"",""32871""
","""event"",""trial"",""time""
""blur"",""6"",""26350""
","""event"",""trial"",""time""
""focus"",""6"",""32871""
","""event"",""trial"",""time""
""fullscreenenter"",""5"",""24938""
","
","11.900000002235174","","49","","","3000","1","299.70000000298023,763.6000000014901,1171.800000000745,1540.800000000745,1916.7000000029802","49,49,49,49,49","images/tutyellowplanet.jpg","null","images/tutalien3","null","images/tutalien3","images/t.png","NA","practice","null","","","",""
"d3-animate-choice","24","146332","0.0-24.0","202","5226","9","Male","true","false","false","false","""event"",""trial"",""time""
""fullscreenenter"",""5"",""24938""
""blur"",""6"",""26350""
""focus"",""6"",""32871""
","""event"",""trial"",""time""
""blur"",""6"",""26350""
","""event"",""trial"",""time""
""focus"",""6"",""32871""
","""event"",""trial"",""time""
""fullscreenenter"",""5"",""24938""
","
","214.10000000149012","","49","","","3000","1","590.1000000014901,934.1000000014901,1341.300000000745,2054.2000000029802","49,49,49,49","images/tutyellowplanet.jpg","null","images/tutalien3","null","images/tutalien3","images/t.png","NA","practice","null","","","",""
"d3-animate-choice","25","148496","0.0-25.0","202","5226","9","Male","true","false","false","false","""event"",""trial"",""time""
""fullscreenenter"",""5"",""24938""
""blur"",""6"",""26350""
""focus"",""6"",""32871""
","""event"",""trial"",""time""
""blur"",""6"",""26350""
","""event"",""trial"",""time""
""focus"",""6"",""32871""
","""event"",""trial"",""time""
""fullscreenenter"",""5"",""24938""
","
","151.80000000074506","","49","","","3000","1","448,831.7000000029802,1327.5,1696.1000000014901,1991.9000000022352","49,49,49,49,49","images/tutyellowplanet.jpg","null","images/tutalien3","null","images/tutalien3","images/nothing.png","NA","practice","null","","","",""
"d3-animate-choice","26","150617","0.0-26.0","202","5226","9","Male","true","false","false","false","""event"",""trial"",""time""
""fullscreenenter"",""5"",""24938""
""blur"",""6"",""26350""
""focus"",""6"",""32871""
","""event"",""trial"",""time""
""blur"",""6"",""26350""
","""event"",""trial"",""time""
""focus"",""6"",""32871""
","""event"",""trial"",""time""
""fullscreenenter"",""5"",""24938""
","
","107.09999999776483","","49","","","3000","1","427.8999999985099,763.7999999970198,1155.7999999970198,1491.7999999970198,1771.8999999985099,2036.0999999977648","49,49,49,49,49,49","images/tutyellowplanet.jpg","null","images/tutalien3","null","images/tutalien3","images/nothing.png","NA","practice","null","","","",""
"d3-animate-choice","27","152850","0.0-27.0","202","5226","9","Male","true","false","false","false","""event"",""trial"",""time""
""fullscreenenter"",""5"",""24938""
""blur"",""6"",""26350""
""focus"",""6"",""32871""
","""event"",""trial"",""time""
""blur"",""6"",""26350""
","""event"",""trial"",""time""
""focus"",""6"",""32871""
","""event"",""trial"",""time""
""fullscreenenter"",""5"",""24938""
","
","226.09999999776483","","49","","","3000","1","474.80000000074506,762.5999999977648,1106.0999999977648,1498.800000000745,1890.8999999985099","49,49,49,49,49","images/tutyellowplanet.jpg","null","images/tutalien3","null","images/tutalien3","images/t.png","NA","practice","null","","","",""
"d3-animate-choice","28","154878","0.0-28.0","202","5226","9","Male","true","false","false","false","""event"",""trial"",""time""
""fullscreenenter"",""5"",""24938""
""blur"",""6"",""26350""
""focus"",""6"",""32871""
","""event"",""trial"",""time""
""blur"",""6"",""26350""
","""event"",""trial"",""time""
""focus"",""6"",""32871""
","""event"",""trial"",""time""
""fullscreenenter"",""5"",""24938""
","
","18.900000002235174","","49","","","3000","1","330.80000000074506,690.6000000014901,962.5,1306.800000000745,1650.800000000745,1994.5","49,49,49,49,49,49","images/tutyellowplanet.jpg","null","images/tutalien3","null","images/tutalien3","images/t.png","NA","practice","null","","","",""
"d3-animate-choice","29","157285","0.0-29.0","202","5226","9","Male","true","false","false","false","""event"",""trial"",""time""
""fullscreenenter"",""5"",""24938""
""blur"",""6"",""26350""
""focus"",""6"",""32871""
","""event"",""trial"",""time""
""blur"",""6"",""26350""
","""event"",""trial"",""time""
""focus"",""6"",""32871""
","""event"",""trial"",""time""
""fullscreenenter"",""5"",""24938""
","
","389.8999999985099","","49","","","3000","1","749.6999999992549,1157.5,1661.5999999977648,2021.199999999255","49,49,49,49","images/tutyellowplanet.jpg","null","images/tutalien3","null","images/tutalien3","images/t.png","NA","practice","null","","","",""
"d3-instructions","30","160669","0.0-30.0","202","5226","9","Male","true","false","false","false","""event"",""trial"",""time""
""fullscreenenter"",""5"",""24938""
""blur"",""6"",""26350""
""focus"",""6"",""32871""
","""event"",""trial"",""time""
""blur"",""6"",""26350""
","""event"",""trial"",""time""
""focus"",""6"",""32871""
","""event"",""trial"",""time""
""fullscreenenter"",""5"",""24938""
","
","","","","","","","","","","","","","","","","","","","","","",""
"d3-instructions","31","164509","0.0-31.0","202","5226","9","Male","true","false","false","false","""event"",""trial"",""time""
""fullscreenenter"",""5"",""24938""
""blur"",""6"",""26350""
""focus"",""6"",""32871""
","""event"",""trial"",""time""
""blur"",""6"",""26350""
","""event"",""trial"",""time""
""focus"",""6"",""32871""
","""event"",""trial"",""time""
""fullscreenenter"",""5"",""24938""
","
","","","","","","","","","","","","","","","","","","","","","",""
"d3-instructions","32","167317","0.0-32.0","202","5226","9","Male","true","false","false","false","""event"",""trial"",""time""
""fullscreenenter"",""5"",""24938""
""blur"",""6"",""26350""
""focus"",""6"",""32871""
","""event"",""trial"",""time""
""blur"",""6"",""26350""
","""event"",""trial"",""time""
""focus"",""6"",""32871""
","""event"",""trial"",""time""
""fullscreenenter"",""5"",""24938""
","
","","","","","","","","","","","","","","","","","","","","","",""
"d3-instructions","33","169637","0.0-33.0","202","5226","9","Male","true","false","false","false","""event"",""trial"",""time""
""fullscreenenter"",""5"",""24938""
""blur"",""6"",""26350""
""focus"",""6"",""32871""
","""event"",""trial"",""time""
""blur"",""6"",""26350""
","""event"",""trial"",""time""
""focus"",""6"",""32871""
","""event"",""trial"",""time""
""fullscreenenter"",""5"",""24938""
","
","","","","","","","","","","","","","","","","","","","","","",""
"d3-animate-choice","34","172857","0.0-34.0","202","5226","9","Male","true","false","false","false","""event"",""trial"",""time""
""fullscreenenter"",""5"",""24938""
""blur"",""6"",""26350""
""focus"",""6"",""32871""
","""event"",""trial"",""time""
""blur"",""6"",""26350""
","""event"",""trial"",""time""
""focus"",""6"",""32871""
","""event"",""trial"",""time""
""fullscreenenter"",""5"",""24938""
","
","1214.7999999970198","","48","","","3000","1","","","images/tutgreenplanet.jpg","images/tutalien1","images/tutalien2","null","images/tutalien1","images/nothing.png","NA","practice","null","","","",""
"d3-animate-choice","35","175088","0.0-35.0","202","5226","9","Male","true","false","false","false","""event"",""trial"",""time""
""fullscreenenter"",""5"",""24938""
""blur"",""6"",""26350""
""focus"",""6"",""32871""
","""event"",""trial"",""time""
""blur"",""6"",""26350""
","""event"",""trial"",""time""
""focus"",""6"",""32871""
","""event"",""trial"",""time""
""fullscreenenter"",""5"",""24938""
","
","219.30000000074506","","48","","","3000","1","","","images/tutgreenplanet.jpg","images/tutalien1","images/tutalien2","null","images/tutalien1","images/nothing.png","NA","practice","null","","","",""
"d3-animate-choice","36","177130","0.0-36.0","202","5226","9","Male","true","false","false","false","""event"",""trial"",""time""
""fullscreenenter"",""5"",""24938""
""blur"",""6"",""26350""
""focus"",""6"",""32871""
","""event"",""trial"",""time""
""blur"",""6"",""26350""
","""event"",""trial"",""time""
""focus"",""6"",""32871""
","""event"",""trial"",""time""
""fullscreenenter"",""5"",""24938""
","
","27.600000001490116","","48","","","3000","1","1491.5,1819.6000000014901","49,49","images/tutgreenplanet.jpg","images/tutalien1","images/tutalien2","null","images/tutalien1","images/nothing.png","NA","practice","null","","","",""
"d3-animate-choice","37","179157","0.0-37.0","202","5226","9","Male","true","false","false","false","""event"",""trial"",""time""
""fullscreenenter"",""5"",""24938""
""blur"",""6"",""26350""
""focus"",""6"",""32871""
","""event"",""trial"",""time""
""blur"",""6"",""26350""
","""event"",""trial"",""time""
""focus"",""6"",""32871""
","""event"",""trial"",""time""
""fullscreenenter"",""5"",""24938""
","
","10.600000001490116","","49","","","3000","1","298.20000000298023","49","images/tutgreenplanet.jpg","images/tutalien1","images/tutalien2","null","images/tutalien2","images/nothing.png","NA","practice","null","","","",""
"d3-animate-choice","38","181208","0.0-38.0","202","5226","9","Male","true","false","false","false","""event"",""trial"",""time""
""fullscreenenter"",""5"",""24938""
""blur"",""6"",""26350""
""focus"",""6"",""32871""
","""event"",""trial"",""time""
""blur"",""6"",""26350""
","""event"",""trial"",""time""
""focus"",""6"",""32871""
","""event"",""trial"",""time""
""fullscreenenter"",""5"",""24938""
","
","47","","49","","","3000","1","1542.8999999985099,1918.5999999977648","48,48","images/tutgreenplanet.jpg","images/tutalien1","images/tutalien2","null","images/tutalien2","images/t.png","NA","practice","null","","","",""
"d3-animate-choice","39","183323","0.0-39.0","202","5226","9","Male","true","false","false","false","""event"",""trial"",""time""
""fullscreenenter"",""5"",""24938""
""blur"",""6"",""26350""
""focus"",""6"",""32871""
","""event"",""trial"",""time""
""blur"",""6"",""26350""
","""event"",""trial"",""time""
""focus"",""6"",""32871""
","""event"",""trial"",""time""
""fullscreenenter"",""5"",""24938""
","
","107.79999999701977","","48","","","3000","1","395.8999999985099","48","images/tutgreenplanet.jpg","images/tutalien1","images/tutalien2","null","images/tutalien1","images/t.png","NA","practice","null","","","",""
"d3-animate-choice","40","186051","0.0-40.0","202","5226","9","Male","true","false","false","false","""event"",""trial"",""time""
""fullscreenenter"",""5"",""24938""
""blur"",""6"",""26350""
""focus"",""6"",""32871""
","""event"",""trial"",""time""
""blur"",""6"",""26350""
","""event"",""trial"",""time""
""focus"",""6"",""32871""
","""event"",""trial"",""time""
""fullscreenenter"",""5"",""24938""
","
","720.6999999992549","","48","","","3000","1","2368.800000000745,2672.5","49,49","images/tutgreenplanet.jpg","images/tutalien1","images/tutalien2","null","images/tutalien1","images/nothing.png","NA","practice","null","","","",""
"d3-animate-choice","41","188281","0.0-41.0","202","5226","9","Male","true","false","false","false","""event"",""trial"",""time""
""fullscreenenter"",""5"",""24938""
""blur"",""6"",""26350""
""focus"",""6"",""32871""
","""event"",""trial"",""time""
""blur"",""6"",""26350""
","""event"",""trial"",""time""
""focus"",""6"",""32871""
","""event"",""trial"",""time""
""fullscreenenter"",""5"",""24938""
","
","217","","49","","","3000","1","1848.0999999977648","49","images/tutgreenplanet.jpg","images/tutalien1","images/tutalien2","null","images/tutalien2","images/t.png","NA","practice","null","","","",""
"d3-animate-choice","42","190312","0.0-42.0","202","5226","9","Male","true","false","false","false","""event"",""trial"",""time""
""fullscreenenter"",""5"",""24938""
""blur"",""6"",""26350""
""focus"",""6"",""32871""
","""event"",""trial"",""time""
""blur"",""6"",""26350""
","""event"",""trial"",""time""
""focus"",""6"",""32871""
","""event"",""trial"",""time""
""fullscreenenter"",""5"",""24938""
","
","26.699999999254942","","49","","","3000","1","314.6000000014901","49","images/tutgreenplanet.jpg","images/tutalien1","images/tutalien2","null","images/tutalien2","images/t.png","NA","practice","null","","","",""
"d3-animate-choice","43","192592","0.0-43.0","202","5226","9","Male","true","false","false","false","""event"",""trial"",""time""
""fullscreenenter"",""5"",""24938""
""blur"",""6"",""26350""
""focus"",""6"",""32871""
","""event"",""trial"",""time""
""blur"",""6"",""26350""
","""event"",""trial"",""time""
""focus"",""6"",""32871""
","""event"",""trial"",""time""
""fullscreenenter"",""5"",""24938""
","
","275.3999999985099","","49","","","3000","1","","","images/tutgreenplanet.jpg","images/tutalien1","images/tutalien2","null","images/tutalien2","images/t.png","NA","practice","null","","","",""
"d3-instructions","44","205101","0.0-44.0","202","5226","9","Male","true","false","false","false","""event"",""trial"",""time""
""fullscreenenter"",""5"",""24938""
""blur"",""6"",""26350""
""focus"",""6"",""32871""
","""event"",""trial"",""time""
""blur"",""6"",""26350""
","""event"",""trial"",""time""
""focus"",""6"",""32871""
","""event"",""trial"",""time""
""fullscreenenter"",""5"",""24938""
","
","","","","","","","","","","","","","","","","","","","","","",""
"d3-instructions","45","207244","0.0-45.0","202","5226","9","Male","true","false","false","false","""event"",""trial"",""time""
""fullscreenenter"",""5"",""24938""
""blur"",""6"",""26350""
""focus"",""6"",""32871""
","""event"",""trial"",""time""
""blur"",""6"",""26350""
","""event"",""trial"",""time""
""focus"",""6"",""32871""
","""event"",""trial"",""time""
""fullscreenenter"",""5"",""24938""
","
","","","","","","","","","","","","","","","","","","","","","",""
"d3-instructions","46","209413","0.0-46.0","202","5226","9","Male","true","false","false","false","""event"",""trial"",""time""
""fullscreenenter"",""5"",""24938""
""blur"",""6"",""26350""
""focus"",""6"",""32871""
","""event"",""trial"",""time""
""blur"",""6"",""26350""
","""event"",""trial"",""time""
""focus"",""6"",""32871""
","""event"",""trial"",""time""
""fullscreenenter"",""5"",""24938""
","
","","","","","","","","","","","","","","","","","","","","","",""
"d3-instructions","47","214301","0.0-47.0","202","5226","9","Male","true","false","false","false","""event"",""trial"",""time""
""fullscreenenter"",""5"",""24938""
""blur"",""6"",""26350""
""focus"",""6"",""32871""
","""event"",""trial"",""time""
""blur"",""6"",""26350""
","""event"",""trial"",""time""
""focus"",""6"",""32871""
","""event"",""trial"",""time""
""fullscreenenter"",""5"",""24938""
","
","","","","","","","","","","","","","","","","","","","","","",""
"d3-instructions","48","217493","0.0-48.0","202","5226","9","Male","true","false","false","false","""event"",""trial"",""time""
""fullscreenenter"",""5"",""24938""
""blur"",""6"",""26350""
""focus"",""6"",""32871""
","""event"",""trial"",""time""
""blur"",""6"",""26350""
","""event"",""trial"",""time""
""focus"",""6"",""32871""
","""event"",""trial"",""time""
""fullscreenenter"",""5"",""24938""
","
","","","","","","","","","","","","","","","","","","","","","",""
"d3-instructions","49","220429","0.0-49.0","202","5226","9","Male","true","false","false","false","""event"",""trial"",""time""
""fullscreenenter"",""5"",""24938""
""blur"",""6"",""26350""
""focus"",""6"",""32871""
","""event"",""trial"",""time""
""blur"",""6"",""26350""
","""event"",""trial"",""time""
""focus"",""6"",""32871""
","""event"",""trial"",""time""
""fullscreenenter"",""5"",""24938""
","
","","","","","","","","","","","","","","","","","","","","","",""
"d3-instructions","50","222941","0.0-50.0","202","5226","9","Male","true","false","false","false","""event"",""trial"",""time""
""fullscreenenter"",""5"",""24938""
""blur"",""6"",""26350""
""focus"",""6"",""32871""
","""event"",""trial"",""time""
""blur"",""6"",""26350""
","""event"",""trial"",""time""
""focus"",""6"",""32871""
","""event"",""trial"",""time""
""fullscreenenter"",""5"",""24938""
","
","","","","","","","","","","","","","","","","","","","","","",""
"d3-instructions","51","226020","0.0-51.0","202","5226","9","Male","true","false","false","false","""event"",""trial"",""time""
""fullscreenenter"",""5"",""24938""
""blur"",""6"",""26350""
""focus"",""6"",""32871""
","""event"",""trial"",""time""
""blur"",""6"",""26350""
","""event"",""trial"",""time""
""focus"",""6"",""32871""
","""event"",""trial"",""time""
""fullscreenenter"",""5"",""24938""
","
","","","","","","","","","","","","","","","","","","","","","",""
"d3-instructions","52","228004","0.0-52.0","202","5226","9","Male","true","false","false","false","""event"",""trial"",""time""
""fullscreenenter"",""5"",""24938""
""blur"",""6"",""26350""
""focus"",""6"",""32871""
","""event"",""trial"",""time""
""blur"",""6"",""26350""
","""event"",""trial"",""time""
""focus"",""6"",""32871""
","""event"",""trial"",""time""
""fullscreenenter"",""5"",""24938""
","
","","","","","","","","","","","","","","","","","","","","","",""
"d3-instructions","53","231020","0.0-53.0","202","5226","9","Male","true","false","false","false","""event"",""trial"",""time""
""fullscreenenter"",""5"",""24938""
""blur"",""6"",""26350""
""focus"",""6"",""32871""
","""event"",""trial"",""time""
""blur"",""6"",""26350""
","""event"",""trial"",""time""
""focus"",""6"",""32871""
","""event"",""trial"",""time""
""fullscreenenter"",""5"",""24938""
","
","","","","","","","","","","","","","","","","","","","","","",""
"d3-instructions","54","231636","0.0-54.0","202","5226","9","Male","true","false","false","false","""event"",""trial"",""time""
""fullscreenenter"",""5"",""24938""
""blur"",""6"",""26350""
""focus"",""6"",""32871""
","""event"",""trial"",""time""
""blur"",""6"",""26350""
","""event"",""trial"",""time""
""focus"",""6"",""32871""
","""event"",""trial"",""time""
""fullscreenenter"",""5"",""24938""
","
","","","","","","","","","","","","","","","","","","","","","",""
"d3-instructions","55","232229","0.0-55.0","202","5226","9","Male","true","false","false","false","""event"",""trial"",""time""
""fullscreenenter"",""5"",""24938""
""blur"",""6"",""26350""
""focus"",""6"",""32871""
","""event"",""trial"",""time""
""blur"",""6"",""26350""
","""event"",""trial"",""time""
""focus"",""6"",""32871""
","""event"",""trial"",""time""
""fullscreenenter"",""5"",""24938""
","
","","","","","","","","","","","","","","","","","","","","","",""
"d3-instructions","56","232829","0.0-56.0","202","5226","9","Male","true","false","false","false","""event"",""trial"",""time""
""fullscreenenter"",""5"",""24938""
""blur"",""6"",""26350""
""focus"",""6"",""32871""
","""event"",""trial"",""time""
""blur"",""6"",""26350""
","""event"",""trial"",""time""
""focus"",""6"",""32871""
","""event"",""trial"",""time""
""fullscreenenter"",""5"",""24938""
","
","","","","","","","","","","","","","","","","","","","","","",""
"d3-instructions","57","233461","0.0-57.0","202","5226","9","Male","true","false","false","false","""event"",""trial"",""time""
""fullscreenenter"",""5"",""24938""
""blur"",""6"",""26350""
""focus"",""6"",""32871""
","""event"",""trial"",""time""
""blur"",""6"",""26350""
","""event"",""trial"",""time""
""focus"",""6"",""32871""
","""event"",""trial"",""time""
""fullscreenenter"",""5"",""24938""
","
","","","","","","","","","","","","","","","","","","","","","",""
"d3-instructions","58","236564","0.0-58.0","202","5226","9","Male","true","false","false","false","""event"",""trial"",""time""
""fullscreenenter"",""5"",""24938""
""blur"",""6"",""26350""
""focus"",""6"",""32871""
","""event"",""trial"",""time""
""blur"",""6"",""26350""
","""event"",""trial"",""time""
""focus"",""6"",""32871""
","""event"",""trial"",""time""
""fullscreenenter"",""5"",""24938""
","
","","","","","","","","","","","","","","","","","","","","","",""
"d3-instructions","59","239005","0.0-59.0","202","5226","9","Male","true","false","false","false","""event"",""trial"",""time""
""fullscreenenter"",""5"",""24938""
""blur"",""6"",""26350""
""focus"",""6"",""32871""
","""event"",""trial"",""time""
""blur"",""6"",""26350""
","""event"",""trial"",""time""
""focus"",""6"",""32871""
","""event"",""trial"",""time""
""fullscreenenter"",""5"",""24938""
","
","","","","","","","","","","","","","","","","","","","","","",""
"d3-instructions","60","241340","0.0-60.0","202","5226","9","Male","true","false","false","false","""event"",""trial"",""time""
""fullscreenenter"",""5"",""24938""
""blur"",""6"",""26350""
""focus"",""6"",""32871""
","""event"",""trial"",""time""
""blur"",""6"",""26350""
","""event"",""trial"",""time""
""focus"",""6"",""32871""
","""event"",""trial"",""time""
""fullscreenenter"",""5"",""24938""
","
","","","","","","","","","","","","","","","","","","","","","",""
"d3-animate-choice","61","243802","0.0-61.0-0.0","202","5226","9","Male","true","false","false","false","""event"",""trial"",""time""
""fullscreenenter"",""5"",""24938""
""blur"",""6"",""26350""
""focus"",""6"",""32871""
","""event"",""trial"",""time""
""blur"",""6"",""26350""
","""event"",""trial"",""time""
""focus"",""6"",""32871""
","""event"",""trial"",""time""
""fullscreenenter"",""5"",""24938""
","
","454.19999999925494","","49","","","3000","1","","","images/earth.jpg","images/tutrocket1","images/tutrocket2","null","images/tutrocket2","","1","practice","null","1","","",""
"d3-animate-choice","62","247192","0.0-61.0-1.0","202","5226","9","Male","true","false","false","false","""event"",""trial"",""time""
""fullscreenenter"",""5"",""24938""
""blur"",""6"",""26350""
""focus"",""6"",""32871""
","""event"",""trial"",""time""
""blur"",""6"",""26350""
","""event"",""trial"",""time""
""focus"",""6"",""32871""
","""event"",""trial"",""time""
""fullscreenenter"",""5"",""24938""
","
","113.09999999776483","","50","","","3000","1","1385.199999999255","48","images/tutgreenplanet.jpg","images/tutalien2","images/tutalien1","images/tutrocket2","images/tutalien2","images/nothing.png","2","practice","true","","common","0","2022-12-16 20:58:48.992"
"two-step-fixation","63","248200","0.0-61.0-2.0","202","5226","9","Male","true","false","false","false","""event"",""trial"",""time""
""fullscreenenter"",""5"",""24938""
""blur"",""6"",""26350""
""focus"",""6"",""32871""
","""event"",""trial"",""time""
""blur"",""6"",""26350""
","""event"",""trial"",""time""
""focus"",""6"",""32871""
","""event"",""trial"",""time""
""fullscreenenter"",""5"",""24938""
","
","","images/earth.jpg","","","","","","","","","","","","","","fixation","","","","","",""
"d3-animate-choice","64","250289","0.0-61.0-0.1","202","5226","9","Male","true","false","false","false","""event"",""trial"",""time""
""fullscreenenter"",""5"",""24938""
""blur"",""6"",""26350""
""focus"",""6"",""32871""
","""event"",""trial"",""time""
""blur"",""6"",""26350""
","""event"",""trial"",""time""
""focus"",""6"",""32871""
","""event"",""trial"",""time""
""fullscreenenter"",""5"",""24938""
","
","75.79999999701977","","49","","","3000","1","1979.7999999970198","49","images/earth.jpg","images/tutrocket1","images/tutrocket2","null","images/tutrocket2","","1","practice","null","1","","",""
"d3-animate-choice","65","252487","0.0-61.0-1.1","202","5226","9","Male","true","false","false","false","""event"",""trial"",""time""
""fullscreenenter"",""5"",""24938""
""blur"",""6"",""26350""
""focus"",""6"",""32871""
","""event"",""trial"",""time""
""blur"",""6"",""26350""
","""event"",""trial"",""time""
""focus"",""6"",""32871""
","""event"",""trial"",""time""
""fullscreenenter"",""5"",""24938""
","
","194.60000000149012","","49","","","3000","1","","","images/tutyellowplanet.jpg","images/tutalien4","images/tutalien3","images/tutrocket2","images/tutalien3","images/nothing.png","2","practice","false","1","rare","0","2022-12-16 20:58:54.287"
"two-step-fixation","66","253504","0.0-61.0-2.1","202","5226","9","Male","true","false","false","false","""event"",""trial"",""time""
""fullscreenenter"",""5"",""24938""
""blur"",""6"",""26350""
""focus"",""6"",""32871""
","""event"",""trial"",""time""
""blur"",""6"",""26350""
","""event"",""trial"",""time""
""focus"",""6"",""32871""
","""event"",""trial"",""time""
""fullscreenenter"",""5"",""24938""
","
","","images/earth.jpg","","","","","","","","","","","","","","fixation","","","","","",""
"d3-animate-choice","67","255693","0.0-61.0-0.2","202","5226","9","Male","true","false","false","false","""event"",""trial"",""time""
""fullscreenenter"",""5"",""24938""
""blur"",""6"",""26350""
""focus"",""6"",""32871""
","""event"",""trial"",""time""
""blur"",""6"",""26350""
","""event"",""trial"",""time""
""focus"",""6"",""32871""
","""event"",""trial"",""time""
""fullscreenenter"",""5"",""24938""
","
","170.80000000074506","","48","","","3000","1","387.0999999977648,682.8000000007451","48,48","images/earth.jpg","images/tutrocket1","images/tutrocket2","null","images/tutrocket1","","1","practice","null","2","","",""
"d3-animate-choice","68","258095","0.0-61.0-1.2","202","5226","9","Male","true","false","false","false","""event"",""trial"",""time""
""fullscreenenter"",""5"",""24938""
""blur"",""6"",""26350""
""focus"",""6"",""32871""
","""event"",""trial"",""time""
""blur"",""6"",""26350""
","""event"",""trial"",""time""
""focus"",""6"",""32871""
","""event"",""trial"",""time""
""fullscreenenter"",""5"",""24938""
","
","389.30000000074506","","49","","","3000","1","","","images/tutyellowplanet.jpg","images/tutalien4","images/tutalien3","images/tutrocket1","images/tutalien3","images/nothing.png","2","practice","true","1","common","0","2022-12-16 20:58:59.895"
"two-step-fixation","69","259111","0.0-61.0-2.2","202","5226","9","Male","true","false","false","false","""event"",""trial"",""time""
""fullscreenenter"",""5"",""24938""
""blur"",""6"",""26350""
""focus"",""6"",""32871""
","""event"",""trial"",""time""
""blur"",""6"",""26350""
","""event"",""trial"",""time""
""focus"",""6"",""32871""
","""event"",""trial"",""time""
""fullscreenenter"",""5"",""24938""
","
","","images/earth.jpg","","","","","","","","","","","","","","fixation","","","","","",""
"d3-animate-choice","70","261326","0.0-61.0-0.3","202","5226","9","Male","true","false","false","false","""event"",""trial"",""time""
""fullscreenenter"",""5"",""24938""
""blur"",""6"",""26350""
""focus"",""6"",""32871""
","""event"",""trial"",""time""
""blur"",""6"",""26350""
","""event"",""trial"",""time""
""focus"",""6"",""32871""
","""event"",""trial"",""time""
""fullscreenenter"",""5"",""24938""
","
","212.30000000074506","","48","","","3000","1","468.1000000014901,764.3999999985099,2100.60000000149","48,48,48","images/earth.jpg","images/tutrocket1","images/tutrocket2","null","images/tutrocket1","","1","practice","null","2","","",""
"d3-animate-choice","71","263447","0.0-61.0-1.3","202","5226","9","Male","true","false","false","false","""event"",""trial"",""time""
""fullscreenenter"",""5"",""24938""
""blur"",""6"",""26350""
""focus"",""6"",""32871""
","""event"",""trial"",""time""
""blur"",""6"",""26350""
","""event"",""trial"",""time""
""focus"",""6"",""32871""
","""event"",""trial"",""time""
""fullscreenenter"",""5"",""24938""
","
","117.29999999701977","","48","","","3000","1","389.5,645.2999999970198,933.6999999992549,1253.5999999977648","48,48,48,48","images/tutyellowplanet.jpg","images/tutalien4","images/tutalien3","images/tutrocket1","images/tutalien4","images/t.png","2","practice","true","2","common","1","2022-12-16 20:59:05.247"
"two-step-fixation","72","264453","0.0-61.0-2.3","202","5226","9","Male","true","false","false","false","""event"",""trial"",""time""
""fullscreenenter"",""5"",""24938""
""blur"",""6"",""26350""
""focus"",""6"",""32871""
","""event"",""trial"",""time""
""blur"",""6"",""26350""
","""event"",""trial"",""time""
""focus"",""6"",""32871""
","""event"",""trial"",""time""
""fullscreenenter"",""5"",""24938""
","
","","images/earth.jpg","","","","","","","","","","","","","","fixation","","","","","",""
"d3-animate-choice","73","266629","0.0-61.0-0.4","202","5226","9","Male","true","false","false","false","""event"",""trial"",""time""
""fullscreenenter"",""5"",""24938""
""blur"",""6"",""26350""
""focus"",""6"",""32871""
","""event"",""trial"",""time""
""blur"",""6"",""26350""
","""event"",""trial"",""time""
""focus"",""6"",""32871""
","""event"",""trial"",""time""
""fullscreenenter"",""5"",""24938""
","
","166.10000000149012","","49","","","3000","1","485.8999999985099","49","images/earth.jpg","images/tutrocket1","images/tutrocket2","null","images/tutrocket2","","1","practice","null","1","","",""
"d3-animate-choice","74","270639","0.0-61.0-1.4","202","5226","9","Male","true","false","false","false","""event"",""trial"",""time""
""fullscreenenter"",""5"",""24938""
""blur"",""6"",""26350""
""focus"",""6"",""32871""
","""event"",""trial"",""time""
""blur"",""6"",""26350""
","""event"",""trial"",""time""
""focus"",""6"",""32871""
","""event"",""trial"",""time""
""fullscreenenter"",""5"",""24938""
","
","2918.60000000149","","49","","","3000","1","","","images/tutgreenplanet.jpg","images/tutalien2","images/tutalien1","images/tutrocket2","images/tutalien1","","2","practice","true","1","common","0","2022-12-16 20:59:12.439"
"two-step-fixation","75","271648","0.0-61.0-2.4","202","5226","9","Male","true","false","false","false","""event"",""trial"",""time""
""fullscreenenter"",""5"",""24938""
""blur"",""6"",""26350""
""focus"",""6"",""32871""
","""event"",""trial"",""time""
""blur"",""6"",""26350""
","""event"",""trial"",""time""
""focus"",""6"",""32871""
","""event"",""trial"",""time""
""fullscreenenter"",""5"",""24938""
","
","","images/earth.jpg","","","","","","","","","","","","","","fixation","","","","","",""
"d3-animate-choice","76","274056","0.0-61.0-0.5","202","5226","9","Male","true","false","false","false","""event"",""trial"",""time""
""fullscreenenter"",""5"",""24938""
""blur"",""6"",""26350""
""focus"",""6"",""32871""
","""event"",""trial"",""time""
""blur"",""6"",""26350""
","""event"",""trial"",""time""
""focus"",""6"",""32871""
","""event"",""trial"",""time""
""fullscreenenter"",""5"",""24938""
","
","403.1000000014901","","49","","","3000","1","","","images/earth.jpg","images/tutrocket1","images/tutrocket2","null","images/tutrocket2","","1","practice","null","1","","",""
"d3-animate-choice","77","276608","0.0-61.0-1.5","202","5226","9","Male","true","false","false","false","""event"",""trial"",""time""
""fullscreenenter"",""5"",""24938""
""blur"",""6"",""26350""
""focus"",""6"",""32871""
","""event"",""trial"",""time""
""blur"",""6"",""26350""
","""event"",""trial"",""time""
""focus"",""6"",""32871""
","""event"",""trial"",""time""
""fullscreenenter"",""5"",""24938""
","
","547.6999999992549","","49","","","3000","1","2491.800000000745","49","images/tutyellowplanet.jpg","images/tutalien4","images/tutalien3","images/tutrocket2","images/tutalien3","images/nothing.png","2","practice","false","1","rare","0","2022-12-16 20:59:18.408"
"two-step-fixation","78","277616","0.0-61.0-2.5","202","5226","9","Male","true","false","false","false","""event"",""trial"",""time""
""fullscreenenter"",""5"",""24938""
""blur"",""6"",""26350""
""focus"",""6"",""32871""
","""event"",""trial"",""time""
""blur"",""6"",""26350""
","""event"",""trial"",""time""
""focus"",""6"",""32871""
","""event"",""trial"",""time""
""fullscreenenter"",""5"",""24938""
","
","","images/earth.jpg","","","","","","","","","","","","","","fixation","","","","","",""
"d3-animate-choice","79","280072","0.0-61.0-0.6","202","5226","9","Male","true","false","false","false","""event"",""trial"",""time""
""fullscreenenter"",""5"",""24938""
""blur"",""6"",""26350""
""focus"",""6"",""32871""
","""event"",""trial"",""time""
""blur"",""6"",""26350""
","""event"",""trial"",""time""
""focus"",""6"",""32871""
","""event"",""trial"",""time""
""fullscreenenter"",""5"",""24938""
","
","452","","49","","","3000","1","1740.0999999977648,1995.8999999985099,2252.199999999255","48,48,48","images/earth.jpg","images/tutrocket1","images/tutrocket2","null","images/tutrocket2","","1","practice","null","1","","",""
"d3-animate-choice","80","282207","0.0-61.0-1.6","202","5226","9","Male","true","false","false","false","""event"",""trial"",""time""
""fullscreenenter"",""5"",""24938""
""blur"",""6"",""26350""
""focus"",""6"",""32871""
","""event"",""trial"",""time""
""blur"",""6"",""26350""
","""event"",""trial"",""time""
""focus"",""6"",""32871""
","""event"",""trial"",""time""
""fullscreenenter"",""5"",""24938""
","
","131.09999999776483","","48","","","3000","1","427.19999999925494,779.5","48,48","images/tutyellowplanet.jpg","images/tutalien4","images/tutalien3","images/tutrocket2","images/tutalien4","images/t.png","2","practice","false","2","rare","1","2022-12-16 20:59:24.008"
"two-step-fixation","81","283216","0.0-61.0-2.6","202","5226","9","Male","true","false","false","false","""event"",""trial"",""time""
""fullscreenenter"",""5"",""24938""
""blur"",""6"",""26350""
""focus"",""6"",""32871""
","""event"",""trial"",""time""
""blur"",""6"",""26350""
","""event"",""trial"",""time""
""focus"",""6"",""32871""
","""event"",""trial"",""time""
""fullscreenenter"",""5"",""24938""
","
","","images/earth.jpg","","","","","","","","","","","","","","fixation","","","","","",""
"d3-animate-choice","82","285352","0.0-61.0-0.7","202","5226","9","Male","true","false","false","false","""event"",""trial"",""time""
""fullscreenenter"",""5"",""24938""
""blur"",""6"",""26350""
""focus"",""6"",""32871""
","""event"",""trial"",""time""
""blur"",""6"",""26350""
","""event"",""trial"",""time""
""focus"",""6"",""32871""
","""event"",""trial"",""time""
""fullscreenenter"",""5"",""24938""
","
","131.79999999701977","","48","","","3000","1","459.8999999985099","48","images/earth.jpg","images/tutrocket1","images/tutrocket2","null","images/tutrocket1","","1","practice","null","2","","",""
"d3-animate-choice","83","287560","0.0-61.0-1.7","202","5226","9","Male","true","false","false","false","""event"",""trial"",""time""
""fullscreenenter"",""5"",""24938""
""blur"",""6"",""26350""
""focus"",""6"",""32871""
","""event"",""trial"",""time""
""blur"",""6"",""26350""
","""event"",""trial"",""time""
""focus"",""6"",""32871""
","""event"",""trial"",""time""
""fullscreenenter"",""5"",""24938""
","
","202.5","","49","","","3000","1","466.80000000074506","49","images/tutgreenplanet.jpg","images/tutalien2","images/tutalien1","images/tutrocket1","images/tutalien1","images/t.png","2","practice","false","1","rare","1","2022-12-16 20:59:29.360"
"two-step-fixation","84","288568","0.0-61.0-2.7","202","5226","9","Male","true","false","false","false","""event"",""trial"",""time""
""fullscreenenter"",""5"",""24938""
""blur"",""6"",""26350""
""focus"",""6"",""32871""
","""event"",""trial"",""time""
""blur"",""6"",""26350""
","""event"",""trial"",""time""
""focus"",""6"",""32871""
","""event"",""trial"",""time""
""fullscreenenter"",""5"",""24938""
","
","","images/earth.jpg","","","","","","","","","","","","","","fixation","","","","","",""
"d3-animate-choice","85","290684","0.0-61.0-0.8","202","5226","9","Male","true","false","false","false","""event"",""trial"",""time""
""fullscreenenter"",""5"",""24938""
""blur"",""6"",""26350""
""focus"",""6"",""32871""
","""event"",""trial"",""time""
""blur"",""6"",""26350""
","""event"",""trial"",""time""
""focus"",""6"",""32871""
","""event"",""trial"",""time""
""fullscreenenter"",""5"",""24938""
","
","107.89999999850988","","48","","","3000","1","","","images/earth.jpg","images/tutrocket1","images/tutrocket2","null","images/tutrocket1","","1","practice","null","2","","",""
"d3-animate-choice","86","293144","0.0-61.0-1.8","202","5226","9","Male","true","false","false","false","""event"",""trial"",""time""
""fullscreenenter"",""5"",""24938""
""blur"",""6"",""26350""
""focus"",""6"",""32871""
","""event"",""trial"",""time""
""blur"",""6"",""26350""
","""event"",""trial"",""time""
""focus"",""6"",""32871""
","""event"",""trial"",""time""
""fullscreenenter"",""5"",""24938""
","
","455","","49","","","3000","1","","","images/tutyellowplanet.jpg","images/tutalien4","images/tutalien3","images/tutrocket1","images/tutalien3","images/nothing.png","2","practice","true","1","common","0","2022-12-16 20:59:34.944"
"two-step-fixation","87","294151","0.0-61.0-2.8","202","5226","9","Male","true","false","false","false","""event"",""trial"",""time""
""fullscreenenter"",""5"",""24938""
""blur"",""6"",""26350""
""focus"",""6"",""32871""
","""event"",""trial"",""time""
""blur"",""6"",""26350""
","""event"",""trial"",""time""
""focus"",""6"",""32871""
","""event"",""trial"",""time""
""fullscreenenter"",""5"",""24938""
","
","","images/earth.jpg","","","","","","","","","","","","","","fixation","","","","","",""
"d3-animate-choice","88","296208","0.0-61.0-0.9","202","5226","9","Male","true","false","false","false","""event"",""trial"",""time""
""fullscreenenter"",""5"",""24938""
""blur"",""6"",""26350""
""focus"",""6"",""32871""
","""event"",""trial"",""time""
""blur"",""6"",""26350""
","""event"",""trial"",""time""
""focus"",""6"",""32871""
","""event"",""trial"",""time""
""fullscreenenter"",""5"",""24938""
","
","51.899999998509884","","48","","","3000","1","340.3999999985099","48","images/earth.jpg","images/tutrocket1","images/tutrocket2","null","images/tutrocket1","","1","practice","null","2","","",""
"d3-animate-choice","89","298760","0.0-61.0-1.9","202","5226","9","Male","true","false","false","false","""event"",""trial"",""time""
""fullscreenenter"",""5"",""24938""
""blur"",""6"",""26350""
""focus"",""6"",""32871""
","""event"",""trial"",""time""
""blur"",""6"",""26350""
","""event"",""trial"",""time""
""focus"",""6"",""32871""
","""event"",""trial"",""time""
""fullscreenenter"",""5"",""24938""
","
","548","","48","","","3000","1","","","images/tutyellowplanet.jpg","images/tutalien4","images/tutalien3","images/tutrocket1","images/tutalien4","images/t.png","2","practice","true","2","common","1","2022-12-16 20:59:40.560"
"two-step-fixation","90","299767","0.0-61.0-2.9","202","5226","9","Male","true","false","false","false","""event"",""trial"",""time""
""fullscreenenter"",""5"",""24938""
""blur"",""6"",""26350""
""focus"",""6"",""32871""
","""event"",""trial"",""time""
""blur"",""6"",""26350""
","""event"",""trial"",""time""
""focus"",""6"",""32871""
","""event"",""trial"",""time""
""fullscreenenter"",""5"",""24938""
","
","","images/earth.jpg","","","","","","","","","","","","","","fixation","","","","","",""
"d3-animate-choice","91","302128","0.0-61.0-0.10","202","5226","9","Male","true","false","false","false","""event"",""trial"",""time""
""fullscreenenter"",""5"",""24938""
""blur"",""6"",""26350""
""focus"",""6"",""32871""
","""event"",""trial"",""time""
""blur"",""6"",""26350""
","""event"",""trial"",""time""
""focus"",""6"",""32871""
","""event"",""trial"",""time""
""fullscreenenter"",""5"",""24938""
","
","356.30000000074506","","48","","","3000","1","","","images/earth.jpg","images/tutrocket1","images/tutrocket2","null","images/tutrocket1","","1","practice","null","2","","",""
"d3-animate-choice","92","304248","0.0-61.0-1.10","202","5226","9","Male","true","false","false","false","""event"",""trial"",""time""
""fullscreenenter"",""5"",""24938""
""blur"",""6"",""26350""
""focus"",""6"",""32871""
","""event"",""trial"",""time""
""blur"",""6"",""26350""
","""event"",""trial"",""time""
""focus"",""6"",""32871""
","""event"",""trial"",""time""
""fullscreenenter"",""5"",""24938""
","
","116","","49","","","3000","1","395.80000000074506","49","images/tutyellowplanet.jpg","images/tutalien4","images/tutalien3","images/tutrocket1","images/tutalien3","images/nothing.png","2","practice","true","1","common","0","2022-12-16 20:59:46.048"
"two-step-fixation","93","305256","0.0-61.0-2.10","202","5226","9","Male","true","false","false","false","""event"",""trial"",""time""
""fullscreenenter"",""5"",""24938""
""blur"",""6"",""26350""
""focus"",""6"",""32871""
","""event"",""trial"",""time""
""blur"",""6"",""26350""
","""event"",""trial"",""time""
""focus"",""6"",""32871""
","""event"",""trial"",""time""
""fullscreenenter"",""5"",""24938""
","
","","images/earth.jpg","","","","","","","","","","","","","","fixation","","","","","",""
"d3-animate-choice","94","307526","0.0-61.0-0.11","202","5226","9","Male","true","false","false","false","""event"",""trial"",""time""
""fullscreenenter"",""5"",""24938""
""blur"",""6"",""26350""
""focus"",""6"",""32871""
","""event"",""trial"",""time""
""blur"",""6"",""26350""
","""event"",""trial"",""time""
""focus"",""6"",""32871""
","""event"",""trial"",""time""
""fullscreenenter"",""5"",""24938""
","
","259.8999999985099","","48","","","3000","1","611.5999999977648,1828.199999999255,2131.699999999255","48,48,48","images/earth.jpg","images/tutrocket1","images/tutrocket2","null","images/tutrocket1","","1","practice","null","2","","",""
"d3-animate-choice","95","309672","0.0-61.0-1.11","202","5226","9","Male","true","false","false","false","""event"",""trial"",""time""
""fullscreenenter"",""5"",""24938""
""blur"",""6"",""26350""
""focus"",""6"",""32871""
","""event"",""trial"",""time""
""blur"",""6"",""26350""
","""event"",""trial"",""time""
""focus"",""6"",""32871""
","""event"",""trial"",""time""
""fullscreenenter"",""5"",""24938""
","
","141.29999999701977","","48","","","3000","1","389,725.2999999970198,1125.0999999977648,2085.199999999255","48,48,48,48","images/tutyellowplanet.jpg","images/tutalien4","images/tutalien3","images/tutrocket1","images/tutalien4","images/nothing.png","2","practice","true","2","common","0","2022-12-16 20:59:51.472"
"two-step-fixation","96","310677","0.0-61.0-2.11","202","5226","9","Male","true","false","false","false","""event"",""trial"",""time""
""fullscreenenter"",""5"",""24938""
""blur"",""6"",""26350""
""focus"",""6"",""32871""
","""event"",""trial"",""time""
""blur"",""6"",""26350""
","""event"",""trial"",""time""
""focus"",""6"",""32871""
","""event"",""trial"",""time""
""fullscreenenter"",""5"",""24938""
","
","","images/earth.jpg","","","","","","","","","","","","","","fixation","","","","","",""
"d3-animate-choice","97","313431","0.0-61.0-0.12","202","5226","9","Male","true","false","false","false","""event"",""trial"",""time""
""fullscreenenter"",""5"",""24938""
""blur"",""6"",""26350""
""focus"",""6"",""32871""
","""event"",""trial"",""time""
""blur"",""6"",""26350""
","""event"",""trial"",""time""
""focus"",""6"",""32871""
","""event"",""trial"",""time""
""fullscreenenter"",""5"",""24938""
","
","750.6999999992549","","49","","","3000","1","","","images/earth.jpg","images/tutrocket1","images/tutrocket2","null","images/tutrocket2","","1","practice","null","1","","",""
"d3-animate-choice","98","316039","0.0-61.0-1.12","202","5226","9","Male","true","false","false","false","""event"",""trial"",""time""
""fullscreenenter"",""5"",""24938""
""blur"",""6"",""26350""
""focus"",""6"",""32871""
","""event"",""trial"",""time""
""blur"",""6"",""26350""
","""event"",""trial"",""time""
""focus"",""6"",""32871""
","""event"",""trial"",""time""
""fullscreenenter"",""5"",""24938""
","
","604","","49","","","3000","1","1076.5","49","images/tutgreenplanet.jpg","images/tutalien2","images/tutalien1","images/tutrocket2","images/tutalien1","images/nothing.png","2","practice","true","1","common","0","2022-12-16 20:59:57.839"
"two-step-fixation","99","317048","0.0-61.0-2.12","202","5226","9","Male","true","false","false","false","""event"",""trial"",""time""
""fullscreenenter"",""5"",""24938""
""blur"",""6"",""26350""
""focus"",""6"",""32871""
","""event"",""trial"",""time""
""blur"",""6"",""26350""
","""event"",""trial"",""time""
""focus"",""6"",""32871""
","""event"",""trial"",""time""
""fullscreenenter"",""5"",""24938""
","
","","images/earth.jpg","","","","","","","","","","","","","","fixation","","","","","",""
"d3-animate-choice","100","319264","0.0-61.0-0.13","202","5226","9","Male","true","false","false","false","""event"",""trial"",""time""
""fullscreenenter"",""5"",""24938""
""blur"",""6"",""26350""
""focus"",""6"",""32871""
","""event"",""trial"",""time""
""blur"",""6"",""26350""
","""event"",""trial"",""time""
""focus"",""6"",""32871""
","""event"",""trial"",""time""
""fullscreenenter"",""5"",""24938""
","
","212","","49","","","3000","1","492.1000000014901","49","images/earth.jpg","images/tutrocket1","images/tutrocket2","null","images/tutrocket2","","1","practice","null","1","","",""
"d3-animate-choice","101","321880","0.0-61.0-1.13","202","5226","9","Male","true","false","false","false","""event"",""trial"",""time""
""fullscreenenter"",""5"",""24938""
""blur"",""6"",""26350""
""focus"",""6"",""32871""
","""event"",""trial"",""time""
""blur"",""6"",""26350""
","""event"",""trial"",""time""
""focus"",""6"",""32871""
","""event"",""trial"",""time""
""fullscreenenter"",""5"",""24938""
","
","611.6999999992549","","48","","","3000","1","","","images/tutgreenplanet.jpg","images/tutalien2","images/tutalien1","images/tutrocket2","images/tutalien2","images/nothing.png","2","practice","true","2","common","0","2022-12-16 21:00:03.680"
"two-step-fixation","102","322888","0.0-61.0-2.13","202","5226","9","Male","true","false","false","false","""event"",""trial"",""time""
""fullscreenenter"",""5"",""24938""
""blur"",""6"",""26350""
""focus"",""6"",""32871""
","""event"",""trial"",""time""
""blur"",""6"",""26350""
","""event"",""trial"",""time""
""focus"",""6"",""32871""
","""event"",""trial"",""time""
""fullscreenenter"",""5"",""24938""
","
","","images/earth.jpg","","","","","","","","","","","","","","fixation","","","","","",""
"d3-animate-choice","103","324904","0.0-61.0-0.14","202","5226","9","Male","true","false","false","false","""event"",""trial"",""time""
""fullscreenenter"",""5"",""24938""
""blur"",""6"",""26350""
""focus"",""6"",""32871""
","""event"",""trial"",""time""
""blur"",""6"",""26350""
","""event"",""trial"",""time""
""focus"",""6"",""32871""
","""event"",""trial"",""time""
""fullscreenenter"",""5"",""24938""
","
","11.199999999254942","","48","","","3000","1","275.0999999977648","48","images/earth.jpg","images/tutrocket1","images/tutrocket2","null","images/tutrocket1","","1","practice","null","2","","",""
"d3-animate-choice","104","328360","0.0-61.0-1.14","202","5226","9","Male","true","false","false","false","""event"",""trial"",""time""
""fullscreenenter"",""5"",""24938""
""blur"",""6"",""26350""
""focus"",""6"",""32871""
","""event"",""trial"",""time""
""blur"",""6"",""26350""
","""event"",""trial"",""time""
""focus"",""6"",""32871""
","""event"",""trial"",""time""
""fullscreenenter"",""5"",""24938""
","
","1451.8999999985099","","49","","","3000","1","","","images/tutgreenplanet.jpg","images/tutalien2","images/tutalien1","images/tutrocket1","images/tutalien1","images/nothing.png","2","practice","false","1","rare","0","2022-12-16 21:00:10.160"
"two-step-fixation","105","329368","0.0-61.0-2.14","202","5226","9","Male","true","false","false","false","""event"",""trial"",""time""
""fullscreenenter"",""5"",""24938""
""blur"",""6"",""26350""
""focus"",""6"",""32871""
","""event"",""trial"",""time""
""blur"",""6"",""26350""
","""event"",""trial"",""time""
""focus"",""6"",""32871""
","""event"",""trial"",""time""
""fullscreenenter"",""5"",""24938""
","
","","images/earth.jpg","","","","","","","","","","","","","","fixation","","","","","",""
"d3-animate-choice","106","331405","0.0-61.0-0.15","202","5226","9","Male","true","false","false","false","""event"",""trial"",""time""
""fullscreenenter"",""5"",""24938""
""blur"",""6"",""26350""
""focus"",""6"",""32871""
","""event"",""trial"",""time""
""blur"",""6"",""26350""
","""event"",""trial"",""time""
""focus"",""6"",""32871""
","""event"",""trial"",""time""
""fullscreenenter"",""5"",""24938""
","
","34.600000001490116","","48","","","3000","1","307.20000000298023,1683.2000000029802","48,48","images/earth.jpg","images/tutrocket1","images/tutrocket2","null","images/tutrocket1","","1","practice","null","2","","",""
"d3-animate-choice","107","333415","0.0-61.0-1.15","202","5226","9","Male","true","false","false","false","""event"",""trial"",""time""
""fullscreenenter"",""5"",""24938""
""blur"",""6"",""26350""
""focus"",""6"",""32871""
","""event"",""trial"",""time""
""blur"",""6"",""26350""
","""event"",""trial"",""time""
""focus"",""6"",""32871""
","""event"",""trial"",""time""
""fullscreenenter"",""5"",""24938""
","
","6.300000000745058","","48","","","3000","1","349.80000000074506,710.4000000022352,1126.4000000022352,1910.1000000014901","48,48,48,48","images/tutgreenplanet.jpg","images/tutalien2","images/tutalien1","images/tutrocket1","images/tutalien2","images/t.png","2","practice","false","2","rare","1","2022-12-16 21:00:15.215"
"two-step-fixation","108","334422","0.0-61.0-2.15","202","5226","9","Male","true","false","false","false","""event"",""trial"",""time""
""fullscreenenter"",""5"",""24938""
""blur"",""6"",""26350""
""focus"",""6"",""32871""
","""event"",""trial"",""time""
""blur"",""6"",""26350""
","""event"",""trial"",""time""
""focus"",""6"",""32871""
","""event"",""trial"",""time""
""fullscreenenter"",""5"",""24938""
","
","","images/earth.jpg","","","","","","","","","","","","","","fixation","","","","","",""
"d3-animate-choice","109","336632","0.0-61.0-0.16","202","5226","9","Male","true","false","false","false","""event"",""trial"",""time""
""fullscreenenter"",""5"",""24938""
""blur"",""6"",""26350""
""focus"",""6"",""32871""
","""event"",""trial"",""time""
""blur"",""6"",""26350""
","""event"",""trial"",""time""
""focus"",""6"",""32871""
","""event"",""trial"",""time""
""fullscreenenter"",""5"",""24938""
","
","205.59999999776483","","48","","","3000","1","485.5,749,1021.5","48,48,48","images/earth.jpg","images/tutrocket1","images/tutrocket2","null","images/tutrocket1","","1","practice","null","2","","",""
"d3-animate-choice","110","339000","0.0-61.0-1.16","202","5226","9","Male","true","false","false","false","""event"",""trial"",""time""
""fullscreenenter"",""5"",""24938""
""blur"",""6"",""26350""
""focus"",""6"",""32871""
","""event"",""trial"",""time""
""blur"",""6"",""26350""
","""event"",""trial"",""time""
""focus"",""6"",""32871""
","""event"",""trial"",""time""
""fullscreenenter"",""5"",""24938""
","
","363.5999999977648","","48","","","3000","1","690.6999999992549,1083.5,1499.5","48,48,48","images/tutgreenplanet.jpg","images/tutalien2","images/tutalien1","images/tutrocket1","images/tutalien2","images/t.png","2","practice","false","2","rare","1","2022-12-16 21:00:20.800"
"two-step-fixation","111","340008","0.0-61.0-2.16","202","5226","9","Male","true","false","false","false","""event"",""trial"",""time""
""fullscreenenter"",""5"",""24938""
""blur"",""6"",""26350""
""focus"",""6"",""32871""
","""event"",""trial"",""time""
""blur"",""6"",""26350""
","""event"",""trial"",""time""
""focus"",""6"",""32871""
","""event"",""trial"",""time""
""fullscreenenter"",""5"",""24938""
","
","","images/earth.jpg","","","","","","","","","","","","","","fixation","","","","","",""
"d3-animate-choice","112","342024","0.0-61.0-0.17","202","5226","9","Male","true","false","false","false","""event"",""trial"",""time""
""fullscreenenter"",""5"",""24938""
""blur"",""6"",""26350""
""focus"",""6"",""32871""
","""event"",""trial"",""time""
""blur"",""6"",""26350""
","""event"",""trial"",""time""
""focus"",""6"",""32871""
","""event"",""trial"",""time""
""fullscreenenter"",""5"",""24938""
","
","11.5","","48","","","3000","1","363.0999999977648,643.5","48,48","images/earth.jpg","images/tutrocket1","images/tutrocket2","null","images/tutrocket1","","1","practice","null","2","","",""
"d3-animate-choice","113","344222","0.0-61.0-1.17","202","5226","9","Male","true","false","false","false","""event"",""trial"",""time""
""fullscreenenter"",""5"",""24938""
""blur"",""6"",""26350""
""focus"",""6"",""32871""
","""event"",""trial"",""time""
""blur"",""6"",""26350""
","""event"",""trial"",""time""
""focus"",""6"",""32871""
","""event"",""trial"",""time""
""fullscreenenter"",""5"",""24938""
","
","195.90000000223517","","49","","","3000","1","500.1000000014901","49","images/tutgreenplanet.jpg","images/tutalien2","images/tutalien1","images/tutrocket1","images/tutalien1","images/nothing.png","2","practice","false","1","rare","0","2022-12-16 21:00:26.022"
"two-step-fixation","114","345232","0.0-61.0-2.17","202","5226","9","Male","true","false","false","false","""event"",""trial"",""time""
""fullscreenenter"",""5"",""24938""
""blur"",""6"",""26350""
""focus"",""6"",""32871""
","""event"",""trial"",""time""
""blur"",""6"",""26350""
","""event"",""trial"",""time""
""focus"",""6"",""32871""
","""event"",""trial"",""time""
""fullscreenenter"",""5"",""24938""
","
","","images/earth.jpg","","","","","","","","","","","","","","fixation","","","","","",""
"d3-animate-choice","115","347391","0.0-61.0-0.18","202","5226","9","Male","true","false","false","false","""event"",""trial"",""time""
""fullscreenenter"",""5"",""24938""
""blur"",""6"",""26350""
""focus"",""6"",""32871""
","""event"",""trial"",""time""
""blur"",""6"",""26350""
","""event"",""trial"",""time""
""focus"",""6"",""32871""
","""event"",""trial"",""time""
""fullscreenenter"",""5"",""24938""
","
","155.30000000074506","","48","","","3000","1","443.5,1011.3999999985099,1411.5,1747.5999999977648","48,48,48,48","images/earth.jpg","images/tutrocket1","images/tutrocket2","null","images/tutrocket1","","1","practice","null","2","","",""
"d3-animate-choice","116","349400","0.0-61.0-1.18","202","5226","9","Male","true","false","false","false","""event"",""trial"",""time""
""fullscreenenter"",""5"",""24938""
""blur"",""6"",""26350""
""focus"",""6"",""32871""
","""event"",""trial"",""time""
""blur"",""6"",""26350""
","""event"",""trial"",""time""
""focus"",""6"",""32871""
","""event"",""trial"",""time""
""fullscreenenter"",""5"",""24938""
","
","4","","48","","","3000","1","364.1000000014901,700.3000000007451,1092.5,1388.4000000022352,1755.7000000029802","48,48,48,48,48","images/tutyellowplanet.jpg","images/tutalien4","images/tutalien3","images/tutrocket1","images/tutalien4","images/t.png","2","practice","true","2","common","1","2022-12-16 21:00:31.200"
"two-step-fixation","117","350405","0.0-61.0-2.18","202","5226","9","Male","true","false","false","false","""event"",""trial"",""time""
""fullscreenenter"",""5"",""24938""
""blur"",""6"",""26350""
""focus"",""6"",""32871""
","""event"",""trial"",""time""
""blur"",""6"",""26350""
","""event"",""trial"",""time""
""focus"",""6"",""32871""
","""event"",""trial"",""time""
""fullscreenenter"",""5"",""24938""
","
","","images/earth.jpg","","","","","","","","","","","","","","fixation","","","","","",""
"d3-animate-choice","118","352551","0.0-61.0-0.19","202","5226","9","Male","true","false","false","false","""event"",""trial"",""time""
""fullscreenenter"",""5"",""24938""
""blur"",""6"",""26350""
""focus"",""6"",""32871""
","""event"",""trial"",""time""
""blur"",""6"",""26350""
","""event"",""trial"",""time""
""focus"",""6"",""32871""
","""event"",""trial"",""time""
""fullscreenenter"",""5"",""24938""
","
","142.19999999925494","","48","","","3000","1","454.0999999977648,869.8999999985099,1406,1749.699999999255,2125.699999999255","48,48,48,48,48","images/earth.jpg","images/tutrocket1","images/tutrocket2","null","images/tutrocket1","","1","practice","null","2","","",""
"d3-animate-choice","119","354943","0.0-61.0-1.19","202","5226","9","Male","true","false","false","false","""event"",""trial"",""time""
""fullscreenenter"",""5"",""24938""
""blur"",""6"",""26350""
""focus"",""6"",""32871""
","""event"",""trial"",""time""
""blur"",""6"",""26350""
","""event"",""trial"",""time""
""focus"",""6"",""32871""
","""event"",""trial"",""time""
""fullscreenenter"",""5"",""24938""
","
","389.1000000014901","","48","","","3000","1","716.8000000007451,1053.199999999255,1437.300000000745,1820.5,2149.10000000149","48,48,48,48,48","images/tutyellowplanet.jpg","images/tutalien4","images/tutalien3","images/tutrocket1","images/tutalien4","images/t.png","2","practice","true","2","common","1","2022-12-16 21:00:36.743"
"two-step-fixation","120","355951","0.0-61.0-2.19","202","5226","9","Male","true","false","false","false","""event"",""trial"",""time""
""fullscreenenter"",""5"",""24938""
""blur"",""6"",""26350""
""focus"",""6"",""32871""
","""event"",""trial"",""time""
""blur"",""6"",""26350""
","""event"",""trial"",""time""
""focus"",""6"",""32871""
","""event"",""trial"",""time""
""fullscreenenter"",""5"",""24938""
","
","","images/earth.jpg","","","","","","","","","","","","","","fixation","","","","","",""
"d3-instructions","121","360941","0.0-62.0","202","5226","9","Male","true","false","false","false","""event"",""trial"",""time""
""fullscreenenter"",""5"",""24938""
""blur"",""6"",""26350""
""focus"",""6"",""32871""
","""event"",""trial"",""time""
""blur"",""6"",""26350""
","""event"",""trial"",""time""
""focus"",""6"",""32871""
","""event"",""trial"",""time""
""fullscreenenter"",""5"",""24938""
","
","","","","","","","","","","","","","","","","","","","","","",""
"audio-keyboard-response","122","363077","0.0-63.0","202","5226","9","Male","true","false","false","false","""event"",""trial"",""time""
""fullscreenenter"",""5"",""24938""
""blur"",""6"",""26350""
""focus"",""6"",""32871""
","""event"",""trial"",""time""
""blur"",""6"",""26350""
","""event"",""trial"",""time""
""focus"",""6"",""32871""
","""event"",""trial"",""time""
""fullscreenenter"",""5"",""24938""
","
","2139","audio/instructions/treasure_feedback.wav","32","","","","","","","","","","","","","","","","","","",""
"d3-instructions","123","365717","0.0-64.0","202","5226","9","Male","true","false","false","false","""event"",""trial"",""time""
""fullscreenenter"",""5"",""24938""
""blur"",""6"",""26350""
""focus"",""6"",""32871""
","""event"",""trial"",""time""
""blur"",""6"",""26350""
","""event"",""trial"",""time""
""focus"",""6"",""32871""
","""event"",""trial"",""time""
""fullscreenenter"",""5"",""24938""
","
","","","","","","","","","","","","","","","","","","","","","",""
"d3-instructions","124","367077","0.0-65.0","202","5226","9","Male","true","false","false","false","""event"",""trial"",""time""
""fullscreenenter"",""5"",""24938""
""blur"",""6"",""26350""
""focus"",""6"",""32871""
","""event"",""trial"",""time""
""blur"",""6"",""26350""
","""event"",""trial"",""time""
""focus"",""6"",""32871""
","""event"",""trial"",""time""
""fullscreenenter"",""5"",""24938""
","
","","","","","","","","","","","","","","","","","","","","","",""
"d3-instructions","125","369869","0.0-66.0","202","5226","9","Male","true","false","false","false","""event"",""trial"",""time""
""fullscreenenter"",""5"",""24938""
""blur"",""6"",""26350""
""focus"",""6"",""32871""
","""event"",""trial"",""time""
""blur"",""6"",""26350""
","""event"",""trial"",""time""
""focus"",""6"",""32871""
","""event"",""trial"",""time""
""fullscreenenter"",""5"",""24938""
","
","","","","","","","","","","","","","","","","","","","","","",""
"d3-instructions","126","378220","0.0-67.0","202","5226","9","Male","true","false","false","false","""event"",""trial"",""time""
""fullscreenenter"",""5"",""24938""
""blur"",""6"",""26350""
""focus"",""6"",""32871""
","""event"",""trial"",""time""
""blur"",""6"",""26350""
","""event"",""trial"",""time""
""focus"",""6"",""32871""
","""event"",""trial"",""time""
""fullscreenenter"",""5"",""24938""
","
","","","","","","","","","","","","","","","","","","","","","",""
"d3-instructions","127","386244","0.0-68.0","202","5226","9","Male","true","false","false","false","""event"",""trial"",""time""
""fullscreenenter"",""5"",""24938""
""blur"",""6"",""26350""
""focus"",""6"",""32871""
","""event"",""trial"",""time""
""blur"",""6"",""26350""
","""event"",""trial"",""time""
""focus"",""6"",""32871""
","""event"",""trial"",""time""
""fullscreenenter"",""5"",""24938""
","
","","","","","","","","","","","","","","","","","","","","","",""
"instructions-quiz","128","391004","0.0-69.0","202","5226","9","Male","true","false","false","false","""event"",""trial"",""time""
""fullscreenenter"",""5"",""24938""
""blur"",""6"",""26350""
""focus"",""6"",""32871""
","""event"",""trial"",""time""
""blur"",""6"",""26350""
","""event"",""trial"",""time""
""focus"",""6"",""32871""
","""event"",""trial"",""time""
""fullscreenenter"",""5"",""24938""
","
","4759","audio/quiz/Q1_Prompt.wav","","1","","","","","","","","","","","","","","","","","",""
"audio-keyboard-response","129","400173","0.0-70.0","202","5226","9","Male","true","false","false","false","""event"",""trial"",""time""
""fullscreenenter"",""5"",""24938""
""blur"",""6"",""26350""
""focus"",""6"",""32871""
","""event"",""trial"",""time""
""blur"",""6"",""26350""
","""event"",""trial"",""time""
""focus"",""6"",""32871""
","""event"",""trial"",""time""
""fullscreenenter"",""5"",""24938""
","
","null","audio/quiz/Q1_Correct.wav","null","","","","","","","","","","","","","","","","","","",""
"instructions-quiz","130","404948","0.0-71.0","202","5226","9","Male","true","false","false","false","""event"",""trial"",""time""
""fullscreenenter"",""5"",""24938""
""blur"",""6"",""26350""
""focus"",""6"",""32871""
","""event"",""trial"",""time""
""blur"",""6"",""26350""
","""event"",""trial"",""time""
""focus"",""6"",""32871""
","""event"",""trial"",""time""
""fullscreenenter"",""5"",""24938""
","
","4774.60000000149","audio/quiz/Q2_Prompt.wav","","0","","","","","","","","","","","","","","","","","",""
"audio-keyboard-response","131","408165","0.0-72.0","202","5226","9","Male","true","false","false","false","""event"",""trial"",""time""
""fullscreenenter"",""5"",""24938""
""blur"",""6"",""26350""
""focus"",""6"",""32871""
","""event"",""trial"",""time""
""blur"",""6"",""26350""
","""event"",""trial"",""time""
""focus"",""6"",""32871""
","""event"",""trial"",""time""
""fullscreenenter"",""5"",""24938""
","
","3221","audio/quiz/Q2_Correct.wav","32","","","","","","","","","","","","","","","","","","",""
"instructions-quiz","132","411292","0.0-73.0","202","5226","9","Male","true","false","false","false","""event"",""trial"",""time""
""fullscreenenter"",""5"",""24938""
""blur"",""6"",""26350""
""focus"",""6"",""32871""
","""event"",""trial"",""time""
""blur"",""6"",""26350""
","""event"",""trial"",""time""
""focus"",""6"",""32871""
","""event"",""trial"",""time""
""fullscreenenter"",""5"",""24938""
","
","3126.400000002235","audio/quiz/Q3_Prompt.wav","","1","","","","","","","","","","","","","","","","","",""
"audio-keyboard-response","133","412493","0.0-74.0","202","5226","9","Male","true","false","false","false","""event"",""trial"",""time""
""fullscreenenter"",""5"",""24938""
""blur"",""6"",""26350""
""focus"",""6"",""32871""
","""event"",""trial"",""time""
""blur"",""6"",""26350""
","""event"",""trial"",""time""
""focus"",""6"",""32871""
","""event"",""trial"",""time""
""fullscreenenter"",""5"",""24938""
","
","1200","audio/quiz/Q3_Correct.wav","32","","","","","","","","","","","","","","","","","","",""
"d3-instructions","134","415221","0.0-75.0","202","5226","9","Male","true","false","false","false","""event"",""trial"",""time""
""fullscreenenter"",""5"",""24938""
""blur"",""6"",""26350""
""focus"",""6"",""32871""
","""event"",""trial"",""time""
""blur"",""6"",""26350""
","""event"",""trial"",""time""
""focus"",""6"",""32871""
","""event"",""trial"",""time""
""fullscreenenter"",""5"",""24938""
","
","","","","","","","","","","","","","","","","","","","","","",""
"d3-animate-choice","135","418735","0.0-76.0-0.0","202","5226","9","Male","true","false","false","false","""event"",""trial"",""time""
""fullscreenenter"",""5"",""24938""
""blur"",""6"",""26350""
""focus"",""6"",""32871""
","""event"",""trial"",""time""
""blur"",""6"",""26350""
","""event"",""trial"",""time""
""focus"",""6"",""32871""
","""event"",""trial"",""time""
""fullscreenenter"",""5"",""24938""
","
","1509.699999999255","","48","","","3000","1","3222.300000000745","48","images/earth.jpg","images/rocket2","images/rocket1","null","images/rocket2","","1","real","null","2","","",""
"d3-animate-choice","136","420790","0.0-76.0-1.0","202","5226","9","Male","true","false","false","false","""event"",""trial"",""time""
""fullscreenenter"",""5"",""24938""
""blur"",""6"",""26350""
""focus"",""6"",""32871""
","""event"",""trial"",""time""
""blur"",""6"",""26350""
","""event"",""trial"",""time""
""focus"",""6"",""32871""
","""event"",""trial"",""time""
""fullscreenenter"",""5"",""24938""
","
","52.30000000074506","","48","","","3000","1","308.5,580.1999999992549,1988.199999999255","48,48,48","images/purpleplanet.jpg","images/alien4","images/alien3","images/rocket2","images/alien4","images/t.png","2","real","false","2","rare","1","2022-12-16 21:01:42.590"
"two-step-fixation","137","421800","0.0-76.0-2.0","202","5226","9","Male","true","false","false","false","""event"",""trial"",""time""
""fullscreenenter"",""5"",""24938""
""blur"",""6"",""26350""
""focus"",""6"",""32871""
","""event"",""trial"",""time""
""blur"",""6"",""26350""
","""event"",""trial"",""time""
""focus"",""6"",""32871""
","""event"",""trial"",""time""
""fullscreenenter"",""5"",""24938""
","
","","images/earth.jpg","","","","","","","","","","","","","","fixation","","","","","",""
"d3-animate-choice","138","423907","0.0-76.0-0.1","202","5226","9","Male","true","false","false","false","""event"",""trial"",""time""
""fullscreenenter"",""5"",""24938""
""blur"",""6"",""26350""
""focus"",""6"",""32871""
","""event"",""trial"",""time""
""blur"",""6"",""26350""
","""event"",""trial"",""time""
""focus"",""6"",""32871""
","""event"",""trial"",""time""
""fullscreenenter"",""5"",""24938""
","
","90.59999999776483","","48","","","3000","1","330.69999999925494","48","images/earth.jpg","images/rocket2","images/rocket1","null","images/rocket2","","1","real","null","2","","",""
"d3-animate-choice","139","426215","0.0-76.0-1.1","202","5226","9","Male","true","false","false","false","""event"",""trial"",""time""
""fullscreenenter"",""5"",""24938""
""blur"",""6"",""26350""
""focus"",""6"",""32871""
","""event"",""trial"",""time""
""blur"",""6"",""26350""
","""event"",""trial"",""time""
""focus"",""6"",""32871""
","""event"",""trial"",""time""
""fullscreenenter"",""5"",""24938""
","
","303.29999999701977","","49","","","3000","1","","","images/redplanet1.jpg","images/alien2","images/alien1","images/rocket2","images/alien1","images/nothing.png","2","real","true","1","common","0","2022-12-16 21:01:48.016"
"two-step-fixation","140","427223","0.0-76.0-2.1","202","5226","9","Male","true","false","false","false","""event"",""trial"",""time""
""fullscreenenter"",""5"",""24938""
""blur"",""6"",""26350""
""focus"",""6"",""32871""
","""event"",""trial"",""time""
""blur"",""6"",""26350""
","""event"",""trial"",""time""
""focus"",""6"",""32871""
","""event"",""trial"",""time""
""fullscreenenter"",""5"",""24938""
","
","","images/earth.jpg","","","","","","","","","","","","","","fixation","","","","","",""
"d3-animate-choice","141","429305","0.0-76.0-0.2","202","5226","9","Male","true","false","false","false","""event"",""trial"",""time""
""fullscreenenter"",""5"",""24938""
""blur"",""6"",""26350""
""focus"",""6"",""32871""
","""event"",""trial"",""time""
""blur"",""6"",""26350""
","""event"",""trial"",""time""
""focus"",""6"",""32871""
","""event"",""trial"",""time""
""fullscreenenter"",""5"",""24938""
","
","68.19999999925494","","49","","","3000","1","68.59999999776483","48","images/earth.jpg","images/rocket2","images/rocket1","null","images/rocket1","","1","real","null","1","","",""
"d3-animate-choice","142","431319","0.0-76.0-1.2","202","5226","9","Male","true","false","false","false","""event"",""trial"",""time""
""fullscreenenter"",""5"",""24938""
""blur"",""6"",""26350""
""focus"",""6"",""32871""
","""event"",""trial"",""time""
""blur"",""6"",""26350""
","""event"",""trial"",""time""
""focus"",""6"",""32871""
","""event"",""trial"",""time""
""fullscreenenter"",""5"",""24938""
","
","9.699999999254942","","49","","","3000","1","314.1000000014901","49","images/redplanet1.jpg","images/alien2","images/alien1","images/rocket1","images/alien1","images/nothing.png","2","real","false","1","rare","0","2022-12-16 21:01:53.119"
"two-step-fixation","143","432333","0.0-76.0-2.2","202","5226","9","Male","true","false","false","false","""event"",""trial"",""time""
""fullscreenenter"",""5"",""24938""
""blur"",""6"",""26350""
""focus"",""6"",""32871""
","""event"",""trial"",""time""
""blur"",""6"",""26350""
","""event"",""trial"",""time""
""focus"",""6"",""32871""
","""event"",""trial"",""time""
""fullscreenenter"",""5"",""24938""
","
","","images/earth.jpg","","","","","","","","","","","","","","fixation","","","","","",""
"d3-animate-choice","144","434391","0.0-76.0-0.3","202","5226","9","Male","true","false","false","false","""event"",""trial"",""time""
""fullscreenenter"",""5"",""24938""
""blur"",""6"",""26350""
""focus"",""6"",""32871""
","""event"",""trial"",""time""
""blur"",""6"",""26350""
","""event"",""trial"",""time""
""focus"",""6"",""32871""
","""event"",""trial"",""time""
""fullscreenenter"",""5"",""24938""
","
","53.5","","49","","","3000","1","","","images/earth.jpg","images/rocket2","images/rocket1","null","images/rocket1","","1","real","null","1","","",""
"d3-animate-choice","145","436640","0.0-76.0-1.3","202","5226","9","Male","true","false","false","false","""event"",""trial"",""time""
""fullscreenenter"",""5"",""24938""
""blur"",""6"",""26350""
""focus"",""6"",""32871""
","""event"",""trial"",""time""
""blur"",""6"",""26350""
","""event"",""trial"",""time""
""focus"",""6"",""32871""
","""event"",""trial"",""time""
""fullscreenenter"",""5"",""24938""
","
","244.59999999776483","","48","","","3000","1","484.5,812.7999999970198,1092.8999999985099,1508,2108.599999997765","48,48,48,48,48","images/redplanet1.jpg","images/alien2","images/alien1","images/rocket1","images/alien2","images/t.png","2","real","false","2","rare","1","2022-12-16 21:01:58.440"
"two-step-fixation","146","437648","0.0-76.0-2.3","202","5226","9","Male","true","false","false","false","""event"",""trial"",""time""
""fullscreenenter"",""5"",""24938""
""blur"",""6"",""26350""
""focus"",""6"",""32871""
","""event"",""trial"",""time""
""blur"",""6"",""26350""
","""event"",""trial"",""time""
""focus"",""6"",""32871""
","""event"",""trial"",""time""
""fullscreenenter"",""5"",""24938""
","
","","images/earth.jpg","","","","","","","","","","","","","","fixation","","","","","",""
"d3-animate-choice","147","439751","0.0-76.0-0.4","202","5226","9","Male","true","false","false","false","""event"",""trial"",""time""
""fullscreenenter"",""5"",""24938""
""blur"",""6"",""26350""
""focus"",""6"",""32871""
","""event"",""trial"",""time""
""blur"",""6"",""26350""
","""event"",""trial"",""time""
""focus"",""6"",""32871""
","""event"",""trial"",""time""
""fullscreenenter"",""5"",""24938""
","
","99.69999999925494","","48","","","3000","1","411.79999999701977,755.5999999977648,1067.5999999977648,1371.3999999985099,1651.5999999977648,1963.0999999977648","48,48,48,48,48,48","images/earth.jpg","images/rocket2","images/rocket1","null","images/rocket2","","1","real","null","2","","",""
"d3-animate-choice","148","441944","0.0-76.0-1.4","202","5226","9","Male","true","false","false","false","""event"",""trial"",""time""
""fullscreenenter"",""5"",""24938""
""blur"",""6"",""26350""
""focus"",""6"",""32871""
","""event"",""trial"",""time""
""blur"",""6"",""26350""
","""event"",""trial"",""time""
""focus"",""6"",""32871""
","""event"",""trial"",""time""
""fullscreenenter"",""5"",""24938""
","
","187.60000000149012","","48","","","3000","1","468.20000000298023,772.4000000022352,1092.300000000745,1348.2000000029802,1619.7000000029802,1916.4000000022352","48,48,48,48,48,48","images/purpleplanet.jpg","images/alien4","images/alien3","images/rocket2","images/alien4","images/t.png","2","real","false","2","rare","1","2022-12-16 21:02:03.744"
"two-step-fixation","149","442953","0.0-76.0-2.4","202","5226","9","Male","true","false","false","false","""event"",""trial"",""time""
""fullscreenenter"",""5"",""24938""
""blur"",""6"",""26350""
""focus"",""6"",""32871""
","""event"",""trial"",""time""
""blur"",""6"",""26350""
","""event"",""trial"",""time""
""focus"",""6"",""32871""
","""event"",""trial"",""time""
""fullscreenenter"",""5"",""24938""
","
","","images/earth.jpg","","","","","","","","","","","","","","fixation","","","","","",""
"d3-animate-choice","150","445086","0.0-76.0-0.5","202","5226","9","Male","true","false","false","false","""event"",""trial"",""time""
""fullscreenenter"",""5"",""24938""
""blur"",""6"",""26350""
""focus"",""6"",""32871""
","""event"",""trial"",""time""
""blur"",""6"",""26350""
","""event"",""trial"",""time""
""focus"",""6"",""32871""
","""event"",""trial"",""time""
""fullscreenenter"",""5"",""24938""
","
","122.80000000074506","","49","","","3000","1","","","images/earth.jpg","images/rocket2","images/rocket1","null","images/rocket1","","1","real","null","1","","",""
"d3-animate-choice","151","447536","0.0-76.0-1.5","202","5226","9","Male","true","false","false","false","""event"",""trial"",""time""
""fullscreenenter"",""5"",""24938""
""blur"",""6"",""26350""
""focus"",""6"",""32871""
","""event"",""trial"",""time""
""blur"",""6"",""26350""
","""event"",""trial"",""time""
""focus"",""6"",""32871""
","""event"",""trial"",""time""
""fullscreenenter"",""5"",""24938""
","
","444.3999999985099","","48","","","3000","1","","","images/purpleplanet.jpg","images/alien4","images/alien3","images/rocket1","images/alien4","images/nothing.png","2","real","true","2","common","0","2022-12-16 21:02:09.336"
"two-step-fixation","152","448544","0.0-76.0-2.5","202","5226","9","Male","true","false","false","false","""event"",""trial"",""time""
""fullscreenenter"",""5"",""24938""
""blur"",""6"",""26350""
""focus"",""6"",""32871""
","""event"",""trial"",""time""
""blur"",""6"",""26350""
","""event"",""trial"",""time""
""focus"",""6"",""32871""
","""event"",""trial"",""time""
""fullscreenenter"",""5"",""24938""
","
","","images/earth.jpg","","","","","","","","","","","","","","fixation","","","","","",""
"d3-animate-choice","153","450896","0.0-76.0-0.6","202","5226","9","Male","true","false","false","false","""event"",""trial"",""time""
""fullscreenenter"",""5"",""24938""
""blur"",""6"",""26350""
""focus"",""6"",""32871""
","""event"",""trial"",""time""
""blur"",""6"",""26350""
","""event"",""trial"",""time""
""focus"",""6"",""32871""
","""event"",""trial"",""time""
""fullscreenenter"",""5"",""24938""
","
","347.80000000074506","","49","","","3000","1","","","images/earth.jpg","images/rocket2","images/rocket1","null","images/rocket1","","1","real","null","1","","",""
"d3-animate-choice","154","453663","0.0-76.0-1.6","202","5226","9","Male","true","false","false","false","""event"",""trial"",""time""
""fullscreenenter"",""5"",""24938""
""blur"",""6"",""26350""
""focus"",""6"",""32871""
","""event"",""trial"",""time""
""blur"",""6"",""26350""
","""event"",""trial"",""time""
""focus"",""6"",""32871""
","""event"",""trial"",""time""
""fullscreenenter"",""5"",""24938""
","
","763.3000000007451","","49","","","3000","1","","","images/purpleplanet.jpg","images/alien4","images/alien3","images/rocket1","images/alien3","images/t.png","2","real","true","1","common","1","2022-12-16 21:02:15.463"
"two-step-fixation","155","454672","0.0-76.0-2.6","202","5226","9","Male","true","false","false","false","""event"",""trial"",""time""
""fullscreenenter"",""5"",""24938""
""blur"",""6"",""26350""
""focus"",""6"",""32871""
","""event"",""trial"",""time""
""blur"",""6"",""26350""
","""event"",""trial"",""time""
""focus"",""6"",""32871""
","""event"",""trial"",""time""
""fullscreenenter"",""5"",""24938""
","
","","images/earth.jpg","","","","","","","","","","","","","","fixation","","","","","",""
"d3-animate-choice","156","457119","0.0-76.0-0.7","202","5226","9","Male","true","false","false","false","""event"",""trial"",""time""
""fullscreenenter"",""5"",""24938""
""blur"",""6"",""26350""
""focus"",""6"",""32871""
","""event"",""trial"",""time""
""blur"",""6"",""26350""
","""event"",""trial"",""time""
""focus"",""6"",""32871""
","""event"",""trial"",""time""
""fullscreenenter"",""5"",""24938""
","
","443.5999999977648","","48","","","3000","1","","","images/earth.jpg","images/rocket2","images/rocket1","null","images/rocket2","","1","real","null","2","","",""
"d3-animate-choice","157","459974","0.0-76.0-1.7","202","5226","9","Male","true","false","false","false","""event"",""trial"",""time""
""fullscreenenter"",""5"",""24938""
""blur"",""6"",""26350""
""focus"",""6"",""32871""
","""event"",""trial"",""time""
""blur"",""6"",""26350""
","""event"",""trial"",""time""
""focus"",""6"",""32871""
","""event"",""trial"",""time""
""fullscreenenter"",""5"",""24938""
","
","852.3000000007451","","49","","","3000","1","","","images/redplanet1.jpg","images/alien2","images/alien1","images/rocket2","images/alien1","images/t.png","2","real","true","1","common","1","2022-12-16 21:02:21.774"
"two-step-fixation","158","460983","0.0-76.0-2.7","202","5226","9","Male","true","false","false","false","""event"",""trial"",""time""
""fullscreenenter"",""5"",""24938""
""blur"",""6"",""26350""
""focus"",""6"",""32871""
","""event"",""trial"",""time""
""blur"",""6"",""26350""
","""event"",""trial"",""time""
""focus"",""6"",""32871""
","""event"",""trial"",""time""
""fullscreenenter"",""5"",""24938""
","
","","images/earth.jpg","","","","","","","","","","","","","","fixation","","","","","",""
"d3-animate-choice","159","463072","0.0-76.0-0.8","202","5226","9","Male","true","false","false","false","""event"",""trial"",""time""
""fullscreenenter"",""5"",""24938""
""blur"",""6"",""26350""
""focus"",""6"",""32871""
","""event"",""trial"",""time""
""blur"",""6"",""26350""
","""event"",""trial"",""time""
""focus"",""6"",""32871""
","""event"",""trial"",""time""
""fullscreenenter"",""5"",""24938""
","
","84.09999999776483","","48","","","3000","1","379.8999999985099","48","images/earth.jpg","images/rocket2","images/rocket1","null","images/rocket2","","1","real","null","2","","",""
"d3-animate-choice","160","465168","0.0-76.0-1.8","202","5226","9","Male","true","false","false","false","""event"",""trial"",""time""
""fullscreenenter"",""5"",""24938""
""blur"",""6"",""26350""
""focus"",""6"",""32871""
","""event"",""trial"",""time""
""blur"",""6"",""26350""
","""event"",""trial"",""time""
""focus"",""6"",""32871""
","""event"",""trial"",""time""
""fullscreenenter"",""5"",""24938""
","
","91.60000000149012","","49","","","3000","1","531.1999999992549,1891.4000000022352","49,48","images/purpleplanet.jpg","images/alien4","images/alien3","images/rocket2","images/alien3","images/nothing.png","2","real","false","1","rare","0","2022-12-16 21:02:26.968"
"two-step-fixation","161","466174","0.0-76.0-2.8","202","5226","9","Male","true","false","false","false","""event"",""trial"",""time""
""fullscreenenter"",""5"",""24938""
""blur"",""6"",""26350""
""focus"",""6"",""32871""
","""event"",""trial"",""time""
""blur"",""6"",""26350""
","""event"",""trial"",""time""
""focus"",""6"",""32871""
","""event"",""trial"",""time""
""fullscreenenter"",""5"",""24938""
","
","","images/earth.jpg","","","","","","","","","","","","","","fixation","","","","","",""
"d3-animate-choice","162","468232","0.0-76.0-0.9","202","5226","9","Male","true","false","false","false","""event"",""trial"",""time""
""fullscreenenter"",""5"",""24938""
""blur"",""6"",""26350""
""focus"",""6"",""32871""
","""event"",""trial"",""time""
""blur"",""6"",""26350""
","""event"",""trial"",""time""
""focus"",""6"",""32871""
","""event"",""trial"",""time""
""fullscreenenter"",""5"",""24938""
","
","53.100000001490116","","48","","","3000","1","325.3999999985099,621.1000000014901,949.1999999992549,1237.300000000745,1565.199999999255","48,48,48,48,48","images/earth.jpg","images/rocket2","images/rocket1","null","images/rocket2","","1","real","null","2","","",""
"d3-animate-choice","163","470752","0.0-76.0-1.9","202","5226","9","Male","true","false","false","false","""event"",""trial"",""time""
""fullscreenenter"",""5"",""24938""
""blur"",""6"",""26350""
""focus"",""6"",""32871""
","""event"",""trial"",""time""
""blur"",""6"",""26350""
","""event"",""trial"",""time""
""focus"",""6"",""32871""
","""event"",""trial"",""time""
""fullscreenenter"",""5"",""24938""
","
","515.8000000007451","","48","","","3000","1","","","images/redplanet1.jpg","images/alien2","images/alien1","images/rocket2","images/alien2","images/nothing.png","2","real","true","2","common","0","2022-12-16 21:02:32.552"
"two-step-fixation","164","471760","0.0-76.0-2.9","202","5226","9","Male","true","false","false","false","""event"",""trial"",""time""
""fullscreenenter"",""5"",""24938""
""blur"",""6"",""26350""
""focus"",""6"",""32871""
","""event"",""trial"",""time""
""blur"",""6"",""26350""
","""event"",""trial"",""time""
""focus"",""6"",""32871""
","""event"",""trial"",""time""
""fullscreenenter"",""5"",""24938""
","
","","images/earth.jpg","","","","","","","","","","","","","","fixation","","","","","",""
"d3-animate-choice","165","473975","0.0-76.0-0.10","202","5226","9","Male","true","false","false","false","""event"",""trial"",""time""
""fullscreenenter"",""5"",""24938""
""blur"",""6"",""26350""
""focus"",""6"",""32871""
","""event"",""trial"",""time""
""blur"",""6"",""26350""
","""event"",""trial"",""time""
""focus"",""6"",""32871""
","""event"",""trial"",""time""
""fullscreenenter"",""5"",""24938""
","
","211","","48","","","3000","1","683.1999999992549","48","images/earth.jpg","images/rocket2","images/rocket1","null","images/rocket2","","1","real","null","2","","",""
"d3-animate-choice","166","476336","0.0-76.0-1.10","202","5226","9","Male","true","false","false","false","""event"",""trial"",""time""
""fullscreenenter"",""5"",""24938""
""blur"",""6"",""26350""
""focus"",""6"",""32871""
","""event"",""trial"",""time""
""blur"",""6"",""26350""
","""event"",""trial"",""time""
""focus"",""6"",""32871""
","""event"",""trial"",""time""
""fullscreenenter"",""5"",""24938""
","
","356.19999999925494","","48","","","3000","1","2084.89999999851","48","images/purpleplanet.jpg","images/alien4","images/alien3","images/rocket2","images/alien4","images/t.png","2","real","false","2","rare","1","2022-12-16 21:02:38.136"
"two-step-fixation","167","477343","0.0-76.0-2.10","202","5226","9","Male","true","false","false","false","""event"",""trial"",""time""
""fullscreenenter"",""5"",""24938""
""blur"",""6"",""26350""
""focus"",""6"",""32871""
","""event"",""trial"",""time""
""blur"",""6"",""26350""
","""event"",""trial"",""time""
""focus"",""6"",""32871""
","""event"",""trial"",""time""
""fullscreenenter"",""5"",""24938""
","
","","images/earth.jpg","","","","","","","","","","","","","","fixation","","","","","",""
"d3-animate-choice","168","479407","0.0-76.0-0.11","202","5226","9","Male","true","false","false","false","""event"",""trial"",""time""
""fullscreenenter"",""5"",""24938""
""blur"",""6"",""26350""
""focus"",""6"",""32871""
","""event"",""trial"",""time""
""blur"",""6"",""26350""
","""event"",""trial"",""time""
""focus"",""6"",""32871""
","""event"",""trial"",""time""
""fullscreenenter"",""5"",""24938""
","
","60.19999999925494","","48","","","3000","1","339.9000000022352,732.1000000014901,1036.1000000014901,1347.5,1756,2051.900000002235","48,48,48,48,48,48","images/earth.jpg","images/rocket2","images/rocket1","null","images/rocket2","","1","real","null","2","","",""
"d3-animate-choice","169","481800","0.0-76.0-1.11","202","5226","9","Male","true","false","false","false","""event"",""trial"",""time""
""fullscreenenter"",""5"",""24938""
""blur"",""6"",""26350""
""focus"",""6"",""32871""
","""event"",""trial"",""time""
""blur"",""6"",""26350""
","""event"",""trial"",""time""
""focus"",""6"",""32871""
","""event"",""trial"",""time""
""fullscreenenter"",""5"",""24938""
","
","387.5","","48","","","3000","1","683.5,995.6000000014901,1332,1652,1964.1000000014901,2331.900000002235","48,48,48,48,48,48","images/redplanet1.jpg","images/alien2","images/alien1","images/rocket2","images/alien2","images/t.png","2","real","true","2","common","1","2022-12-16 21:02:43.600"
"two-step-fixation","170","482808","0.0-76.0-2.11","202","5226","9","Male","true","false","false","false","""event"",""trial"",""time""
""fullscreenenter"",""5"",""24938""
""blur"",""6"",""26350""
""focus"",""6"",""32871""
","""event"",""trial"",""time""
""blur"",""6"",""26350""
","""event"",""trial"",""time""
""focus"",""6"",""32871""
","""event"",""trial"",""time""
""fullscreenenter"",""5"",""24938""
","
","","images/earth.jpg","","","","","","","","","","","","","","fixation","","","","","",""
"d3-animate-choice","171","485045","0.0-76.0-0.12","202","5226","9","Male","true","false","false","false","""event"",""trial"",""time""
""fullscreenenter"",""5"",""24938""
""blur"",""6"",""26350""
""focus"",""6"",""32871""
","""event"",""trial"",""time""
""blur"",""6"",""26350""
","""event"",""trial"",""time""
""focus"",""6"",""32871""
","""event"",""trial"",""time""
""fullscreenenter"",""5"",""24938""
","
","234.80000000074506","","48","","","3000","1","546.8000000007451,875,1131.300000000745,1482.4000000022352,1723.4000000022352,2019.300000000745","48,48,48,48,48,48","images/earth.jpg","images/rocket2","images/rocket1","null","images/rocket2","","1","real","null","2","","",""
"d3-animate-choice","172","487158","0.0-76.0-1.12","202","5226","9","Male","true","false","false","false","""event"",""trial"",""time""
""fullscreenenter"",""5"",""24938""
""blur"",""6"",""26350""
""focus"",""6"",""32871""
","""event"",""trial"",""time""
""blur"",""6"",""26350""
","""event"",""trial"",""time""
""focus"",""6"",""32871""
","""event"",""trial"",""time""
""fullscreenenter"",""5"",""24938""
","
","110.5","","48","","","3000","1","374.69999999925494,645.7999999970198,1006.6999999992549,1534.2999999970198,1926.5999999977648","48,48,48,48,48","images/purpleplanet.jpg","images/alien4","images/alien3","images/rocket2","images/alien4","images/nothing.png","2","real","false","2","rare","0","2022-12-16 21:02:48.958"
"two-step-fixation","173","488168","0.0-76.0-2.12","202","5226","9","Male","true","false","false","false","""event"",""trial"",""time""
""fullscreenenter"",""5"",""24938""
""blur"",""6"",""26350""
""focus"",""6"",""32871""
","""event"",""trial"",""time""
""blur"",""6"",""26350""
","""event"",""trial"",""time""
""focus"",""6"",""32871""
","""event"",""trial"",""time""
""fullscreenenter"",""5"",""24938""
","
","","images/earth.jpg","","","","","","","","","","","","","","fixation","","","","","",""
"d3-animate-choice","174","490416","0.0-76.0-0.13","202","5226","9","Male","true","false","false","false","""event"",""trial"",""time""
