"trial_type","trial_index","time_elapsed","internal_node_id","participant_id","subject_id","age","gender","rocket_sides","red_planet_first_rocket","red_display_order","purple_display_order","interactions","blur_events","focus_events","fullscreenenter_events","fullscreenexit_events","rt","stimulus","key_press","button_pressed","success","duration","valid_pressed","rts","keys","planet_text","right_text","left_text","center_text","chosen_text","reward_text","trial_stage","practice_trial","transition_type","choice","transition","reward","timestamp"
"pavlovia","0","3","0.0-0.0","918","667","22","Male","false","false","false","true","
","
","
","
","
","","","","","","","","","","","","","","","","","","","","","",""
"html-keyboard-response","1","1733","0.0-1.0","918","667","22","Male","false","false","false","true","
","
","
","
","
","1728.4000000059605","Welcome! Press the space bar to begin.","32","","","","","","","","","","","","","","","","","","",""
"audio-keyboard-response","2","5678","0.0-2.0","918","667","22","Male","false","false","false","true","
","
","
","
","
","3889","audio/beep_loop.wav","32","","","","","","","","","","","","","","","","","","",""
"audio-button-response","3","10225","0.0-3.0","918","667","22","Male","false","false","false","true","
","
","
","
","
","NaN","audio/fish.mp3","","1","","","","","","","","","","","","","","","","","",""
"audio-button-response","4","12888","0.0-4.0","918","667","22","Male","false","false","false","true","""event"",""trial"",""time""
""fullscreenenter"",""5"",""15795""
","
","
","""event"",""trial"",""time""
""fullscreenenter"",""5"",""15795""
","
","NaN","audio/tiger.mp3","","4","","","","","","","","","","","","","","","","","",""
"fullscreen","5","16742","0.0-5.0","918","667","22","Male","false","false","false","true","""event"",""trial"",""time""
""fullscreenenter"",""5"",""15795""
","
","
","""event"",""trial"",""time""
""fullscreenenter"",""5"",""15795""
","
","","","","","true","","","","","","","","","","","","","","","","",""
"d3-instructions","6","31305","0.0-6.0","918","667","22","Male","false","false","false","true","""event"",""trial"",""time""
""fullscreenenter"",""5"",""15795""
","
","
","""event"",""trial"",""time""
""fullscreenenter"",""5"",""15795""
","
","","","","","","","","","","","","","","","","","","","","","",""
"d3-instructions","7","39785","0.0-7.0","918","667","22","Male","false","false","false","true","""event"",""trial"",""time""
""fullscreenenter"",""5"",""15795""
","
","
","""event"",""trial"",""time""
""fullscreenenter"",""5"",""15795""
","
","","","","","","","","","","","","","","","","","","","","","",""
"d3-instructions","8","47367","0.0-8.0","918","667","22","Male","false","false","false","true","""event"",""trial"",""time""
""fullscreenenter"",""5"",""15795""
","
","
","""event"",""trial"",""time""
""fullscreenenter"",""5"",""15795""
","
","","","","","","","","","","","","","","","","","","","","","",""
"d3-instructions","9","58514","0.0-9.0","918","667","22","Male","false","false","false","true","""event"",""trial"",""time""
""fullscreenenter"",""5"",""15795""
","
","
","""event"",""trial"",""time""
""fullscreenenter"",""5"",""15795""
","
","","","","","","","","","","","","","","","","","","","","","",""
"d3-instructions","10","78490","0.0-10.0","918","667","22","Male","false","false","false","true","""event"",""trial"",""time""
""fullscreenenter"",""5"",""15795""
","
","
","""event"",""trial"",""time""
""fullscreenenter"",""5"",""15795""
","
","","","","","","","","","","","","","","","","","","","","","",""
"d3-animate-choice","11","83864","0.0-11.0","918","667","22","Male","false","false","false","true","""event"",""trial"",""time""
""fullscreenenter"",""5"",""15795""
","
","
","""event"",""trial"",""time""
""fullscreenenter"",""5"",""15795""
","
","3360.4000000059605","","49","","","3000","1","","","images/tutgreenplanet.jpg","images/tutalien1","images/tutalien2","null","images/tutalien2","","NA","practice","null","","","",""
"d3-animate-choice","12","86868","0.0-12.0","918","667","22","Male","false","false","false","true","""event"",""trial"",""time""
""fullscreenenter"",""5"",""15795""
","
","
","""event"",""trial"",""time""
""fullscreenenter"",""5"",""15795""
","
","1000.3000000119209","","48","","","3000","1","","","images/tutgreenplanet.jpg","images/tutalien1","images/tutalien2","null","images/tutalien1","","NA","practice","null","","","",""
"d3-animate-choice","13","90026","0.0-13.0","918","667","22","Male","false","false","false","true","""event"",""trial"",""time""
""fullscreenenter"",""5"",""15795""
","
","
","""event"",""trial"",""time""
""fullscreenenter"",""5"",""15795""
","
","1149.300000011921","","48","","","3000","1","","","images/tutgreenplanet.jpg","images/tutalien1","images/tutalien2","null","images/tutalien1","","NA","practice","null","","","",""
"d3-animate-choice","14","92970","0.0-14.0","918","667","22","Male","false","false","false","true","""event"",""trial"",""time""
""fullscreenenter"",""5"",""15795""
","
","
","""event"",""trial"",""time""
""fullscreenenter"",""5"",""15795""
","
","940.2000000178814","","48","","","3000","1","","","images/tutgreenplanet.jpg","images/tutalien1","images/tutalien2","null","images/tutalien1","","NA","practice","null","","","",""
"d3-instructions","15","100404","0.0-15.0","918","667","22","Male","false","false","false","true","""event"",""trial"",""time""
""fullscreenenter"",""5"",""15795""
","
","
","""event"",""trial"",""time""
""fullscreenenter"",""5"",""15795""
","
","","","","","","","","","","","","","","","","","","","","","",""
"d3-instructions","16","107202","0.0-16.0","918","667","22","Male","false","false","false","true","""event"",""trial"",""time""
""fullscreenenter"",""5"",""15795""
","
","
","""event"",""trial"",""time""
""fullscreenenter"",""5"",""15795""
","
","","","","","","","","","","","","","","","","","","","","","",""
"d3-instructions","17","117420","0.0-17.0","918","667","22","Male","false","false","false","true","""event"",""trial"",""time""
""fullscreenenter"",""5"",""15795""
","
","
","""event"",""trial"",""time""
""fullscreenenter"",""5"",""15795""
","
","","","","","","","","","","","","","","","","","","","","","",""
"d3-instructions","18","132539","0.0-18.0","918","667","22","Male","false","false","false","true","""event"",""trial"",""time""
""fullscreenenter"",""5"",""15795""
","
","
","""event"",""trial"",""time""
""fullscreenenter"",""5"",""15795""
","
","","","","","","","","","","","","","","","","","","","","","",""
"d3-instructions","19","146707","0.0-19.0","918","667","22","Male","false","false","false","true","""event"",""trial"",""time""
""fullscreenenter"",""5"",""15795""
","
","
","""event"",""trial"",""time""
""fullscreenenter"",""5"",""15795""
","
","","","","","","","","","","","","","","","","","","","","","",""
"d3-animate-choice","20","149663","0.0-20.0","918","667","22","Male","false","false","false","true","""event"",""trial"",""time""
""fullscreenenter"",""5"",""15795""
","
","
","""event"",""trial"",""time""
""fullscreenenter"",""5"",""15795""
","
","952.8000000119209","","49","","","3000","1","","","images/tutyellowplanet.jpg","null","images/tutalien3","null","images/tutalien3","images/nothing.png","NA","practice","null","","","",""
"d3-animate-choice","21","152089","0.0-21.0","918","667","22","Male","false","false","false","true","""event"",""trial"",""time""
""fullscreenenter"",""5"",""15795""
","
","
","""event"",""trial"",""time""
""fullscreenenter"",""5"",""15795""
","
","418.5","","49","","","3000","1","","","images/tutyellowplanet.jpg","null","images/tutalien3","null","images/tutalien3","images/t.png","NA","practice","null","","","",""
"d3-animate-choice","22","154518","0.0-22.0","918","667","22","Male","false","false","false","true","""event"",""trial"",""time""
""fullscreenenter"",""5"",""15795""
","
","
","""event"",""trial"",""time""
""fullscreenenter"",""5"",""15795""
","
","420.7000000178814","","49","","","3000","1","","","images/tutyellowplanet.jpg","null","images/tutalien3","null","images/tutalien3","images/t.png","NA","practice","null","","","",""
"d3-animate-choice","23","156859","0.0-23.0","918","667","22","Male","false","false","false","true","""event"",""trial"",""time""
""fullscreenenter"",""5"",""15795""
","
","
","""event"",""trial"",""time""
""fullscreenenter"",""5"",""15795""
","
","335","","49","","","3000","1","","","images/tutyellowplanet.jpg","null","images/tutalien3","null","images/tutalien3","images/nothing.png","NA","practice","null","","","",""
"d3-animate-choice","24","159133","0.0-24.0","918","667","22","Male","false","false","false","true","""event"",""trial"",""time""
""fullscreenenter"",""5"",""15795""
","
","
","""event"",""trial"",""time""
""fullscreenenter"",""5"",""15795""
","
","266.40000000596046","","49","","","3000","1","","","images/tutyellowplanet.jpg","null","images/tutalien3","null","images/tutalien3","images/nothing.png","NA","practice","null","","","",""
"d3-animate-choice","25","161455","0.0-25.0","918","667","22","Male","false","false","false","true","""event"",""trial"",""time""
""fullscreenenter"",""5"",""15795""
","
","
","""event"",""trial"",""time""
""fullscreenenter"",""5"",""15795""
","
","313.69999998807907","","49","","","3000","1","","","images/tutyellowplanet.jpg","null","images/tutalien3","null","images/tutalien3","images/t.png","NA","practice","null","","","",""
"d3-animate-choice","26","163790","0.0-26.0","918","667","22","Male","false","false","false","true","""event"",""trial"",""time""
""fullscreenenter"",""5"",""15795""
","
","
","""event"",""trial"",""time""
""fullscreenenter"",""5"",""15795""
","
","330.80000001192093","","49","","","3000","1","","","images/tutyellowplanet.jpg","null","images/tutalien3","null","images/tutalien3","images/t.png","NA","practice","null","","","",""
"d3-animate-choice","27","166130","0.0-27.0","918","667","22","Male","false","false","false","true","""event"",""trial"",""time""
""fullscreenenter"",""5"",""15795""
","
","
","""event"",""trial"",""time""
""fullscreenenter"",""5"",""15795""
","
","333.59999999403954","","49","","","3000","1","","","images/tutyellowplanet.jpg","null","images/tutalien3","null","images/tutalien3","images/t.png","NA","practice","null","","","",""
"d3-animate-choice","28","168435","0.0-28.0","918","667","22","Male","false","false","false","true","""event"",""trial"",""time""
""fullscreenenter"",""5"",""15795""
","
","
","""event"",""trial"",""time""
""fullscreenenter"",""5"",""15795""
","
","299.69999998807907","","49","","","3000","1","","","images/tutyellowplanet.jpg","null","images/tutalien3","null","images/tutalien3","images/t.png","NA","practice","null","","","",""
"d3-animate-choice","29","170758","0.0-29.0","918","667","22","Male","false","false","false","true","""event"",""trial"",""time""
""fullscreenenter"",""5"",""15795""
","
","
","""event"",""trial"",""time""
""fullscreenenter"",""5"",""15795""
","
","318.90000000596046","","49","","","3000","1","","","images/tutyellowplanet.jpg","null","images/tutalien3","null","images/tutalien3","images/t.png","NA","practice","null","","","",""
"d3-instructions","30","179242","0.0-30.0","918","667","22","Male","false","false","false","true","""event"",""trial"",""time""
""fullscreenenter"",""5"",""15795""
","
","
","""event"",""trial"",""time""
""fullscreenenter"",""5"",""15795""
","
","","","","","","","","","","","","","","","","","","","","","",""
"d3-instructions","31","192304","0.0-31.0","918","667","22","Male","false","false","false","true","""event"",""trial"",""time""
""fullscreenenter"",""5"",""15795""
","
","
","""event"",""trial"",""time""
""fullscreenenter"",""5"",""15795""
","
","","","","","","","","","","","","","","","","","","","","","",""
"d3-instructions","32","200850","0.0-32.0","918","667","22","Male","false","false","false","true","""event"",""trial"",""time""
""fullscreenenter"",""5"",""15795""
","
","
","""event"",""trial"",""time""
""fullscreenenter"",""5"",""15795""
","
","","","","","","","","","","","","","","","","","","","","","",""
"d3-instructions","33","212045","0.0-33.0","918","667","22","Male","false","false","false","true","""event"",""trial"",""time""
""fullscreenenter"",""5"",""15795""
","
","
","""event"",""trial"",""time""
""fullscreenenter"",""5"",""15795""
","
","","","","","","","","","","","","","","","","","","","","","",""
"d3-animate-choice","34","215382","0.0-34.0","918","667","22","Male","false","false","false","true","""event"",""trial"",""time""
""fullscreenenter"",""5"",""15795""
","
","
","""event"",""trial"",""time""
""fullscreenenter"",""5"",""15795""
","
","1330.9000000059605","","49","","","3000","1","","","images/tutgreenplanet.jpg","images/tutalien1","images/tutalien2","null","images/tutalien2","images/t.png","NA","practice","null","","","",""
"d3-animate-choice","35","217945","0.0-35.0","918","667","22","Male","false","false","false","true","""event"",""trial"",""time""
""fullscreenenter"",""5"",""15795""
","
","
","""event"",""trial"",""time""
""fullscreenenter"",""5"",""15795""
","
","553.6999999880791","","49","","","3000","1","","","images/tutgreenplanet.jpg","images/tutalien1","images/tutalien2","null","images/tutalien2","images/t.png","NA","practice","null","","","",""
"d3-animate-choice","36","220332","0.0-36.0","918","667","22","Male","false","false","false","true","""event"",""trial"",""time""
""fullscreenenter"",""5"",""15795""
","
","
","""event"",""trial"",""time""
""fullscreenenter"",""5"",""15795""
","
","380.10000002384186","","49","","","3000","1","","","images/tutgreenplanet.jpg","images/tutalien1","images/tutalien2","null","images/tutalien2","images/t.png","NA","practice","null","","","",""
"d3-animate-choice","37","222710","0.0-37.0","918","667","22","Male","false","false","false","true","""event"",""trial"",""time""
""fullscreenenter"",""5"",""15795""
","
","
","""event"",""trial"",""time""
""fullscreenenter"",""5"",""15795""
","
","375.30000001192093","","49","","","3000","1","","","images/tutgreenplanet.jpg","images/tutalien1","images/tutalien2","null","images/tutalien2","images/t.png","NA","practice","null","","","",""
"d3-animate-choice","38","225107","0.0-38.0","918","667","22","Male","false","false","false","true","""event"",""trial"",""time""
""fullscreenenter"",""5"",""15795""
","
","
","""event"",""trial"",""time""
""fullscreenenter"",""5"",""15795""
","
","388.2000000178814","","49","","","3000","1","","","images/tutgreenplanet.jpg","images/tutalien1","images/tutalien2","null","images/tutalien2","images/t.png","NA","practice","null","","","",""
"d3-animate-choice","39","227512","0.0-39.0","918","667","22","Male","false","false","false","true","""event"",""trial"",""time""
""fullscreenenter"",""5"",""15795""
","
","
","""event"",""trial"",""time""
""fullscreenenter"",""5"",""15795""
","
","400.40000000596046","","49","","","3000","1","","","images/tutgreenplanet.jpg","images/tutalien1","images/tutalien2","null","images/tutalien2","images/t.png","NA","practice","null","","","",""
"d3-animate-choice","40","229930","0.0-40.0","918","667","22","Male","false","false","false","true","""event"",""trial"",""time""
""fullscreenenter"",""5"",""15795""
","
","
","""event"",""trial"",""time""
""fullscreenenter"",""5"",""15795""
","
","415.59999999403954","","49","","","3000","1","","","images/tutgreenplanet.jpg","images/tutalien1","images/tutalien2","null","images/tutalien2","images/nothing.png","NA","practice","null","","","",""
"d3-animate-choice","41","232363","0.0-41.0","918","667","22","Male","false","false","false","true","""event"",""trial"",""time""
""fullscreenenter"",""5"",""15795""
","
","
","""event"",""trial"",""time""
""fullscreenenter"",""5"",""15795""
","
","424.59999999403954","","49","","","3000","1","","","images/tutgreenplanet.jpg","images/tutalien1","images/tutalien2","null","images/tutalien2","images/t.png","NA","practice","null","","","",""
"d3-animate-choice","42","234709","0.0-42.0","918","667","22","Male","false","false","false","true","""event"",""trial"",""time""
""fullscreenenter"",""5"",""15795""
","
","
","""event"",""trial"",""time""
""fullscreenenter"",""5"",""15795""
","
","340.2000000178814","","48","","","3000","1","","","images/tutgreenplanet.jpg","images/tutalien1","images/tutalien2","null","images/tutalien1","images/nothing.png","NA","practice","null","","","",""
"d3-animate-choice","43","237007","0.0-43.0","918","667","22","Male","false","false","false","true","""event"",""trial"",""time""
""fullscreenenter"",""5"",""15795""
","
","
","""event"",""trial"",""time""
""fullscreenenter"",""5"",""15795""
","
","295.09999999403954","","48","","","3000","1","","","images/tutgreenplanet.jpg","images/tutalien1","images/tutalien2","null","images/tutalien1","images/nothing.png","NA","practice","null","","","",""
"d3-instructions","44","251382","0.0-44.0","918","667","22","Male","false","false","false","true","""event"",""trial"",""time""
""fullscreenenter"",""5"",""15795""
","
","
","""event"",""trial"",""time""
""fullscreenenter"",""5"",""15795""
","
","","","","","","","","","","","","","","","","","","","","","",""
"d3-instructions","45","259266","0.0-45.0","918","667","22","Male","false","false","false","true","""event"",""trial"",""time""
""fullscreenenter"",""5"",""15795""
","
","
","""event"",""trial"",""time""
""fullscreenenter"",""5"",""15795""
","
","","","","","","","","","","","","","","","","","","","","","",""
"d3-instructions","46","265753","0.0-46.0","918","667","22","Male","false","false","false","true","""event"",""trial"",""time""
""fullscreenenter"",""5"",""15795""
","
","
","""event"",""trial"",""time""
""fullscreenenter"",""5"",""15795""
","
","","","","","","","","","","","","","","","","","","","","","",""
"d3-instructions","47","282663","0.0-47.0","918","667","22","Male","false","false","false","true","""event"",""trial"",""time""
""fullscreenenter"",""5"",""15795""
","
","
","""event"",""trial"",""time""
""fullscreenenter"",""5"",""15795""
","
","","","","","","","","","","","","","","","","","","","","","",""
"d3-instructions","48","291926","0.0-48.0","918","667","22","Male","false","false","false","true","""event"",""trial"",""time""
""fullscreenenter"",""5"",""15795""
","
","
","""event"",""trial"",""time""
""fullscreenenter"",""5"",""15795""
","
","","","","","","","","","","","","","","","","","","","","","",""
"d3-instructions","49","305023","0.0-49.0","918","667","22","Male","false","false","false","true","""event"",""trial"",""time""
""fullscreenenter"",""5"",""15795""
","
","
","""event"",""trial"",""time""
""fullscreenenter"",""5"",""15795""
","
","","","","","","","","","","","","","","","","","","","","","",""
"d3-instructions","50","315381","0.0-50.0","918","667","22","Male","false","false","false","true","""event"",""trial"",""time""
""fullscreenenter"",""5"",""15795""
","
","
","""event"",""trial"",""time""
""fullscreenenter"",""5"",""15795""
","
","","","","","","","","","","","","","","","","","","","","","",""
"d3-instructions","51","318115","0.0-51.0","918","667","22","Male","false","false","false","true","""event"",""trial"",""time""
""fullscreenenter"",""5"",""15795""
","
","
","""event"",""trial"",""time""
""fullscreenenter"",""5"",""15795""
","
","","","","","","","","","","","","","","","","","","","","","",""
"d3-instructions","52","321156","0.0-52.0","918","667","22","Male","false","false","false","true","""event"",""trial"",""time""
""fullscreenenter"",""5"",""15795""
","
","
","""event"",""trial"",""time""
""fullscreenenter"",""5"",""15795""
","
","","","","","","","","","","","","","","","","","","","","","",""
"d3-instructions","53","336669","0.0-53.0","918","667","22","Male","false","false","false","true","""event"",""trial"",""time""
""fullscreenenter"",""5"",""15795""
","
","
","""event"",""trial"",""time""
""fullscreenenter"",""5"",""15795""
","
","","","","","","","","","","","","","","","","","","","","","",""
"d3-instructions","54","350198","0.0-54.0","918","667","22","Male","false","false","false","true","""event"",""trial"",""time""
""fullscreenenter"",""5"",""15795""
","
","
","""event"",""trial"",""time""
""fullscreenenter"",""5"",""15795""
","
","","","","","","","","","","","","","","","","","","","","","",""
"d3-instructions","55","361630","0.0-55.0","918","667","22","Male","false","false","false","true","""event"",""trial"",""time""
""fullscreenenter"",""5"",""15795""
","
","
","""event"",""trial"",""time""
""fullscreenenter"",""5"",""15795""
","
","","","","","","","","","","","","","","","","","","","","","",""
"d3-instructions","56","371002","0.0-56.0","918","667","22","Male","false","false","false","true","""event"",""trial"",""time""
""fullscreenenter"",""5"",""15795""
","
","
","""event"",""trial"",""time""
""fullscreenenter"",""5"",""15795""
","
","","","","","","","","","","","","","","","","","","","","","",""
"d3-instructions","57","382905","0.0-57.0","918","667","22","Male","false","false","false","true","""event"",""trial"",""time""
""fullscreenenter"",""5"",""15795""
","
","
","""event"",""trial"",""time""
""fullscreenenter"",""5"",""15795""
","
","","","","","","","","","","","","","","","","","","","","","",""
"d3-instructions","58","394322","0.0-58.0","918","667","22","Male","false","false","false","true","""event"",""trial"",""time""
""fullscreenenter"",""5"",""15795""
","
","
","""event"",""trial"",""time""
""fullscreenenter"",""5"",""15795""
","
","","","","","","","","","","","","","","","","","","","","","",""
"d3-instructions","59","400795","0.0-59.0","918","667","22","Male","false","false","false","true","""event"",""trial"",""time""
""fullscreenenter"",""5"",""15795""
","
","
","""event"",""trial"",""time""
""fullscreenenter"",""5"",""15795""
","
","","","","","","","","","","","","","","","","","","","","","",""
"d3-instructions","60","405244","0.0-60.0","918","667","22","Male","false","false","false","true","""event"",""trial"",""time""
""fullscreenenter"",""5"",""15795""
","
","
","""event"",""trial"",""time""
""fullscreenenter"",""5"",""15795""
","
","","","","","","","","","","","","","","","","","","","","","",""
"d3-animate-choice","61","408451","0.0-61.0-0.0","918","667","22","Male","false","false","false","true","""event"",""trial"",""time""
""fullscreenenter"",""5"",""15795""
","
","
","""event"",""trial"",""time""
""fullscreenenter"",""5"",""15795""
","
","1200.7000000178814","","49","","","3000","1","","","images/earth.jpg","images/tutrocket2","images/tutrocket1","null","images/tutrocket1","","1","practice","null","1","","",""
"d3-animate-choice","62","411672","0.0-61.0-1.0","918","667","22","Male","false","false","false","true","""event"",""trial"",""time""
""fullscreenenter"",""5"",""15795""
","
","
","""event"",""trial"",""time""
""fullscreenenter"",""5"",""15795""
","
","1209.4000000059605","","49","","","3000","1","","","images/tutyellowplanet.jpg","images/tutalien4","images/tutalien3","images/tutrocket1","images/tutalien3","images/nothing.png","2","practice","true","1","common","0","2022-02-17 20:21:12.249"
"two-step-fixation","63","412681","0.0-61.0-2.0","918","667","22","Male","false","false","false","true","""event"",""trial"",""time""
""fullscreenenter"",""5"",""15795""
","
","
","""event"",""trial"",""time""
""fullscreenenter"",""5"",""15795""
","
","","images/earth.jpg","","","","","","","","","","","","","","fixation","","","","","",""
"d3-animate-choice","64","415346","0.0-61.0-0.1","918","667","22","Male","false","false","false","true","""event"",""trial"",""time""
""fullscreenenter"",""5"",""15795""
","
","
","""event"",""trial"",""time""
""fullscreenenter"",""5"",""15795""
","
","659.5","","49","","","3000","1","","","images/earth.jpg","images/tutrocket2","images/tutrocket1","null","images/tutrocket1","","1","practice","null","1","","",""
"d3-animate-choice","65","418241","0.0-61.0-1.1","918","667","22","Male","false","false","false","true","""event"",""trial"",""time""
""fullscreenenter"",""5"",""15795""
","
","
","""event"",""trial"",""time""
""fullscreenenter"",""5"",""15795""
","
","889","","48","","","3000","1","","","images/tutyellowplanet.jpg","images/tutalien4","images/tutalien3","images/tutrocket1","images/tutalien4","images/t.png","2","practice","true","2","common","1","2022-02-17 20:21:18.818"
"two-step-fixation","66","419247","0.0-61.0-2.1","918","667","22","Male","false","false","false","true","""event"",""trial"",""time""
""fullscreenenter"",""5"",""15795""
","
","
","""event"",""trial"",""time""
""fullscreenenter"",""5"",""15795""
","
","","images/earth.jpg","","","","","","","","","","","","","","fixation","","","","","",""
"d3-animate-choice","67","421805","0.0-61.0-0.2","918","667","22","Male","false","false","false","true","""event"",""trial"",""time""
""fullscreenenter"",""5"",""15795""
","
","
","""event"",""trial"",""time""
""fullscreenenter"",""5"",""15795""
","
","553.7000000178814","","49","","","3000","1","","","images/earth.jpg","images/tutrocket2","images/tutrocket1","null","images/tutrocket1","","1","practice","null","1","","",""
"d3-animate-choice","68","424392","0.0-61.0-1.2","918","667","22","Male","false","false","false","true","""event"",""trial"",""time""
""fullscreenenter"",""5"",""15795""
","
","
","""event"",""trial"",""time""
""fullscreenenter"",""5"",""15795""
","
","579.0999999940395","","48","","","3000","1","","","images/tutyellowplanet.jpg","images/tutalien4","images/tutalien3","images/tutrocket1","images/tutalien4","images/nothing.png","2","practice","true","2","common","0","2022-02-17 20:21:24.969"
"two-step-fixation","69","425396","0.0-61.0-2.2","918","667","22","Male","false","false","false","true","""event"",""trial"",""time""
""fullscreenenter"",""5"",""15795""
","
","
","""event"",""trial"",""time""
""fullscreenenter"",""5"",""15795""
","
","","images/earth.jpg","","","","","","","","","","","","","","fixation","","","","","",""
"d3-animate-choice","70","427930","0.0-61.0-0.3","918","667","22","Male","false","false","false","true","""event"",""trial"",""time""
""fullscreenenter"",""5"",""15795""
","
","
","""event"",""trial"",""time""
""fullscreenenter"",""5"",""15795""
","
","525.9000000059605","","49","","","3000","1","","","images/earth.jpg","images/tutrocket2","images/tutrocket1","null","images/tutrocket1","","1","practice","null","1","","",""
"d3-animate-choice","71","430395","0.0-61.0-1.3","918","667","22","Male","false","false","false","true","""event"",""trial"",""time""
""fullscreenenter"",""5"",""15795""
","
","
","""event"",""trial"",""time""
""fullscreenenter"",""5"",""15795""
","
","455.69999998807907","","49","","","3000","1","","","images/tutyellowplanet.jpg","images/tutalien4","images/tutalien3","images/tutrocket1","images/tutalien3","images/nothing.png","2","practice","true","1","common","0","2022-02-17 20:21:30.972"
"two-step-fixation","72","431403","0.0-61.0-2.3","918","667","22","Male","false","false","false","true","""event"",""trial"",""time""
""fullscreenenter"",""5"",""15795""
","
","
","""event"",""trial"",""time""
""fullscreenenter"",""5"",""15795""
","
","","images/earth.jpg","","","","","","","","","","","","","","fixation","","","","","",""
"d3-animate-choice","73","433958","0.0-61.0-0.4","918","667","22","Male","false","false","false","true","""event"",""trial"",""time""
""fullscreenenter"",""5"",""15795""
","
","
","""event"",""trial"",""time""
""fullscreenenter"",""5"",""15795""
","
","549.5","","48","","","3000","1","","","images/earth.jpg","images/tutrocket2","images/tutrocket1","null","images/tutrocket2","","1","practice","null","2","","",""
"d3-animate-choice","74","436599","0.0-61.0-1.4","918","667","22","Male","false","false","false","true","""event"",""trial"",""time""
""fullscreenenter"",""5"",""15795""
","
","
","""event"",""trial"",""time""
""fullscreenenter"",""5"",""15795""
","
","634.5999999940395","","48","","","3000","1","","","images/tutgreenplanet.jpg","images/tutalien2","images/tutalien1","images/tutrocket2","images/tutalien2","images/t.png","2","practice","true","2","common","1","2022-02-17 20:21:37.176"
"two-step-fixation","75","437603","0.0-61.0-2.4","918","667","22","Male","false","false","false","true","""event"",""trial"",""time""
""fullscreenenter"",""5"",""15795""
","
","
","""event"",""trial"",""time""
""fullscreenenter"",""5"",""15795""
","
","","images/earth.jpg","","","","","","","","","","","","","","fixation","","","","","",""
"d3-animate-choice","76","440006","0.0-61.0-0.5","918","667","22","Male","false","false","false","true","""event"",""trial"",""time""
""fullscreenenter"",""5"",""15795""
","
","
","""event"",""trial"",""time""
""fullscreenenter"",""5"",""15795""
","
","394.2999999821186","","48","","","3000","1","","","images/earth.jpg","images/tutrocket2","images/tutrocket1","null","images/tutrocket2","","1","practice","null","2","","",""
"d3-animate-choice","77","442398","0.0-61.0-1.5","918","667","22","Male","false","false","false","true","""event"",""trial"",""time""
""fullscreenenter"",""5"",""15795""
","
","
","""event"",""trial"",""time""
""fullscreenenter"",""5"",""15795""
","
","386.90000000596046","","48","","","3000","1","","","images/tutgreenplanet.jpg","images/tutalien2","images/tutalien1","images/tutrocket2","images/tutalien2","images/t.png","2","practice","true","2","common","1","2022-02-17 20:21:42.975"
"two-step-fixation","78","443402","0.0-61.0-2.5","918","667","22","Male","false","false","false","true","""event"",""trial"",""time""
""fullscreenenter"",""5"",""15795""
","
","
","""event"",""trial"",""time""
""fullscreenenter"",""5"",""15795""
","
","","images/earth.jpg","","","","","","","","","","","","","","fixation","","","","","",""
"d3-animate-choice","79","445765","0.0-61.0-0.6","918","667","22","Male","false","false","false","true","""event"",""trial"",""time""
""fullscreenenter"",""5"",""15795""
","
","
","""event"",""trial"",""time""
""fullscreenenter"",""5"",""15795""
","
","357.7999999821186","","48","","","3000","1","","","images/earth.jpg","images/tutrocket2","images/tutrocket1","null","images/tutrocket2","","1","practice","null","2","","",""
"d3-animate-choice","80","448412","0.0-61.0-1.6","918","667","22","Male","false","false","false","true","""event"",""trial"",""time""
""fullscreenenter"",""5"",""15795""
","
","
","""event"",""trial"",""time""
""fullscreenenter"",""5"",""15795""
","
","639.9000000059605","","48","","","3000","1","","","images/tutgreenplanet.jpg","images/tutalien2","images/tutalien1","images/tutrocket2","images/tutalien2","images/nothing.png","2","practice","true","2","common","0","2022-02-17 20:21:48.989"
"two-step-fixation","81","449416","0.0-61.0-2.6","918","667","22","Male","false","false","false","true","""event"",""trial"",""time""
""fullscreenenter"",""5"",""15795""
","
","
","""event"",""trial"",""time""
""fullscreenenter"",""5"",""15795""
","
","","images/earth.jpg","","","","","","","","","","","","","","fixation","","","","","",""
"d3-animate-choice","82","451854","0.0-61.0-0.7","918","667","22","Male","false","false","false","true","""event"",""trial"",""time""
""fullscreenenter"",""5"",""15795""
","
","
","""event"",""trial"",""time""
""fullscreenenter"",""5"",""15795""
","
","430.7999999821186","","48","","","3000","1","","","images/earth.jpg","images/tutrocket2","images/tutrocket1","null","images/tutrocket2","","1","practice","null","2","","",""
"d3-animate-choice","83","455204","0.0-61.0-1.7","918","667","22","Male","false","false","false","true","""event"",""trial"",""time""
""fullscreenenter"",""5"",""15795""
","
","
","""event"",""trial"",""time""
""fullscreenenter"",""5"",""15795""
","
","1345.2000000178814","","49","","","3000","1","","","images/tutyellowplanet.jpg","images/tutalien4","images/tutalien3","images/tutrocket2","images/tutalien3","images/nothing.png","2","practice","false","1","rare","0","2022-02-17 20:21:55.781"
"two-step-fixation","84","456211","0.0-61.0-2.7","918","667","22","Male","false","false","false","true","""event"",""trial"",""time""
""fullscreenenter"",""5"",""15795""
","
","
","""event"",""trial"",""time""
""fullscreenenter"",""5"",""15795""
","
","","images/earth.jpg","","","","","","","","","","","","","","fixation","","","","","",""
"d3-animate-choice","85","458634","0.0-61.0-0.8","918","667","22","Male","false","false","false","true","""event"",""trial"",""time""
""fullscreenenter"",""5"",""15795""
","
","
","""event"",""trial"",""time""
""fullscreenenter"",""5"",""15795""
","
","417.40000000596046","","48","","","3000","1","","","images/earth.jpg","images/tutrocket2","images/tutrocket1","null","images/tutrocket2","","1","practice","null","2","","",""
"d3-animate-choice","86","461554","0.0-61.0-1.8","918","667","22","Male","false","false","false","true","""event"",""trial"",""time""
""fullscreenenter"",""5"",""15795""
","
","
","""event"",""trial"",""time""
""fullscreenenter"",""5"",""15795""
","
","913.7999999821186","","48","","","3000","1","","","images/tutyellowplanet.jpg","images/tutalien4","images/tutalien3","images/tutrocket2","images/tutalien4","images/t.png","2","practice","false","2","rare","1","2022-02-17 20:22:02.131"
"two-step-fixation","87","462559","0.0-61.0-2.8","918","667","22","Male","false","false","false","true","""event"",""trial"",""time""
""fullscreenenter"",""5"",""15795""
","
","
","""event"",""trial"",""time""
""fullscreenenter"",""5"",""15795""
","
","","images/earth.jpg","","","","","","","","","","","","","","fixation","","","","","",""
"d3-animate-choice","88","465281","0.0-61.0-0.9","918","667","22","Male","false","false","false","true","""event"",""trial"",""time""
""fullscreenenter"",""5"",""15795""
","
","
","""event"",""trial"",""time""
""fullscreenenter"",""5"",""15795""
","
","716","","48","","","3000","1","","","images/earth.jpg","images/tutrocket2","images/tutrocket1","null","images/tutrocket2","","1","practice","null","2","","",""
"d3-animate-choice","89","467929","0.0-61.0-1.9","918","667","22","Male","false","false","false","true","""event"",""trial"",""time""
""fullscreenenter"",""5"",""15795""
","
","
","""event"",""trial"",""time""
""fullscreenenter"",""5"",""15795""
","
","641.3000000119209","","49","","","3000","1","","","images/tutgreenplanet.jpg","images/tutalien2","images/tutalien1","images/tutrocket2","images/tutalien1","images/nothing.png","2","practice","true","1","common","0","2022-02-17 20:22:08.506"
"two-step-fixation","90","468933","0.0-61.0-2.9","918","667","22","Male","false","false","false","true","""event"",""trial"",""time""
""fullscreenenter"",""5"",""15795""
","
","
","""event"",""trial"",""time""
""fullscreenenter"",""5"",""15795""
","
","","images/earth.jpg","","","","","","","","","","","","","","fixation","","","","","",""
"d3-animate-choice","91","471736","0.0-61.0-0.10","918","667","22","Male","false","false","false","true","""event"",""trial"",""time""
""fullscreenenter"",""5"",""15795""
","
","
","""event"",""trial"",""time""
""fullscreenenter"",""5"",""15795""
","
","797.7000000178814","","49","","","3000","1","","","images/earth.jpg","images/tutrocket2","images/tutrocket1","null","images/tutrocket1","","1","practice","null","1","","",""
"d3-animate-choice","92","474829","0.0-61.0-1.10","918","667","22","Male","false","false","false","true","""event"",""trial"",""time""
""fullscreenenter"",""5"",""15795""
","
","
","""event"",""trial"",""time""
""fullscreenenter"",""5"",""15795""
","
","1085.7999999821186","","48","","","3000","1","","","images/tutgreenplanet.jpg","images/tutalien2","images/tutalien1","images/tutrocket1","images/tutalien2","images/nothing.png","2","practice","false","2","rare","0","2022-02-17 20:22:15.406"
"two-step-fixation","93","475837","0.0-61.0-2.10","918","667","22","Male","false","false","false","true","""event"",""trial"",""time""
""fullscreenenter"",""5"",""15795""
","
","
","""event"",""trial"",""time""
""fullscreenenter"",""5"",""15795""
","
","","images/earth.jpg","","","","","","","","","","","","","","fixation","","","","","",""
"d3-animate-choice","94","478333","0.0-61.0-0.11","918","667","22","Male","false","false","false","true","""event"",""trial"",""time""
""fullscreenenter"",""5"",""15795""
","
","
","""event"",""trial"",""time""
""fullscreenenter"",""5"",""15795""
","
","488.59999999403954","","49","","","3000","1","","","images/earth.jpg","images/tutrocket2","images/tutrocket1","null","images/tutrocket1","","1","practice","null","1","","",""
"d3-animate-choice","95","481407","0.0-61.0-1.11","918","667","22","Male","false","false","false","true","""event"",""trial"",""time""
""fullscreenenter"",""5"",""15795""
","
","
","""event"",""trial"",""time""
""fullscreenenter"",""5"",""15795""
","
","1067.2999999821186","","49","","","3000","1","","","images/tutyellowplanet.jpg","images/tutalien4","images/tutalien3","images/tutrocket1","images/tutalien3","images/t.png","2","practice","true","1","common","1","2022-02-17 20:22:21.984"
"two-step-fixation","96","482412","0.0-61.0-2.11","918","667","22","Male","false","false","false","true","""event"",""trial"",""time""
""fullscreenenter"",""5"",""15795""
","
","
","""event"",""trial"",""time""
""fullscreenenter"",""5"",""15795""
","
","","images/earth.jpg","","","","","","","","","","","","","","fixation","","","","","",""
"d3-animate-choice","97","484844","0.0-61.0-0.12","918","667","22","Male","false","false","false","true","""event"",""trial"",""time""
""fullscreenenter"",""5"",""15795""
","
","
","""event"",""trial"",""time""
""fullscreenenter"",""5"",""15795""
","
","424.69999998807907","","49","","","3000","1","","","images/earth.jpg","images/tutrocket2","images/tutrocket1","null","images/tutrocket1","","1","practice","null","1","","",""
"d3-animate-choice","98","487329","0.0-61.0-1.12","918","667","22","Male","false","false","false","true","""event"",""trial"",""time""
""fullscreenenter"",""5"",""15795""
","
","
","""event"",""trial"",""time""
""fullscreenenter"",""5"",""15795""
","
","480.5","","49","","","3000","1","","","images/tutyellowplanet.jpg","images/tutalien4","images/tutalien3","images/tutrocket1","images/tutalien3","images/nothing.png","2","practice","true","1","common","0","2022-02-17 20:22:27.906"
"two-step-fixation","99","488333","0.0-61.0-2.12","918","667","22","Male","false","false","false","true","""event"",""trial"",""time""
""fullscreenenter"",""5"",""15795""
","
","
","""event"",""trial"",""time""
""fullscreenenter"",""5"",""15795""
","
","","images/earth.jpg","","","","","","","","","","","","","","fixation","","","","","",""
"d3-animate-choice","100","490707","0.0-61.0-0.13","918","667","22","Male","false","false","false","true","""event"",""trial"",""time""
""fullscreenenter"",""5"",""15795""
","
","
","""event"",""trial"",""time""
""fullscreenenter"",""5"",""15795""
","
","367.30000001192093","","48","","","3000","1","","","images/earth.jpg","images/tutrocket2","images/tutrocket1","null","images/tutrocket2","","1","practice","null","2","","",""
"d3-animate-choice","101","493434","0.0-61.0-1.13","918","667","22","Male","false","false","false","true","""event"",""trial"",""time""
""fullscreenenter"",""5"",""15795""
","
","
","""event"",""trial"",""time""
""fullscreenenter"",""5"",""15795""
","
","721.3000000119209","","48","","","3000","1","","","images/tutgreenplanet.jpg","images/tutalien2","images/tutalien1","images/tutrocket2","images/tutalien2","images/nothing.png","2","practice","true","2","common","0","2022-02-17 20:22:34.011"
"two-step-fixation","102","494440","0.0-61.0-2.13","918","667","22","Male","false","false","false","true","""event"",""trial"",""time""
""fullscreenenter"",""5"",""15795""
","
","
","""event"",""trial"",""time""
""fullscreenenter"",""5"",""15795""
","
","","images/earth.jpg","","","","","","","","","","","","","","fixation","","","","","",""
"d3-animate-choice","103","496904","0.0-61.0-0.14","918","667","22","Male","false","false","false","true","""event"",""trial"",""time""
""fullscreenenter"",""5"",""15795""
","
","
","""event"",""trial"",""time""
""fullscreenenter"",""5"",""15795""
","
","459.5","","48","","","3000","1","","","images/earth.jpg","images/tutrocket2","images/tutrocket1","null","images/tutrocket2","","1","practice","null","2","","",""
"d3-animate-choice","104","499699","0.0-61.0-1.14","918","667","22","Male","false","false","false","true","""event"",""trial"",""time""
""fullscreenenter"",""5"",""15795""
","
","
","""event"",""trial"",""time""
""fullscreenenter"",""5"",""15795""
","
","789.3000000119209","","48","","","3000","1","","","images/tutyellowplanet.jpg","images/tutalien4","images/tutalien3","images/tutrocket2","images/tutalien4","images/nothing.png","2","practice","false","2","rare","0","2022-02-17 20:22:40.276"
"two-step-fixation","105","500703","0.0-61.0-2.14","918","667","22","Male","false","false","false","true","""event"",""trial"",""time""
""fullscreenenter"",""5"",""15795""
","
","
","""event"",""trial"",""time""
""fullscreenenter"",""5"",""15795""
","
","","images/earth.jpg","","","","","","","","","","","","","","fixation","","","","","",""
"d3-animate-choice","106","503107","0.0-61.0-0.15","918","667","22","Male","false","false","false","true","""event"",""trial"",""time""
""fullscreenenter"",""5"",""15795""
","
","
","""event"",""trial"",""time""
""fullscreenenter"",""5"",""15795""
","
","398.30000001192093","","48","","","3000","1","","","images/earth.jpg","images/tutrocket2","images/tutrocket1","null","images/tutrocket2","","1","practice","null","2","","",""
"d3-animate-choice","107","505904","0.0-61.0-1.15","918","667","22","Male","false","false","false","true","""event"",""trial"",""time""
""fullscreenenter"",""5"",""15795""
","
","
","""event"",""trial"",""time""
""fullscreenenter"",""5"",""15795""
","
","792.2000000178814","","49","","","3000","1","","","images/tutgreenplanet.jpg","images/tutalien2","images/tutalien1","images/tutrocket2","images/tutalien1","images/nothing.png","2","practice","true","1","common","0","2022-02-17 20:22:46.481"
"two-step-fixation","108","506909","0.0-61.0-2.15","918","667","22","Male","false","false","false","true","""event"",""trial"",""time""
""fullscreenenter"",""5"",""15795""
","
","
","""event"",""trial"",""time""
""fullscreenenter"",""5"",""15795""
","
","","images/earth.jpg","","","","","","","","","","","","","","fixation","","","","","",""
"d3-animate-choice","109","509376","0.0-61.0-0.16","918","667","22","Male","false","false","false","true","""event"",""trial"",""time""
""fullscreenenter"",""5"",""15795""
","
","
","""event"",""trial"",""time""
""fullscreenenter"",""5"",""15795""
","
","460.2999999821186","","48","","","3000","1","","","images/earth.jpg","images/tutrocket2","images/tutrocket1","null","images/tutrocket2","","1","practice","null","2","","",""
"d3-animate-choice","110","511969","0.0-61.0-1.16","918","667","22","Male","false","false","false","true","""event"",""trial"",""time""
""fullscreenenter"",""5"",""15795""
","
","
","""event"",""trial"",""time""
""fullscreenenter"",""5"",""15795""
","
","587.5","","48","","","3000","1","","","images/tutyellowplanet.jpg","images/tutalien4","images/tutalien3","images/tutrocket2","images/tutalien4","images/t.png","2","practice","false","2","rare","1","2022-02-17 20:22:52.547"
"two-step-fixation","111","512974","0.0-61.0-2.16","918","667","22","Male","false","false","false","true","""event"",""trial"",""time""
""fullscreenenter"",""5"",""15795""
","
","
","""event"",""trial"",""time""
""fullscreenenter"",""5"",""15795""
","
","","images/earth.jpg","","","","","","","","","","","","","","fixation","","","","","",""
"d3-animate-choice","112","515688","0.0-61.0-0.17","918","667","22","Male","false","false","false","true","""event"",""trial"",""time""
""fullscreenenter"",""5"",""15795""
","
","
","""event"",""trial"",""time""
""fullscreenenter"",""5"",""15795""
","
","709.4000000059605","","49","","","3000","1","","","images/earth.jpg","images/tutrocket2","images/tutrocket1","null","images/tutrocket1","","1","practice","null","1","","",""
"d3-animate-choice","113","518368","0.0-61.0-1.17","918","667","22","Male","false","false","false","true","""event"",""trial"",""time""
""fullscreenenter"",""5"",""15795""
","
","
","""event"",""trial"",""time""
""fullscreenenter"",""5"",""15795""
","
","671.5","","48","","","3000","1","","","images/tutyellowplanet.jpg","images/tutalien4","images/tutalien3","images/tutrocket1","images/tutalien4","images/nothing.png","2","practice","true","2","common","0","2022-02-17 20:22:58.945"
"two-step-fixation","114","519372","0.0-61.0-2.17","918","667","22","Male","false","false","false","true","""event"",""trial"",""time""
""fullscreenenter"",""5"",""15795""
","
","
","""event"",""trial"",""time""
""fullscreenenter"",""5"",""15795""
","
","","images/earth.jpg","","","","","","","","","","","","","","fixation","","","","","",""
"d3-animate-choice","115","521750","0.0-61.0-0.18","918","667","22","Male","false","false","false","true","""event"",""trial"",""time""
""fullscreenenter"",""5"",""15795""
","
","
","""event"",""trial"",""time""
""fullscreenenter"",""5"",""15795""
","
","372.80000001192093","","48","","","3000","1","","","images/earth.jpg","images/tutrocket2","images/tutrocket1","null","images/tutrocket2","","1","practice","null","2","","",""
"d3-animate-choice","116","524417","0.0-61.0-1.18","918","667","22","Male","false","false","false","true","""event"",""trial"",""time""
""fullscreenenter"",""5"",""15795""
","
","
","""event"",""trial"",""time""
""fullscreenenter"",""5"",""15795""
","
","661.0999999940395","","48","","","3000","1","","","images/tutyellowplanet.jpg","images/tutalien4","images/tutalien3","images/tutrocket2","images/tutalien4","images/t.png","2","practice","false","2","rare","1","2022-02-17 20:23:04.994"
"two-step-fixation","117","525421","0.0-61.0-2.18","918","667","22","Male","false","false","false","true","""event"",""trial"",""time""
""fullscreenenter"",""5"",""15795""
","
","
","""event"",""trial"",""time""
""fullscreenenter"",""5"",""15795""
","
","","images/earth.jpg","","","","","","","","","","","","","","fixation","","","","","",""
"d3-animate-choice","118","527913","0.0-61.0-0.19","918","667","22","Male","false","false","false","true","""event"",""trial"",""time""
""fullscreenenter"",""5"",""15795""
","
","
","""event"",""trial"",""time""
""fullscreenenter"",""5"",""15795""
","
","487.09999999403954","","49","","","3000","1","","","images/earth.jpg","images/tutrocket2","images/tutrocket1","null","images/tutrocket1","","1","practice","null","1","","",""
"d3-animate-choice","119","530580","0.0-61.0-1.19","918","667","22","Male","false","false","false","true","""event"",""trial"",""time""
""fullscreenenter"",""5"",""15795""
","
","
","""event"",""trial"",""time""
""fullscreenenter"",""5"",""15795""
","
","662.4000000059605","","49","","","3000","1","","","images/tutgreenplanet.jpg","images/tutalien2","images/tutalien1","images/tutrocket1","images/tutalien1","images/t.png","2","practice","false","1","rare","1","2022-02-17 20:23:11.157"
"two-step-fixation","120","531586","0.0-61.0-2.19","918","667","22","Male","false","false","false","true","""event"",""trial"",""time""
""fullscreenenter"",""5"",""15795""
","
","
","""event"",""trial"",""time""
""fullscreenenter"",""5"",""15795""
","
","","images/earth.jpg","","","","","","","","","","","","","","fixation","","","","","",""
"d3-instructions","121","538757","0.0-62.0","918","667","22","Male","false","false","false","true","""event"",""trial"",""time""
""fullscreenenter"",""5"",""15795""
","
","
","""event"",""trial"",""time""
""fullscreenenter"",""5"",""15795""
","
","","","","","","","","","","","","","","","","","","","","","",""
"audio-keyboard-response","122","543453","0.0-63.0","918","667","22","Male","false","false","false","true","""event"",""trial"",""time""
""fullscreenenter"",""5"",""15795""
","
","
","""event"",""trial"",""time""
""fullscreenenter"",""5"",""15795""
","
","4696","audio/instructions/treasure_feedback.wav","32","","","","","","","","","","","","","","","","","","",""
"d3-instructions","123","563008","0.0-64.0","918","667","22","Male","false","false","false","true","""event"",""trial"",""time""
""fullscreenenter"",""5"",""15795""
","
","
","""event"",""trial"",""time""
""fullscreenenter"",""5"",""15795""
","
","","","","","","","","","","","","","","","","","","","","","",""
"d3-instructions","124","578710","0.0-65.0","918","667","22","Male","false","false","false","true","""event"",""trial"",""time""
""fullscreenenter"",""5"",""15795""
","
","
","""event"",""trial"",""time""
""fullscreenenter"",""5"",""15795""
","
","","","","","","","","","","","","","","","","","","","","","",""
"d3-instructions","125","603212","0.0-66.0","918","667","22","Male","false","false","false","true","""event"",""trial"",""time""
""fullscreenenter"",""5"",""15795""
","
","
","""event"",""trial"",""time""
""fullscreenenter"",""5"",""15795""
","
","","","","","","","","","","","","","","","","","","","","","",""
"d3-instructions","126","620343","0.0-67.0","918","667","22","Male","false","false","false","true","""event"",""trial"",""time""
""fullscreenenter"",""5"",""15795""
","
","
","""event"",""trial"",""time""
""fullscreenenter"",""5"",""15795""
","
","","","","","","","","","","","","","","","","","","","","","",""
"d3-instructions","127","629436","0.0-68.0","918","667","22","Male","false","false","false","true","""event"",""trial"",""time""
""fullscreenenter"",""5"",""15795""
","
","
","""event"",""trial"",""time""
""fullscreenenter"",""5"",""15795""
","
","","","","","","","","","","","","","","","","","","","","","",""
"instructions-quiz","128","633236","0.0-69.0","918","667","22","Male","false","false","false","true","""event"",""trial"",""time""
""fullscreenenter"",""5"",""15795""
","
","
","""event"",""trial"",""time""
""fullscreenenter"",""5"",""15795""
","
","3796.5999999940395","audio/quiz/Q1_Prompt.wav","","1","","","","","","","","","","","","","","","","","",""
"audio-keyboard-response","129","642408","0.0-70.0","918","667","22","Male","false","false","false","true","""event"",""trial"",""time""
""fullscreenenter"",""5"",""15795""
","
","
","""event"",""trial"",""time""
""fullscreenenter"",""5"",""15795""
","
","null","audio/quiz/Q1_Correct.wav","null","","","","","","","","","","","","","","","","","","",""
"instructions-quiz","130","650811","0.0-71.0","918","667","22","Male","false","false","false","true","""event"",""trial"",""time""
""fullscreenenter"",""5"",""15795""
","
","
","""event"",""trial"",""time""
""fullscreenenter"",""5"",""15795""
","
","8400.800000011921","audio/quiz/Q2_Prompt.wav","","0","","","","","","","","","","","","","","","","","",""
"audio-keyboard-response","131","663683","0.0-72.0","918","667","22","Male","false","false","false","true","""event"",""trial"",""time""
""fullscreenenter"",""5"",""15795""
","
","
","""event"",""trial"",""time""
""fullscreenenter"",""5"",""15795""
","
","null","audio/quiz/Q2_Correct.wav","null","","","","","","","","","","","","","","","","","","",""
"instructions-quiz","132","666676","0.0-73.0","918","667","22","Male","false","false","false","true","""event"",""trial"",""time""
""fullscreenenter"",""5"",""15795""
","
","
","""event"",""trial"",""time""
""fullscreenenter"",""5"",""15795""
","
","2990.0999999940395","audio/quiz/Q3_Prompt.wav","","1","","","","","","","","","","","","","","","","","",""
"audio-keyboard-response","133","672478","0.0-74.0","918","667","22","Male","false","false","false","true","""event"",""trial"",""time""
""fullscreenenter"",""5"",""15795""
","
","
","""event"",""trial"",""time""
""fullscreenenter"",""5"",""15795""
","
","null","audio/quiz/Q3_Correct.wav","null","","","","","","","","","","","","","","","","","","",""
"d3-instructions","134","686606","0.0-75.0","918","667","22","Male","false","false","false","true","""event"",""trial"",""time""
""fullscreenenter"",""5"",""15795""
","
","
","""event"",""trial"",""time""
""fullscreenenter"",""5"",""15795""
","
","","","","","","","","","","","","","","","","","","","","","",""
"d3-animate-choice","135","689540","0.0-76.0-0.0","918","667","22","Male","false","false","false","true","""event"",""trial"",""time""
""fullscreenenter"",""5"",""15795""
","
","
","""event"",""trial"",""time""
""fullscreenenter"",""5"",""15795""
","
","926.9000000059605","","49","","","3000","1","","","images/earth.jpg","images/rocket1","images/rocket2","null","images/rocket2","","1","real","null","1","","",""
"d3-animate-choice","136","692613","0.0-76.0-1.0","918","667","22","Male","false","false","false","true","""event"",""trial"",""time""
""fullscreenenter"",""5"",""15795""
","
","
","""event"",""trial"",""time""
""fullscreenenter"",""5"",""15795""
","
","1067.2999999821186","","49","","","3000","1","","","images/redplanet1.jpg","images/alien2","images/alien1","images/rocket2","images/alien1","images/nothing.png","2","real","true","1","common","0","2022-02-17 20:25:53.190"
"two-step-fixation","137","693619","0.0-76.0-2.0","918","667","22","Male","false","false","false","true","""event"",""trial"",""time""
""fullscreenenter"",""5"",""15795""
","
","
","""event"",""trial"",""time""
""fullscreenenter"",""5"",""15795""
","
","","images/earth.jpg","","","","","","","","","","","","","","fixation","","","","","",""
"d3-animate-choice","138","696127","0.0-76.0-0.1","918","667","22","Male","false","false","false","true","""event"",""trial"",""time""
""fullscreenenter"",""5"",""15795""
","
","
","""event"",""trial"",""time""
""fullscreenenter"",""5"",""15795""
","
","500.90000000596046","","49","","","3000","1","","","images/earth.jpg","images/rocket1","images/rocket2","null","images/rocket2","","1","real","null","1","","",""
"d3-animate-choice","139","699211","0.0-76.0-1.1","918","667","22","Male","false","false","false","true","""event"",""trial"",""time""
""fullscreenenter"",""5"",""15795""
","
","
","""event"",""trial"",""time""
""fullscreenenter"",""5"",""15795""
","
","1078.8999999761581","","49","","","3000","1","","","images/purpleplanet.jpg","images/alien4","images/alien3","images/rocket2","images/alien3","images/nothing.png","2","real","false","1","rare","0","2022-02-17 20:25:59.788"
"two-step-fixation","140","700217","0.0-76.0-2.1","918","667","22","Male","false","false","false","true","""event"",""trial"",""time""
""fullscreenenter"",""5"",""15795""
","
","
","""event"",""trial"",""time""
""fullscreenenter"",""5"",""15795""
","
","","images/earth.jpg","","","","","","","","","","","","","","fixation","","","","","",""
"d3-animate-choice","141","702626","0.0-76.0-0.2","918","667","22","Male","false","false","false","true","""event"",""trial"",""time""
""fullscreenenter"",""5"",""15795""
","
","
","""event"",""trial"",""time""
""fullscreenenter"",""5"",""15795""
","
","402.59999999403954","","49","","","3000","1","","","images/earth.jpg","images/rocket1","images/rocket2","null","images/rocket2","","1","real","null","1","","",""
"d3-animate-choice","142","705500","0.0-76.0-1.2","918","667","22","Male","false","false","false","true","""event"",""trial"",""time""
""fullscreenenter"",""5"",""15795""
","
","
","""event"",""trial"",""time""
""fullscreenenter"",""5"",""15795""
","
","866.6999999880791","","48","","","3000","1","","","images/redplanet1.jpg","images/alien2","images/alien1","images/rocket2","images/alien2","images/t.png","2","real","true","2","common","1","2022-02-17 20:26:06.077"
"two-step-fixation","143","706506","0.0-76.0-2.2","918","667","22","Male","false","false","false","true","""event"",""trial"",""time""
""fullscreenenter"",""5"",""15795""
","
","
","""event"",""trial"",""time""
""fullscreenenter"",""5"",""15795""
","
","","images/earth.jpg","","","","","","","","","","","","","","fixation","","","","","",""
"d3-animate-choice","144","709060","0.0-76.0-0.3","918","667","22","Male","false","false","false","true","""event"",""trial"",""time""
""fullscreenenter"",""5"",""15795""
","
","
","""event"",""trial"",""time""
""fullscreenenter"",""5"",""15795""
","
","549","","49","","","3000","1","","","images/earth.jpg","images/rocket1","images/rocket2","null","images/rocket2","","1","real","null","1","","",""
"d3-animate-choice","145","711885","0.0-76.0-1.3","918","667","22","Male","false","false","false","true","""event"",""trial"",""time""
""fullscreenenter"",""5"",""15795""
","
","
","""event"",""trial"",""time""
""fullscreenenter"",""5"",""15795""
","
","819.8999999761581","","48","","","3000","1","","","images/redplanet1.jpg","images/alien2","images/alien1","images/rocket2","images/alien2","images/t.png","2","real","true","2","common","1","2022-02-17 20:26:12.463"
"two-step-fixation","146","712891","0.0-76.0-2.3","918","667","22","Male","false","false","false","true","""event"",""trial"",""time""
""fullscreenenter"",""5"",""15795""
","
","
","""event"",""trial"",""time""
""fullscreenenter"",""5"",""15795""
","
","","images/earth.jpg","","","","","","","","","","","","","","fixation","","","","","",""
"d3-animate-choice","147","715278","0.0-76.0-0.4","918","667","22","Male","false","false","false","true","""event"",""trial"",""time""
""fullscreenenter"",""5"",""15795""
","
","
","""event"",""trial"",""time""
""fullscreenenter"",""5"",""15795""
","
","379.7000000178814","","49","","","3000","1","","","images/earth.jpg","images/rocket1","images/rocket2","null","images/rocket2","","1","real","null","1","","",""
"d3-animate-choice","148","717903","0.0-76.0-1.4","918","667","22","Male","false","false","false","true","""event"",""trial"",""time""
""fullscreenenter"",""5"",""15795""
","
","
","""event"",""trial"",""time""
""fullscreenenter"",""5"",""15795""
","
","621.3000000119209","","48","","","3000","1","","","images/redplanet1.jpg","images/alien2","images/alien1","images/rocket2","images/alien2","images/t.png","2","real","true","2","common","1","2022-02-17 20:26:18.481"
"two-step-fixation","149","718910","0.0-76.0-2.4","918","667","22","Male","false","false","false","true","""event"",""trial"",""time""
""fullscreenenter"",""5"",""15795""
","
","
","""event"",""trial"",""time""
""fullscreenenter"",""5"",""15795""
","
","","images/earth.jpg","","","","","","","","","","","","","","fixation","","","","","",""
"d3-animate-choice","150","721341","0.0-76.0-0.5","918","667","22","Male","false","false","false","true","""event"",""trial"",""time""
""fullscreenenter"",""5"",""15795""
","
","
","""event"",""trial"",""time""
""fullscreenenter"",""5"",""15795""
","
","425.69999998807907","","49","","","3000","1","","","images/earth.jpg","images/rocket1","images/rocket2","null","images/rocket2","","1","real","null","1","","",""
"d3-animate-choice","151","724330","0.0-76.0-1.5","918","667","22","Male","false","false","false","true","""event"",""trial"",""time""
""fullscreenenter"",""5"",""15795""
","
","
","""event"",""trial"",""time""
""fullscreenenter"",""5"",""15795""
","
","984","","48","","","3000","1","","","images/purpleplanet.jpg","images/alien4","images/alien3","images/rocket2","images/alien4","images/t.png","2","real","false","2","rare","1","2022-02-17 20:26:24.907"
"two-step-fixation","152","725335","0.0-76.0-2.5","918","667","22","Male","false","false","false","true","""event"",""trial"",""time""
""fullscreenenter"",""5"",""15795""
","
","
","""event"",""trial"",""time""
""fullscreenenter"",""5"",""15795""
","
","","images/earth.jpg","","","","","","","","","","","","","","fixation","","","","","",""
"d3-animate-choice","153","727858","0.0-76.0-0.6","918","667","22","Male","false","false","false","true","""event"",""trial"",""time""
""fullscreenenter"",""5"",""15795""
","
","
","""event"",""trial"",""time""
""fullscreenenter"",""5"",""15795""
","
","517.3000000119209","","49","","","3000","1","","","images/earth.jpg","images/rocket1","images/rocket2","null","images/rocket2","","1","real","null","1","","",""
"d3-animate-choice","154","730679","0.0-76.0-1.6","918","667","22","Male","false","false","false","true","""event"",""trial"",""time""
""fullscreenenter"",""5"",""15795""
","
","
","""event"",""trial"",""time""
""fullscreenenter"",""5"",""15795""
","
","812.1999999880791","","48","","","3000","1","","","images/redplanet1.jpg","images/alien2","images/alien1","images/rocket2","images/alien2","images/nothing.png","2","real","true","2","common","0","2022-02-17 20:26:31.256"
"two-step-fixation","155","731684","0.0-76.0-2.6","918","667","22","Male","false","false","false","true","""event"",""trial"",""time""
""fullscreenenter"",""5"",""15795""
","
","
","""event"",""trial"",""time""
""fullscreenenter"",""5"",""15795""
","
","","images/earth.jpg","","","","","","","","","","","","","","fixation","","","","","",""
"d3-animate-choice","156","734031","0.0-76.0-0.7","918","667","22","Male","false","false","false","true","""event"",""trial"",""time""
""fullscreenenter"",""5"",""15795""
","
","
","""event"",""trial"",""time""
""fullscreenenter"",""5"",""15795""
","
","340.59999999403954","","49","","","3000","1","","","images/earth.jpg","images/rocket1","images/rocket2","null","images/rocket2","","1","real","null","1","","",""
"d3-animate-choice","157","736934","0.0-76.0-1.7","918","667","22","Male","false","false","false","true","""event"",""trial"",""time""
""fullscreenenter"",""5"",""15795""
","
","
","""event"",""trial"",""time""
""fullscreenenter"",""5"",""15795""
","
","897.1000000238419","","48","","","3000","1","","","images/purpleplanet.jpg","images/alien4","images/alien3","images/rocket2","images/alien4","images/t.png","2","real","false","2","rare","1","2022-02-17 20:26:37.512"
"two-step-fixation","158","737941","0.0-76.0-2.7","918","667","22","Male","false","false","false","true","""event"",""trial"",""time""
""fullscreenenter"",""5"",""15795""
","
","
","""event"",""trial"",""time""
""fullscreenenter"",""5"",""15795""
","
","","images/earth.jpg","","","","","","","","","","","","","","fixation","","","","","",""
"d3-animate-choice","159","740385","0.0-76.0-0.8","918","667","22","Male","false","false","false","true","""event"",""trial"",""time""
""fullscreenenter"",""5"",""15795""
","
","
","""event"",""trial"",""time""
""fullscreenenter"",""5"",""15795""
","
","436.80000001192093","","49","","","3000","1","","","images/earth.jpg","images/rocket1","images/rocket2","null","images/rocket2","","1","real","null","1","","",""
"d3-animate-choice","160","743101","0.0-76.0-1.8","918","667","22","Male","false","false","false","true","""event"",""trial"",""time""
""fullscreenenter"",""5"",""15795""
","
","
","""event"",""trial"",""time""
""fullscreenenter"",""5"",""15795""
","
","708.6000000238419","","48","","","3000","1","","","images/redplanet1.jpg","images/alien2","images/alien1","images/rocket2","images/alien2","images/t.png","2","real","true","2","common","1","2022-02-17 20:26:43.679"
"two-step-fixation","161","744106","0.0-76.0-2.8","918","667","22","Male","false","false","false","true","""event"",""trial"",""time""
""fullscreenenter"",""5"",""15795""
","
","
","""event"",""trial"",""time""
""fullscreenenter"",""5"",""15795""
","
","","images/earth.jpg","","","","","","","","","","","","","","fixation","","","","","",""
"d3-animate-choice","162","746528","0.0-76.0-0.9","918","667","22","Male","false","false","false","true","""event"",""trial"",""time""
""fullscreenenter"",""5"",""15795""
","
","
","""event"",""trial"",""time""
""fullscreenenter"",""5"",""15795""
","
","416.5","","48","","","3000","1","","","images/earth.jpg","images/rocket1","images/rocket2","null","images/rocket1","","1","real","null","2","","",""
"d3-animate-choice","163","749139","0.0-76.0-1.9","918","667","22","Male","false","false","false","true","""event"",""trial"",""time""
""fullscreenenter"",""5"",""15795""
","
","
","""event"",""trial"",""time""
""fullscreenenter"",""5"",""15795""
","
","606","","48","","","3000","1","","","images/purpleplanet.jpg","images/alien4","images/alien3","images/rocket1","images/alien4","images/t.png","2","real","true","2","common","1","2022-02-17 20:26:49.716"
"two-step-fixation","164","750146","0.0-76.0-2.9","918","667","22","Male","false","false","false","true","""event"",""trial"",""time""
""fullscreenenter"",""5"",""15795""
","
","
","""event"",""trial"",""time""
""fullscreenenter"",""5"",""15795""
","
","","images/earth.jpg","","","","","","","","","","","","","","fixation","","","","","",""
"d3-animate-choice","165","752529","0.0-76.0-0.10","918","667","22","Male","false","false","false","true","""event"",""trial"",""time""
""fullscreenenter"",""5"",""15795""
","
","
","""event"",""trial"",""time""
""fullscreenenter"",""5"",""15795""
","
","377.40000000596046","","48","","","3000","1","","","images/earth.jpg","images/rocket1","images/rocket2","null","images/rocket1","","1","real","null","2","","",""
"d3-animate-choice","166","754930","0.0-76.0-1.10","918","667","22","Male","false","false","false","true","""event"",""trial"",""time""
""fullscreenenter"",""5"",""15795""
","
","
","""event"",""trial"",""time""
""fullscreenenter"",""5"",""15795""
","
","393.7000000178814","","48","","","3000","1","","","images/purpleplanet.jpg","images/alien4","images/alien3","images/rocket1","images/alien4","images/t.png","2","real","true","2","common","1","2022-02-17 20:26:55.507"
"two-step-fixation","167","755937","0.0-76.0-2.10","918","667","22","Male","false","false","false","true","""event"",""trial"",""time""
""fullscreenenter"",""5"",""15795""
","
","
","""event"",""trial"",""time""
""fullscreenenter"",""5"",""15795""
","
","","images/earth.jpg","","","","","","","","","","","","","","fixation","","","","","",""
"d3-animate-choice","168","758211","0.0-76.0-0.11","918","667","22","Male","false","false","false","true","""event"",""trial"",""time""
""fullscreenenter"",""5"",""15795""
","
","
","""event"",""trial"",""time""
""fullscreenenter"",""5"",""15795""
","
","264.7000000178814","","48","","","3000","1","","","images/earth.jpg","images/rocket1","images/rocket2","null","images/rocket1","","1","real","null","2","","",""
"d3-animate-choice","169","761054","0.0-76.0-1.11","918","667","22","Male","false","false","false","true","""event"",""trial"",""time""
""fullscreenenter"",""5"",""15795""
","
","
","""event"",""trial"",""time""
""fullscreenenter"",""5"",""15795""
","
","838.1999999880791","","48","","","3000","1","","","images/redplanet1.jpg","images/alien2","images/alien1","images/rocket1","images/alien2","images/nothing.png","2","real","false","2","rare","0","2022-02-17 20:27:01.631"
"two-step-fixation","170","762061","0.0-76.0-2.11","918","667","22","Male","false","false","false","true","""event"",""trial"",""time""
""fullscreenenter"",""5"",""15795""
","
","
","""event"",""trial"",""time""
""fullscreenenter"",""5"",""15795""
","
","","images/earth.jpg","","","","","","","","","","","","","","fixation","","","","","",""
"d3-animate-choice","171","764450","0.0-76.0-0.12","918","667","22","Male","false","false","false","true","""event"",""trial"",""time""
""fullscreenenter"",""5"",""15795""
","
","
","""event"",""trial"",""time""
""fullscreenenter"",""5"",""15795""
","
","382.60000002384186","","48","","","3000","1","","","images/earth.jpg","images/rocket1","images/rocket2","null","images/rocket1","","1","real","null","2","","",""
"d3-animate-choice","172","767476","0.0-76.0-1.12","918","667","22","Male","false","false","false","true","""event"",""trial"",""time""
""fullscreenenter"",""5"",""15795""
","
","
","""event"",""trial"",""time""
""fullscreenenter"",""5"",""15795""
","
","1019.5999999940395","","48","","","3000","1","","","images/redplanet1.jpg","images/alien2","images/alien1","images/rocket1","images/alien2","images/nothing.png","2","real","false","2","rare","0","2022-02-17 20:27:08.054"
"two-step-fixation","173","768483","0.0-76.0-2.12","918","667","22","Male","false","false","false","true","""event"",""trial"",""time""
""fullscreenenter"",""5"",""15795""
","
","
","""event"",""trial"",""time""
""fullscreenenter"",""5"",""15795""
","
","","images/earth.jpg","","","","","","","","","","","","","","fixation","","","","","",""
"d3-animate-choice","174","770930","0.0-76.0-0.13","918","667","22","Male","false","false","false","true","""event"",""trial"",""time""
""fullscreenenter"",""5"",""15795""
","
","
","""event"",""trial"",""time""
""fullscreenenter"",""5"",""15795""
","
","440.5","","48","","","3000","1","","","images/earth.jpg","images/rocket1","images/rocket2","null","images/rocket1","","1","real","null","2","","",""
"d3-animate-choice","175","773600","0.0-76.0-1.13","918","667","22","Male","false","false","false","true","""event"",""trial"",""time""
""fullscreenenter"",""5"",""15795""
","
","
","""event"",""trial"",""time""
""fullscreenenter"",""5"",""15795""
","
","664","","48","","","3000","1","","","images/purpleplanet.jpg","images/alien4","images/alien3","images/rocket1","images/alien4","images/nothing.png","2","real","true","2","common","0","2022-02-17 20:27:14.177"
"two-step-fixation","176","774605","0.0-76.0-2.13","918","667","22","Male","false","false","false","true","""event"",""trial"",""time""
""fullscreenenter"",""5"",""15795""
","
","
","""event"",""trial"",""time""
""fullscreenenter"",""5"",""15795""
","
","","images/earth.jpg","","","","","","","","","","","","","","fixation","","","","","",""
"d3-animate-choice","177","776918","0.0-76.0-0.14","918","667","22","Male","false","false","false","true","""event"",""trial"",""time""
""fullscreenenter"",""5"",""15795""
","
","
","""event"",""trial"",""time""
""fullscreenenter"",""5"",""15795""
","
","306.80000001192093","","49","","","3000","1","","","images/earth.jpg","images/rocket1","images/rocket2","null","images/rocket2","","1","real","null","1","","",""
"d3-animate-choice","178","779276","0.0-76.0-1.14","918","667","22","Male","false","false","false","true","""event"",""trial"",""time""
""fullscreenenter"",""5"",""15795""
","
","
","""event"",""trial"",""time""
""fullscreenenter"",""5"",""15795""
","
","351.69999998807907","","48","","","3000","1","","","images/purpleplanet.jpg","images/alien4","images/alien3","images/rocket2","images/alien4","images/t.png","2","real","false","2","rare","1","2022-02-17 20:27:19.853"
"two-step-fixation","179","780282","0.0-76.0-2.14","918","667","22","Male","false","false","false","true","""event"",""trial"",""time""
""fullscreenenter"",""5"",""15795""
","
","
","""event"",""trial"",""time""
""fullscreenenter"",""5"",""15795""
","
","","images/earth.jpg","","","","","","","","","","","","","","fixation","","","","","",""
"d3-animate-choice","180","782611","0.0-76.0-0.15","918","667","22","Male","false","false","false","true","""event"",""trial"",""time""
""fullscreenenter"",""5"",""15795""
","
","
","""event"",""trial"",""time""
""fullscreenenter"",""5"",""15795""
","
","322.80000001192093","","49","","","3000","1","","","images/earth.jpg","images/rocket1","images/rocket2","null","images/rocket2","","1","real","null","1","","",""
"d3-animate-choice","181","785925","0.0-76.0-1.15","918","667","22","Male","false","false","false","true","""event"",""trial"",""time""
""fullscreenenter"",""5"",""15795""
","
","
","""event"",""trial"",""time""
""fullscreenenter"",""5"",""15795""
","
","1309.5","","49","","","3000","1","","","images/redplanet1.jpg","images/alien2","images/alien1","images/rocket2","images/alien1","images/t.png","2","real","true","1","common","1","2022-02-17 20:27:26.502"
"two-step-fixation","182","786932","0.0-76.0-2.15","918","667","22","Male","false","false","false","true","""event"",""trial"",""time""
""fullscreenenter"",""5"",""15795""
","
","
","""event"",""trial"",""time""
""fullscreenenter"",""5"",""15795""
","
","","images/earth.jpg","","","","","","","","","","","","","","fixation","","","","","",""
"d3-animate-choice","183","789420","0.0-76.0-0.16","918","667","22","Male","false","false","false","true","""event"",""trial"",""time""
""fullscreenenter"",""5"",""15795""
","
","
","""event"",""trial"",""time""
""fullscreenenter"",""5"",""15795""
","
","477.69999998807907","","48","","","3000","1","","","images/earth.jpg","images/rocket1","images/rocket2","null","images/rocket1","","1","real","null","2","","",""
"d3-animate-choice","184","791889","0.0-76.0-1.16","918","667","22","Male","false","false","false","true","""event"",""trial"",""time""
""fullscreenenter"",""5"",""15795""
","
","
","""event"",""trial"",""time""
""fullscreenenter"",""5"",""15795""
","
","463","","49","","","3000","1","","","images/redplanet1.jpg","images/alien2","images/alien1","images/rocket1","images/alien1","images/t.png","2","real","false","1","rare","1","2022-02-17 20:27:32.467"
"two-step-fixation","185","792897","0.0-76.0-2.16","918","667","22","Male","false","false","false","true","""event"",""trial"",""time""
""fullscreenenter"",""5"",""15795""
","
","
","""event"",""trial"",""time""
""fullscreenenter"",""5"",""15795""
","
","","images/earth.jpg","","","","","","","","","","","","","","fixation","","","","","",""
"d3-animate-choice","186","795207","0.0-76.0-0.17","918","667","22","Male","false","false","false","true","""event"",""trial"",""time""
""fullscreenenter"",""5"",""15795""
","
","
","""event"",""trial"",""time""
""fullscreenenter"",""5"",""15795""
","
","301.7000000178814","","48","","","3000","1","","","images/earth.jpg","images/rocket1","images/rocket2","null","images/rocket1","","1","real","null","2","","",""
"d3-animate-choice","187","797799","0.0-76.0-1.17","918","667","22","Male","false","false","false","true","""event"",""trial"",""time""
""fullscreenenter"",""5"",""15795""
","
","
","""event"",""trial"",""time""
""fullscreenenter"",""5"",""15795""
","
","585.7000000178814","","48","","","3000","1","","","images/purpleplanet.jpg","images/alien4","images/alien3","images/rocket1","images/alien4","images/t.png","2","real","true","2","common","1","2022-02-17 20:27:38.376"
"two-step-fixation","188","798805","0.0-76.0-2.17","918","667","22","Male","false","false","false","true","""event"",""trial"",""time""
""fullscreenenter"",""5"",""15795""
","
","
","""event"",""trial"",""time""
""fullscreenenter"",""5"",""15795""
","
","","images/earth.jpg","","","","","","","","","","","","","","fixation","","","","","",""
"d3-animate-choice","189","801209","0.0-76.0-0.18","918","667","22","Male","false","false","false","true","""event"",""trial"",""time""
""fullscreenenter"",""5"",""15795""
","
","
","""event"",""trial"",""time""
""fullscreenenter"",""5"",""15795""
","
","395.80000001192093","","49","","","3000","1","","","images/earth.jpg","images/rocket1","images/rocket2","null","images/rocket2","","1","real","null","1","","",""
"d3-animate-choice","190","803913","0.0-76.0-1.18","918","667","22","Male","false","false","false","true","""event"",""trial"",""time""
""fullscreenenter"",""5"",""15795""
","
","
","""event"",""trial"",""time""
""fullscreenenter"",""5"",""15795""
","
","696.8000000119209","","48","","","3000","1","","","images/purpleplanet.jpg","images/alien4","images/alien3","images/rocket2","images/alien4","images/t.png","2","real","false","2","rare","1","2022-02-17 20:27:44.490"
"two-step-fixation","191","804917","0.0-76.0-2.18","918","667","22","Male","false","false","false","true","""event"",""trial"",""time""
""fullscreenenter"",""5"",""15795""
","
","
","""event"",""trial"",""time""
""fullscreenenter"",""5"",""15795""
","
","","images/earth.jpg","","","","","","","","","","","","","","fixation","","","","","",""
"d3-animate-choice","192","807298","0.0-76.0-0.19","918","667","22","Male","false","false","false","true","""event"",""trial"",""time""
""fullscreenenter"",""5"",""15795""
","
","
","""event"",""trial"",""time""
""fullscreenenter"",""5"",""15795""
","
","374.39999997615814","","48","","","3000","1","","","images/earth.jpg","images/rocket1","images/rocket2","null","images/rocket1","","1","real","null","2","","",""
"d3-animate-choice","193","809950","0.0-76.0-1.19","918","667","22","Male","false","false","false","true","""event"",""trial"",""time""
""fullscreenenter"",""5"",""15795""
","
","
","""event"",""trial"",""time""
""fullscreenenter"",""5"",""15795""
","
","648.5999999940395","","48","","","3000","1","","","images/purpleplanet.jpg","images/alien4","images/alien3","images/rocket1","images/alien4","images/t.png","2","real","true","2","common","1","2022-02-17 20:27:50.528"
"two-step-fixation","194","810955","0.0-76.0-2.19","918","667","22","Male","false","false","false","true","""event"",""trial"",""time""
""fullscreenenter"",""5"",""15795""
","
","
","""event"",""trial"",""time""
""fullscreenenter"",""5"",""15795""
","
","","images/earth.jpg","","","","","","","","","","","","","","fixation","","","","","",""
"d3-animate-choice","195","813247","0.0-76.0-0.20","918","667","22","Male","false","false","false","true","""event"",""trial"",""time""
""fullscreenenter"",""5"",""15795""
","
","
","""event"",""trial"",""time""
""fullscreenenter"",""5"",""15795""
","
","284","","48","","","3000","1","","","images/earth.jpg","images/rocket1","images/rocket2","null","images/rocket1","","1","real","null","2","","",""
"d3-animate-choice","196","815791","0.0-76.0-1.20","918","667","22","Male","false","false","false","true","""event"",""trial"",""time""
""fullscreenenter"",""5"",""15795""
","
","
","""event"",""trial"",""time""
""fullscreenenter"",""5"",""15795""
","
","540.7000000178814","","48","","","3000","1","","","images/purpleplanet.jpg","images/alien4","images/alien3","images/rocket1","images/alien4","images/t.png","2","real","true","2","common","1","2022-02-17 20:27:56.368"
"two-step-fixation","197","816795","0.0-76.0-2.20","918","667","22","Male","false","false","false","true","""event"",""trial"",""time""
""fullscreenenter"",""5"",""15795""
","
","
","""event"",""trial"",""time""
""fullscreenenter"",""5"",""15795""
","
","","images/earth.jpg","","","","","","","","","","","","","","fixation","","","","","",""
"d3-animate-choice","198","819263","0.0-76.0-0.21","918","667","22","Male","false","false","false","true","""event"",""trial"",""time""
""fullscreenenter"",""5"",""15795""
","
","
","""event"",""trial"",""time""
""fullscreenenter"",""5"",""15795""
","
","460.69999998807907","","48","","","3000","1","","","images/earth.jpg","images/rocket1","images/rocket2","null","images/rocket1","","1","real","null","2","","",""
"d3-animate-choice","199","821716","0.0-76.0-1.21","918","667","22","Male","false","false","false","true","""event"",""trial"",""time""
""fullscreenenter"",""5"",""15795""
","
","
","""event"",""trial"",""time""
""fullscreenenter"",""5"",""15795""
","
","449.59999999403954","","48","","","3000","1","","","images/purpleplanet.jpg","images/alien4","images/alien3","images/rocket1","images/alien4","images/nothing.png","2","real","true","2","common","0","2022-02-17 20:28:02.293"
"two-step-fixation","200","822722","0.0-76.0-2.21","918","667","22","Male","false","false","false","true","""event"",""trial"",""time""
""fullscreenenter"",""5"",""15795""
","
","
","""event"",""trial"",""time""
""fullscreenenter"",""5"",""15795""
","
","","images/earth.jpg","","","","","","","","","","","","","","fixation","","","","","",""
"d3-animate-choice","201","824764","0.0-76.0-0.22","918","667","22","Male","false","false","false","true","""event"",""trial"",""time""
""fullscreenenter"",""5"",""15795""
","
","
","""event"",""trial"",""time""
""fullscreenenter"",""5"",""15795""
","
","35.5","","48","","","3000","1","","","images/earth.jpg","images/rocket1","images/rocket2","null","images/rocket1","","1","real","null","2","","",""
"d3-animate-choice","202","827279","0.0-76.0-1.22","918","667","22","Male","false","false","false","true","""event"",""trial"",""time""
""fullscreenenter"",""5"",""15795""
","
","
","""event"",""trial"",""time""
""fullscreenenter"",""5"",""15795""
","
","508.7000000178814","","48","","","3000","1","","","images/purpleplanet.jpg","images/alien4","images/alien3","images/rocket1","images/alien4","images/t.png","2","real","true","2","common","1","2022-02-17 20:28:07.856"
"two-step-fixation","203","828284","0.0-76.0-2.22","918","667","22","Male","false","false","false","true","""event"",""trial"",""time""
""fullscreenenter"",""5"",""15795""
","
","
","""event"",""trial"",""time""
""fullscreenenter"",""5"",""15795""
","
","","images/earth.jpg","","","","","","","","","","","","","","fixation","","","","","",""
"d3-animate-choice","204","830614","0.0-76.0-0.23","918","667","22","Male","false","false","false","true","""event"",""trial"",""time""
""fullscreenenter"",""5"",""15795""
","
","
","""event"",""trial"",""time""
""fullscreenenter"",""5"",""15795""
","
","325.59999999403954","","49","","","3000","1","","","images/earth.jpg","images/rocket1","images/rocket2","null","images/rocket2","","1","real","null","1","","",""
"d3-animate-choice","205","833047","0.0-76.0-1.23","918","667","22","Male","false","false","false","true","""event"",""trial"",""time""
""fullscreenenter"",""5"",""15795""
","
","
","""event"",""trial"",""time""
""fullscreenenter"",""5"",""15795""
","
","430","","49","","","3000","1","","","images/redplanet1.jpg","images/alien2","images/alien1","images/rocket2","images/alien1","images/t.png","2","real","true","1","common","1","2022-02-17 20:28:13.625"
"two-step-fixation","206","834052","0.0-76.0-2.23","918","667","22","Male","false","false","false","true","""event"",""trial"",""time""
""fullscreenenter"",""5"",""15795""
","
","
","""event"",""trial"",""time""
""fullscreenenter"",""5"",""15795""
","
","","images/earth.jpg","","","","","","","","","","","","","","fixation","","","","","",""
"d3-animate-choice","207","836321","0.0-76.0-0.24","918","667","22","Male","false","false","false","true","""event"",""trial"",""time""
""fullscreenenter"",""5"",""15795""
","
","
","""event"",""trial"",""time""
""fullscreenenter"",""5"",""15795""
","
","263.09999999403954","","49","","","3000","1","","","images/earth.jpg","images/rocket1","images/rocket2","null","images/rocket2","","1","real","null","1","","",""
"d3-animate-choice","208","838709","0.0-76.0-1.24","918","667","22","Male","false","false","false","true","""event"",""trial"",""time""
""fullscreenenter"",""5"",""15795""
","
","
","""event"",""trial"",""time""
""fullscreenenter"",""5"",""15795""
","
","384.59999999403954","","49","","","3000","1","","","images/redplanet1.jpg","images/alien2","images/alien1","images/rocket2","images/alien1","images/t.png","2","real","true","1","common","1","2022-02-17 20:28:19.286"
"two-step-fixation","209","839714","0.0-76.0-2.24","918","667","22","Male","false","false","false","true","""event"",""trial"",""time""
""fullscreenenter"",""5"",""15795""
","
","
","""event"",""trial"",""time""
""fullscreenenter"",""5"",""15795""
","
","","images/earth.jpg","","","","","","","","","","","","","","fixation","","","","","",""
"d3-animate-choice","210","842004","0.0-76.0-0.25","918","667","22","Male","false","false","false","true","""event"",""trial"",""time""
""fullscreenenter"",""5"",""15795""
","
","
","""event"",""trial"",""time""
""fullscreenenter"",""5"",""15795""
","
","284.7999999821186","","49","","","3000","1","","","images/earth.jpg","images/rocket1","images/rocket2","null","images/rocket2","","1","real","null","1","","",""
"d3-animate-choice","211","844468","0.0-76.0-1.25","918","667","22","Male","false","false","false","true","""event"",""trial"",""time""
""fullscreenenter"",""5"",""15795""
","
","
","""event"",""trial"",""time""
""fullscreenenter"",""5"",""15795""
","
","459.40000000596046","","49","","","3000","1","","","images/redplanet1.jpg","images/alien2","images/alien1","images/rocket2","images/alien1","images/t.png","2","real","true","1","common","1","2022-02-17 20:28:25.045"
"two-step-fixation","212","845472","0.0-76.0-2.25","918","667","22","Male","false","false","false","true","""event"",""trial"",""time""
""fullscreenenter"",""5"",""15795""
","
","
","""event"",""trial"",""time""
""fullscreenenter"",""5"",""15795""
","
","","images/earth.jpg","","","","","","","","","","","","","","fixation","","","","","",""
"d3-animate-choice","213","847732","0.0-76.0-0.26","918","667","22","Male","false","false","false","true","""event"",""trial"",""time""
""fullscreenenter"",""5"",""15795""
","
","
","""event"",""trial"",""time""
""fullscreenenter"",""5"",""15795""
","
","255.60000002384186","","49","","","3000","1","","","images/earth.jpg","images/rocket1","images/rocket2","null","images/rocket2","","1","real","null","1","","",""
"d3-animate-choice","214","850174","0.0-76.0-1.26","918","667","22","Male","false","false","false","true","""event"",""trial"",""time""
""fullscreenenter"",""5"",""15795""
","
","
","""event"",""trial"",""time""
""fullscreenenter"",""5"",""15795""
","
","436.09999999403954","","49","","","3000","1","","","images/redplanet1.jpg","images/alien2","images/alien1","images/rocket2","images/alien1","images/t.png","2","real","true","1","common","1","2022-02-17 20:28:30.751"
"two-step-fixation","215","851178","0.0-76.0-2.26","918","667","22","Male","false","false","false","true","""event"",""trial"",""time""
""fullscreenenter"",""5"",""15795""
","
","
","""event"",""trial"",""time""
""fullscreenenter"",""5"",""15795""
","
","","images/earth.jpg","","","","","","","","","","","","","","fixation","","","","","",""
"d3-animate-choice","216","853252","0.0-76.0-0.27","918","667","22","Male","false","false","false","true","""event"",""trial"",""time""
""fullscreenenter"",""5"",""15795""
","
","
","""event"",""trial"",""time""
""fullscreenenter"",""5"",""15795""
","
","69.5","","48","","","3000","1","","","images/earth.jpg","images/rocket1","images/rocket2","null","images/rocket1","","1","real","null","2","","",""
"d3-animate-choice","217","855886","0.0-76.0-1.27","918","667","22","Male","false","false","false","true","""event"",""trial"",""time""
""fullscreenenter"",""5"",""15795""
","
","
","""event"",""trial"",""time""
""fullscreenenter"",""5"",""15795""
","
","628.8000000119209","","49","","","3000","1","","","images/redplanet1.jpg","images/alien2","images/alien1","images/rocket1","images/alien1","images/t.png","2","real","false","1","rare","1","2022-02-17 20:28:36.463"
"two-step-fixation","218","856891","0.0-76.0-2.27","918","667","22","Male","false","false","false","true","""event"",""trial"",""time""
""fullscreenenter"",""5"",""15795""
","
","
","""event"",""trial"",""time""
""fullscreenenter"",""5"",""15795""
","
","","images/earth.jpg","","","","","","","","","","","","","","fixation","","","","","",""
"d3-animate-choice","219","858899","0.0-76.0-0.28","918","667","22","Male","false","false","false","true","""event"",""trial"",""time""
""fullscreenenter"",""5"",""15795""
","
","
","""event"",""trial"",""time""
""fullscreenenter"",""5"",""15795""
","
","3.399999976158142","","48","","","3000","1","","","images/earth.jpg","images/rocket1","images/rocket2","null","images/rocket1","","1","real","null","2","","",""
"d3-animate-choice","220","861287","0.0-76.0-1.28","918","667","22","Male","false","false","false","true","""event"",""trial"",""time""
""fullscreenenter"",""5"",""15795""
","
","
","""event"",""trial"",""time""
""fullscreenenter"",""5"",""15795""
","
","382.80000001192093","","48","","","3000","1","","","images/purpleplanet.jpg","images/alien4","images/alien3","images/rocket1","images/alien4","images/t.png","2","real","true","2","common","1","2022-02-17 20:28:41.864"
"two-step-fixation","221","862294","0.0-76.0-2.28","918","667","22","Male","false","false","false","true","""event"",""trial"",""time""
""fullscreenenter"",""5"",""15795""
","
","
","""event"",""trial"",""time""
""fullscreenenter"",""5"",""15795""
","
","","images/earth.jpg","","","","","","","","","","","","","","fixation","","","","","",""
"d3-animate-choice","222","864425","0.0-76.0-0.29","918","667","22","Male","false","false","false","true","""event"",""trial"",""time""
""fullscreenenter"",""5"",""15795""
","
","
","""event"",""trial"",""time""
""fullscreenenter"",""5"",""15795""
","
","126.90000000596046","","49","","","3000","1","","","images/earth.jpg","images/rocket1","images/rocket2","null","images/rocket2","","1","real","null","1","","",""
"d3-animate-choice","223","866881","0.0-76.0-1.29","918","667","22","Male","false","false","false","true","""event"",""trial"",""time""
""fullscreenenter"",""5"",""15795""
","
","
","""event"",""trial"",""time""
""fullscreenenter"",""5"",""15795""
","
","452.10000002384186","","49","","","3000","1","","","images/redplanet1.jpg","images/alien2","images/alien1","images/rocket2","images/alien1","images/nothing.png","2","real","true","1","common","0","2022-02-17 20:28:47.458"
"two-step-fixation","224","867884","0.0-76.0-2.29","918","667","22","Male","false","false","false","true","""event"",""trial"",""time""
""fullscreenenter"",""5"",""15795""
","
","
","""event"",""trial"",""time""
""fullscreenenter"",""5"",""15795""
","
","","images/earth.jpg","","","","","","","","","","","","","","fixation","","","","","",""
"d3-animate-choice","225","870079","0.0-76.0-0.30","918","667","22","Male","false","false","false","true","""event"",""trial"",""time""
""fullscreenenter"",""5"",""15795""
","
","
","""event"",""trial"",""time""
""fullscreenenter"",""5"",""15795""
","
","189.59999999403954","","48","","","3000","1","","","images/earth.jpg","images/rocket1","images/rocket2","null","images/rocket1","","1","real","null","2","","",""
"d3-animate-choice","226","872654","0.0-76.0-1.30","918","667","22","Male","false","false","false","true","""event"",""trial"",""time""
""fullscreenenter"",""5"",""15795""
","
","
","""event"",""trial"",""time""
""fullscreenenter"",""5"",""15795""
","
","569.5","","48","","","3000","1","","","images/purpleplanet.jpg","images/alien4","images/alien3","images/rocket1","images/alien4","images/t.png","2","real","true","2","common","1","2022-02-17 20:28:53.231"
"two-step-fixation","227","873661","0.0-76.0-2.30","918","667","22","Male","false","false","false","true","""event"",""trial"",""time""
""fullscreenenter"",""5"",""15795""
","
","
","""event"",""trial"",""time""
""fullscreenenter"",""5"",""15795""
","
","","images/earth.jpg","","","","","","","","","","","","","","fixation","","","","","",""
"d3-animate-choice","228","875760","0.0-76.0-0.31","918","667","22","Male","false","false","false","true","""event"",""trial"",""time""
""fullscreenenter"",""5"",""15795""
","
","
","""event"",""trial"",""time""
""fullscreenenter"",""5"",""15795""
","
","91.90000000596046","","48","","","3000","1","","","images/earth.jpg","images/rocket1","images/rocket2","null","images/rocket1","","1","real","null","2","","",""
"d3-animate-choice","229","878201","0.0-76.0-1.31","918","667","22","Male","false","false","false","true","""event"",""trial"",""time""
""fullscreenenter"",""5"",""15795""
","
","
","""event"",""trial"",""time""
""fullscreenenter"",""5"",""15795""
","
","435.39999997615814","","48","","","3000","1","","","images/purpleplanet.jpg","images/alien4","images/alien3","images/rocket1","images/alien4","images/t.png","2","real","true","2","common","1","2022-02-17 20:28:58.778"
"two-step-fixation","230","879205","0.0-76.0-2.31","918","667","22","Male","false","false","false","true","""event"",""trial"",""time""
""fullscreenenter"",""5"",""15795""
","
","
","""event"",""trial"",""time""
""fullscreenenter"",""5"",""15795""
","
","","images/earth.jpg","","","","","","","","","","","","","","fixation","","","","","",""
"d3-animate-choice","231","881566","0.0-76.0-0.32","918","667","22","Male","false","false","false","true","""event"",""trial"",""time""
""fullscreenenter"",""5"",""15795""
","
","
","""event"",""trial"",""time""
""fullscreenenter"",""5"",""15795""
","
","356.09999999403954","","48","","","3000","1","","","images/earth.jpg","images/rocket1","images/rocket2","null","images/rocket1","","1","real","null","2","","",""
"d3-animate-choice","232","884017","0.0-76.0-1.32","918","667","22","Male","false","false","false","true","""event"",""trial"",""time""
""fullscreenenter"",""5"",""15795""
","
","
","""event"",""trial"",""time""
""fullscreenenter"",""5"",""15795""
","
","445.10000002384186","","48","","","3000","1","","","images/purpleplanet.jpg","images/alien4","images/alien3","images/rocket1","images/alien4","images/nothing.png","2","real","true","2","common","0","2022-02-17 20:29:04.594"
"two-step-fixation","233","885022","0.0-76.0-2.32","918","667","22","Male","false","false","false","true","""event"",""trial"",""time""
""fullscreenenter"",""5"",""15795""
","
","
","""event"",""trial"",""time""
""fullscreenenter"",""5"",""15795""
","
","","images/earth.jpg","","","","","","","","","","","","","","fixation","","","","","",""
"d3-animate-choice","234","887318","0.0-76.0-0.33","918","667","22","Male","false","false","false","true","""event"",""trial"",""time""
""fullscreenenter"",""5"",""15795""
","
","
","""event"",""trial"",""time""
""fullscreenenter"",""5"",""15795""
","
","291","","48","","","3000","1","","","images/earth.jpg","images/rocket1","images/rocket2","null","images/rocket1","","1","real","null","2","","",""
"d3-animate-choice","235","889728","0.0-76.0-1.33","918","667","22","Male","false","false","false","true","""event"",""trial"",""time""
""fullscreenenter"",""5"",""15795""
","
","
","""event"",""trial"",""time""
""fullscreenenter"",""5"",""15795""
","
","405.90000000596046","","48","","","3000","1","","","images/purpleplanet.jpg","images/alien4","images/alien3","images/rocket1","images/alien4","images/t.png","2","real","true","2","common","1","2022-02-17 20:29:10.305"
"two-step-fixation","236","890733","0.0-76.0-2.33","918","667","22","Male","false","false","false","true","""event"",""trial"",""time""
""fullscreenenter"",""5"",""15795""
","
","
","""event"",""trial"",""time""
""fullscreenenter"",""5"",""15795""
","
","","images/earth.jpg","","","","","","","","","","","","","","fixation","","","","","",""
"d3-animate-choice","237","892760","0.0-76.0-0.34","918","667","22","Male","false","false","false","true","""event"",""trial"",""time""
""fullscreenenter"",""5"",""15795""
","
","
","""event"",""trial"",""time""
""fullscreenenter"",""5"",""15795""
","
","21","","49","","","3000","1","","","images/earth.jpg","images/rocket1","images/rocket2","null","images/rocket2","","1","real","null","1","","",""
"d3-animate-choice","238","895179","0.0-76.0-1.34","918","667","22","Male","false","false","false","true","""event"",""trial"",""time""
""fullscreenenter"",""5"",""15795""
","
","
","""event"",""trial"",""time""
""fullscreenenter"",""5"",""15795""
","
","414.7000000178814","","49","","","3000","1","","","images/redplanet1.jpg","images/alien2","images/alien1","images/rocket2","images/alien1","images/nothing.png","2","real","true","1","common","0","2022-02-17 20:29:15.756"
"two-step-fixation","239","896183","0.0-76.0-2.34","918","667","22","Male","false","false","false","true","""event"",""trial"",""time""
""fullscreenenter"",""5"",""15795""
","
","
","""event"",""trial"",""time""
""fullscreenenter"",""5"",""15795""
","
","","images/earth.jpg","","","","","","","","","","","","","","fixation","","","","","",""
"d3-animate-choice","240","898558","0.0-76.0-0.35","918","667","22","Male","false","false","false","true","""event"",""trial"",""time""
""fullscreenenter"",""5"",""15795""
","
","
","""event"",""trial"",""time""
""fullscreenenter"",""5"",""15795""
","
","368.2000000178814","","49","","","3000","1","","","images/earth.jpg","images/rocket1","images/rocket2","null","images/rocket2","","1","real","null","1","","",""
"d3-animate-choice","241","900925","0.0-76.0-1.35","918","667","22","Male","false","false","false","true","""event"",""trial"",""time""
""fullscreenenter"",""5"",""15795""
","
","
","""event"",""trial"",""time""
""fullscreenenter"",""5"",""15795""
","
","360.90000000596046","","49","","","3000","1","","","images/redplanet1.jpg","images/alien2","images/alien1","images/rocket2","images/alien1","images/t.png","2","real","true","1","common","1","2022-02-17 20:29:21.502"
"two-step-fixation","242","901929","0.0-76.0-2.35","918","667","22","Male","false","false","false","true","""event"",""trial"",""time""
""fullscreenenter"",""5"",""15795""
","
","
","""event"",""trial"",""time""
""fullscreenenter"",""5"",""15795""
","
","","images/earth.jpg","","","","","","","","","","","","","","fixation","","","","","",""
"d3-animate-choice","243","903954","0.0-76.0-0.36","918","667","22","Male","false","false","false","true","""event"",""trial"",""time""
""fullscreenenter"",""5"",""15795""
","
","
","""event"",""trial"",""time""
""fullscreenenter"",""5"",""15795""
","
","18.600000023841858","","48","","","3000","1","","","images/earth.jpg","images/rocket1","images/rocket2","null","images/rocket1","","1","real","null","2","","",""
"d3-animate-choice","244","906351","0.0-76.0-1.36","918","667","22","Male","false","false","false","true","""event"",""trial"",""time""
""fullscreenenter"",""5"",""15795""
","
","
","""event"",""trial"",""time""
""fullscreenenter"",""5"",""15795""
","
","388.90000000596046","","48","","","3000","1","","","images/redplanet1.jpg","images/alien2","images/alien1","images/rocket1","images/alien2","images/nothing.png","2","real","false","2","rare","0","2022-02-17 20:29:26.929"
"two-step-fixation","245","907359","0.0-76.0-2.36","918","667","22","Male","false","false","false","true","""event"",""trial"",""time""
""fullscreenenter"",""5"",""15795""
","
","
","""event"",""trial"",""time""
""fullscreenenter"",""5"",""15795""
","
","","images/earth.jpg","","","","","","","","","","","","","","fixation","","","","","",""
"d3-animate-choice","246","909783","0.0-76.0-0.37","918","667","22","Male","false","false","false","true","""event"",""trial"",""time""
""fullscreenenter"",""5"",""15795""
","
","
","""event"",""trial"",""time""
""fullscreenenter"",""5"",""15795""
","
","419.2999999821186","","48","","","3000","1","","","images/earth.jpg","images/rocket1","images/rocket2","null","images/rocket1","","1","real","null","2","","",""
"d3-animate-choice","247","912217","0.0-76.0-1.37","918","667","22","Male","false","false","false","true","""event"",""trial"",""time""
""fullscreenenter"",""5"",""15795""
","
","
