"trial_type","trial_index","time_elapsed","internal_node_id","participant_id","subject_id","age","gender","rocket_sides","red_planet_first_rocket","red_display_order","purple_display_order","interactions","blur_events","focus_events","fullscreenenter_events","fullscreenexit_events","rt","stimulus","key_press","button_pressed","success","duration","valid_pressed","rts","keys","planet_text","right_text","left_text","center_text","chosen_text","reward_text","trial_stage","practice_trial","transition_type","choice","transition","reward","timestamp"
"pavlovia","0","3","0.0-0.0","2606","5041","18","Female","true","false","false","false","
","
","
","
","
","","","","","","","","","","","","","","","","","","","","","",""
"html-keyboard-response","1","6798","0.0-1.0","2606","5041","18","Female","true","false","false","false","
","
","
","
","
","6794.70000000298","Welcome! Press the space bar to begin.","66","","","","","","","","","","","","","","","","","","",""
"audio-keyboard-response","2","8579","0.0-2.0","2606","5041","18","Female","true","false","false","false","
","
","
","
","
","1776","audio/beep_loop.wav","32","","","","","","","","","","","","","","","","","","",""
"audio-button-response","3","10113","0.0-3.0","2606","5041","18","Female","true","false","false","false","""event"",""trial"",""time""
""blur"",""4"",""14815""
""focus"",""4"",""14978""
","""event"",""trial"",""time""
""blur"",""4"",""14815""
","""event"",""trial"",""time""
""focus"",""4"",""14978""
","
","
","NaN","audio/fish.mp3","","1","","","","","","","","","","","","","","","","","",""
"audio-button-response","4","21635","0.0-4.0","2606","5041","18","Female","true","false","false","false","""event"",""trial"",""time""
""blur"",""4"",""14815""
""focus"",""4"",""14978""
""fullscreenenter"",""5"",""24297""
","""event"",""trial"",""time""
""blur"",""4"",""14815""
","""event"",""trial"",""time""
""focus"",""4"",""14978""
","""event"",""trial"",""time""
""fullscreenenter"",""5"",""24297""
","
","NaN","audio/tiger.mp3","","4","","","","","","","","","","","","","","","","","",""
"fullscreen","5","25273","0.0-5.0","2606","5041","18","Female","true","false","false","false","""event"",""trial"",""time""
""blur"",""4"",""14815""
""focus"",""4"",""14978""
""fullscreenenter"",""5"",""24297""
","""event"",""trial"",""time""
""blur"",""4"",""14815""
","""event"",""trial"",""time""
""focus"",""4"",""14978""
","""event"",""trial"",""time""
""fullscreenenter"",""5"",""24297""
","
","","","","","true","","","","","","","","","","","","","","","","",""
"d3-instructions","6","41150","0.0-6.0","2606","5041","18","Female","true","false","false","false","""event"",""trial"",""time""
""blur"",""4"",""14815""
""focus"",""4"",""14978""
""fullscreenenter"",""5"",""24297""
","""event"",""trial"",""time""
""blur"",""4"",""14815""
","""event"",""trial"",""time""
""focus"",""4"",""14978""
","""event"",""trial"",""time""
""fullscreenenter"",""5"",""24297""
","
","","","","","","","","","","","","","","","","","","","","","",""
"d3-instructions","7","68371","0.0-7.0","2606","5041","18","Female","true","false","false","false","""event"",""trial"",""time""
""blur"",""4"",""14815""
""focus"",""4"",""14978""
""fullscreenenter"",""5"",""24297""
","""event"",""trial"",""time""
""blur"",""4"",""14815""
","""event"",""trial"",""time""
""focus"",""4"",""14978""
","""event"",""trial"",""time""
""fullscreenenter"",""5"",""24297""
","
","","","","","","","","","","","","","","","","","","","","","",""
"d3-instructions","8","74599","0.0-8.0","2606","5041","18","Female","true","false","false","false","""event"",""trial"",""time""
""blur"",""4"",""14815""
""focus"",""4"",""14978""
""fullscreenenter"",""5"",""24297""
","""event"",""trial"",""time""
""blur"",""4"",""14815""
","""event"",""trial"",""time""
""focus"",""4"",""14978""
","""event"",""trial"",""time""
""fullscreenenter"",""5"",""24297""
","
","","","","","","","","","","","","","","","","","","","","","",""
"d3-instructions","9","85516","0.0-9.0","2606","5041","18","Female","true","false","false","false","""event"",""trial"",""time""
""blur"",""4"",""14815""
""focus"",""4"",""14978""
""fullscreenenter"",""5"",""24297""
","""event"",""trial"",""time""
""blur"",""4"",""14815""
","""event"",""trial"",""time""
""focus"",""4"",""14978""
","""event"",""trial"",""time""
""fullscreenenter"",""5"",""24297""
","
","","","","","","","","","","","","","","","","","","","","","",""
"d3-instructions","10","132145","0.0-10.0","2606","5041","18","Female","true","false","false","false","""event"",""trial"",""time""
""blur"",""4"",""14815""
""focus"",""4"",""14978""
""fullscreenenter"",""5"",""24297""
","""event"",""trial"",""time""
""blur"",""4"",""14815""
","""event"",""trial"",""time""
""focus"",""4"",""14978""
","""event"",""trial"",""time""
""fullscreenenter"",""5"",""24297""
","
","","","","","","","","","","","","","","","","","","","","","",""
"d3-animate-choice","11","135449","0.0-11.0","2606","5041","18","Female","true","false","false","false","""event"",""trial"",""time""
""blur"",""4"",""14815""
""focus"",""4"",""14978""
""fullscreenenter"",""5"",""24297""
","""event"",""trial"",""time""
""blur"",""4"",""14815""
","""event"",""trial"",""time""
""focus"",""4"",""14978""
","""event"",""trial"",""time""
""fullscreenenter"",""5"",""24297""
","
","1289.9000000059605","","49","","","3000","1","","","images/tutgreenplanet.jpg","images/tutalien1","images/tutalien2","null","images/tutalien2","","NA","practice","null","","","",""
"d3-animate-choice","12","139534","0.0-12.0","2606","5041","18","Female","true","false","false","false","""event"",""trial"",""time""
""blur"",""4"",""14815""
""focus"",""4"",""14978""
""fullscreenenter"",""5"",""24297""
","""event"",""trial"",""time""
""blur"",""4"",""14815""
","""event"",""trial"",""time""
""focus"",""4"",""14978""
","""event"",""trial"",""time""
""fullscreenenter"",""5"",""24297""
","
","2076.8999999910593","","49","","","3000","1","","","images/tutgreenplanet.jpg","images/tutalien1","images/tutalien2","null","images/tutalien2","","NA","practice","null","","","",""
"d3-animate-choice","13","142502","0.0-13.0","2606","5041","18","Female","true","false","false","false","""event"",""trial"",""time""
""blur"",""4"",""14815""
""focus"",""4"",""14978""
""fullscreenenter"",""5"",""24297""
","""event"",""trial"",""time""
""blur"",""4"",""14815""
","""event"",""trial"",""time""
""focus"",""4"",""14978""
","""event"",""trial"",""time""
""fullscreenenter"",""5"",""24297""
","
","956.5","","48","","","3000","1","","","images/tutgreenplanet.jpg","images/tutalien1","images/tutalien2","null","images/tutalien1","","NA","practice","null","","","",""
"d3-animate-choice","14","145056","0.0-14.0","2606","5041","18","Female","true","false","false","false","""event"",""trial"",""time""
""blur"",""4"",""14815""
""focus"",""4"",""14978""
""fullscreenenter"",""5"",""24297""
","""event"",""trial"",""time""
""blur"",""4"",""14815""
","""event"",""trial"",""time""
""focus"",""4"",""14978""
","""event"",""trial"",""time""
""fullscreenenter"",""5"",""24297""
","
","545.4000000059605","","48","","","3000","1","","","images/tutgreenplanet.jpg","images/tutalien1","images/tutalien2","null","images/tutalien1","","NA","practice","null","","","",""
"d3-instructions","15","162615","0.0-15.0","2606","5041","18","Female","true","false","false","false","""event"",""trial"",""time""
""blur"",""4"",""14815""
""focus"",""4"",""14978""
""fullscreenenter"",""5"",""24297""
","""event"",""trial"",""time""
""blur"",""4"",""14815""
","""event"",""trial"",""time""
""focus"",""4"",""14978""
","""event"",""trial"",""time""
""fullscreenenter"",""5"",""24297""
","
","","","","","","","","","","","","","","","","","","","","","",""
"d3-instructions","16","180250","0.0-16.0","2606","5041","18","Female","true","false","false","false","""event"",""trial"",""time""
""blur"",""4"",""14815""
""focus"",""4"",""14978""
""fullscreenenter"",""5"",""24297""
","""event"",""trial"",""time""
""blur"",""4"",""14815""
","""event"",""trial"",""time""
""focus"",""4"",""14978""
","""event"",""trial"",""time""
""fullscreenenter"",""5"",""24297""
","
","","","","","","","","","","","","","","","","","","","","","",""
"d3-instructions","17","183812","0.0-17.0","2606","5041","18","Female","true","false","false","false","""event"",""trial"",""time""
""blur"",""4"",""14815""
""focus"",""4"",""14978""
""fullscreenenter"",""5"",""24297""
","""event"",""trial"",""time""
""blur"",""4"",""14815""
","""event"",""trial"",""time""
""focus"",""4"",""14978""
","""event"",""trial"",""time""
""fullscreenenter"",""5"",""24297""
","
","","","","","","","","","","","","","","","","","","","","","",""
"d3-instructions","18","185512","0.0-18.0","2606","5041","18","Female","true","false","false","false","""event"",""trial"",""time""
""blur"",""4"",""14815""
""focus"",""4"",""14978""
""fullscreenenter"",""5"",""24297""
","""event"",""trial"",""time""
""blur"",""4"",""14815""
","""event"",""trial"",""time""
""focus"",""4"",""14978""
","""event"",""trial"",""time""
""fullscreenenter"",""5"",""24297""
","
","","","","","","","","","","","","","","","","","","","","","",""
"d3-instructions","19","189322","0.0-19.0","2606","5041","18","Female","true","false","false","false","""event"",""trial"",""time""
""blur"",""4"",""14815""
""focus"",""4"",""14978""
""fullscreenenter"",""5"",""24297""
","""event"",""trial"",""time""
""blur"",""4"",""14815""
","""event"",""trial"",""time""
""focus"",""4"",""14978""
","""event"",""trial"",""time""
""fullscreenenter"",""5"",""24297""
","
","","","","","","","","","","","","","","","","","","","","","",""
"d3-animate-choice","20","192094","0.0-20.0","2606","5041","18","Female","true","false","false","false","""event"",""trial"",""time""
""blur"",""4"",""14815""
""focus"",""4"",""14978""
""fullscreenenter"",""5"",""24297""
","""event"",""trial"",""time""
""blur"",""4"",""14815""
","""event"",""trial"",""time""
""focus"",""4"",""14978""
","""event"",""trial"",""time""
""fullscreenenter"",""5"",""24297""
","
","759.5","","49","","","3000","1","","","images/tutyellowplanet.jpg","null","images/tutalien3","null","images/tutalien3","images/t.png","NA","practice","null","","","",""
"d3-animate-choice","21","195018","0.0-21.0","2606","5041","18","Female","true","false","false","false","""event"",""trial"",""time""
""blur"",""4"",""14815""
""focus"",""4"",""14978""
""fullscreenenter"",""5"",""24297""
","""event"",""trial"",""time""
""blur"",""4"",""14815""
","""event"",""trial"",""time""
""focus"",""4"",""14978""
","""event"",""trial"",""time""
""fullscreenenter"",""5"",""24297""
","
","908.7999999970198","","49","","","3000","1","","","images/tutyellowplanet.jpg","null","images/tutalien3","null","images/tutalien3","images/nothing.png","NA","practice","null","","","",""
"d3-animate-choice","22","197104","0.0-22.0","2606","5041","18","Female","true","false","false","false","""event"",""trial"",""time""
""blur"",""4"",""14815""
""focus"",""4"",""14978""
""fullscreenenter"",""5"",""24297""
","""event"",""trial"",""time""
""blur"",""4"",""14815""
","""event"",""trial"",""time""
""focus"",""4"",""14978""
","""event"",""trial"",""time""
""fullscreenenter"",""5"",""24297""
","
","73.59999999403954","","49","","","3000","1","","","images/tutyellowplanet.jpg","null","images/tutalien3","null","images/tutalien3","images/t.png","NA","practice","null","","","",""
"d3-animate-choice","23","199711","0.0-23.0","2606","5041","18","Female","true","false","false","false","""event"",""trial"",""time""
""blur"",""4"",""14815""
""focus"",""4"",""14978""
""fullscreenenter"",""5"",""24297""
","""event"",""trial"",""time""
""blur"",""4"",""14815""
","""event"",""trial"",""time""
""focus"",""4"",""14978""
","""event"",""trial"",""time""
""fullscreenenter"",""5"",""24297""
","
","597.2000000029802","","49","","","3000","1","","","images/tutyellowplanet.jpg","null","images/tutalien3","null","images/tutalien3","images/t.png","NA","practice","null","","","",""
"d3-animate-choice","24","203430","0.0-24.0","2606","5041","18","Female","true","false","false","false","""event"",""trial"",""time""
""blur"",""4"",""14815""
""focus"",""4"",""14978""
""fullscreenenter"",""5"",""24297""
","""event"",""trial"",""time""
""blur"",""4"",""14815""
","""event"",""trial"",""time""
""focus"",""4"",""14978""
","""event"",""trial"",""time""
""fullscreenenter"",""5"",""24297""
","
","1707.9000000059605","","49","","","3000","1","","","images/tutyellowplanet.jpg","null","images/tutalien3","null","images/tutalien3","images/nothing.png","NA","practice","null","","","",""
"d3-animate-choice","25","206566","0.0-25.0","2606","5041","18","Female","true","false","false","false","""event"",""trial"",""time""
""blur"",""4"",""14815""
""focus"",""4"",""14978""
""fullscreenenter"",""5"",""24297""
","""event"",""trial"",""time""
""blur"",""4"",""14815""
","""event"",""trial"",""time""
""focus"",""4"",""14978""
","""event"",""trial"",""time""
""fullscreenenter"",""5"",""24297""
","
","1124.6000000089407","","49","","","3000","1","3034","49","images/tutyellowplanet.jpg","null","images/tutalien3","null","images/tutalien3","images/t.png","NA","practice","null","","","",""
"d3-animate-choice","26","211177","0.0-26.0","2606","5041","18","Female","true","false","false","false","""event"",""trial"",""time""
""blur"",""4"",""14815""
""focus"",""4"",""14978""
""fullscreenenter"",""5"",""24297""
","""event"",""trial"",""time""
""blur"",""4"",""14815""
","""event"",""trial"",""time""
""focus"",""4"",""14978""
","""event"",""trial"",""time""
""fullscreenenter"",""5"",""24297""
","
","2596.4000000059605","","49","","","3000","1","4014.5","49","images/tutyellowplanet.jpg","null","images/tutalien3","null","images/tutalien3","images/t.png","NA","practice","null","","","",""
"d3-animate-choice","27","213760","0.0-27.0","2606","5041","18","Female","true","false","false","false","""event"",""trial"",""time""
""blur"",""4"",""14815""
""focus"",""4"",""14978""
""fullscreenenter"",""5"",""24297""
","""event"",""trial"",""time""
""blur"",""4"",""14815""
","""event"",""trial"",""time""
""focus"",""4"",""14978""
","""event"",""trial"",""time""
""fullscreenenter"",""5"",""24297""
","
","570.2999999970198","","49","","","3000","1","2255.2999999970198","49","images/tutyellowplanet.jpg","null","images/tutalien3","null","images/tutalien3","images/t.png","NA","practice","null","","","",""
"d3-animate-choice","28","216253","0.0-28.0","2606","5041","18","Female","true","false","false","false","""event"",""trial"",""time""
""blur"",""4"",""14815""
""focus"",""4"",""14978""
""fullscreenenter"",""5"",""24297""
","""event"",""trial"",""time""
""blur"",""4"",""14815""
","""event"",""trial"",""time""
""focus"",""4"",""14978""
","""event"",""trial"",""time""
""fullscreenenter"",""5"",""24297""
","
","483.20000000298023","","49","","","3000","1","","","images/tutyellowplanet.jpg","null","images/tutalien3","null","images/tutalien3","images/t.png","NA","practice","null","","","",""
"d3-animate-choice","29","218829","0.0-29.0","2606","5041","18","Female","true","false","false","false","""event"",""trial"",""time""
""blur"",""4"",""14815""
""focus"",""4"",""14978""
""fullscreenenter"",""5"",""24297""
","""event"",""trial"",""time""
""blur"",""4"",""14815""
","""event"",""trial"",""time""
""focus"",""4"",""14978""
","""event"",""trial"",""time""
""fullscreenenter"",""5"",""24297""
","
","570.5","","49","","","3000","1","","","images/tutyellowplanet.jpg","null","images/tutalien3","null","images/tutalien3","images/t.png","NA","practice","null","","","",""
"d3-instructions","30","227608","0.0-30.0","2606","5041","18","Female","true","false","false","false","""event"",""trial"",""time""
""blur"",""4"",""14815""
""focus"",""4"",""14978""
""fullscreenenter"",""5"",""24297""
","""event"",""trial"",""time""
""blur"",""4"",""14815""
","""event"",""trial"",""time""
""focus"",""4"",""14978""
","""event"",""trial"",""time""
""fullscreenenter"",""5"",""24297""
","
","","","","","","","","","","","","","","","","","","","","","",""
"d3-instructions","31","274173","0.0-31.0","2606","5041","18","Female","true","false","false","false","""event"",""trial"",""time""
""blur"",""4"",""14815""
""focus"",""4"",""14978""
""fullscreenenter"",""5"",""24297""
","""event"",""trial"",""time""
""blur"",""4"",""14815""
","""event"",""trial"",""time""
""focus"",""4"",""14978""
","""event"",""trial"",""time""
""fullscreenenter"",""5"",""24297""
","
","","","","","","","","","","","","","","","","","","","","","",""
"d3-instructions","32","287886","0.0-32.0","2606","5041","18","Female","true","false","false","false","""event"",""trial"",""time""
""blur"",""4"",""14815""
""focus"",""4"",""14978""
""fullscreenenter"",""5"",""24297""
","""event"",""trial"",""time""
""blur"",""4"",""14815""
","""event"",""trial"",""time""
""focus"",""4"",""14978""
","""event"",""trial"",""time""
""fullscreenenter"",""5"",""24297""
","
","","","","","","","","","","","","","","","","","","","","","",""
"d3-instructions","33","293541","0.0-33.0","2606","5041","18","Female","true","false","false","false","""event"",""trial"",""time""
""blur"",""4"",""14815""
""focus"",""4"",""14978""
""fullscreenenter"",""5"",""24297""
","""event"",""trial"",""time""
""blur"",""4"",""14815""
","""event"",""trial"",""time""
""focus"",""4"",""14978""
","""event"",""trial"",""time""
""fullscreenenter"",""5"",""24297""
","
","","","","","","","","","","","","","","","","","","","","","",""
"d3-animate-choice","34","296590","0.0-34.0","2606","5041","18","Female","true","false","false","false","""event"",""trial"",""time""
""blur"",""4"",""14815""
""focus"",""4"",""14978""
""fullscreenenter"",""5"",""24297""
","""event"",""trial"",""time""
""blur"",""4"",""14815""
","""event"",""trial"",""time""
""focus"",""4"",""14978""
","""event"",""trial"",""time""
""fullscreenenter"",""5"",""24297""
","
","1042.2000000029802","","49","","","3000","1","","","images/tutgreenplanet.jpg","images/tutalien1","images/tutalien2","null","images/tutalien2","images/t.png","NA","practice","null","","","",""
"d3-animate-choice","35","299050","0.0-35.0","2606","5041","18","Female","true","false","false","false","""event"",""trial"",""time""
""blur"",""4"",""14815""
""focus"",""4"",""14978""
""fullscreenenter"",""5"",""24297""
","""event"",""trial"",""time""
""blur"",""4"",""14815""
","""event"",""trial"",""time""
""focus"",""4"",""14978""
","""event"",""trial"",""time""
""fullscreenenter"",""5"",""24297""
","
","451.5","","49","","","3000","1","","","images/tutgreenplanet.jpg","images/tutalien1","images/tutalien2","null","images/tutalien2","images/t.png","NA","practice","null","","","",""
"d3-animate-choice","36","301461","0.0-36.0","2606","5041","18","Female","true","false","false","false","""event"",""trial"",""time""
""blur"",""4"",""14815""
""focus"",""4"",""14978""
""fullscreenenter"",""5"",""24297""
","""event"",""trial"",""time""
""blur"",""4"",""14815""
","""event"",""trial"",""time""
""focus"",""4"",""14978""
","""event"",""trial"",""time""
""fullscreenenter"",""5"",""24297""
","
","402.90000000596046","","49","","","3000","1","2367","49","images/tutgreenplanet.jpg","images/tutalien1","images/tutalien2","null","images/tutalien2","images/t.png","NA","practice","null","","","",""
"d3-animate-choice","37","303850","0.0-37.0","2606","5041","18","Female","true","false","false","false","""event"",""trial"",""time""
""blur"",""4"",""14815""
""focus"",""4"",""14978""
""fullscreenenter"",""5"",""24297""
","""event"",""trial"",""time""
""blur"",""4"",""14815""
","""event"",""trial"",""time""
""focus"",""4"",""14978""
","""event"",""trial"",""time""
""fullscreenenter"",""5"",""24297""
","
","378.20000000298023","","49","","","3000","1","","","images/tutgreenplanet.jpg","images/tutalien1","images/tutalien2","null","images/tutalien2","images/t.png","NA","practice","null","","","",""
"d3-animate-choice","38","306245","0.0-38.0","2606","5041","18","Female","true","false","false","false","""event"",""trial"",""time""
""blur"",""4"",""14815""
""focus"",""4"",""14978""
""fullscreenenter"",""5"",""24297""
","""event"",""trial"",""time""
""blur"",""4"",""14815""
","""event"",""trial"",""time""
""focus"",""4"",""14978""
","""event"",""trial"",""time""
""fullscreenenter"",""5"",""24297""
","
","389.90000000596046","","49","","","3000","1","","","images/tutgreenplanet.jpg","images/tutalien1","images/tutalien2","null","images/tutalien2","images/t.png","NA","practice","null","","","",""
"d3-animate-choice","39","308710","0.0-39.0","2606","5041","18","Female","true","false","false","false","""event"",""trial"",""time""
""blur"",""4"",""14815""
""focus"",""4"",""14978""
""fullscreenenter"",""5"",""24297""
","""event"",""trial"",""time""
""blur"",""4"",""14815""
","""event"",""trial"",""time""
""focus"",""4"",""14978""
","""event"",""trial"",""time""
""fullscreenenter"",""5"",""24297""
","
","459","","49","","","3000","1","","","images/tutgreenplanet.jpg","images/tutalien1","images/tutalien2","null","images/tutalien2","images/t.png","NA","practice","null","","","",""
"d3-animate-choice","40","311158","0.0-40.0","2606","5041","18","Female","true","false","false","false","""event"",""trial"",""time""
""blur"",""4"",""14815""
""focus"",""4"",""14978""
""fullscreenenter"",""5"",""24297""
","""event"",""trial"",""time""
""blur"",""4"",""14815""
","""event"",""trial"",""time""
""focus"",""4"",""14978""
","""event"",""trial"",""time""
""fullscreenenter"",""5"",""24297""
","
","444.09999999403954","","49","","","3000","1","","","images/tutgreenplanet.jpg","images/tutalien1","images/tutalien2","null","images/tutalien2","images/t.png","NA","practice","null","","","",""
"d3-animate-choice","41","313622","0.0-41.0","2606","5041","18","Female","true","false","false","false","""event"",""trial"",""time""
""blur"",""4"",""14815""
""focus"",""4"",""14978""
""fullscreenenter"",""5"",""24297""
","""event"",""trial"",""time""
""blur"",""4"",""14815""
","""event"",""trial"",""time""
""focus"",""4"",""14978""
","""event"",""trial"",""time""
""fullscreenenter"",""5"",""24297""
","
","461.5","","49","","","3000","1","","","images/tutgreenplanet.jpg","images/tutalien1","images/tutalien2","null","images/tutalien2","images/t.png","NA","practice","null","","","",""
"d3-animate-choice","42","316072","0.0-42.0","2606","5041","18","Female","true","false","false","false","""event"",""trial"",""time""
""blur"",""4"",""14815""
""focus"",""4"",""14978""
""fullscreenenter"",""5"",""24297""
","""event"",""trial"",""time""
""blur"",""4"",""14815""
","""event"",""trial"",""time""
""focus"",""4"",""14978""
","""event"",""trial"",""time""
""fullscreenenter"",""5"",""24297""
","
","440.69999998807907","","49","","","3000","1","","","images/tutgreenplanet.jpg","images/tutalien1","images/tutalien2","null","images/tutalien2","images/nothing.png","NA","practice","null","","","",""
"d3-animate-choice","43","318530","0.0-43.0","2606","5041","18","Female","true","false","false","false","""event"",""trial"",""time""
""blur"",""4"",""14815""
""focus"",""4"",""14978""
""fullscreenenter"",""5"",""24297""
","""event"",""trial"",""time""
""blur"",""4"",""14815""
","""event"",""trial"",""time""
""focus"",""4"",""14978""
","""event"",""trial"",""time""
""fullscreenenter"",""5"",""24297""
","
","441.29999999701977","","48","","","3000","1","","","images/tutgreenplanet.jpg","images/tutalien1","images/tutalien2","null","images/tutalien1","images/nothing.png","NA","practice","null","","","",""
"d3-instructions","44","343822","0.0-44.0","2606","5041","18","Female","true","false","false","false","""event"",""trial"",""time""
""blur"",""4"",""14815""
""focus"",""4"",""14978""
""fullscreenenter"",""5"",""24297""
","""event"",""trial"",""time""
""blur"",""4"",""14815""
","""event"",""trial"",""time""
""focus"",""4"",""14978""
","""event"",""trial"",""time""
""fullscreenenter"",""5"",""24297""
","
","","","","","","","","","","","","","","","","","","","","","",""
"d3-instructions","45","347453","0.0-45.0","2606","5041","18","Female","true","false","false","false","""event"",""trial"",""time""
""blur"",""4"",""14815""
""focus"",""4"",""14978""
""fullscreenenter"",""5"",""24297""
","""event"",""trial"",""time""
""blur"",""4"",""14815""
","""event"",""trial"",""time""
""focus"",""4"",""14978""
","""event"",""trial"",""time""
""fullscreenenter"",""5"",""24297""
","
","","","","","","","","","","","","","","","","","","","","","",""
"d3-instructions","46","349772","0.0-46.0","2606","5041","18","Female","true","false","false","false","""event"",""trial"",""time""
""blur"",""4"",""14815""
""focus"",""4"",""14978""
""fullscreenenter"",""5"",""24297""
","""event"",""trial"",""time""
""blur"",""4"",""14815""
","""event"",""trial"",""time""
""focus"",""4"",""14978""
","""event"",""trial"",""time""
""fullscreenenter"",""5"",""24297""
","
","","","","","","","","","","","","","","","","","","","","","",""
"d3-instructions","47","352936","0.0-47.0","2606","5041","18","Female","true","false","false","false","""event"",""trial"",""time""
""blur"",""4"",""14815""
""focus"",""4"",""14978""
""fullscreenenter"",""5"",""24297""
","""event"",""trial"",""time""
""blur"",""4"",""14815""
","""event"",""trial"",""time""
""focus"",""4"",""14978""
","""event"",""trial"",""time""
""fullscreenenter"",""5"",""24297""
","
","","","","","","","","","","","","","","","","","","","","","",""
"d3-instructions","48","354634","0.0-48.0","2606","5041","18","Female","true","false","false","false","""event"",""trial"",""time""
""blur"",""4"",""14815""
""focus"",""4"",""14978""
""fullscreenenter"",""5"",""24297""
","""event"",""trial"",""time""
""blur"",""4"",""14815""
","""event"",""trial"",""time""
""focus"",""4"",""14978""
","""event"",""trial"",""time""
""fullscreenenter"",""5"",""24297""
","
","","","","","","","","","","","","","","","","","","","","","",""
"d3-instructions","49","355822","0.0-49.0","2606","5041","18","Female","true","false","false","false","""event"",""trial"",""time""
""blur"",""4"",""14815""
""focus"",""4"",""14978""
""fullscreenenter"",""5"",""24297""
","""event"",""trial"",""time""
""blur"",""4"",""14815""
","""event"",""trial"",""time""
""focus"",""4"",""14978""
","""event"",""trial"",""time""
""fullscreenenter"",""5"",""24297""
","
","","","","","","","","","","","","","","","","","","","","","",""
"d3-instructions","50","366538","0.0-50.0","2606","5041","18","Female","true","false","false","false","""event"",""trial"",""time""
""blur"",""4"",""14815""
""focus"",""4"",""14978""
""fullscreenenter"",""5"",""24297""
","""event"",""trial"",""time""
""blur"",""4"",""14815""
","""event"",""trial"",""time""
""focus"",""4"",""14978""
","""event"",""trial"",""time""
""fullscreenenter"",""5"",""24297""
","
","","","","","","","","","","","","","","","","","","","","","",""
"d3-instructions","51","368826","0.0-51.0","2606","5041","18","Female","true","false","false","false","""event"",""trial"",""time""
""blur"",""4"",""14815""
""focus"",""4"",""14978""
""fullscreenenter"",""5"",""24297""
","""event"",""trial"",""time""
""blur"",""4"",""14815""
","""event"",""trial"",""time""
""focus"",""4"",""14978""
","""event"",""trial"",""time""
""fullscreenenter"",""5"",""24297""
","
","","","","","","","","","","","","","","","","","","","","","",""
"d3-instructions","52","372819","0.0-52.0","2606","5041","18","Female","true","false","false","false","""event"",""trial"",""time""
""blur"",""4"",""14815""
""focus"",""4"",""14978""
""fullscreenenter"",""5"",""24297""
","""event"",""trial"",""time""
""blur"",""4"",""14815""
","""event"",""trial"",""time""
""focus"",""4"",""14978""
","""event"",""trial"",""time""
""fullscreenenter"",""5"",""24297""
","
","","","","","","","","","","","","","","","","","","","","","",""
"d3-instructions","53","387457","0.0-53.0","2606","5041","18","Female","true","false","false","false","""event"",""trial"",""time""
""blur"",""4"",""14815""
""focus"",""4"",""14978""
""fullscreenenter"",""5"",""24297""
","""event"",""trial"",""time""
""blur"",""4"",""14815""
","""event"",""trial"",""time""
""focus"",""4"",""14978""
","""event"",""trial"",""time""
""fullscreenenter"",""5"",""24297""
","
","","","","","","","","","","","","","","","","","","","","","",""
"d3-instructions","54","391353","0.0-54.0","2606","5041","18","Female","true","false","false","false","""event"",""trial"",""time""
""blur"",""4"",""14815""
""focus"",""4"",""14978""
""fullscreenenter"",""5"",""24297""
","""event"",""trial"",""time""
""blur"",""4"",""14815""
","""event"",""trial"",""time""
""focus"",""4"",""14978""
","""event"",""trial"",""time""
""fullscreenenter"",""5"",""24297""
","
","","","","","","","","","","","","","","","","","","","","","",""
"d3-instructions","55","402791","0.0-55.0","2606","5041","18","Female","true","false","false","false","""event"",""trial"",""time""
""blur"",""4"",""14815""
""focus"",""4"",""14978""
""fullscreenenter"",""5"",""24297""
","""event"",""trial"",""time""
""blur"",""4"",""14815""
","""event"",""trial"",""time""
""focus"",""4"",""14978""
","""event"",""trial"",""time""
""fullscreenenter"",""5"",""24297""
","
","","","","","","","","","","","","","","","","","","","","","",""
"d3-instructions","56","414673","0.0-56.0","2606","5041","18","Female","true","false","false","false","""event"",""trial"",""time""
""blur"",""4"",""14815""
""focus"",""4"",""14978""
""fullscreenenter"",""5"",""24297""
","""event"",""trial"",""time""
""blur"",""4"",""14815""
","""event"",""trial"",""time""
""focus"",""4"",""14978""
","""event"",""trial"",""time""
""fullscreenenter"",""5"",""24297""
","
","","","","","","","","","","","","","","","","","","","","","",""
"d3-instructions","57","423285","0.0-57.0","2606","5041","18","Female","true","false","false","false","""event"",""trial"",""time""
""blur"",""4"",""14815""
""focus"",""4"",""14978""
""fullscreenenter"",""5"",""24297""
","""event"",""trial"",""time""
""blur"",""4"",""14815""
","""event"",""trial"",""time""
""focus"",""4"",""14978""
","""event"",""trial"",""time""
""fullscreenenter"",""5"",""24297""
","
","","","","","","","","","","","","","","","","","","","","","",""
"d3-instructions","58","429421","0.0-58.0","2606","5041","18","Female","true","false","false","false","""event"",""trial"",""time""
""blur"",""4"",""14815""
""focus"",""4"",""14978""
""fullscreenenter"",""5"",""24297""
","""event"",""trial"",""time""
""blur"",""4"",""14815""
","""event"",""trial"",""time""
""focus"",""4"",""14978""
","""event"",""trial"",""time""
""fullscreenenter"",""5"",""24297""
","
","","","","","","","","","","","","","","","","","","","","","",""
"d3-instructions","59","433810","0.0-59.0","2606","5041","18","Female","true","false","false","false","""event"",""trial"",""time""
""blur"",""4"",""14815""
""focus"",""4"",""14978""
""fullscreenenter"",""5"",""24297""
","""event"",""trial"",""time""
""blur"",""4"",""14815""
","""event"",""trial"",""time""
""focus"",""4"",""14978""
","""event"",""trial"",""time""
""fullscreenenter"",""5"",""24297""
","
","","","","","","","","","","","","","","","","","","","","","",""
"d3-instructions","60","438313","0.0-60.0","2606","5041","18","Female","true","false","false","false","""event"",""trial"",""time""
""blur"",""4"",""14815""
""focus"",""4"",""14978""
""fullscreenenter"",""5"",""24297""
","""event"",""trial"",""time""
""blur"",""4"",""14815""
","""event"",""trial"",""time""
""focus"",""4"",""14978""
","""event"",""trial"",""time""
""fullscreenenter"",""5"",""24297""
","
","","","","","","","","","","","","","","","","","","","","","",""
"d3-animate-choice","61","441353","0.0-61.0-0.0","2606","5041","18","Female","true","false","false","false","""event"",""trial"",""time""
""blur"",""4"",""14815""
""focus"",""4"",""14978""
""fullscreenenter"",""5"",""24297""
","""event"",""trial"",""time""
""blur"",""4"",""14815""
","""event"",""trial"",""time""
""focus"",""4"",""14978""
","""event"",""trial"",""time""
""fullscreenenter"",""5"",""24297""
","
","1026.2999999970198","","49","","","3000","1","","","images/earth.jpg","images/tutrocket2","images/tutrocket1","null","images/tutrocket1","","1","practice","null","1","","",""
"d3-animate-choice","62","444531","0.0-61.0-1.0","2606","5041","18","Female","true","false","false","false","""event"",""trial"",""time""
""blur"",""4"",""14815""
""focus"",""4"",""14978""
""fullscreenenter"",""5"",""24297""
","""event"",""trial"",""time""
""blur"",""4"",""14815""
","""event"",""trial"",""time""
""focus"",""4"",""14978""
","""event"",""trial"",""time""
""fullscreenenter"",""5"",""24297""
","
","1159.8999999910593","","49","","","3000","1","","","images/tutyellowplanet.jpg","images/tutalien4","images/tutalien3","images/tutrocket1","images/tutalien3","images/nothing.png","2","practice","true","1","common","0","2022-12-07 23:43:13.967"
"two-step-fixation","63","445549","0.0-61.0-2.0","2606","5041","18","Female","true","false","false","false","""event"",""trial"",""time""
""blur"",""4"",""14815""
""focus"",""4"",""14978""
""fullscreenenter"",""5"",""24297""
","""event"",""trial"",""time""
""blur"",""4"",""14815""
","""event"",""trial"",""time""
""focus"",""4"",""14978""
","""event"",""trial"",""time""
""fullscreenenter"",""5"",""24297""
","
","","images/earth.jpg","","","","","","","","","","","","","","fixation","","","","","",""
"d3-animate-choice","64","447996","0.0-61.0-0.1","2606","5041","18","Female","true","false","false","false","""event"",""trial"",""time""
""blur"",""4"",""14815""
""focus"",""4"",""14978""
""fullscreenenter"",""5"",""24297""
","""event"",""trial"",""time""
""blur"",""4"",""14815""
","""event"",""trial"",""time""
""focus"",""4"",""14978""
","""event"",""trial"",""time""
""fullscreenenter"",""5"",""24297""
","
","438.80000001192093","","49","","","3000","1","","","images/earth.jpg","images/tutrocket2","images/tutrocket1","null","images/tutrocket1","","1","practice","null","1","","",""
"d3-animate-choice","65","450447","0.0-61.0-1.1","2606","5041","18","Female","true","false","false","false","""event"",""trial"",""time""
""blur"",""4"",""14815""
""focus"",""4"",""14978""
""fullscreenenter"",""5"",""24297""
","""event"",""trial"",""time""
""blur"",""4"",""14815""
","""event"",""trial"",""time""
""focus"",""4"",""14978""
","""event"",""trial"",""time""
""fullscreenenter"",""5"",""24297""
","
","441.8999999910593","","49","","","3000","1","","","images/tutyellowplanet.jpg","images/tutalien4","images/tutalien3","images/tutrocket1","images/tutalien3","images/nothing.png","2","practice","true","1","common","0","2022-12-07 23:43:19.882"
"two-step-fixation","66","451453","0.0-61.0-2.1","2606","5041","18","Female","true","false","false","false","""event"",""trial"",""time""
""blur"",""4"",""14815""
""focus"",""4"",""14978""
""fullscreenenter"",""5"",""24297""
","""event"",""trial"",""time""
""blur"",""4"",""14815""
","""event"",""trial"",""time""
""focus"",""4"",""14978""
","""event"",""trial"",""time""
""fullscreenenter"",""5"",""24297""
","
","","images/earth.jpg","","","","","","","","","","","","","","fixation","","","","","",""
"d3-animate-choice","67","454055","0.0-61.0-0.2","2606","5041","18","Female","true","false","false","false","""event"",""trial"",""time""
""blur"",""4"",""14815""
""focus"",""4"",""14978""
""fullscreenenter"",""5"",""24297""
","""event"",""trial"",""time""
""blur"",""4"",""14815""
","""event"",""trial"",""time""
""focus"",""4"",""14978""
","""event"",""trial"",""time""
""fullscreenenter"",""5"",""24297""
","
","591","","49","","","3000","1","","","images/earth.jpg","images/tutrocket2","images/tutrocket1","null","images/tutrocket1","","1","practice","null","1","","",""
"d3-animate-choice","68","456678","0.0-61.0-1.2","2606","5041","18","Female","true","false","false","false","""event"",""trial"",""time""
""blur"",""4"",""14815""
""focus"",""4"",""14978""
""fullscreenenter"",""5"",""24297""
","""event"",""trial"",""time""
""blur"",""4"",""14815""
","""event"",""trial"",""time""
""focus"",""4"",""14978""
","""event"",""trial"",""time""
""fullscreenenter"",""5"",""24297""
","
","612.4000000059605","","48","","","3000","1","","","images/tutyellowplanet.jpg","images/tutalien4","images/tutalien3","images/tutrocket1","images/tutalien4","images/t.png","2","practice","true","2","common","1","2022-12-07 23:43:26.113"
"two-step-fixation","69","457686","0.0-61.0-2.2","2606","5041","18","Female","true","false","false","false","""event"",""trial"",""time""
""blur"",""4"",""14815""
""focus"",""4"",""14978""
""fullscreenenter"",""5"",""24297""
","""event"",""trial"",""time""
""blur"",""4"",""14815""
","""event"",""trial"",""time""
""focus"",""4"",""14978""
","""event"",""trial"",""time""
""fullscreenenter"",""5"",""24297""
","
","","images/earth.jpg","","","","","","","","","","","","","","fixation","","","","","",""
"d3-animate-choice","70","460063","0.0-61.0-0.3","2606","5041","18","Female","true","false","false","false","""event"",""trial"",""time""
""blur"",""4"",""14815""
""focus"",""4"",""14978""
""fullscreenenter"",""5"",""24297""
","""event"",""trial"",""time""
""blur"",""4"",""14815""
","""event"",""trial"",""time""
""focus"",""4"",""14978""
","""event"",""trial"",""time""
""fullscreenenter"",""5"",""24297""
","
","368.19999998807907","","49","","","3000","1","2327.699999988079","48","images/earth.jpg","images/tutrocket2","images/tutrocket1","null","images/tutrocket1","","1","practice","null","1","","",""
"d3-animate-choice","71","462626","0.0-61.0-1.3","2606","5041","18","Female","true","false","false","false","""event"",""trial"",""time""
""blur"",""4"",""14815""
""focus"",""4"",""14978""
""fullscreenenter"",""5"",""24297""
","""event"",""trial"",""time""
""blur"",""4"",""14815""
","""event"",""trial"",""time""
""focus"",""4"",""14978""
","""event"",""trial"",""time""
""fullscreenenter"",""5"",""24297""
","
","552.3000000119209","","48","","","3000","1","","","images/tutyellowplanet.jpg","images/tutalien4","images/tutalien3","images/tutrocket1","images/tutalien4","images/nothing.png","2","practice","true","2","common","0","2022-12-07 23:43:32.061"
"two-step-fixation","72","463632","0.0-61.0-2.3","2606","5041","18","Female","true","false","false","false","""event"",""trial"",""time""
""blur"",""4"",""14815""
""focus"",""4"",""14978""
""fullscreenenter"",""5"",""24297""
","""event"",""trial"",""time""
""blur"",""4"",""14815""
","""event"",""trial"",""time""
""focus"",""4"",""14978""
","""event"",""trial"",""time""
""fullscreenenter"",""5"",""24297""
","
","","images/earth.jpg","","","","","","","","","","","","","","fixation","","","","","",""
"d3-animate-choice","73","466027","0.0-61.0-0.4","2606","5041","18","Female","true","false","false","false","""event"",""trial"",""time""
""blur"",""4"",""14815""
""focus"",""4"",""14978""
""fullscreenenter"",""5"",""24297""
","""event"",""trial"",""time""
""blur"",""4"",""14815""
","""event"",""trial"",""time""
""focus"",""4"",""14978""
","""event"",""trial"",""time""
""fullscreenenter"",""5"",""24297""
","
","386.29999999701977","","49","","","3000","1","","","images/earth.jpg","images/tutrocket2","images/tutrocket1","null","images/tutrocket1","","1","practice","null","1","","",""
"d3-animate-choice","74","468512","0.0-61.0-1.4","2606","5041","18","Female","true","false","false","false","""event"",""trial"",""time""
""blur"",""4"",""14815""
""focus"",""4"",""14978""
""fullscreenenter"",""5"",""24297""
","""event"",""trial"",""time""
""blur"",""4"",""14815""
","""event"",""trial"",""time""
""focus"",""4"",""14978""
","""event"",""trial"",""time""
""fullscreenenter"",""5"",""24297""
","
","475.69999998807907","","48","","","3000","1","","","images/tutgreenplanet.jpg","images/tutalien2","images/tutalien1","images/tutrocket1","images/tutalien2","images/nothing.png","2","practice","false","2","rare","0","2022-12-07 23:43:37.947"
"two-step-fixation","75","469520","0.0-61.0-2.4","2606","5041","18","Female","true","false","false","false","""event"",""trial"",""time""
""blur"",""4"",""14815""
""focus"",""4"",""14978""
""fullscreenenter"",""5"",""24297""
","""event"",""trial"",""time""
""blur"",""4"",""14815""
","""event"",""trial"",""time""
""focus"",""4"",""14978""
","""event"",""trial"",""time""
""fullscreenenter"",""5"",""24297""
","
","","images/earth.jpg","","","","","","","","","","","","","","fixation","","","","","",""
"d3-animate-choice","76","471984","0.0-61.0-0.5","2606","5041","18","Female","true","false","false","false","""event"",""trial"",""time""
""blur"",""4"",""14815""
""focus"",""4"",""14978""
""fullscreenenter"",""5"",""24297""
","""event"",""trial"",""time""
""blur"",""4"",""14815""
","""event"",""trial"",""time""
""focus"",""4"",""14978""
","""event"",""trial"",""time""
""fullscreenenter"",""5"",""24297""
","
","457","","48","","","3000","1","","","images/earth.jpg","images/tutrocket2","images/tutrocket1","null","images/tutrocket2","","1","practice","null","2","","",""
"d3-animate-choice","77","474771","0.0-61.0-1.5","2606","5041","18","Female","true","false","false","false","""event"",""trial"",""time""
""blur"",""4"",""14815""
""focus"",""4"",""14978""
""fullscreenenter"",""5"",""24297""
","""event"",""trial"",""time""
""blur"",""4"",""14815""
","""event"",""trial"",""time""
""focus"",""4"",""14978""
","""event"",""trial"",""time""
""fullscreenenter"",""5"",""24297""
","
","771.8999999910593","","48","","","3000","1","","","images/tutyellowplanet.jpg","images/tutalien4","images/tutalien3","images/tutrocket2","images/tutalien4","images/nothing.png","2","practice","false","2","rare","0","2022-12-07 23:43:44.206"
"two-step-fixation","78","475777","0.0-61.0-2.5","2606","5041","18","Female","true","false","false","false","""event"",""trial"",""time""
""blur"",""4"",""14815""
""focus"",""4"",""14978""
""fullscreenenter"",""5"",""24297""
","""event"",""trial"",""time""
""blur"",""4"",""14815""
","""event"",""trial"",""time""
""focus"",""4"",""14978""
","""event"",""trial"",""time""
""fullscreenenter"",""5"",""24297""
","
","","images/earth.jpg","","","","","","","","","","","","","","fixation","","","","","",""
"d3-animate-choice","79","478121","0.0-61.0-0.6","2606","5041","18","Female","true","false","false","false","""event"",""trial"",""time""
""blur"",""4"",""14815""
""focus"",""4"",""14978""
""fullscreenenter"",""5"",""24297""
","""event"",""trial"",""time""
""blur"",""4"",""14815""
","""event"",""trial"",""time""
""focus"",""4"",""14978""
","""event"",""trial"",""time""
""fullscreenenter"",""5"",""24297""
","
","339.29999999701977","","49","","","3000","1","","","images/earth.jpg","images/tutrocket2","images/tutrocket1","null","images/tutrocket1","","1","practice","null","1","","",""
"d3-animate-choice","80","480537","0.0-61.0-1.6","2606","5041","18","Female","true","false","false","false","""event"",""trial"",""time""
""blur"",""4"",""14815""
""focus"",""4"",""14978""
""fullscreenenter"",""5"",""24297""
","""event"",""trial"",""time""
""blur"",""4"",""14815""
","""event"",""trial"",""time""
""focus"",""4"",""14978""
","""event"",""trial"",""time""
""fullscreenenter"",""5"",""24297""
","
","404.40000000596046","","49","","","3000","1","","","images/tutyellowplanet.jpg","images/tutalien4","images/tutalien3","images/tutrocket1","images/tutalien3","images/nothing.png","2","practice","true","1","common","0","2022-12-07 23:43:49.972"
"two-step-fixation","81","481545","0.0-61.0-2.6","2606","5041","18","Female","true","false","false","false","""event"",""trial"",""time""
""blur"",""4"",""14815""
""focus"",""4"",""14978""
""fullscreenenter"",""5"",""24297""
","""event"",""trial"",""time""
""blur"",""4"",""14815""
","""event"",""trial"",""time""
""focus"",""4"",""14978""
","""event"",""trial"",""time""
""fullscreenenter"",""5"",""24297""
","
","","images/earth.jpg","","","","","","","","","","","","","","fixation","","","","","",""
"d3-animate-choice","82","483971","0.0-61.0-0.7","2606","5041","18","Female","true","false","false","false","""event"",""trial"",""time""
""blur"",""4"",""14815""
""focus"",""4"",""14978""
""fullscreenenter"",""5"",""24297""
","""event"",""trial"",""time""
""blur"",""4"",""14815""
","""event"",""trial"",""time""
""focus"",""4"",""14978""
","""event"",""trial"",""time""
""fullscreenenter"",""5"",""24297""
","
","418","","49","","","3000","1","","","images/earth.jpg","images/tutrocket2","images/tutrocket1","null","images/tutrocket1","","1","practice","null","1","","",""
"d3-animate-choice","83","486427","0.0-61.0-1.7","2606","5041","18","Female","true","false","false","false","""event"",""trial"",""time""
""blur"",""4"",""14815""
""focus"",""4"",""14978""
""fullscreenenter"",""5"",""24297""
","""event"",""trial"",""time""
""blur"",""4"",""14815""
","""event"",""trial"",""time""
""focus"",""4"",""14978""
","""event"",""trial"",""time""
""fullscreenenter"",""5"",""24297""
","
","446.1000000089407","","49","","","3000","1","","","images/tutyellowplanet.jpg","images/tutalien4","images/tutalien3","images/tutrocket1","images/tutalien3","images/nothing.png","2","practice","true","1","common","0","2022-12-07 23:43:55.863"
"two-step-fixation","84","487434","0.0-61.0-2.7","2606","5041","18","Female","true","false","false","false","""event"",""trial"",""time""
""blur"",""4"",""14815""
""focus"",""4"",""14978""
""fullscreenenter"",""5"",""24297""
","""event"",""trial"",""time""
""blur"",""4"",""14815""
","""event"",""trial"",""time""
""focus"",""4"",""14978""
","""event"",""trial"",""time""
""fullscreenenter"",""5"",""24297""
","
","","images/earth.jpg","","","","","","","","","","","","","","fixation","","","","","",""
"d3-animate-choice","85","489977","0.0-61.0-0.8","2606","5041","18","Female","true","false","false","false","""event"",""trial"",""time""
""blur"",""4"",""14815""
""focus"",""4"",""14978""
""fullscreenenter"",""5"",""24297""
","""event"",""trial"",""time""
""blur"",""4"",""14815""
","""event"",""trial"",""time""
""focus"",""4"",""14978""
","""event"",""trial"",""time""
""fullscreenenter"",""5"",""24297""
","
","537.6000000089407","","49","","","3000","1","","","images/earth.jpg","images/tutrocket2","images/tutrocket1","null","images/tutrocket1","","1","practice","null","1","","",""
"d3-animate-choice","86","492602","0.0-61.0-1.8","2606","5041","18","Female","true","false","false","false","""event"",""trial"",""time""
""blur"",""4"",""14815""
""focus"",""4"",""14978""
""fullscreenenter"",""5"",""24297""
","""event"",""trial"",""time""
""blur"",""4"",""14815""
","""event"",""trial"",""time""
""focus"",""4"",""14978""
","""event"",""trial"",""time""
""fullscreenenter"",""5"",""24297""
","
","615.5","","48","","","3000","1","","","images/tutyellowplanet.jpg","images/tutalien4","images/tutalien3","images/tutrocket1","images/tutalien4","images/nothing.png","2","practice","true","2","common","0","2022-12-07 23:44:02.037"
"two-step-fixation","87","493611","0.0-61.0-2.8","2606","5041","18","Female","true","false","false","false","""event"",""trial"",""time""
""blur"",""4"",""14815""
""focus"",""4"",""14978""
""fullscreenenter"",""5"",""24297""
","""event"",""trial"",""time""
""blur"",""4"",""14815""
","""event"",""trial"",""time""
""focus"",""4"",""14978""
","""event"",""trial"",""time""
""fullscreenenter"",""5"",""24297""
","
","","images/earth.jpg","","","","","","","","","","","","","","fixation","","","","","",""
"d3-animate-choice","88","496225","0.0-61.0-0.9","2606","5041","18","Female","true","false","false","false","""event"",""trial"",""time""
""blur"",""4"",""14815""
""focus"",""4"",""14978""
""fullscreenenter"",""5"",""24297""
","""event"",""trial"",""time""
""blur"",""4"",""14815""
","""event"",""trial"",""time""
""focus"",""4"",""14978""
","""event"",""trial"",""time""
""fullscreenenter"",""5"",""24297""
","
","610.5","","48","","","3000","1","","","images/earth.jpg","images/tutrocket2","images/tutrocket1","null","images/tutrocket2","","1","practice","null","2","","",""
"d3-animate-choice","89","498866","0.0-61.0-1.9","2606","5041","18","Female","true","false","false","false","""event"",""trial"",""time""
""blur"",""4"",""14815""
""focus"",""4"",""14978""
""fullscreenenter"",""5"",""24297""
","""event"",""trial"",""time""
""blur"",""4"",""14815""
","""event"",""trial"",""time""
""focus"",""4"",""14978""
","""event"",""trial"",""time""
""fullscreenenter"",""5"",""24297""
","
","629.3999999910593","","48","","","3000","1","","","images/tutgreenplanet.jpg","images/tutalien2","images/tutalien1","images/tutrocket2","images/tutalien2","images/nothing.png","2","practice","true","2","common","0","2022-12-07 23:44:08.301"
"two-step-fixation","90","499874","0.0-61.0-2.9","2606","5041","18","Female","true","false","false","false","""event"",""trial"",""time""
""blur"",""4"",""14815""
""focus"",""4"",""14978""
""fullscreenenter"",""5"",""24297""
","""event"",""trial"",""time""
""blur"",""4"",""14815""
","""event"",""trial"",""time""
""focus"",""4"",""14978""
","""event"",""trial"",""time""
""fullscreenenter"",""5"",""24297""
","
","","images/earth.jpg","","","","","","","","","","","","","","fixation","","","","","",""
"d3-animate-choice","91","502338","0.0-61.0-0.10","2606","5041","18","Female","true","false","false","false","""event"",""trial"",""time""
""blur"",""4"",""14815""
""focus"",""4"",""14978""
""fullscreenenter"",""5"",""24297""
","""event"",""trial"",""time""
""blur"",""4"",""14815""
","""event"",""trial"",""time""
""focus"",""4"",""14978""
","""event"",""trial"",""time""
""fullscreenenter"",""5"",""24297""
","
","452.79999999701977","","48","","","3000","1","","","images/earth.jpg","images/tutrocket2","images/tutrocket1","null","images/tutrocket2","","1","practice","null","2","","",""
"d3-animate-choice","92","505494","0.0-61.0-1.10","2606","5041","18","Female","true","false","false","false","""event"",""trial"",""time""
""blur"",""4"",""14815""
""focus"",""4"",""14978""
""fullscreenenter"",""5"",""24297""
","""event"",""trial"",""time""
""blur"",""4"",""14815""
","""event"",""trial"",""time""
""focus"",""4"",""14978""
","""event"",""trial"",""time""
""fullscreenenter"",""5"",""24297""
","
","1147.2000000029802","","48","","","3000","1","","","images/tutyellowplanet.jpg","images/tutalien4","images/tutalien3","images/tutrocket2","images/tutalien4","images/t.png","2","practice","false","2","rare","1","2022-12-07 23:44:14.929"
"two-step-fixation","93","506506","0.0-61.0-2.10","2606","5041","18","Female","true","false","false","false","""event"",""trial"",""time""
""blur"",""4"",""14815""
""focus"",""4"",""14978""
""fullscreenenter"",""5"",""24297""
","""event"",""trial"",""time""
""blur"",""4"",""14815""
","""event"",""trial"",""time""
""focus"",""4"",""14978""
","""event"",""trial"",""time""
""fullscreenenter"",""5"",""24297""
","
","","images/earth.jpg","","","","","","","","","","","","","","fixation","","","","","",""
"d3-animate-choice","94","508804","0.0-61.0-0.11","2606","5041","18","Female","true","false","false","false","""event"",""trial"",""time""
""blur"",""4"",""14815""
""focus"",""4"",""14978""
""fullscreenenter"",""5"",""24297""
","""event"",""trial"",""time""
""blur"",""4"",""14815""
","""event"",""trial"",""time""
""focus"",""4"",""14978""
","""event"",""trial"",""time""
""fullscreenenter"",""5"",""24297""
","
","288.79999999701977","","48","","","3000","1","","","images/earth.jpg","images/tutrocket2","images/tutrocket1","null","images/tutrocket2","","1","practice","null","2","","",""
"d3-animate-choice","95","511187","0.0-61.0-1.11","2606","5041","18","Female","true","false","false","false","""event"",""trial"",""time""
""blur"",""4"",""14815""
""focus"",""4"",""14978""
""fullscreenenter"",""5"",""24297""
","""event"",""trial"",""time""
""blur"",""4"",""14815""
","""event"",""trial"",""time""
""focus"",""4"",""14978""
","""event"",""trial"",""time""
""fullscreenenter"",""5"",""24297""
","
","372.90000000596046","","48","","","3000","1","","","images/tutyellowplanet.jpg","images/tutalien4","images/tutalien3","images/tutrocket2","images/tutalien4","images/nothing.png","2","practice","false","2","rare","0","2022-12-07 23:44:20.623"
"two-step-fixation","96","512194","0.0-61.0-2.11","2606","5041","18","Female","true","false","false","false","""event"",""trial"",""time""
""blur"",""4"",""14815""
""focus"",""4"",""14978""
""fullscreenenter"",""5"",""24297""
","""event"",""trial"",""time""
""blur"",""4"",""14815""
","""event"",""trial"",""time""
""focus"",""4"",""14978""
","""event"",""trial"",""time""
""fullscreenenter"",""5"",""24297""
","
","","images/earth.jpg","","","","","","","","","","","","","","fixation","","","","","",""
"d3-animate-choice","97","514546","0.0-61.0-0.12","2606","5041","18","Female","true","false","false","false","""event"",""trial"",""time""
""blur"",""4"",""14815""
""focus"",""4"",""14978""
""fullscreenenter"",""5"",""24297""
","""event"",""trial"",""time""
""blur"",""4"",""14815""
","""event"",""trial"",""time""
""focus"",""4"",""14978""
","""event"",""trial"",""time""
""fullscreenenter"",""5"",""24297""
","
","344.20000000298023","","48","","","3000","1","","","images/earth.jpg","images/tutrocket2","images/tutrocket1","null","images/tutrocket2","","1","practice","null","2","","",""
"d3-animate-choice","98","517122","0.0-61.0-1.12","2606","5041","18","Female","true","false","false","false","""event"",""trial"",""time""
""blur"",""4"",""14815""
""focus"",""4"",""14978""
""fullscreenenter"",""5"",""24297""
","""event"",""trial"",""time""
""blur"",""4"",""14815""
","""event"",""trial"",""time""
""focus"",""4"",""14978""
","""event"",""trial"",""time""
""fullscreenenter"",""5"",""24297""
","
","564.4000000059605","","49","","","3000","1","","","images/tutgreenplanet.jpg","images/tutalien2","images/tutalien1","images/tutrocket2","images/tutalien1","images/t.png","2","practice","true","1","common","1","2022-12-07 23:44:26.557"
"two-step-fixation","99","518130","0.0-61.0-2.12","2606","5041","18","Female","true","false","false","false","""event"",""trial"",""time""
""blur"",""4"",""14815""
""focus"",""4"",""14978""
""fullscreenenter"",""5"",""24297""
","""event"",""trial"",""time""
""blur"",""4"",""14815""
","""event"",""trial"",""time""
""focus"",""4"",""14978""
","""event"",""trial"",""time""
""fullscreenenter"",""5"",""24297""
","
","","images/earth.jpg","","","","","","","","","","","","","","fixation","","","","","",""
"d3-animate-choice","100","520793","0.0-61.0-0.13","2606","5041","18","Female","true","false","false","false","""event"",""trial"",""time""
""blur"",""4"",""14815""
""focus"",""4"",""14978""
""fullscreenenter"",""5"",""24297""
","""event"",""trial"",""time""
""blur"",""4"",""14815""
","""event"",""trial"",""time""
""focus"",""4"",""14978""
","""event"",""trial"",""time""
""fullscreenenter"",""5"",""24297""
","
","659.5","","49","","","3000","1","","","images/earth.jpg","images/tutrocket2","images/tutrocket1","null","images/tutrocket1","","1","practice","null","1","","",""
"d3-animate-choice","101","523643","0.0-61.0-1.13","2606","5041","18","Female","true","false","false","false","""event"",""trial"",""time""
""blur"",""4"",""14815""
""focus"",""4"",""14978""
""fullscreenenter"",""5"",""24297""
","""event"",""trial"",""time""
""blur"",""4"",""14815""
","""event"",""trial"",""time""
""focus"",""4"",""14978""
","""event"",""trial"",""time""
""fullscreenenter"",""5"",""24297""
","
","841.5999999940395","","49","","","3000","1","","","images/tutyellowplanet.jpg","images/tutalien4","images/tutalien3","images/tutrocket1","images/tutalien3","images/t.png","2","practice","true","1","common","1","2022-12-07 23:44:33.078"
"two-step-fixation","102","524653","0.0-61.0-2.13","2606","5041","18","Female","true","false","false","false","""event"",""trial"",""time""
""blur"",""4"",""14815""
""focus"",""4"",""14978""
""fullscreenenter"",""5"",""24297""
","""event"",""trial"",""time""
""blur"",""4"",""14815""
","""event"",""trial"",""time""
""focus"",""4"",""14978""
","""event"",""trial"",""time""
""fullscreenenter"",""5"",""24297""
","
","","images/earth.jpg","","","","","","","","","","","","","","fixation","","","","","",""
"d3-animate-choice","103","526994","0.0-61.0-0.14","2606","5041","18","Female","true","false","false","false","""event"",""trial"",""time""
""blur"",""4"",""14815""
""focus"",""4"",""14978""
""fullscreenenter"",""5"",""24297""
","""event"",""trial"",""time""
""blur"",""4"",""14815""
","""event"",""trial"",""time""
""focus"",""4"",""14978""
","""event"",""trial"",""time""
""fullscreenenter"",""5"",""24297""
","
","329","","48","","","3000","1","","","images/earth.jpg","images/tutrocket2","images/tutrocket1","null","images/tutrocket2","","1","practice","null","2","","",""
"d3-animate-choice","104","529578","0.0-61.0-1.14","2606","5041","18","Female","true","false","false","false","""event"",""trial"",""time""
""blur"",""4"",""14815""
""focus"",""4"",""14978""
""fullscreenenter"",""5"",""24297""
","""event"",""trial"",""time""
""blur"",""4"",""14815""
","""event"",""trial"",""time""
""focus"",""4"",""14978""
","""event"",""trial"",""time""
""fullscreenenter"",""5"",""24297""
","
","578.7999999970198","","48","","","3000","1","","","images/tutgreenplanet.jpg","images/tutalien2","images/tutalien1","images/tutrocket2","images/tutalien2","images/nothing.png","2","practice","true","2","common","0","2022-12-07 23:44:39.014"
"two-step-fixation","105","530586","0.0-61.0-2.14","2606","5041","18","Female","true","false","false","false","""event"",""trial"",""time""
""blur"",""4"",""14815""
""focus"",""4"",""14978""
""fullscreenenter"",""5"",""24297""
","""event"",""trial"",""time""
""blur"",""4"",""14815""
","""event"",""trial"",""time""
""focus"",""4"",""14978""
","""event"",""trial"",""time""
""fullscreenenter"",""5"",""24297""
","
","","images/earth.jpg","","","","","","","","","","","","","","fixation","","","","","",""
"d3-animate-choice","106","532962","0.0-61.0-0.15","2606","5041","18","Female","true","false","false","false","""event"",""trial"",""time""
""blur"",""4"",""14815""
""focus"",""4"",""14978""
""fullscreenenter"",""5"",""24297""
","""event"",""trial"",""time""
""blur"",""4"",""14815""
","""event"",""trial"",""time""
""focus"",""4"",""14978""
","""event"",""trial"",""time""
""fullscreenenter"",""5"",""24297""
","
","373.3999999910593","","48","","","3000","1","","","images/earth.jpg","images/tutrocket2","images/tutrocket1","null","images/tutrocket2","","1","practice","null","2","","",""
"d3-animate-choice","107","535210","0.0-61.0-1.15","2606","5041","18","Female","true","false","false","false","""event"",""trial"",""time""
""blur"",""4"",""14815""
""focus"",""4"",""14978""
""fullscreenenter"",""5"",""24297""
","""event"",""trial"",""time""
""blur"",""4"",""14815""
","""event"",""trial"",""time""
""focus"",""4"",""14978""
","""event"",""trial"",""time""
""fullscreenenter"",""5"",""24297""
","
","235.40000000596046","","48","","","3000","1","","","images/tutgreenplanet.jpg","images/tutalien2","images/tutalien1","images/tutrocket2","images/tutalien2","images/nothing.png","2","practice","true","2","common","0","2022-12-07 23:44:44.645"
"two-step-fixation","108","536220","0.0-61.0-2.15","2606","5041","18","Female","true","false","false","false","""event"",""trial"",""time""
""blur"",""4"",""14815""
""focus"",""4"",""14978""
""fullscreenenter"",""5"",""24297""
","""event"",""trial"",""time""
""blur"",""4"",""14815""
","""event"",""trial"",""time""
""focus"",""4"",""14978""
","""event"",""trial"",""time""
""fullscreenenter"",""5"",""24297""
","
","","images/earth.jpg","","","","","","","","","","","","","","fixation","","","","","",""
"d3-animate-choice","109","538770","0.0-61.0-0.16","2606","5041","18","Female","true","false","false","false","""event"",""trial"",""time""
""blur"",""4"",""14815""
""focus"",""4"",""14978""
""fullscreenenter"",""5"",""24297""
","""event"",""trial"",""time""
""blur"",""4"",""14815""
","""event"",""trial"",""time""
""focus"",""4"",""14978""
","""event"",""trial"",""time""
""fullscreenenter"",""5"",""24297""
","
","544.6000000089407","","48","","","3000","1","","","images/earth.jpg","images/tutrocket2","images/tutrocket1","null","images/tutrocket2","","1","practice","null","2","","",""
"d3-animate-choice","110","541259","0.0-61.0-1.16","2606","5041","18","Female","true","false","false","false","""event"",""trial"",""time""
""blur"",""4"",""14815""
""focus"",""4"",""14978""
""fullscreenenter"",""5"",""24297""
","""event"",""trial"",""time""
""blur"",""4"",""14815""
","""event"",""trial"",""time""
""focus"",""4"",""14978""
","""event"",""trial"",""time""
""fullscreenenter"",""5"",""24297""
","
","475.8999999910593","","49","","","3000","1","","","images/tutgreenplanet.jpg","images/tutalien2","images/tutalien1","images/tutrocket2","images/tutalien1","images/t.png","2","practice","true","1","common","1","2022-12-07 23:44:50.695"
"two-step-fixation","111","542270","0.0-61.0-2.16","2606","5041","18","Female","true","false","false","false","""event"",""trial"",""time""
""blur"",""4"",""14815""
""focus"",""4"",""14978""
""fullscreenenter"",""5"",""24297""
","""event"",""trial"",""time""
""blur"",""4"",""14815""
","""event"",""trial"",""time""
""focus"",""4"",""14978""
","""event"",""trial"",""time""
""fullscreenenter"",""5"",""24297""
","
","","images/earth.jpg","","","","","","","","","","","","","","fixation","","","","","",""
"d3-animate-choice","112","545162","0.0-61.0-0.17","2606","5041","18","Female","true","false","false","false","""event"",""trial"",""time""
""blur"",""4"",""14815""
""focus"",""4"",""14978""
""fullscreenenter"",""5"",""24297""
","""event"",""trial"",""time""
""blur"",""4"",""14815""
","""event"",""trial"",""time""
""focus"",""4"",""14978""
","""event"",""trial"",""time""
""fullscreenenter"",""5"",""24297""
","
","884.7000000029802","","48","","","3000","1","","","images/earth.jpg","images/tutrocket2","images/tutrocket1","null","images/tutrocket2","","1","practice","null","2","","",""
"d3-animate-choice","113","547626","0.0-61.0-1.17","2606","5041","18","Female","true","false","false","false","""event"",""trial"",""time""
""blur"",""4"",""14815""
""focus"",""4"",""14978""
""fullscreenenter"",""5"",""24297""
","""event"",""trial"",""time""
""blur"",""4"",""14815""
","""event"",""trial"",""time""
""focus"",""4"",""14978""
","""event"",""trial"",""time""
""fullscreenenter"",""5"",""24297""
","
","459.09999999403954","","49","","","3000","1","","","images/tutyellowplanet.jpg","images/tutalien4","images/tutalien3","images/tutrocket2","images/tutalien3","images/t.png","2","practice","false","1","rare","1","2022-12-07 23:44:57.061"
"two-step-fixation","114","548634","0.0-61.0-2.17","2606","5041","18","Female","true","false","false","false","""event"",""trial"",""time""
""blur"",""4"",""14815""
""focus"",""4"",""14978""
""fullscreenenter"",""5"",""24297""
","""event"",""trial"",""time""
""blur"",""4"",""14815""
","""event"",""trial"",""time""
""focus"",""4"",""14978""
","""event"",""trial"",""time""
""fullscreenenter"",""5"",""24297""
","
","","images/earth.jpg","","","","","","","","","","","","","","fixation","","","","","",""
"d3-animate-choice","115","551098","0.0-61.0-0.18","2606","5041","18","Female","true","false","false","false","""event"",""trial"",""time""
""blur"",""4"",""14815""
""focus"",""4"",""14978""
""fullscreenenter"",""5"",""24297""
","""event"",""trial"",""time""
""blur"",""4"",""14815""
","""event"",""trial"",""time""
""focus"",""4"",""14978""
","""event"",""trial"",""time""
""fullscreenenter"",""5"",""24297""
","
","459.8999999910593","","48","","","3000","1","","","images/earth.jpg","images/tutrocket2","images/tutrocket1","null","images/tutrocket2","","1","practice","null","2","","",""
"d3-animate-choice","116","553892","0.0-61.0-1.18","2606","5041","18","Female","true","false","false","false","""event"",""trial"",""time""
""blur"",""4"",""14815""
""focus"",""4"",""14978""
""fullscreenenter"",""5"",""24297""
","""event"",""trial"",""time""
""blur"",""4"",""14815""
","""event"",""trial"",""time""
""focus"",""4"",""14978""
","""event"",""trial"",""time""
""fullscreenenter"",""5"",""24297""
","
","788.9000000059605","","48","","","3000","1","852.8000000119209","49","images/tutgreenplanet.jpg","images/tutalien2","images/tutalien1","images/tutrocket2","images/tutalien2","images/t.png","2","practice","true","2","common","1","2022-12-07 23:45:03.327"
"two-step-fixation","117","554899","0.0-61.0-2.18","2606","5041","18","Female","true","false","false","false","""event"",""trial"",""time""
""blur"",""4"",""14815""
""focus"",""4"",""14978""
""fullscreenenter"",""5"",""24297""
","""event"",""trial"",""time""
""blur"",""4"",""14815""
","""event"",""trial"",""time""
""focus"",""4"",""14978""
","""event"",""trial"",""time""
""fullscreenenter"",""5"",""24297""
","
","","images/earth.jpg","","","","","","","","","","","","","","fixation","","","","","",""
"d3-animate-choice","118","557436","0.0-61.0-0.19","2606","5041","18","Female","true","false","false","false","""event"",""trial"",""time""
""blur"",""4"",""14815""
""focus"",""4"",""14978""
""fullscreenenter"",""5"",""24297""
","""event"",""trial"",""time""
""blur"",""4"",""14815""
","""event"",""trial"",""time""
""focus"",""4"",""14978""
","""event"",""trial"",""time""
""fullscreenenter"",""5"",""24297""
","
","527.3000000119209","","48","","","3000","1","","","images/earth.jpg","images/tutrocket2","images/tutrocket1","null","images/tutrocket2","","1","practice","null","2","","",""
"d3-animate-choice","119","559925","0.0-61.0-1.19","2606","5041","18","Female","true","false","false","false","""event"",""trial"",""time""
""blur"",""4"",""14815""
""focus"",""4"",""14978""
""fullscreenenter"",""5"",""24297""
","""event"",""trial"",""time""
""blur"",""4"",""14815""
","""event"",""trial"",""time""
""focus"",""4"",""14978""
","""event"",""trial"",""time""
""fullscreenenter"",""5"",""24297""
","
","483.3999999910593","","48","","","3000","1","","","images/tutgreenplanet.jpg","images/tutalien2","images/tutalien1","images/tutrocket2","images/tutalien2","images/t.png","2","practice","true","2","common","1","2022-12-07 23:45:09.360"
"two-step-fixation","120","560930","0.0-61.0-2.19","2606","5041","18","Female","true","false","false","false","""event"",""trial"",""time""
""blur"",""4"",""14815""
""focus"",""4"",""14978""
""fullscreenenter"",""5"",""24297""
","""event"",""trial"",""time""
""blur"",""4"",""14815""
","""event"",""trial"",""time""
""focus"",""4"",""14978""
","""event"",""trial"",""time""
""fullscreenenter"",""5"",""24297""
","
","","images/earth.jpg","","","","","","","","","","","","","","fixation","","","","","",""
"d3-instructions","121","732494","0.0-62.0","2606","5041","18","Female","true","false","false","false","""event"",""trial"",""time""
""blur"",""4"",""14815""
""focus"",""4"",""14978""
""fullscreenenter"",""5"",""24297""
","""event"",""trial"",""time""
""blur"",""4"",""14815""
","""event"",""trial"",""time""
""focus"",""4"",""14978""
","""event"",""trial"",""time""
""fullscreenenter"",""5"",""24297""
","
","","","","","","","","","","","","","","","","","","","","","",""
"audio-keyboard-response","122","744113","0.0-63.0","2606","5041","18","Female","true","false","false","false","""event"",""trial"",""time""
""blur"",""4"",""14815""
""focus"",""4"",""14978""
""fullscreenenter"",""5"",""24297""
","""event"",""trial"",""time""
""blur"",""4"",""14815""
","""event"",""trial"",""time""
""focus"",""4"",""14978""
","""event"",""trial"",""time""
""fullscreenenter"",""5"",""24297""
","
","11581","audio/instructions/treasure_feedback.wav","32","","","","","","","","","","","","","","","","","","",""
"d3-instructions","123","751668","0.0-64.0","2606","5041","18","Female","true","false","false","false","""event"",""trial"",""time""
""blur"",""4"",""14815""
""focus"",""4"",""14978""
""fullscreenenter"",""5"",""24297""
","""event"",""trial"",""time""
""blur"",""4"",""14815""
","""event"",""trial"",""time""
""focus"",""4"",""14978""
","""event"",""trial"",""time""
""fullscreenenter"",""5"",""24297""
","
","","","","","","","","","","","","","","","","","","","","","",""
"d3-instructions","124","753024","0.0-65.0","2606","5041","18","Female","true","false","false","false","""event"",""trial"",""time""
""blur"",""4"",""14815""
""focus"",""4"",""14978""
""fullscreenenter"",""5"",""24297""
","""event"",""trial"",""time""
""blur"",""4"",""14815""
","""event"",""trial"",""time""
""focus"",""4"",""14978""
","""event"",""trial"",""time""
""fullscreenenter"",""5"",""24297""
","
","","","","","","","","","","","","","","","","","","","","","",""
"d3-instructions","125","753881","0.0-66.0","2606","5041","18","Female","true","false","false","false","""event"",""trial"",""time""
""blur"",""4"",""14815""
""focus"",""4"",""14978""
""fullscreenenter"",""5"",""24297""
","""event"",""trial"",""time""
""blur"",""4"",""14815""
","""event"",""trial"",""time""
""focus"",""4"",""14978""
","""event"",""trial"",""time""
""fullscreenenter"",""5"",""24297""
","
","","","","","","","","","","","","","","","","","","","","","",""
"d3-instructions","126","755218","0.0-67.0","2606","5041","18","Female","true","false","false","false","""event"",""trial"",""time""
""blur"",""4"",""14815""
""focus"",""4"",""14978""
""fullscreenenter"",""5"",""24297""
","""event"",""trial"",""time""
""blur"",""4"",""14815""
","""event"",""trial"",""time""
""focus"",""4"",""14978""
","""event"",""trial"",""time""
""fullscreenenter"",""5"",""24297""
","
","","","","","","","","","","","","","","","","","","","","","",""
"d3-instructions","127","758455","0.0-68.0","2606","5041","18","Female","true","false","false","false","""event"",""trial"",""time""
""blur"",""4"",""14815""
""focus"",""4"",""14978""
""fullscreenenter"",""5"",""24297""
","""event"",""trial"",""time""
""blur"",""4"",""14815""
","""event"",""trial"",""time""
""focus"",""4"",""14978""
","""event"",""trial"",""time""
""fullscreenenter"",""5"",""24297""
","
","","","","","","","","","","","","","","","","","","","","","",""
"instructions-quiz","128","761517","0.0-69.0","2606","5041","18","Female","true","false","false","false","""event"",""trial"",""time""
""blur"",""4"",""14815""
""focus"",""4"",""14978""
""fullscreenenter"",""5"",""24297""
","""event"",""trial"",""time""
""blur"",""4"",""14815""
","""event"",""trial"",""time""
""focus"",""4"",""14978""
","""event"",""trial"",""time""
""fullscreenenter"",""5"",""24297""
","
","3057.7999999970198","audio/quiz/Q1_Prompt.wav","","1","","","","","","","","","","","","","","","","","",""
"audio-keyboard-response","129","770690","0.0-70.0","2606","5041","18","Female","true","false","false","false","""event"",""trial"",""time""
""blur"",""4"",""14815""
""focus"",""4"",""14978""
""fullscreenenter"",""5"",""24297""
","""event"",""trial"",""time""
""blur"",""4"",""14815""
","""event"",""trial"",""time""
""focus"",""4"",""14978""
","""event"",""trial"",""time""
""fullscreenenter"",""5"",""24297""
","
","null","audio/quiz/Q1_Correct.wav","null","","","","","","","","","","","","","","","","","","",""
"instructions-quiz","130","778347","0.0-71.0","2606","5041","18","Female","true","false","false","false","""event"",""trial"",""time""
""blur"",""4"",""14815""
""focus"",""4"",""14978""
""fullscreenenter"",""5"",""24297""
","""event"",""trial"",""time""
""blur"",""4"",""14815""
","""event"",""trial"",""time""
""focus"",""4"",""14978""
","""event"",""trial"",""time""
""fullscreenenter"",""5"",""24297""
","
","7651.100000008941","audio/quiz/Q2_Prompt.wav","","1","","","","","","","","","","","","","","","","","",""
"audio-keyboard-response","131","782245","0.0-72.0","2606","5041","18","Female","true","false","false","false","""event"",""trial"",""time""
""blur"",""4"",""14815""
""focus"",""4"",""14978""
""fullscreenenter"",""5"",""24297""
","""event"",""trial"",""time""
""blur"",""4"",""14815""
","""event"",""trial"",""time""
""focus"",""4"",""14978""
","""event"",""trial"",""time""
""fullscreenenter"",""5"",""24297""
","
","3889","audio/quiz/Q2_Incorrect.wav","32","","","","","","","","","","","","","","","","","","",""
"instructions-quiz","132","791859","0.0-73.0","2606","5041","18","Female","true","false","false","false","""event"",""trial"",""time""
""blur"",""4"",""14815""
""focus"",""4"",""14978""
""fullscreenenter"",""5"",""24297""
","""event"",""trial"",""time""
""blur"",""4"",""14815""
","""event"",""trial"",""time""
""focus"",""4"",""14978""
","""event"",""trial"",""time""
""fullscreenenter"",""5"",""24297""
","
","9611.29999999702","audio/quiz/Q3_Prompt.wav","","1","","","","","","","","","","","","","","","","","",""
"audio-keyboard-response","133","797653","0.0-74.0","2606","5041","18","Female","true","false","false","false","""event"",""trial"",""time""
""blur"",""4"",""14815""
""focus"",""4"",""14978""
""fullscreenenter"",""5"",""24297""
","""event"",""trial"",""time""
""blur"",""4"",""14815""
","""event"",""trial"",""time""
""focus"",""4"",""14978""
","""event"",""trial"",""time""
""fullscreenenter"",""5"",""24297""
","
","5793","audio/quiz/Q3_Correct.wav","32","","","","","","","","","","","","","","","","","","",""
"d3-instructions","134","802081","0.0-75.0","2606","5041","18","Female","true","false","false","false","""event"",""trial"",""time""
""blur"",""4"",""14815""
""focus"",""4"",""14978""
""fullscreenenter"",""5"",""24297""
","""event"",""trial"",""time""
""blur"",""4"",""14815""
","""event"",""trial"",""time""
""focus"",""4"",""14978""
","""event"",""trial"",""time""
""fullscreenenter"",""5"",""24297""
","
","","","","","","","","","","","","","","","","","","","","","",""
"d3-animate-choice","135","805094","0.0-76.0-0.0","2606","5041","18","Female","true","false","false","false","""event"",""trial"",""time""
""blur"",""4"",""14815""
""focus"",""4"",""14978""
""fullscreenenter"",""5"",""24297""
","""event"",""trial"",""time""
""blur"",""4"",""14815""
","""event"",""trial"",""time""
""focus"",""4"",""14978""
","""event"",""trial"",""time""
""fullscreenenter"",""5"",""24297""
","
","1003.5999999940395","","49","","","3000","1","","","images/earth.jpg","images/rocket2","images/rocket1","null","images/rocket1","","1","real","null","1","","",""
"d3-animate-choice","136","807740","0.0-76.0-1.0","2606","5041","18","Female","true","false","false","false","""event"",""trial"",""time""
""blur"",""4"",""14815""
""focus"",""4"",""14978""
""fullscreenenter"",""5"",""24297""
","""event"",""trial"",""time""
""blur"",""4"",""14815""
","""event"",""trial"",""time""
""focus"",""4"",""14978""
","""event"",""trial"",""time""
""fullscreenenter"",""5"",""24297""
","
","638","","49","","","3000","1","","","images/redplanet1.jpg","images/alien2","images/alien1","images/rocket1","images/alien1","images/t.png","2","real","false","1","rare","1","2022-12-07 23:49:17.175"
"two-step-fixation","137","808747","0.0-76.0-2.0","2606","5041","18","Female","true","false","false","false","""event"",""trial"",""time""
""blur"",""4"",""14815""
""focus"",""4"",""14978""
""fullscreenenter"",""5"",""24297""
","""event"",""trial"",""time""
""blur"",""4"",""14815""
","""event"",""trial"",""time""
""focus"",""4"",""14978""
","""event"",""trial"",""time""
""fullscreenenter"",""5"",""24297""
","
","","images/earth.jpg","","","","","","","","","","","","","","fixation","","","","","",""
"d3-animate-choice","138","811343","0.0-76.0-0.1","2606","5041","18","Female","true","false","false","false","""event"",""trial"",""time""
""blur"",""4"",""14815""
""focus"",""4"",""14978""
""fullscreenenter"",""5"",""24297""
","""event"",""trial"",""time""
""blur"",""4"",""14815""
","""event"",""trial"",""time""
""focus"",""4"",""14978""
","""event"",""trial"",""time""
""fullscreenenter"",""5"",""24297""
","
","580.0999999940395","","49","","","3000","1","","","images/earth.jpg","images/rocket2","images/rocket1","null","images/rocket1","","1","real","null","1","","",""
"d3-animate-choice","139","813926","0.0-76.0-1.1","2606","5041","18","Female","true","false","false","false","""event"",""trial"",""time""
""blur"",""4"",""14815""
""focus"",""4"",""14978""
""fullscreenenter"",""5"",""24297""
","""event"",""trial"",""time""
""blur"",""4"",""14815""
","""event"",""trial"",""time""
""focus"",""4"",""14978""
","""event"",""trial"",""time""
""fullscreenenter"",""5"",""24297""
","
","569.4000000059605","","49","","","3000","1","","","images/redplanet1.jpg","images/alien2","images/alien1","images/rocket1","images/alien1","images/nothing.png","2","real","false","1","rare","0","2022-12-07 23:49:23.361"
"two-step-fixation","140","814933","0.0-76.0-2.1","2606","5041","18","Female","true","false","false","false","""event"",""trial"",""time""
""blur"",""4"",""14815""
""focus"",""4"",""14978""
""fullscreenenter"",""5"",""24297""
","""event"",""trial"",""time""
""blur"",""4"",""14815""
","""event"",""trial"",""time""
""focus"",""4"",""14978""
","""event"",""trial"",""time""
""fullscreenenter"",""5"",""24297""
","
","","images/earth.jpg","","","","","","","","","","","","","","fixation","","","","","",""
"d3-animate-choice","141","817293","0.0-76.0-0.2","2606","5041","18","Female","true","false","false","false","""event"",""trial"",""time""
""blur"",""4"",""14815""
""focus"",""4"",""14978""
""fullscreenenter"",""5"",""24297""
","""event"",""trial"",""time""
""blur"",""4"",""14815""
","""event"",""trial"",""time""
""focus"",""4"",""14978""
","""event"",""trial"",""time""
""fullscreenenter"",""5"",""24297""
","
","346.70000000298023","","49","","","3000","1","","","images/earth.jpg","images/rocket2","images/rocket1","null","images/rocket1","","1","real","null","1","","",""
"d3-animate-choice","142","820332","0.0-76.0-1.2","2606","5041","18","Female","true","false","false","false","""event"",""trial"",""time""
""blur"",""4"",""14815""
""focus"",""4"",""14978""
""fullscreenenter"",""5"",""24297""
","""event"",""trial"",""time""
""blur"",""4"",""14815""
","""event"",""trial"",""time""
""focus"",""4"",""14978""
","""event"",""trial"",""time""
""fullscreenenter"",""5"",""24297""
","
","1028.0999999940395","","49","","","3000","1","","","images/purpleplanet.jpg","images/alien4","images/alien3","images/rocket1","images/alien3","images/nothing.png","2","real","true","1","common","0","2022-12-07 23:49:29.767"
"two-step-fixation","143","821343","0.0-76.0-2.2","2606","5041","18","Female","true","false","false","false","""event"",""trial"",""time""
""blur"",""4"",""14815""
""focus"",""4"",""14978""
""fullscreenenter"",""5"",""24297""
","""event"",""trial"",""time""
""blur"",""4"",""14815""
","""event"",""trial"",""time""
""focus"",""4"",""14978""
","""event"",""trial"",""time""
""fullscreenenter"",""5"",""24297""
","
","","images/earth.jpg","","","","","","","","","","","","","","fixation","","","","","",""
"d3-animate-choice","144","823748","0.0-76.0-0.3","2606","5041","18","Female","true","false","false","false","""event"",""trial"",""time""
""blur"",""4"",""14815""
""focus"",""4"",""14978""
""fullscreenenter"",""5"",""24297""
","""event"",""trial"",""time""
""blur"",""4"",""14815""
","""event"",""trial"",""time""
""focus"",""4"",""14978""
","""event"",""trial"",""time""
""fullscreenenter"",""5"",""24297""
","
","396.90000000596046","","49","","","3000","1","","","images/earth.jpg","images/rocket2","images/rocket1","null","images/rocket1","","1","real","null","1","","",""
"d3-animate-choice","145","826839","0.0-76.0-1.3","2606","5041","18","Female","true","false","false","false","""event"",""trial"",""time""
""blur"",""4"",""14815""
""focus"",""4"",""14978""
""fullscreenenter"",""5"",""24297""
","""event"",""trial"",""time""
""blur"",""4"",""14815""
","""event"",""trial"",""time""
""focus"",""4"",""14978""
","""event"",""trial"",""time""
""fullscreenenter"",""5"",""24297""
","
","1078.9000000059605","","49","","","3000","1","","","images/purpleplanet.jpg","images/alien4","images/alien3","images/rocket1","images/alien3","images/nothing.png","2","real","true","1","common","0","2022-12-07 23:49:36.275"
"two-step-fixation","146","827842","0.0-76.0-2.3","2606","5041","18","Female","true","false","false","false","""event"",""trial"",""time""
""blur"",""4"",""14815""
""focus"",""4"",""14978""
""fullscreenenter"",""5"",""24297""
","""event"",""trial"",""time""
""blur"",""4"",""14815""
","""event"",""trial"",""time""
""focus"",""4"",""14978""
","""event"",""trial"",""time""
""fullscreenenter"",""5"",""24297""
","
","","images/earth.jpg","","","","","","","","","","","","","","fixation","","","","","",""
"d3-animate-choice","147","830424","0.0-76.0-0.4","2606","5041","18","Female","true","false","false","false","""event"",""trial"",""time""
""blur"",""4"",""14815""
""focus"",""4"",""14978""
""fullscreenenter"",""5"",""24297""
","""event"",""trial"",""time""
""blur"",""4"",""14815""
","""event"",""trial"",""time""
""focus"",""4"",""14978""
","""event"",""trial"",""time""
""fullscreenenter"",""5"",""24297""
","
","566.7000000029802","","49","","","3000","1","","","images/earth.jpg","images/rocket2","images/rocket1","null","images/rocket1","","1","real","null","1","","",""
"d3-animate-choice","148","832999","0.0-76.0-1.4","2606","5041","18","Female","true","false","false","false","""event"",""trial"",""time""
""blur"",""4"",""14815""
""focus"",""4"",""14978""
""fullscreenenter"",""5"",""24297""
","""event"",""trial"",""time""
""blur"",""4"",""14815""
","""event"",""trial"",""time""
""focus"",""4"",""14978""
","""event"",""trial"",""time""
""fullscreenenter"",""5"",""24297""
","
","560.0999999940395","","49","","","3000","1","","","images/redplanet1.jpg","images/alien2","images/alien1","images/rocket1","images/alien1","images/nothing.png","2","real","false","1","rare","0","2022-12-07 23:49:42.434"
"two-step-fixation","149","834009","0.0-76.0-2.4","2606","5041","18","Female","true","false","false","false","""event"",""trial"",""time""
""blur"",""4"",""14815""
""focus"",""4"",""14978""
""fullscreenenter"",""5"",""24297""
","""event"",""trial"",""time""
""blur"",""4"",""14815""
","""event"",""trial"",""time""
""focus"",""4"",""14978""
","""event"",""trial"",""time""
""fullscreenenter"",""5"",""24297""
","
","","images/earth.jpg","","","","","","","","","","","","","","fixation","","","","","",""
"d3-animate-choice","150","837599","0.0-76.0-0.5","2606","5041","18","Female","true","false","false","false","""event"",""trial"",""time""
""blur"",""4"",""14815""
""focus"",""4"",""14978""
""fullscreenenter"",""5"",""24297""
","""event"",""trial"",""time""
""blur"",""4"",""14815""
","""event"",""trial"",""time""
""focus"",""4"",""14978""
","""event"",""trial"",""time""
""fullscreenenter"",""5"",""24297""
","
","1576","","49","","","3000","1","","","images/earth.jpg","images/rocket2","images/rocket1","null","images/rocket1","","1","real","null","1","","",""
"d3-animate-choice","151","840359","0.0-76.0-1.5","2606","5041","18","Female","true","false","false","false","""event"",""trial"",""time""
""blur"",""4"",""14815""
""focus"",""4"",""14978""
""fullscreenenter"",""5"",""24297""
","""event"",""trial"",""time""
""blur"",""4"",""14815""
","""event"",""trial"",""time""
""focus"",""4"",""14978""
","""event"",""trial"",""time""
""fullscreenenter"",""5"",""24297""
","
","751.9000000059605","","48","","","3000","1","","","images/redplanet1.jpg","images/alien2","images/alien1","images/rocket1","images/alien2","images/t.png","2","real","false","2","rare","1","2022-12-07 23:49:49.794"
"two-step-fixation","152","841371","0.0-76.0-2.5","2606","5041","18","Female","true","false","false","false","""event"",""trial"",""time""
""blur"",""4"",""14815""
""focus"",""4"",""14978""
""fullscreenenter"",""5"",""24297""
","""event"",""trial"",""time""
""blur"",""4"",""14815""
","""event"",""trial"",""time""
""focus"",""4"",""14978""
","""event"",""trial"",""time""
""fullscreenenter"",""5"",""24297""
","
","","images/earth.jpg","","","","","","","","","","","","","","fixation","","","","","",""
"d3-animate-choice","153","843909","0.0-76.0-0.6","2606","5041","18","Female","true","false","false","false","""event"",""trial"",""time""
""blur"",""4"",""14815""
""focus"",""4"",""14978""
""fullscreenenter"",""5"",""24297""
","""event"",""trial"",""time""
""blur"",""4"",""14815""
","""event"",""trial"",""time""
""focus"",""4"",""14978""
","""event"",""trial"",""time""
""fullscreenenter"",""5"",""24297""
","
","526.0999999940395","","48","","","3000","1","","","images/earth.jpg","images/rocket2","images/rocket1","null","images/rocket2","","1","real","null","2","","",""
"d3-animate-choice","154","847156","0.0-76.0-1.6","2606","5041","18","Female","true","false","false","false","""event"",""trial"",""time""
""blur"",""4"",""14815""
""focus"",""4"",""14978""
""fullscreenenter"",""5"",""24297""
","""event"",""trial"",""time""
""blur"",""4"",""14815""
","""event"",""trial"",""time""
""focus"",""4"",""14978""
","""event"",""trial"",""time""
""fullscreenenter"",""5"",""24297""
","
","1237.2000000029802","","48","","","3000","1","","","images/redplanet1.jpg","images/alien2","images/alien1","images/rocket2","images/alien2","images/t.png","2","real","true","2","common","1","2022-12-07 23:49:56.591"
"two-step-fixation","155","848165","0.0-76.0-2.6","2606","5041","18","Female","true","false","false","false","""event"",""trial"",""time""
""blur"",""4"",""14815""
""focus"",""4"",""14978""
""fullscreenenter"",""5"",""24297""
","""event"",""trial"",""time""
""blur"",""4"",""14815""
","""event"",""trial"",""time""
""focus"",""4"",""14978""
","""event"",""trial"",""time""
""fullscreenenter"",""5"",""24297""
","
","","images/earth.jpg","","","","","","","","","","","","","","fixation","","","","","",""
"d3-animate-choice","156","850743","0.0-76.0-0.7","2606","5041","18","Female","true","false","false","false","""event"",""trial"",""time""
""blur"",""4"",""14815""
""focus"",""4"",""14978""
""fullscreenenter"",""5"",""24297""
","""event"",""trial"",""time""
""blur"",""4"",""14815""
","""event"",""trial"",""time""
""focus"",""4"",""14978""
","""event"",""trial"",""time""
""fullscreenenter"",""5"",""24297""
","
","572.3999999910593","","48","","","3000","1","","","images/earth.jpg","images/rocket2","images/rocket1","null","images/rocket2","","1","real","null","2","","",""
"d3-animate-choice","157","853431","0.0-76.0-1.7","2606","5041","18","Female","true","false","false","false","""event"",""trial"",""time""
""blur"",""4"",""14815""
""focus"",""4"",""14978""
""fullscreenenter"",""5"",""24297""
","""event"",""trial"",""time""
""blur"",""4"",""14815""
","""event"",""trial"",""time""
""focus"",""4"",""14978""
","""event"",""trial"",""time""
""fullscreenenter"",""5"",""24297""
","
","675.9000000059605","","48","","","3000","1","","","images/redplanet1.jpg","images/alien2","images/alien1","images/rocket2","images/alien2","images/nothing.png","2","real","true","2","common","0","2022-12-07 23:50:02.866"
"two-step-fixation","158","854435","0.0-76.0-2.7","2606","5041","18","Female","true","false","false","false","""event"",""trial"",""time""
""blur"",""4"",""14815""
""focus"",""4"",""14978""
""fullscreenenter"",""5"",""24297""
","""event"",""trial"",""time""
""blur"",""4"",""14815""
","""event"",""trial"",""time""
""focus"",""4"",""14978""
","""event"",""trial"",""time""
""fullscreenenter"",""5"",""24297""
","
","","images/earth.jpg","","","","","","","","","","","","","","fixation","","","","","",""
"d3-animate-choice","159","856958","0.0-76.0-0.8","2606","5041","18","Female","true","false","false","false","""event"",""trial"",""time""
""blur"",""4"",""14815""
""focus"",""4"",""14978""
""fullscreenenter"",""5"",""24297""
","""event"",""trial"",""time""
""blur"",""4"",""14815""
","""event"",""trial"",""time""
""focus"",""4"",""14978""
","""event"",""trial"",""time""
""fullscreenenter"",""5"",""24297""
","
","509.90000000596046","","48","","","3000","1","","","images/earth.jpg","images/rocket2","images/rocket1","null","images/rocket2","","1","real","null","2","","",""
"d3-animate-choice","160","860283","0.0-76.0-1.8","2606","5041","18","Female","true","false","false","false","""event"",""trial"",""time""
""blur"",""4"",""14815""
""focus"",""4"",""14978""
""fullscreenenter"",""5"",""24297""
","""event"",""trial"",""time""
""blur"",""4"",""14815""
","""event"",""trial"",""time""
""focus"",""4"",""14978""
","""event"",""trial"",""time""
""fullscreenenter"",""5"",""24297""
","
","1315.9000000059605","","48","","","3000","1","","","images/redplanet1.jpg","images/alien2","images/alien1","images/rocket2","images/alien2","images/t.png","2","real","true","2","common","1","2022-12-07 23:50:09.719"
"two-step-fixation","161","861291","0.0-76.0-2.8","2606","5041","18","Female","true","false","false","false","""event"",""trial"",""time""
""blur"",""4"",""14815""
""focus"",""4"",""14978""
""fullscreenenter"",""5"",""24297""
","""event"",""trial"",""time""
""blur"",""4"",""14815""
","""event"",""trial"",""time""
""focus"",""4"",""14978""
","""event"",""trial"",""time""
""fullscreenenter"",""5"",""24297""
","
","","images/earth.jpg","","","","","","","","","","","","","","fixation","","","","","",""
"d3-animate-choice","162","863691","0.0-76.0-0.9","2606","5041","18","Female","true","false","false","false","""event"",""trial"",""time""
""blur"",""4"",""14815""
""focus"",""4"",""14978""
""fullscreenenter"",""5"",""24297""
","""event"",""trial"",""time""
""blur"",""4"",""14815""
","""event"",""trial"",""time""
""focus"",""4"",""14978""
","""event"",""trial"",""time""
""fullscreenenter"",""5"",""24297""
","
","388.09999999403954","","48","","","3000","1","","","images/earth.jpg","images/rocket2","images/rocket1","null","images/rocket2","","1","real","null","2","","",""
"d3-animate-choice","163","866478","0.0-76.0-1.9","2606","5041","18","Female","true","false","false","false","""event"",""trial"",""time""
""blur"",""4"",""14815""
""focus"",""4"",""14978""
""fullscreenenter"",""5"",""24297""
","""event"",""trial"",""time""
""blur"",""4"",""14815""
","""event"",""trial"",""time""
""focus"",""4"",""14978""
","""event"",""trial"",""time""
""fullscreenenter"",""5"",""24297""
","
","775.5999999940395","","48","","","3000","1","","","images/purpleplanet.jpg","images/alien4","images/alien3","images/rocket2","images/alien4","images/t.png","2","real","false","2","rare","1","2022-12-07 23:50:15.913"
"two-step-fixation","164","867484","0.0-76.0-2.9","2606","5041","18","Female","true","false","false","false","""event"",""trial"",""time""
""blur"",""4"",""14815""
""focus"",""4"",""14978""
""fullscreenenter"",""5"",""24297""
","""event"",""trial"",""time""
""blur"",""4"",""14815""
","""event"",""trial"",""time""
""focus"",""4"",""14978""
","""event"",""trial"",""time""
""fullscreenenter"",""5"",""24297""
","
","","images/earth.jpg","","","","","","","","","","","","","","fixation","","","","","",""
"d3-animate-choice","165","869843","0.0-76.0-0.10","2606","5041","18","Female","true","false","false","false","""event"",""trial"",""time""
""blur"",""4"",""14815""
""focus"",""4"",""14978""
""fullscreenenter"",""5"",""24297""
","""event"",""trial"",""time""
""blur"",""4"",""14815""
","""event"",""trial"",""time""
""focus"",""4"",""14978""
","""event"",""trial"",""time""
""fullscreenenter"",""5"",""24297""
","
","347.20000000298023","","48","","","3000","1","","","images/earth.jpg","images/rocket2","images/rocket1","null","images/rocket2","","1","real","null","2","","",""
"d3-animate-choice","166","872710","0.0-76.0-1.10","2606","5041","18","Female","true","false","false","false","""event"",""trial"",""time""
""blur"",""4"",""14815""
""focus"",""4"",""14978""
""fullscreenenter"",""5"",""24297""
","""event"",""trial"",""time""
""blur"",""4"",""14815""
","""event"",""trial"",""time""
""focus"",""4"",""14978""
","""event"",""trial"",""time""
""fullscreenenter"",""5"",""24297""
","
","859.5","","49","","","3000","1","","","images/purpleplanet.jpg","images/alien4","images/alien3","images/rocket2","images/alien3","images/t.png","2","real","false","1","rare","1","2022-12-07 23:50:22.145"
"two-step-fixation","167","873716","0.0-76.0-2.10","2606","5041","18","Female","true","false","false","false","""event"",""trial"",""time""
""blur"",""4"",""14815""
""focus"",""4"",""14978""
""fullscreenenter"",""5"",""24297""
","""event"",""trial"",""time""
""blur"",""4"",""14815""
","""event"",""trial"",""time""
""focus"",""4"",""14978""
","""event"",""trial"",""time""
""fullscreenenter"",""5"",""24297""
","
","","images/earth.jpg","","","","","","","","","","","","","","fixation","","","","","",""
"d3-animate-choice","168","876358","0.0-76.0-0.11","2606","5041","18","Female","true","false","false","false","""event"",""trial"",""time""
""blur"",""4"",""14815""
""focus"",""4"",""14978""
""fullscreenenter"",""5"",""24297""
","""event"",""trial"",""time""
""blur"",""4"",""14815""
","""event"",""trial"",""time""
""focus"",""4"",""14978""
","""event"",""trial"",""time""
""fullscreenenter"",""5"",""24297""
","
","626.8000000119209","","48","","","3000","1","","","images/earth.jpg","images/rocket2","images/rocket1","null","images/rocket2","","1","real","null","2","","",""
"d3-animate-choice","169","878788","0.0-76.0-1.11","2606","5041","18","Female","true","false","false","false","""event"",""trial"",""time""
""blur"",""4"",""14815""
""focus"",""4"",""14978""
""fullscreenenter"",""5"",""24297""
","""event"",""trial"",""time""
""blur"",""4"",""14815""
","""event"",""trial"",""time""
""focus"",""4"",""14978""
","""event"",""trial"",""time""
""fullscreenenter"",""5"",""24297""
","
","424","","48","","","3000","1","","","images/purpleplanet.jpg","images/alien4","images/alien3","images/rocket2","images/alien4","images/t.png","2","real","false","2","rare","1","2022-12-07 23:50:28.223"
"two-step-fixation","170","879797","0.0-76.0-2.11","2606","5041","18","Female","true","false","false","false","""event"",""trial"",""time""
""blur"",""4"",""14815""
""focus"",""4"",""14978""
""fullscreenenter"",""5"",""24297""
","""event"",""trial"",""time""
""blur"",""4"",""14815""
","""event"",""trial"",""time""
""focus"",""4"",""14978""
","""event"",""trial"",""time""
""fullscreenenter"",""5"",""24297""
","
","","images/earth.jpg","","","","","","","","","","","","","","fixation","","","","","",""
"d3-animate-choice","171","882197","0.0-76.0-0.12","2606","5041","18","Female","true","false","false","false","""event"",""trial"",""time""
""blur"",""4"",""14815""
""focus"",""4"",""14978""
""fullscreenenter"",""5"",""24297""
","""event"",""trial"",""time""
""blur"",""4"",""14815""
","""event"",""trial"",""time""
""focus"",""4"",""14978""
","""event"",""trial"",""time""
""fullscreenenter"",""5"",""24297""
","
","392.70000000298023","","48","","","3000","1","","","images/earth.jpg","images/rocket2","images/rocket1","null","images/rocket2","","1","real","null","2","","",""
"d3-animate-choice","172","885230","0.0-76.0-1.12","2606","5041","18","Female","true","false","false","false","""event"",""trial"",""time""
""blur"",""4"",""14815""
""focus"",""4"",""14978""
""fullscreenenter"",""5"",""24297""
","""event"",""trial"",""time""
""blur"",""4"",""14815""
","""event"",""trial"",""time""
""focus"",""4"",""14978""
","""event"",""trial"",""time""
""fullscreenenter"",""5"",""24297""
","
","1019.2000000029802","","48","","","3000","1","","","images/redplanet1.jpg","images/alien2","images/alien1","images/rocket2","images/alien2","images/nothing.png","2","real","true","2","common","0","2022-12-07 23:50:34.666"
"two-step-fixation","173","886235","0.0-76.0-2.12","2606","5041","18","Female","true","false","false","false","""event"",""trial"",""time""
""blur"",""4"",""14815""
""focus"",""4"",""14978""
""fullscreenenter"",""5"",""24297""
","""event"",""trial"",""time""
""blur"",""4"",""14815""
","""event"",""trial"",""time""
""focus"",""4"",""14978""
","""event"",""trial"",""time""
""fullscreenenter"",""5"",""24297""
","
","","images/earth.jpg","","","","","","","","","","","","","","fixation","","","","","",""
"d3-animate-choice","174","888868","0.0-76.0-0.13","2606","5041","18","Female","true","false","false","false","""event"",""trial"",""time""
""blur"",""4"",""14815""
""focus"",""4"",""14978""
""fullscreenenter"",""5"",""24297""
","""event"",""trial"",""time""
""blur"",""4"",""14815""
","""event"",""trial"",""time""
""focus"",""4"",""14978""
","""event"",""trial"",""time""
""fullscreenenter"",""5"",""24297""
","
","622.5","","48","","","3000","1","","","images/earth.jpg","images/rocket2","images/rocket1","null","images/rocket2","","1","real","null","2","","",""
"d3-animate-choice","175","892430","0.0-76.0-1.13","2606","5041","18","Female","true","false","false","false","""event"",""trial"",""time""
""blur"",""4"",""14815""
""focus"",""4"",""14978""
""fullscreenenter"",""5"",""24297""
","""event"",""trial"",""time""
""blur"",""4"",""14815""
","""event"",""trial"",""time""
""focus"",""4"",""14978""
","""event"",""trial"",""time""
""fullscreenenter"",""5"",""24297""
","
","1549.7000000029802","","48","","","3000","1","","","images/redplanet1.jpg","images/alien2","images/alien1","images/rocket2","images/alien2","images/nothing.png","2","real","true","2","common","0","2022-12-07 23:50:41.865"
"two-step-fixation","176","893447","0.0-76.0-2.13","2606","5041","18","Female","true","false","false","false","""event"",""trial"",""time""
""blur"",""4"",""14815""
""focus"",""4"",""14978""
""fullscreenenter"",""5"",""24297""
","""event"",""trial"",""time""
""blur"",""4"",""14815""
","""event"",""trial"",""time""
""focus"",""4"",""14978""
","""event"",""trial"",""time""
""fullscreenenter"",""5"",""24297""
","
","","images/earth.jpg","","","","","","","","","","","","","","fixation","","","","","",""
"d3-animate-choice","177","896268","0.0-76.0-0.14","2606","5041","18","Female","true","false","false","false","""event"",""trial"",""time""
""blur"",""4"",""14815""
""focus"",""4"",""14978""
""fullscreenenter"",""5"",""24297""
","""event"",""trial"",""time""
""blur"",""4"",""14815""
","""event"",""trial"",""time""
""focus"",""4"",""14978""
","""event"",""trial"",""time""
""fullscreenenter"",""5"",""24297""
","
