"trial_type","trial_index","time_elapsed","internal_node_id","participant_id","subject_id","age","gender","rocket_sides","red_planet_first_rocket","red_display_order","purple_display_order","interactions","blur_events","focus_events","fullscreenenter_events","fullscreenexit_events","rt","stimulus","key_press","button_pressed","success","duration","valid_pressed","rts","keys","planet_text","right_text","left_text","center_text","chosen_text","reward_text","trial_stage","practice_trial","transition_type","choice","transition","reward","timestamp"
"pavlovia","0","2","0.0-0.0","709","602","16","Male","false","true","true","true","
","
","
","
","
","","","","","","","","","","","","","","","","","","","","","",""
"html-keyboard-response","1","46949","0.0-1.0","709","602","16","Male","false","true","true","true","
","
","
","
","
","46946","Welcome! Press the space bar to begin.","32","","","","","","","","","","","","","","","","","","",""
"audio-keyboard-response","2","50948","0.0-2.0","709","602","16","Male","false","true","true","true","
","
","
","
","
","3979","audio/beep_loop.wav","32","","","","","","","","","","","","","","","","","","",""
"audio-button-response","3","54873","0.0-3.0","709","602","16","Male","false","true","true","true","
","
","
","
","
","NaN","audio/fish.mp3","","1","","","","","","","","","","","","","","","","","",""
"audio-button-response","4","57416","0.0-4.0","709","602","16","Male","false","true","true","true","""event"",""trial"",""time""
""fullscreenenter"",""5"",""61604""
","
","
","""event"",""trial"",""time""
""fullscreenenter"",""5"",""61604""
","
","NaN","audio/tiger.mp3","","4","","","","","","","","","","","","","","","","","",""
"fullscreen","5","62585","0.0-5.0","709","602","16","Male","false","true","true","true","""event"",""trial"",""time""
""fullscreenenter"",""5"",""61604""
","
","
","""event"",""trial"",""time""
""fullscreenenter"",""5"",""61604""
","
","","","","","true","","","","","","","","","","","","","","","","",""
"d3-instructions","6","85195","0.0-6.0","709","602","16","Male","false","true","true","true","""event"",""trial"",""time""
""fullscreenenter"",""5"",""61604""
","
","
","""event"",""trial"",""time""
""fullscreenenter"",""5"",""61604""
","
","","","","","","","","","","","","","","","","","","","","","",""
"d3-instructions","7","93591","0.0-7.0","709","602","16","Male","false","true","true","true","""event"",""trial"",""time""
""fullscreenenter"",""5"",""61604""
","
","
","""event"",""trial"",""time""
""fullscreenenter"",""5"",""61604""
","
","","","","","","","","","","","","","","","","","","","","","",""
"d3-instructions","8","101422","0.0-8.0","709","602","16","Male","false","true","true","true","""event"",""trial"",""time""
""fullscreenenter"",""5"",""61604""
","
","
","""event"",""trial"",""time""
""fullscreenenter"",""5"",""61604""
","
","","","","","","","","","","","","","","","","","","","","","",""
"d3-instructions","9","113870","0.0-9.0","709","602","16","Male","false","true","true","true","""event"",""trial"",""time""
""fullscreenenter"",""5"",""61604""
","
","
","""event"",""trial"",""time""
""fullscreenenter"",""5"",""61604""
","
","","","","","","","","","","","","","","","","","","","","","",""
"d3-instructions","10","133640","0.0-10.0","709","602","16","Male","false","true","true","true","""event"",""trial"",""time""
""fullscreenenter"",""5"",""61604""
","
","
","""event"",""trial"",""time""
""fullscreenenter"",""5"",""61604""
","
","","","","","","","","","","","","","","","","","","","","","",""
"d3-animate-choice","11","136977","0.0-11.0","709","602","16","Male","false","true","true","true","""event"",""trial"",""time""
""fullscreenenter"",""5"",""61604""
","
","
","""event"",""trial"",""time""
""fullscreenenter"",""5"",""61604""
","
","1313.7999999523163","","49","","","3000","1","3200.7999999523163","48","images/tutgreenplanet.jpg","images/tutalien1","images/tutalien2","null","images/tutalien2","","NA","practice","null","","","",""
"d3-animate-choice","12","139937","0.0-12.0","709","602","16","Male","false","true","true","true","""event"",""trial"",""time""
""fullscreenenter"",""5"",""61604""
","
","
","""event"",""trial"",""time""
""fullscreenenter"",""5"",""61604""
","
","945.9000000953674","","48","","","3000","1","","","images/tutgreenplanet.jpg","images/tutalien1","images/tutalien2","null","images/tutalien1","","NA","practice","null","","","",""
"d3-animate-choice","13","142276","0.0-13.0","709","602","16","Male","false","true","true","true","""event"",""trial"",""time""
""fullscreenenter"",""5"",""61604""
","
","
","""event"",""trial"",""time""
""fullscreenenter"",""5"",""61604""
","
","320.10000014305115","","49","","","3000","1","","","images/tutgreenplanet.jpg","images/tutalien1","images/tutalien2","null","images/tutalien2","","NA","practice","null","","","",""
"d3-animate-choice","14","144753","0.0-14.0","709","602","16","Male","false","true","true","true","""event"",""trial"",""time""
""fullscreenenter"",""5"",""61604""
","
","
","""event"",""trial"",""time""
""fullscreenenter"",""5"",""61604""
","
","465.5","","48","","","3000","1","","","images/tutgreenplanet.jpg","images/tutalien1","images/tutalien2","null","images/tutalien1","","NA","practice","null","","","",""
"d3-instructions","15","151552","0.0-15.0","709","602","16","Male","false","true","true","true","""event"",""trial"",""time""
""fullscreenenter"",""5"",""61604""
","
","
","""event"",""trial"",""time""
""fullscreenenter"",""5"",""61604""
","
","","","","","","","","","","","","","","","","","","","","","",""
"d3-instructions","16","158241","0.0-16.0","709","602","16","Male","false","true","true","true","""event"",""trial"",""time""
""fullscreenenter"",""5"",""61604""
","
","
","""event"",""trial"",""time""
""fullscreenenter"",""5"",""61604""
","
","","","","","","","","","","","","","","","","","","","","","",""
"d3-instructions","17","168709","0.0-17.0","709","602","16","Male","false","true","true","true","""event"",""trial"",""time""
""fullscreenenter"",""5"",""61604""
","
","
","""event"",""trial"",""time""
""fullscreenenter"",""5"",""61604""
","
","","","","","","","","","","","","","","","","","","","","","",""
"d3-instructions","18","182232","0.0-18.0","709","602","16","Male","false","true","true","true","""event"",""trial"",""time""
""fullscreenenter"",""5"",""61604""
","
","
","""event"",""trial"",""time""
""fullscreenenter"",""5"",""61604""
","
","","","","","","","","","","","","","","","","","","","","","",""
"d3-instructions","19","196294","0.0-19.0","709","602","16","Male","false","true","true","true","""event"",""trial"",""time""
""fullscreenenter"",""5"",""61604""
","
","
","""event"",""trial"",""time""
""fullscreenenter"",""5"",""61604""
","
","","","","","","","","","","","","","","","","","","","","","",""
"d3-animate-choice","20","198661","0.0-20.0","709","602","16","Male","false","true","true","true","""event"",""trial"",""time""
""fullscreenenter"",""5"",""61604""
","
","
","""event"",""trial"",""time""
""fullscreenenter"",""5"",""61604""
","
","361.7000000476837","","49","","","3000","1","","","images/tutyellowplanet.jpg","null","images/tutalien3","null","images/tutalien3","images/t.png","NA","practice","null","","","",""
"d3-animate-choice","21","201124","0.0-21.0","709","602","16","Male","false","true","true","true","""event"",""trial"",""time""
""fullscreenenter"",""5"",""61604""
","
","
","""event"",""trial"",""time""
""fullscreenenter"",""5"",""61604""
","
","453.5","","49","","","3000","1","","","images/tutyellowplanet.jpg","null","images/tutalien3","null","images/tutalien3","images/t.png","NA","practice","null","","","",""
"d3-animate-choice","22","203367","0.0-22.0","709","602","16","Male","false","true","true","true","""event"",""trial"",""time""
""fullscreenenter"",""5"",""61604""
","
","
","""event"",""trial"",""time""
""fullscreenenter"",""5"",""61604""
","
","233.10000014305115","","49","","","3000","1","","","images/tutyellowplanet.jpg","null","images/tutalien3","null","images/tutalien3","images/t.png","NA","practice","null","","","",""
"d3-animate-choice","23","205608","0.0-23.0","709","602","16","Male","false","true","true","true","""event"",""trial"",""time""
""fullscreenenter"",""5"",""61604""
","
","
","""event"",""trial"",""time""
""fullscreenenter"",""5"",""61604""
","
","237.5","","49","","","3000","1","","","images/tutyellowplanet.jpg","null","images/tutalien3","null","images/tutalien3","images/t.png","NA","practice","null","","","",""
"d3-animate-choice","24","207896","0.0-24.0","709","602","16","Male","false","true","true","true","""event"",""trial"",""time""
""fullscreenenter"",""5"",""61604""
","
","
","""event"",""trial"",""time""
""fullscreenenter"",""5"",""61604""
","
","268.90000009536743","","49","","","3000","1","1994.1000001430511","49","images/tutyellowplanet.jpg","null","images/tutalien3","null","images/tutalien3","images/t.png","NA","practice","null","","","",""
"d3-animate-choice","25","210112","0.0-25.0","709","602","16","Male","false","true","true","true","""event"",""trial"",""time""
""fullscreenenter"",""5"",""61604""
","
","
","""event"",""trial"",""time""
""fullscreenenter"",""5"",""61604""
","
","205.59999990463257","","49","","","3000","1","","","images/tutyellowplanet.jpg","null","images/tutalien3","null","images/tutalien3","images/t.png","NA","practice","null","","","",""
"d3-animate-choice","26","212541","0.0-26.0","709","602","16","Male","false","true","true","true","""event"",""trial"",""time""
""fullscreenenter"",""5"",""61604""
","
","
","""event"",""trial"",""time""
""fullscreenenter"",""5"",""61604""
","
","425.39999985694885","","49","","","3000","1","","","images/tutyellowplanet.jpg","null","images/tutalien3","null","images/tutalien3","images/t.png","NA","practice","null","","","",""
"d3-animate-choice","27","214895","0.0-27.0","709","602","16","Male","false","true","true","true","""event"",""trial"",""time""
""fullscreenenter"",""5"",""61604""
","
","
","""event"",""trial"",""time""
""fullscreenenter"",""5"",""61604""
","
","336.7999999523163","","49","","","3000","1","","","images/tutyellowplanet.jpg","null","images/tutalien3","null","images/tutalien3","images/t.png","NA","practice","null","","","",""
"d3-animate-choice","28","217092","0.0-28.0","709","602","16","Male","false","true","true","true","""event"",""trial"",""time""
""fullscreenenter"",""5"",""61604""
","
","
","""event"",""trial"",""time""
""fullscreenenter"",""5"",""61604""
","
","181","","49","","","3000","1","","","images/tutyellowplanet.jpg","null","images/tutalien3","null","images/tutalien3","images/t.png","NA","practice","null","","","",""
"d3-animate-choice","29","219287","0.0-29.0","709","602","16","Male","false","true","true","true","""event"",""trial"",""time""
""fullscreenenter"",""5"",""61604""
","
","
","""event"",""trial"",""time""
""fullscreenenter"",""5"",""61604""
","
","191.29999995231628","","49","","","3000","1","","","images/tutyellowplanet.jpg","null","images/tutalien3","null","images/tutalien3","images/nothing.png","NA","practice","null","","","",""
"d3-instructions","30","226786","0.0-30.0","709","602","16","Male","false","true","true","true","""event"",""trial"",""time""
""fullscreenenter"",""5"",""61604""
","
","
","""event"",""trial"",""time""
""fullscreenenter"",""5"",""61604""
","
","","","","","","","","","","","","","","","","","","","","","",""
"d3-instructions","31","238599","0.0-31.0","709","602","16","Male","false","true","true","true","""event"",""trial"",""time""
""fullscreenenter"",""5"",""61604""
","
","
","""event"",""trial"",""time""
""fullscreenenter"",""5"",""61604""
","
","","","","","","","","","","","","","","","","","","","","","",""
"d3-instructions","32","246447","0.0-32.0","709","602","16","Male","false","true","true","true","""event"",""trial"",""time""
""fullscreenenter"",""5"",""61604""
","
","
","""event"",""trial"",""time""
""fullscreenenter"",""5"",""61604""
","
","","","","","","","","","","","","","","","","","","","","","",""
"d3-instructions","33","257970","0.0-33.0","709","602","16","Male","false","true","true","true","""event"",""trial"",""time""
""fullscreenenter"",""5"",""61604""
","
","
","""event"",""trial"",""time""
""fullscreenenter"",""5"",""61604""
","
","","","","","","","","","","","","","","","","","","","","","",""
"d3-animate-choice","34","260654","0.0-34.0","709","602","16","Male","false","true","true","true","""event"",""trial"",""time""
""fullscreenenter"",""5"",""61604""
","
","
","""event"",""trial"",""time""
""fullscreenenter"",""5"",""61604""
","
","679.6000001430511","","49","","","3000","1","","","images/tutgreenplanet.jpg","images/tutalien1","images/tutalien2","null","images/tutalien2","images/t.png","NA","practice","null","","","",""
"d3-animate-choice","35","262857","0.0-35.0","709","602","16","Male","false","true","true","true","""event"",""trial"",""time""
""fullscreenenter"",""5"",""61604""
","
","
","""event"",""trial"",""time""
""fullscreenenter"",""5"",""61604""
","
","197.29999995231628","","49","","","3000","1","","","images/tutgreenplanet.jpg","images/tutalien1","images/tutalien2","null","images/tutalien2","images/t.png","NA","practice","null","","","",""
"d3-animate-choice","36","265134","0.0-36.0","709","602","16","Male","false","true","true","true","""event"",""trial"",""time""
""fullscreenenter"",""5"",""61604""
","
","
","""event"",""trial"",""time""
""fullscreenenter"",""5"",""61604""
","
","273.10000014305115","","48","","","3000","1","","","images/tutgreenplanet.jpg","images/tutalien1","images/tutalien2","null","images/tutalien1","images/t.png","NA","practice","null","","","",""
"d3-animate-choice","37","267302","0.0-37.0","709","602","16","Male","false","true","true","true","""event"",""trial"",""time""
""fullscreenenter"",""5"",""61604""
","
","
","""event"",""trial"",""time""
""fullscreenenter"",""5"",""61604""
","
","153.29999995231628","","48","","","3000","1","","","images/tutgreenplanet.jpg","images/tutalien1","images/tutalien2","null","images/tutalien1","images/nothing.png","NA","practice","null","","","",""
"d3-animate-choice","38","269608","0.0-38.0","709","602","16","Male","false","true","true","true","""event"",""trial"",""time""
""fullscreenenter"",""5"",""61604""
","
","
","""event"",""trial"",""time""
""fullscreenenter"",""5"",""61604""
","
","291.5","","48","","","3000","1","","","images/tutgreenplanet.jpg","images/tutalien1","images/tutalien2","null","images/tutalien1","images/t.png","NA","practice","null","","","",""
"d3-animate-choice","39","271771","0.0-39.0","709","602","16","Male","false","true","true","true","""event"",""trial"",""time""
""fullscreenenter"",""5"",""61604""
","
","
","""event"",""trial"",""time""
""fullscreenenter"",""5"",""61604""
","
","159","","49","","","3000","1","","","images/tutgreenplanet.jpg","images/tutalien1","images/tutalien2","null","images/tutalien2","images/t.png","NA","practice","null","","","",""
"d3-animate-choice","40","273962","0.0-40.0","709","602","16","Male","false","true","true","true","""event"",""trial"",""time""
""fullscreenenter"",""5"",""61604""
","
","
","""event"",""trial"",""time""
""fullscreenenter"",""5"",""61604""
","
","180.20000004768372","","49","","","3000","1","","","images/tutgreenplanet.jpg","images/tutalien1","images/tutalien2","null","images/tutalien2","images/t.png","NA","practice","null","","","",""
"d3-animate-choice","41","276083","0.0-41.0","709","602","16","Male","false","true","true","true","""event"",""trial"",""time""
""fullscreenenter"",""5"",""61604""
","
","
","""event"",""trial"",""time""
""fullscreenenter"",""5"",""61604""
","
","104.29999995231628","","49","","","3000","1","","","images/tutgreenplanet.jpg","images/tutalien1","images/tutalien2","null","images/tutalien2","images/t.png","NA","practice","null","","","",""
"d3-animate-choice","42","278189","0.0-42.0","709","602","16","Male","false","true","true","true","""event"",""trial"",""time""
""fullscreenenter"",""5"",""61604""
","
","
","""event"",""trial"",""time""
""fullscreenenter"",""5"",""61604""
","
","101.29999995231628","","48","","","3000","1","2101.199999809265","49","images/tutgreenplanet.jpg","images/tutalien1","images/tutalien2","null","images/tutalien1","images/nothing.png","NA","practice","null","","","",""
"d3-animate-choice","43","280600","0.0-43.0","709","602","16","Male","false","true","true","true","""event"",""trial"",""time""
""fullscreenenter"",""5"",""61604""
","
","
","""event"",""trial"",""time""
""fullscreenenter"",""5"",""61604""
","
","406.5","","49","","","3000","1","","","images/tutgreenplanet.jpg","images/tutalien1","images/tutalien2","null","images/tutalien2","images/t.png","NA","practice","null","","","",""
"d3-instructions","44","293781","0.0-44.0","709","602","16","Male","false","true","true","true","""event"",""trial"",""time""
""fullscreenenter"",""5"",""61604""
","
","
","""event"",""trial"",""time""
""fullscreenenter"",""5"",""61604""
","
","","","","","","","","","","","","","","","","","","","","","",""
"d3-instructions","45","300455","0.0-45.0","709","602","16","Male","false","true","true","true","""event"",""trial"",""time""
""fullscreenenter"",""5"",""61604""
","
","
","""event"",""trial"",""time""
""fullscreenenter"",""5"",""61604""
","
","","","","","","","","","","","","","","","","","","","","","",""
"d3-instructions","46","306021","0.0-46.0","709","602","16","Male","false","true","true","true","""event"",""trial"",""time""
""fullscreenenter"",""5"",""61604""
","
","
","""event"",""trial"",""time""
""fullscreenenter"",""5"",""61604""
","
","","","","","","","","","","","","","","","","","","","","","",""
"d3-instructions","47","322947","0.0-47.0","709","602","16","Male","false","true","true","true","""event"",""trial"",""time""
""fullscreenenter"",""5"",""61604""
","
","
","""event"",""trial"",""time""
""fullscreenenter"",""5"",""61604""
","
","","","","","","","","","","","","","","","","","","","","","",""
"d3-instructions","48","329496","0.0-48.0","709","602","16","Male","false","true","true","true","""event"",""trial"",""time""
""fullscreenenter"",""5"",""61604""
","
","
","""event"",""trial"",""time""
""fullscreenenter"",""5"",""61604""
","
","","","","","","","","","","","","","","","","","","","","","",""
"d3-instructions","49","341575","0.0-49.0","709","602","16","Male","false","true","true","true","""event"",""trial"",""time""
""fullscreenenter"",""5"",""61604""
","
","
","""event"",""trial"",""time""
""fullscreenenter"",""5"",""61604""
","
","","","","","","","","","","","","","","","","","","","","","",""
"d3-instructions","50","350813","0.0-50.0","709","602","16","Male","false","true","true","true","""event"",""trial"",""time""
""fullscreenenter"",""5"",""61604""
","
","
","""event"",""trial"",""time""
""fullscreenenter"",""5"",""61604""
","
","","","","","","","","","","","","","","","","","","","","","",""
"d3-instructions","51","353208","0.0-51.0","709","602","16","Male","false","true","true","true","""event"",""trial"",""time""
""fullscreenenter"",""5"",""61604""
","
","
","""event"",""trial"",""time""
""fullscreenenter"",""5"",""61604""
","
","","","","","","","","","","","","","","","","","","","","","",""
"d3-instructions","52","355460","0.0-52.0","709","602","16","Male","false","true","true","true","""event"",""trial"",""time""
""fullscreenenter"",""5"",""61604""
","
","
","""event"",""trial"",""time""
""fullscreenenter"",""5"",""61604""
","
","","","","","","","","","","","","","","","","","","","","","",""
"d3-instructions","53","367906","0.0-53.0","709","602","16","Male","false","true","true","true","""event"",""trial"",""time""
""fullscreenenter"",""5"",""61604""
","
","
","""event"",""trial"",""time""
""fullscreenenter"",""5"",""61604""
","
","","","","","","","","","","","","","","","","","","","","","",""
"d3-instructions","54","392134","0.0-54.0","709","602","16","Male","false","true","true","true","""event"",""trial"",""time""
""fullscreenenter"",""5"",""61604""
","
","
","""event"",""trial"",""time""
""fullscreenenter"",""5"",""61604""
","
","","","","","","","","","","","","","","","","","","","","","",""
"d3-instructions","55","404749","0.0-55.0","709","602","16","Male","false","true","true","true","""event"",""trial"",""time""
""fullscreenenter"",""5"",""61604""
","
","
","""event"",""trial"",""time""
""fullscreenenter"",""5"",""61604""
","
","","","","","","","","","","","","","","","","","","","","","",""
"d3-instructions","56","413226","0.0-56.0","709","602","16","Male","false","true","true","true","""event"",""trial"",""time""
""fullscreenenter"",""5"",""61604""
","
","
","""event"",""trial"",""time""
""fullscreenenter"",""5"",""61604""
","
","","","","","","","","","","","","","","","","","","","","","",""
"d3-instructions","57","423132","0.0-57.0","709","602","16","Male","false","true","true","true","""event"",""trial"",""time""
""fullscreenenter"",""5"",""61604""
","
","
","""event"",""trial"",""time""
""fullscreenenter"",""5"",""61604""
","
","","","","","","","","","","","","","","","","","","","","","",""
"d3-instructions","58","433883","0.0-58.0","709","602","16","Male","false","true","true","true","""event"",""trial"",""time""
""fullscreenenter"",""5"",""61604""
","
","
","""event"",""trial"",""time""
""fullscreenenter"",""5"",""61604""
","
","","","","","","","","","","","","","","","","","","","","","",""
"d3-instructions","59","438802","0.0-59.0","709","602","16","Male","false","true","true","true","""event"",""trial"",""time""
""fullscreenenter"",""5"",""61604""
","
","
","""event"",""trial"",""time""
""fullscreenenter"",""5"",""61604""
","
","","","","","","","","","","","","","","","","","","","","","",""
"d3-instructions","60","445462","0.0-60.0","709","602","16","Male","false","true","true","true","""event"",""trial"",""time""
""fullscreenenter"",""5"",""61604""
","
","
","""event"",""trial"",""time""
""fullscreenenter"",""5"",""61604""
","
","","","","","","","","","","","","","","","","","","","","","",""
"d3-animate-choice","61","448707","0.0-61.0-0.0","709","602","16","Male","false","true","true","true","""event"",""trial"",""time""
""fullscreenenter"",""5"",""61604""
","
","
","""event"",""trial"",""time""
""fullscreenenter"",""5"",""61604""
","
","1232.4000000953674","","49","","","3000","1","","","images/earth.jpg","images/tutrocket2","images/tutrocket1","null","images/tutrocket1","","1","practice","null","1","","",""
"d3-animate-choice","62","451348","0.0-61.0-1.0","709","602","16","Male","false","true","true","true","""event"",""trial"",""time""
""fullscreenenter"",""5"",""61604""
","
","
","""event"",""trial"",""time""
""fullscreenenter"",""5"",""61604""
","
","622.5999999046326","","48","","","3000","1","","","images/tutgreenplanet.jpg","images/tutalien2","images/tutalien1","images/tutrocket1","images/tutalien2","images/t.png","2","practice","true","2","common","1","2022-02-04 01:29:51.360"
"two-step-fixation","63","452368","0.0-61.0-2.0","709","602","16","Male","false","true","true","true","""event"",""trial"",""time""
""fullscreenenter"",""5"",""61604""
","
","
","""event"",""trial"",""time""
""fullscreenenter"",""5"",""61604""
","
","","images/earth.jpg","","","","","","","","","","","","","","fixation","","","","","",""
"d3-animate-choice","64","455231","0.0-61.0-0.1","709","602","16","Male","false","true","true","true","""event"",""trial"",""time""
""fullscreenenter"",""5"",""61604""
","
","
","""event"",""trial"",""time""
""fullscreenenter"",""5"",""61604""
","
","859.7999999523163","","48","","","3000","1","","","images/earth.jpg","images/tutrocket2","images/tutrocket1","null","images/tutrocket2","","1","practice","null","2","","",""
"d3-animate-choice","65","457688","0.0-61.0-1.1","709","602","16","Male","false","true","true","true","""event"",""trial"",""time""
""fullscreenenter"",""5"",""61604""
","
","
","""event"",""trial"",""time""
""fullscreenenter"",""5"",""61604""
","
","435.2999999523163","","49","","","3000","1","","","images/tutgreenplanet.jpg","images/tutalien2","images/tutalien1","images/tutrocket2","images/tutalien1","images/nothing.png","2","practice","false","1","rare","0","2022-02-04 01:29:57.700"
"two-step-fixation","66","458693","0.0-61.0-2.1","709","602","16","Male","false","true","true","true","""event"",""trial"",""time""
""fullscreenenter"",""5"",""61604""
","
","
","""event"",""trial"",""time""
""fullscreenenter"",""5"",""61604""
","
","","images/earth.jpg","","","","","","","","","","","","","","fixation","","","","","",""
"d3-animate-choice","67","460990","0.0-61.0-0.2","709","602","16","Male","false","true","true","true","""event"",""trial"",""time""
""fullscreenenter"",""5"",""61604""
","
","
","""event"",""trial"",""time""
""fullscreenenter"",""5"",""61604""
","
","292.7999999523163","","49","","","3000","1","","","images/earth.jpg","images/tutrocket2","images/tutrocket1","null","images/tutrocket1","","1","practice","null","1","","",""
"d3-animate-choice","68","463328","0.0-61.0-1.2","709","602","16","Male","false","true","true","true","""event"",""trial"",""time""
""fullscreenenter"",""5"",""61604""
","
","
","""event"",""trial"",""time""
""fullscreenenter"",""5"",""61604""
","
","332","","48","","","3000","1","","","images/tutgreenplanet.jpg","images/tutalien2","images/tutalien1","images/tutrocket1","images/tutalien2","images/nothing.png","2","practice","true","2","common","0","2022-02-04 01:30:03.340"
"two-step-fixation","69","464347","0.0-61.0-2.2","709","602","16","Male","false","true","true","true","""event"",""trial"",""time""
""fullscreenenter"",""5"",""61604""
","
","
","""event"",""trial"",""time""
""fullscreenenter"",""5"",""61604""
","
","","images/earth.jpg","","","","","","","","","","","","","","fixation","","","","","",""
"d3-animate-choice","70","467038","0.0-61.0-0.3","709","602","16","Male","false","true","true","true","""event"",""trial"",""time""
""fullscreenenter"",""5"",""61604""
","
","
","""event"",""trial"",""time""
""fullscreenenter"",""5"",""61604""
","
","664","","48","","","3000","1","","","images/earth.jpg","images/tutrocket2","images/tutrocket1","null","images/tutrocket2","","1","practice","null","2","","",""
"d3-animate-choice","71","469269","0.0-61.0-1.3","709","602","16","Male","false","true","true","true","""event"",""trial"",""time""
""fullscreenenter"",""5"",""61604""
","
","
","""event"",""trial"",""time""
""fullscreenenter"",""5"",""61604""
","
","225.39999985694885","","48","","","3000","1","","","images/tutyellowplanet.jpg","images/tutalien4","images/tutalien3","images/tutrocket2","images/tutalien4","images/nothing.png","2","practice","true","2","common","0","2022-02-04 01:30:09.281"
"two-step-fixation","72","470275","0.0-61.0-2.3","709","602","16","Male","false","true","true","true","""event"",""trial"",""time""
""fullscreenenter"",""5"",""61604""
","
","
","""event"",""trial"",""time""
""fullscreenenter"",""5"",""61604""
","
","","images/earth.jpg","","","","","","","","","","","","","","fixation","","","","","",""
"d3-animate-choice","73","472498","0.0-61.0-0.4","709","602","16","Male","false","true","true","true","""event"",""trial"",""time""
""fullscreenenter"",""5"",""61604""
","
","
","""event"",""trial"",""time""
""fullscreenenter"",""5"",""61604""
","
","202.70000004768372","","48","","","3000","1","1941,2173.9000000953674","49,49","images/earth.jpg","images/tutrocket2","images/tutrocket1","null","images/tutrocket2","","1","practice","null","2","","",""
"d3-animate-choice","74","474680","0.0-61.0-1.4","709","602","16","Male","false","true","true","true","""event"",""trial"",""time""
""fullscreenenter"",""5"",""61604""
","
","
","""event"",""trial"",""time""
""fullscreenenter"",""5"",""61604""
","
","176.60000014305115","","49","","","3000","1","376.30000019073486","49","images/tutyellowplanet.jpg","images/tutalien4","images/tutalien3","images/tutrocket2","images/tutalien3","images/nothing.png","2","practice","true","1","common","0","2022-02-04 01:30:14.692"
"two-step-fixation","75","475686","0.0-61.0-2.4","709","602","16","Male","false","true","true","true","""event"",""trial"",""time""
""fullscreenenter"",""5"",""61604""
","
","
","""event"",""trial"",""time""
""fullscreenenter"",""5"",""61604""
","
","","images/earth.jpg","","","","","","","","","","","","","","fixation","","","","","",""
"d3-animate-choice","76","477757","0.0-61.0-0.5","709","602","16","Male","false","true","true","true","""event"",""trial"",""time""
""fullscreenenter"",""5"",""61604""
","
","
","""event"",""trial"",""time""
""fullscreenenter"",""5"",""61604""
","
","65.80000019073486","","49","","","3000","1","","","images/earth.jpg","images/tutrocket2","images/tutrocket1","null","images/tutrocket1","","1","practice","null","1","","",""
"d3-animate-choice","77","480048","0.0-61.0-1.5","709","602","16","Male","false","true","true","true","""event"",""trial"",""time""
""fullscreenenter"",""5"",""61604""
","
","
","""event"",""trial"",""time""
""fullscreenenter"",""5"",""61604""
","
","287.89999985694885","","49","","","3000","1","","","images/tutgreenplanet.jpg","images/tutalien2","images/tutalien1","images/tutrocket1","images/tutalien1","images/nothing.png","2","practice","true","1","common","0","2022-02-04 01:30:20.060"
"two-step-fixation","78","481054","0.0-61.0-2.5","709","602","16","Male","false","true","true","true","""event"",""trial"",""time""
""fullscreenenter"",""5"",""61604""
","
","
","""event"",""trial"",""time""
""fullscreenenter"",""5"",""61604""
","
","","images/earth.jpg","","","","","","","","","","","","","","fixation","","","","","",""
"d3-animate-choice","79","483593","0.0-61.0-0.6","709","602","16","Male","false","true","true","true","""event"",""trial"",""time""
""fullscreenenter"",""5"",""61604""
","
","
","""event"",""trial"",""time""
""fullscreenenter"",""5"",""61604""
","
","532.3999998569489","","49","","","3000","1","","","images/earth.jpg","images/tutrocket2","images/tutrocket1","null","images/tutrocket1","","1","practice","null","1","","",""
"d3-animate-choice","80","485924","0.0-61.0-1.6","709","602","16","Male","false","true","true","true","""event"",""trial"",""time""
""fullscreenenter"",""5"",""61604""
","
","
","""event"",""trial"",""time""
""fullscreenenter"",""5"",""61604""
","
","325.5","","48","","","3000","1","","","images/tutgreenplanet.jpg","images/tutalien2","images/tutalien1","images/tutrocket1","images/tutalien2","images/nothing.png","2","practice","true","2","common","0","2022-02-04 01:30:25.936"
"two-step-fixation","81","486929","0.0-61.0-2.6","709","602","16","Male","false","true","true","true","""event"",""trial"",""time""
""fullscreenenter"",""5"",""61604""
","
","
","""event"",""trial"",""time""
""fullscreenenter"",""5"",""61604""
","
","","images/earth.jpg","","","","","","","","","","","","","","fixation","","","","","",""
"d3-animate-choice","82","489059","0.0-61.0-0.7","709","602","16","Male","false","true","true","true","""event"",""trial"",""time""
""fullscreenenter"",""5"",""61604""
","
","
","""event"",""trial"",""time""
""fullscreenenter"",""5"",""61604""
","
","124.10000014305115","","49","","","3000","1","","","images/earth.jpg","images/tutrocket2","images/tutrocket1","null","images/tutrocket1","","1","practice","null","1","","",""
"d3-animate-choice","83","491296","0.0-61.0-1.7","709","602","16","Male","false","true","true","true","""event"",""trial"",""time""
""fullscreenenter"",""5"",""61604""
","
","
","""event"",""trial"",""time""
""fullscreenenter"",""5"",""61604""
","
","230.29999995231628","","49","","","3000","1","","","images/tutgreenplanet.jpg","images/tutalien2","images/tutalien1","images/tutrocket1","images/tutalien1","images/nothing.png","2","practice","true","1","common","0","2022-02-04 01:30:31.308"
"two-step-fixation","84","492301","0.0-61.0-2.7","709","602","16","Male","false","true","true","true","""event"",""trial"",""time""
""fullscreenenter"",""5"",""61604""
","
","
","""event"",""trial"",""time""
""fullscreenenter"",""5"",""61604""
","
","","images/earth.jpg","","","","","","","","","","","","","","fixation","","","","","",""
"d3-animate-choice","85","494307","0.0-61.0-0.8","709","602","16","Male","false","true","true","true","""event"",""trial"",""time""
""fullscreenenter"",""5"",""61604""
","
","
","""event"",""trial"",""time""
""fullscreenenter"",""5"",""61604""
","
","0.5","","48","","","3000","1","","","images/earth.jpg","images/tutrocket2","images/tutrocket1","null","images/tutrocket2","","1","practice","null","2","","",""
"d3-animate-choice","86","496673","0.0-61.0-1.8","709","602","16","Male","false","true","true","true","""event"",""trial"",""time""
""fullscreenenter"",""5"",""61604""
","
","
","""event"",""trial"",""time""
""fullscreenenter"",""5"",""61604""
","
","360.80000019073486","","49","","","3000","1","","","images/tutyellowplanet.jpg","images/tutalien4","images/tutalien3","images/tutrocket2","images/tutalien3","images/nothing.png","2","practice","true","1","common","0","2022-02-04 01:30:36.685"
"two-step-fixation","87","497679","0.0-61.0-2.8","709","602","16","Male","false","true","true","true","""event"",""trial"",""time""
""fullscreenenter"",""5"",""61604""
","
","
","""event"",""trial"",""time""
""fullscreenenter"",""5"",""61604""
","
","","images/earth.jpg","","","","","","","","","","","","","","fixation","","","","","",""
"d3-animate-choice","88","499839","0.0-61.0-0.9","709","602","16","Male","false","true","true","true","""event"",""trial"",""time""
""fullscreenenter"",""5"",""61604""
","
","
","""event"",""trial"",""time""
""fullscreenenter"",""5"",""61604""
","
","154.79999995231628","","48","","","3000","1","2050.899999856949","48","images/earth.jpg","images/tutrocket2","images/tutrocket1","null","images/tutrocket2","","1","practice","null","2","","",""
"d3-animate-choice","89","501967","0.0-61.0-1.9","709","602","16","Male","false","true","true","true","""event"",""trial"",""time""
""fullscreenenter"",""5"",""61604""
","
","
","""event"",""trial"",""time""
""fullscreenenter"",""5"",""61604""
","
","123.79999995231628","","48","","","3000","1","","","images/tutyellowplanet.jpg","images/tutalien4","images/tutalien3","images/tutrocket2","images/tutalien4","images/t.png","2","practice","true","2","common","1","2022-02-04 01:30:41.979"
"two-step-fixation","90","502972","0.0-61.0-2.9","709","602","16","Male","false","true","true","true","""event"",""trial"",""time""
""fullscreenenter"",""5"",""61604""
","
","
","""event"",""trial"",""time""
""fullscreenenter"",""5"",""61604""
","
","","images/earth.jpg","","","","","","","","","","","","","","fixation","","","","","",""
"d3-animate-choice","91","505249","0.0-61.0-0.10","709","602","16","Male","false","true","true","true","""event"",""trial"",""time""
""fullscreenenter"",""5"",""61604""
","
","
","""event"",""trial"",""time""
""fullscreenenter"",""5"",""61604""
","
","271.7000000476837","","48","","","3000","1","","","images/earth.jpg","images/tutrocket2","images/tutrocket1","null","images/tutrocket2","","1","practice","null","2","","",""
"d3-animate-choice","92","507475","0.0-61.0-1.10","709","602","16","Male","false","true","true","true","""event"",""trial"",""time""
""fullscreenenter"",""5"",""61604""
","
","
","""event"",""trial"",""time""
""fullscreenenter"",""5"",""61604""
","
","220","","49","","","3000","1","","","images/tutyellowplanet.jpg","images/tutalien4","images/tutalien3","images/tutrocket2","images/tutalien3","images/nothing.png","2","practice","true","1","common","0","2022-02-04 01:30:47.487"
"two-step-fixation","93","508481","0.0-61.0-2.10","709","602","16","Male","false","true","true","true","""event"",""trial"",""time""
""fullscreenenter"",""5"",""61604""
","
","
","""event"",""trial"",""time""
""fullscreenenter"",""5"",""61604""
","
","","images/earth.jpg","","","","","","","","","","","","","","fixation","","","","","",""
"d3-animate-choice","94","510683","0.0-61.0-0.11","709","602","16","Male","false","true","true","true","""event"",""trial"",""time""
""fullscreenenter"",""5"",""61604""
","
","
","""event"",""trial"",""time""
""fullscreenenter"",""5"",""61604""
","
","195.40000009536743","","48","","","3000","1","","","images/earth.jpg","images/tutrocket2","images/tutrocket1","null","images/tutrocket2","","1","practice","null","2","","",""
"d3-animate-choice","95","512812","0.0-61.0-1.11","709","602","16","Male","false","true","true","true","""event"",""trial"",""time""
""fullscreenenter"",""5"",""61604""
","
","
","""event"",""trial"",""time""
""fullscreenenter"",""5"",""61604""
","
","124","","48","","","3000","1","","","images/tutyellowplanet.jpg","images/tutalien4","images/tutalien3","images/tutrocket2","images/tutalien4","images/nothing.png","2","practice","true","2","common","0","2022-02-04 01:30:52.824"
"two-step-fixation","96","513814","0.0-61.0-2.11","709","602","16","Male","false","true","true","true","""event"",""trial"",""time""
""fullscreenenter"",""5"",""61604""
","
","
","""event"",""trial"",""time""
""fullscreenenter"",""5"",""61604""
","
","","images/earth.jpg","","","","","","","","","","","","","","fixation","","","","","",""
"d3-animate-choice","97","515982","0.0-61.0-0.12","709","602","16","Male","false","true","true","true","""event"",""trial"",""time""
""fullscreenenter"",""5"",""61604""
","
","
","""event"",""trial"",""time""
""fullscreenenter"",""5"",""61604""
","
","162","","49","","","3000","1","","","images/earth.jpg","images/tutrocket2","images/tutrocket1","null","images/tutrocket1","","1","practice","null","1","","",""
"d3-animate-choice","98","518132","0.0-61.0-1.12","709","602","16","Male","false","true","true","true","""event"",""trial"",""time""
""fullscreenenter"",""5"",""61604""
","
","
","""event"",""trial"",""time""
""fullscreenenter"",""5"",""61604""
","
","144.30000019073486","","48","","","3000","1","","","images/tutgreenplanet.jpg","images/tutalien2","images/tutalien1","images/tutrocket1","images/tutalien2","images/nothing.png","2","practice","true","2","common","0","2022-02-04 01:30:58.144"
"two-step-fixation","99","519137","0.0-61.0-2.12","709","602","16","Male","false","true","true","true","""event"",""trial"",""time""
""fullscreenenter"",""5"",""61604""
","
","
","""event"",""trial"",""time""
""fullscreenenter"",""5"",""61604""
","
","","images/earth.jpg","","","","","","","","","","","","","","fixation","","","","","",""
"d3-animate-choice","100","521250","0.0-61.0-0.13","709","602","16","Male","false","true","true","true","""event"",""trial"",""time""
""fullscreenenter"",""5"",""61604""
","
","
","""event"",""trial"",""time""
""fullscreenenter"",""5"",""61604""
","
","108.19999980926514","","49","","","3000","1","","","images/earth.jpg","images/tutrocket2","images/tutrocket1","null","images/tutrocket1","","1","practice","null","1","","",""
"d3-animate-choice","101","523452","0.0-61.0-1.13","709","602","16","Male","false","true","true","true","""event"",""trial"",""time""
""fullscreenenter"",""5"",""61604""
","
","
","""event"",""trial"",""time""
""fullscreenenter"",""5"",""61604""
","
","197.09999990463257","","49","","","3000","1","","","images/tutgreenplanet.jpg","images/tutalien2","images/tutalien1","images/tutrocket1","images/tutalien1","images/nothing.png","2","practice","true","1","common","0","2022-02-04 01:31:03.464"
"two-step-fixation","102","524457","0.0-61.0-2.13","709","602","16","Male","false","true","true","true","""event"",""trial"",""time""
""fullscreenenter"",""5"",""61604""
","
","
","""event"",""trial"",""time""
""fullscreenenter"",""5"",""61604""
","
","","images/earth.jpg","","","","","","","","","","","","","","fixation","","","","","",""
"d3-animate-choice","103","526520","0.0-61.0-0.14","709","602","16","Male","false","true","true","true","""event"",""trial"",""time""
""fullscreenenter"",""5"",""61604""
","
","
","""event"",""trial"",""time""
""fullscreenenter"",""5"",""61604""
","
","58.299999952316284","","48","","","3000","1","","","images/earth.jpg","images/tutrocket2","images/tutrocket1","null","images/tutrocket2","","1","practice","null","2","","",""
"d3-animate-choice","104","528744","0.0-61.0-1.14","709","602","16","Male","false","true","true","true","""event"",""trial"",""time""
""fullscreenenter"",""5"",""61604""
","
","
","""event"",""trial"",""time""
""fullscreenenter"",""5"",""61604""
","
","218.5","","48","","","3000","1","","","images/tutyellowplanet.jpg","images/tutalien4","images/tutalien3","images/tutrocket2","images/tutalien4","images/t.png","2","practice","true","2","common","1","2022-02-04 01:31:08.757"
"two-step-fixation","105","529750","0.0-61.0-2.14","709","602","16","Male","false","true","true","true","""event"",""trial"",""time""
""fullscreenenter"",""5"",""61604""
","
","
","""event"",""trial"",""time""
""fullscreenenter"",""5"",""61604""
","
","","images/earth.jpg","","","","","","","","","","","","","","fixation","","","","","",""
"d3-animate-choice","106","531942","0.0-61.0-0.15","709","602","16","Male","false","true","true","true","""event"",""trial"",""time""
""fullscreenenter"",""5"",""61604""
","
","
","""event"",""trial"",""time""
""fullscreenenter"",""5"",""61604""
","
","186","","48","","","3000","1","","","images/earth.jpg","images/tutrocket2","images/tutrocket1","null","images/tutrocket2","","1","practice","null","2","","",""
"d3-animate-choice","107","534168","0.0-61.0-1.15","709","602","16","Male","false","true","true","true","""event"",""trial"",""time""
""fullscreenenter"",""5"",""61604""
","
","
","""event"",""trial"",""time""
""fullscreenenter"",""5"",""61604""
","
","220","","48","","","3000","1","","","images/tutyellowplanet.jpg","images/tutalien4","images/tutalien3","images/tutrocket2","images/tutalien4","images/nothing.png","2","practice","true","2","common","0","2022-02-04 01:31:14.180"
"two-step-fixation","108","535173","0.0-61.0-2.15","709","602","16","Male","false","true","true","true","""event"",""trial"",""time""
""fullscreenenter"",""5"",""61604""
","
","
","""event"",""trial"",""time""
""fullscreenenter"",""5"",""61604""
","
","","images/earth.jpg","","","","","","","","","","","","","","fixation","","","","","",""
"d3-animate-choice","109","537203","0.0-61.0-0.16","709","602","16","Male","false","true","true","true","""event"",""trial"",""time""
""fullscreenenter"",""5"",""61604""
","
","
","""event"",""trial"",""time""
""fullscreenenter"",""5"",""61604""
","
","26.100000143051147","","48","","","3000","1","","","images/earth.jpg","images/tutrocket2","images/tutrocket1","null","images/tutrocket2","","1","practice","null","2","","",""
"d3-animate-choice","110","539689","0.0-61.0-1.16","709","602","16","Male","false","true","true","true","""event"",""trial"",""time""
""fullscreenenter"",""5"",""61604""
","
","
","""event"",""trial"",""time""
""fullscreenenter"",""5"",""61604""
","
","480.40000009536743","","49","","","3000","1","","","images/tutyellowplanet.jpg","images/tutalien4","images/tutalien3","images/tutrocket2","images/tutalien3","images/nothing.png","2","practice","true","1","common","0","2022-02-04 01:31:19.701"
"two-step-fixation","111","540693","0.0-61.0-2.16","709","602","16","Male","false","true","true","true","""event"",""trial"",""time""
""fullscreenenter"",""5"",""61604""
","
","
","""event"",""trial"",""time""
""fullscreenenter"",""5"",""61604""
","
","","images/earth.jpg","","","","","","","","","","","","","","fixation","","","","","",""
"d3-animate-choice","112","542991","0.0-61.0-0.17","709","602","16","Male","false","true","true","true","""event"",""trial"",""time""
""fullscreenenter"",""5"",""61604""
","
","
","""event"",""trial"",""time""
""fullscreenenter"",""5"",""61604""
","
","292.5","","48","","","3000","1","","","images/earth.jpg","images/tutrocket2","images/tutrocket1","null","images/tutrocket2","","1","practice","null","2","","",""
"d3-animate-choice","113","545700","0.0-61.0-1.17","709","602","16","Male","false","true","true","true","""event"",""trial"",""time""
""fullscreenenter"",""5"",""61604""
","
","
","""event"",""trial"",""time""
""fullscreenenter"",""5"",""61604""
","
","703.8999998569489","","49","","","3000","1","","","images/tutgreenplanet.jpg","images/tutalien2","images/tutalien1","images/tutrocket2","images/tutalien1","images/nothing.png","2","practice","false","1","rare","0","2022-02-04 01:31:25.712"
"two-step-fixation","114","546704","0.0-61.0-2.17","709","602","16","Male","false","true","true","true","""event"",""trial"",""time""
""fullscreenenter"",""5"",""61604""
","
","
","""event"",""trial"",""time""
""fullscreenenter"",""5"",""61604""
","
","","images/earth.jpg","","","","","","","","","","","","","","fixation","","","","","",""
"d3-animate-choice","115","548974","0.0-61.0-0.18","709","602","16","Male","false","true","true","true","""event"",""trial"",""time""
""fullscreenenter"",""5"",""61604""
","
","
","""event"",""trial"",""time""
""fullscreenenter"",""5"",""61604""
","
","264.39999985694885","","48","","","3000","1","","","images/earth.jpg","images/tutrocket2","images/tutrocket1","null","images/tutrocket2","","1","practice","null","2","","",""
"d3-animate-choice","116","551323","0.0-61.0-1.18","709","602","16","Male","false","true","true","true","""event"",""trial"",""time""
""fullscreenenter"",""5"",""61604""
","
","
","""event"",""trial"",""time""
""fullscreenenter"",""5"",""61604""
","
","343.89999985694885","","48","","","3000","1","","","images/tutgreenplanet.jpg","images/tutalien2","images/tutalien1","images/tutrocket2","images/tutalien2","images/nothing.png","2","practice","false","2","rare","0","2022-02-04 01:31:31.335"
"two-step-fixation","117","552328","0.0-61.0-2.18","709","602","16","Male","false","true","true","true","""event"",""trial"",""time""
""fullscreenenter"",""5"",""61604""
","
","
","""event"",""trial"",""time""
""fullscreenenter"",""5"",""61604""
","
","","images/earth.jpg","","","","","","","","","","","","","","fixation","","","","","",""
"d3-animate-choice","118","554443","0.0-61.0-0.19","709","602","16","Male","false","true","true","true","""event"",""trial"",""time""
""fullscreenenter"",""5"",""61604""
","
","
","""event"",""trial"",""time""
""fullscreenenter"",""5"",""61604""
","
","109.5","","48","","","3000","1","","","images/earth.jpg","images/tutrocket2","images/tutrocket1","null","images/tutrocket2","","1","practice","null","2","","",""
"d3-animate-choice","119","557433","0.0-61.0-1.19","709","602","16","Male","false","true","true","true","""event"",""trial"",""time""
""fullscreenenter"",""5"",""61604""
","
","
","""event"",""trial"",""time""
""fullscreenenter"",""5"",""61604""
","
","985.5","","48","","","3000","1","","","images/tutgreenplanet.jpg","images/tutalien2","images/tutalien1","images/tutrocket2","images/tutalien2","images/nothing.png","2","practice","false","2","rare","0","2022-02-04 01:31:37.446"
"two-step-fixation","120","558439","0.0-61.0-2.19","709","602","16","Male","false","true","true","true","""event"",""trial"",""time""
""fullscreenenter"",""5"",""61604""
","
","
","""event"",""trial"",""time""
""fullscreenenter"",""5"",""61604""
","
","","images/earth.jpg","","","","","","","","","","","","","","fixation","","","","","",""
"d3-instructions","121","562156","0.0-62.0","709","602","16","Male","false","true","true","true","""event"",""trial"",""time""
""fullscreenenter"",""5"",""61604""
","
","
","""event"",""trial"",""time""
""fullscreenenter"",""5"",""61604""
","
","","","","","","","","","","","","","","","","","","","","","",""
"audio-keyboard-response","122","577312","0.0-63.0","709","602","16","Male","false","true","true","true","""event"",""trial"",""time""
""fullscreenenter"",""5"",""61604""
","
","
","""event"",""trial"",""time""
""fullscreenenter"",""5"",""61604""
","
","15149","audio/instructions/treasure_feedback.wav","32","","","","","","","","","","","","","","","","","","",""
"d3-instructions","123","599015","0.0-64.0","709","602","16","Male","false","true","true","true","""event"",""trial"",""time""
""fullscreenenter"",""5"",""61604""
","
","
","""event"",""trial"",""time""
""fullscreenenter"",""5"",""61604""
","
","","","","","","","","","","","","","","","","","","","","","",""
"d3-instructions","124","619185","0.0-65.0","709","602","16","Male","false","true","true","true","""event"",""trial"",""time""
""fullscreenenter"",""5"",""61604""
","
","
","""event"",""trial"",""time""
""fullscreenenter"",""5"",""61604""
","
","","","","","","","","","","","","","","","","","","","","","",""
"d3-instructions","125","643631","0.0-66.0","709","602","16","Male","false","true","true","true","""event"",""trial"",""time""
""fullscreenenter"",""5"",""61604""
","
","
","""event"",""trial"",""time""
""fullscreenenter"",""5"",""61604""
","
","","","","","","","","","","","","","","","","","","","","","",""
"d3-instructions","126","659702","0.0-67.0","709","602","16","Male","false","true","true","true","""event"",""trial"",""time""
""fullscreenenter"",""5"",""61604""
","
","
","""event"",""trial"",""time""
""fullscreenenter"",""5"",""61604""
","
","","","","","","","","","","","","","","","","","","","","","",""
"d3-instructions","127","668536","0.0-68.0","709","602","16","Male","false","true","true","true","""event"",""trial"",""time""
""fullscreenenter"",""5"",""61604""
","
","
","""event"",""trial"",""time""
""fullscreenenter"",""5"",""61604""
","
","","","","","","","","","","","","","","","","","","","","","",""
"instructions-quiz","128","672641","0.0-69.0","709","602","16","Male","false","true","true","true","""event"",""trial"",""time""
""fullscreenenter"",""5"",""61604""
","
","
","""event"",""trial"",""time""
""fullscreenenter"",""5"",""61604""
","
","4101.299999952316","audio/quiz/Q1_Prompt.wav","","1","","","","","","","","","","","","","","","","","",""
"audio-keyboard-response","129","681806","0.0-70.0","709","602","16","Male","false","true","true","true","""event"",""trial"",""time""
""fullscreenenter"",""5"",""61604""
","
","
","""event"",""trial"",""time""
""fullscreenenter"",""5"",""61604""
","
","null","audio/quiz/Q1_Correct.wav","null","","","","","","","","","","","","","","","","","","",""
"instructions-quiz","130","685360","0.0-71.0","709","602","16","Male","false","true","true","true","""event"",""trial"",""time""
""fullscreenenter"",""5"",""61604""
","
","
","""event"",""trial"",""time""
""fullscreenenter"",""5"",""61604""
","
","3551.7000000476837","audio/quiz/Q2_Prompt.wav","","0","","","","","","","","","","","","","","","","","",""
"audio-keyboard-response","131","698226","0.0-72.0","709","602","16","Male","false","true","true","true","""event"",""trial"",""time""
""fullscreenenter"",""5"",""61604""
","
","
","""event"",""trial"",""time""
""fullscreenenter"",""5"",""61604""
","
","null","audio/quiz/Q2_Correct.wav","null","","","","","","","","","","","","","","","","","","",""
"instructions-quiz","132","701744","0.0-73.0","709","602","16","Male","false","true","true","true","""event"",""trial"",""time""
""fullscreenenter"",""5"",""61604""
","
","
","""event"",""trial"",""time""
""fullscreenenter"",""5"",""61604""
","
","3515.600000143051","audio/quiz/Q3_Prompt.wav","","1","","","","","","","","","","","","","","","","","",""
"audio-keyboard-response","133","707546","0.0-74.0","709","602","16","Male","false","true","true","true","""event"",""trial"",""time""
""fullscreenenter"",""5"",""61604""
","
","
","""event"",""trial"",""time""
""fullscreenenter"",""5"",""61604""
","
","null","audio/quiz/Q3_Correct.wav","null","","","","","","","","","","","","","","","","","","",""
"d3-instructions","134","721313","0.0-75.0","709","602","16","Male","false","true","true","true","""event"",""trial"",""time""
""fullscreenenter"",""5"",""61604""
","
","
","""event"",""trial"",""time""
""fullscreenenter"",""5"",""61604""
","
","","","","","","","","","","","","","","","","","","","","","",""
"d3-animate-choice","135","724005","0.0-76.0-0.0","709","602","16","Male","false","true","true","true","""event"",""trial"",""time""
""fullscreenenter"",""5"",""61604""
","
","
","""event"",""trial"",""time""
""fullscreenenter"",""5"",""61604""
","
","684.2000000476837","","49","","","3000","1","","","images/earth.jpg","images/rocket1","images/rocket2","null","images/rocket2","","1","real","null","1","","",""
"d3-animate-choice","136","726374","0.0-76.0-1.0","709","602","16","Male","false","true","true","true","""event"",""trial"",""time""
""fullscreenenter"",""5"",""61604""
","
","
","""event"",""trial"",""time""
""fullscreenenter"",""5"",""61604""
","
","362.09999990463257","","49","","","3000","1","","","images/purpleplanet.jpg","images/alien4","images/alien3","images/rocket2","images/alien3","images/nothing.png","2","real","true","1","common","0","2022-02-04 01:34:26.386"
"two-step-fixation","137","727394","0.0-76.0-2.0","709","602","16","Male","false","true","true","true","""event"",""trial"",""time""
""fullscreenenter"",""5"",""61604""
","
","
","""event"",""trial"",""time""
""fullscreenenter"",""5"",""61604""
","
","","images/earth.jpg","","","","","","","","","","","","","","fixation","","","","","",""
"d3-animate-choice","138","729663","0.0-76.0-0.1","709","602","16","Male","false","true","true","true","""event"",""trial"",""time""
""fullscreenenter"",""5"",""61604""
","
","
","""event"",""trial"",""time""
""fullscreenenter"",""5"",""61604""
","
","258.40000009536743","","49","","","3000","1","","","images/earth.jpg","images/rocket1","images/rocket2","null","images/rocket2","","1","real","null","1","","",""
"d3-animate-choice","139","731964","0.0-76.0-1.1","709","602","16","Male","false","true","true","true","""event"",""trial"",""time""
""fullscreenenter"",""5"",""61604""
","
","
","""event"",""trial"",""time""
""fullscreenenter"",""5"",""61604""
","
","294","","48","","","3000","1","","","images/purpleplanet.jpg","images/alien4","images/alien3","images/rocket2","images/alien4","images/nothing.png","2","real","true","2","common","0","2022-02-04 01:34:31.976"
"two-step-fixation","140","732969","0.0-76.0-2.1","709","602","16","Male","false","true","true","true","""event"",""trial"",""time""
""fullscreenenter"",""5"",""61604""
","
","
","""event"",""trial"",""time""
""fullscreenenter"",""5"",""61604""
","
","","images/earth.jpg","","","","","","","","","","","","","","fixation","","","","","",""
"d3-animate-choice","141","735309","0.0-76.0-0.2","709","602","16","Male","false","true","true","true","""event"",""trial"",""time""
""fullscreenenter"",""5"",""61604""
","
","
","""event"",""trial"",""time""
""fullscreenenter"",""5"",""61604""
","
","334.2000000476837","","48","","","3000","1","459.60000014305115","48","images/earth.jpg","images/rocket1","images/rocket2","null","images/rocket1","","1","real","null","2","","",""
"d3-animate-choice","142","738000","0.0-76.0-1.2","709","602","16","Male","false","true","true","true","""event"",""trial"",""time""
""fullscreenenter"",""5"",""61604""
","
","
","""event"",""trial"",""time""
""fullscreenenter"",""5"",""61604""
","
","686.7000000476837","","48","","","3000","1","","","images/redplanet1.jpg","images/alien2","images/alien1","images/rocket1","images/alien2","images/t.png","2","real","true","2","common","1","2022-02-04 01:34:38.012"
"two-step-fixation","143","739004","0.0-76.0-2.2","709","602","16","Male","false","true","true","true","""event"",""trial"",""time""
""fullscreenenter"",""5"",""61604""
","
","
","""event"",""trial"",""time""
""fullscreenenter"",""5"",""61604""
","
","","images/earth.jpg","","","","","","","","","","","","","","fixation","","","","","",""
"d3-animate-choice","144","741285","0.0-76.0-0.3","709","602","16","Male","false","true","true","true","""event"",""trial"",""time""
""fullscreenenter"",""5"",""61604""
","
","
","""event"",""trial"",""time""
""fullscreenenter"",""5"",""61604""
","
","271.89999985694885","","48","","","3000","1","","","images/earth.jpg","images/rocket1","images/rocket2","null","images/rocket1","","1","real","null","2","","",""
"d3-animate-choice","145","743563","0.0-76.0-1.3","709","602","16","Male","false","true","true","true","""event"",""trial"",""time""
""fullscreenenter"",""5"",""61604""
","
","
","""event"",""trial"",""time""
""fullscreenenter"",""5"",""61604""
","
","274.89999985694885","","49","","","3000","1","","","images/purpleplanet.jpg","images/alien4","images/alien3","images/rocket1","images/alien3","images/nothing.png","2","real","false","1","rare","0","2022-02-04 01:34:43.575"
"two-step-fixation","146","744567","0.0-76.0-2.3","709","602","16","Male","false","true","true","true","""event"",""trial"",""time""
""fullscreenenter"",""5"",""61604""
","
","
","""event"",""trial"",""time""
""fullscreenenter"",""5"",""61604""
","
","","images/earth.jpg","","","","","","","","","","","","","","fixation","","","","","",""
"d3-animate-choice","147","746739","0.0-76.0-0.4","709","602","16","Male","false","true","true","true","""event"",""trial"",""time""
""fullscreenenter"",""5"",""61604""
","
","
","""event"",""trial"",""time""
""fullscreenenter"",""5"",""61604""
","
","169.20000004768372","","48","","","3000","1","","","images/earth.jpg","images/rocket1","images/rocket2","null","images/rocket1","","1","real","null","2","","",""
"d3-animate-choice","148","749173","0.0-76.0-1.4","709","602","16","Male","false","true","true","true","""event"",""trial"",""time""
""fullscreenenter"",""5"",""61604""
","
","
","""event"",""trial"",""time""
""fullscreenenter"",""5"",""61604""
","
","411.30000019073486","","48","","","3000","1","","","images/redplanet1.jpg","images/alien2","images/alien1","images/rocket1","images/alien2","images/nothing.png","2","real","true","2","common","0","2022-02-04 01:34:49.185"
"two-step-fixation","149","750176","0.0-76.0-2.4","709","602","16","Male","false","true","true","true","""event"",""trial"",""time""
""fullscreenenter"",""5"",""61604""
","
","
","""event"",""trial"",""time""
""fullscreenenter"",""5"",""61604""
","
","","images/earth.jpg","","","","","","","","","","","","","","fixation","","","","","",""
"d3-animate-choice","150","752198","0.0-76.0-0.5","709","602","16","Male","false","true","true","true","""event"",""trial"",""time""
""fullscreenenter"",""5"",""61604""
","
","
","""event"",""trial"",""time""
""fullscreenenter"",""5"",""61604""
","
","18.299999952316284","","48","","","3000","1","195.5","48","images/earth.jpg","images/rocket1","images/rocket2","null","images/rocket1","","1","real","null","2","","",""
"d3-animate-choice","151","754876","0.0-76.0-1.5","709","602","16","Male","false","true","true","true","""event"",""trial"",""time""
""fullscreenenter"",""5"",""61604""
","
","
","""event"",""trial"",""time""
""fullscreenenter"",""5"",""61604""
","
","674","","49","","","3000","1","","","images/purpleplanet.jpg","images/alien4","images/alien3","images/rocket1","images/alien3","images/t.png","2","real","false","1","rare","1","2022-02-04 01:34:54.889"
"two-step-fixation","152","755883","0.0-76.0-2.5","709","602","16","Male","false","true","true","true","""event"",""trial"",""time""
""fullscreenenter"",""5"",""61604""
","
","
","""event"",""trial"",""time""
""fullscreenenter"",""5"",""61604""
","
","","images/earth.jpg","","","","","","","","","","","","","","fixation","","","","","",""
"d3-animate-choice","153","757889","0.0-76.0-0.6","709","602","16","Male","false","true","true","true","""event"",""trial"",""time""
""fullscreenenter"",""5"",""61604""
","
","
","""event"",""trial"",""time""
""fullscreenenter"",""5"",""61604""
","
","3.5","","48","","","3000","1","224","48","images/earth.jpg","images/rocket1","images/rocket2","null","images/rocket1","","1","real","null","2","","",""
"d3-animate-choice","154","760287","0.0-76.0-1.6","709","602","16","Male","false","true","true","true","""event"",""trial"",""time""
""fullscreenenter"",""5"",""61604""
","
","
","""event"",""trial"",""time""
""fullscreenenter"",""5"",""61604""
","
","392.5","","48","","","3000","1","","","images/redplanet1.jpg","images/alien2","images/alien1","images/rocket1","images/alien2","images/nothing.png","2","real","true","2","common","0","2022-02-04 01:35:00.299"
"two-step-fixation","155","761291","0.0-76.0-2.6","709","602","16","Male","false","true","true","true","""event"",""trial"",""time""
""fullscreenenter"",""5"",""61604""
","
","
","""event"",""trial"",""time""
""fullscreenenter"",""5"",""61604""
","
","","images/earth.jpg","","","","","","","","","","","","","","fixation","","","","","",""
"d3-animate-choice","156","763479","0.0-76.0-0.7","709","602","16","Male","false","true","true","true","""event"",""trial"",""time""
""fullscreenenter"",""5"",""61604""
","
","
","""event"",""trial"",""time""
""fullscreenenter"",""5"",""61604""
","
","178.20000004768372","","49","","","3000","1","","","images/earth.jpg","images/rocket1","images/rocket2","null","images/rocket2","","1","real","null","1","","",""
"d3-animate-choice","157","765957","0.0-76.0-1.7","709","602","16","Male","false","true","true","true","""event"",""trial"",""time""
""fullscreenenter"",""5"",""61604""
","
","
","""event"",""trial"",""time""
""fullscreenenter"",""5"",""61604""
","
","468.7999999523163","","49","","","3000","1","","","images/redplanet1.jpg","images/alien2","images/alien1","images/rocket2","images/alien1","images/nothing.png","2","real","false","1","rare","0","2022-02-04 01:35:05.969"
"two-step-fixation","158","766962","0.0-76.0-2.7","709","602","16","Male","false","true","true","true","""event"",""trial"",""time""
""fullscreenenter"",""5"",""61604""
","
","
","""event"",""trial"",""time""
""fullscreenenter"",""5"",""61604""
","
","","images/earth.jpg","","","","","","","","","","","","","","fixation","","","","","",""
"d3-animate-choice","159","769093","0.0-76.0-0.8","709","602","16","Male","false","true","true","true","""event"",""trial"",""time""
""fullscreenenter"",""5"",""61604""
","
","
","""event"",""trial"",""time""
""fullscreenenter"",""5"",""61604""
","
","125.5","","48","","","3000","1","","","images/earth.jpg","images/rocket1","images/rocket2","null","images/rocket1","","1","real","null","2","","",""
"d3-animate-choice","160","771414","0.0-76.0-1.8","709","602","16","Male","false","true","true","true","""event"",""trial"",""time""
""fullscreenenter"",""5"",""61604""
","
","
","""event"",""trial"",""time""
""fullscreenenter"",""5"",""61604""
","
","317.2000000476837","","49","","","3000","1","","","images/purpleplanet.jpg","images/alien4","images/alien3","images/rocket1","images/alien3","images/nothing.png","2","real","false","1","rare","0","2022-02-04 01:35:11.426"
"two-step-fixation","161","772417","0.0-76.0-2.8","709","602","16","Male","false","true","true","true","""event"",""trial"",""time""
""fullscreenenter"",""5"",""61604""
","
","
","""event"",""trial"",""time""
""fullscreenenter"",""5"",""61604""
","
","","images/earth.jpg","","","","","","","","","","","","","","fixation","","","","","",""
"d3-animate-choice","162","774527","0.0-76.0-0.9","709","602","16","Male","false","true","true","true","""event"",""trial"",""time""
""fullscreenenter"",""5"",""61604""
","
","
","""event"",""trial"",""time""
""fullscreenenter"",""5"",""61604""
","
","103.29999995231628","","48","","","3000","1","276,898.2999999523163,1137.1000001430511","48,48,48","images/earth.jpg","images/rocket1","images/rocket2","null","images/rocket1","","1","real","null","2","","",""
"d3-animate-choice","163","777142","0.0-76.0-1.9","709","602","16","Male","false","true","true","true","""event"",""trial"",""time""
""fullscreenenter"",""5"",""61604""
","
","
","""event"",""trial"",""time""
""fullscreenenter"",""5"",""61604""
","
","610.5","","48","","","3000","1","","","images/redplanet1.jpg","images/alien2","images/alien1","images/rocket1","images/alien2","images/t.png","2","real","true","2","common","1","2022-02-04 01:35:17.154"
"two-step-fixation","164","778148","0.0-76.0-2.9","709","602","16","Male","false","true","true","true","""event"",""trial"",""time""
""fullscreenenter"",""5"",""61604""
","
","
","""event"",""trial"",""time""
""fullscreenenter"",""5"",""61604""
","
","","images/earth.jpg","","","","","","","","","","","","","","fixation","","","","","",""
"d3-animate-choice","165","780223","0.0-76.0-0.10","709","602","16","Male","false","true","true","true","""event"",""trial"",""time""
""fullscreenenter"",""5"",""61604""
","
","
","""event"",""trial"",""time""
""fullscreenenter"",""5"",""61604""
","
","69.20000004768372","","49","","","3000","1","288.60000014305115","49","images/earth.jpg","images/rocket1","images/rocket2","null","images/rocket2","","1","real","null","1","","",""
"d3-animate-choice","166","782577","0.0-76.0-1.10","709","602","16","Male","false","true","true","true","""event"",""trial"",""time""
""fullscreenenter"",""5"",""61604""
","
","
","""event"",""trial"",""time""
""fullscreenenter"",""5"",""61604""
","
","347.7999999523163","","48","","","3000","1","","","images/purpleplanet.jpg","images/alien4","images/alien3","images/rocket2","images/alien4","images/nothing.png","2","real","true","2","common","0","2022-02-04 01:35:22.589"
"two-step-fixation","167","783582","0.0-76.0-2.10","709","602","16","Male","false","true","true","true","""event"",""trial"",""time""
""fullscreenenter"",""5"",""61604""
","
","
","""event"",""trial"",""time""
""fullscreenenter"",""5"",""61604""
","
","","images/earth.jpg","","","","","","","","","","","","","","fixation","","","","","",""
"d3-animate-choice","168","785648","0.0-76.0-0.11","709","602","16","Male","false","true","true","true","""event"",""trial"",""time""
""fullscreenenter"",""5"",""61604""
","
","
","""event"",""trial"",""time""
""fullscreenenter"",""5"",""61604""
","
","60.299999952316284","","48","","","3000","1","230.29999995231628","48","images/earth.jpg","images/rocket1","images/rocket2","null","images/rocket1","","1","real","null","2","","",""
"d3-animate-choice","169","787889","0.0-76.0-1.11","709","602","16","Male","false","true","true","true","""event"",""trial"",""time""
""fullscreenenter"",""5"",""61604""
","
","
","""event"",""trial"",""time""
""fullscreenenter"",""5"",""61604""
","
","235","","48","","","3000","1","","","images/redplanet1.jpg","images/alien2","images/alien1","images/rocket1","images/alien2","images/nothing.png","2","real","true","2","common","0","2022-02-04 01:35:27.901"
"two-step-fixation","170","788893","0.0-76.0-2.11","709","602","16","Male","false","true","true","true","""event"",""trial"",""time""
""fullscreenenter"",""5"",""61604""
","
","
","""event"",""trial"",""time""
""fullscreenenter"",""5"",""61604""
","
","","images/earth.jpg","","","","","","","","","","","","","","fixation","","","","","",""
"d3-animate-choice","171","791080","0.0-76.0-0.12","709","602","16","Male","false","true","true","true","""event"",""trial"",""time""
""fullscreenenter"",""5"",""61604""
","
","
","""event"",""trial"",""time""
""fullscreenenter"",""5"",""61604""
","
","180.40000009536743","","48","","","3000","1","","","images/earth.jpg","images/rocket1","images/rocket2","null","images/rocket1","","1","real","null","2","","",""
"d3-animate-choice","172","793423","0.0-76.0-1.12","709","602","16","Male","false","true","true","true","""event"",""trial"",""time""
""fullscreenenter"",""5"",""61604""
","
","
","""event"",""trial"",""time""
""fullscreenenter"",""5"",""61604""
","
","338.60000014305115","","48","","","3000","1","","","images/redplanet1.jpg","images/alien2","images/alien1","images/rocket1","images/alien2","images/t.png","2","real","true","2","common","1","2022-02-04 01:35:33.436"
"two-step-fixation","173","794426","0.0-76.0-2.12","709","602","16","Male","false","true","true","true","""event"",""trial"",""time""
""fullscreenenter"",""5"",""61604""
","
","
","""event"",""trial"",""time""
""fullscreenenter"",""5"",""61604""
","
","","images/earth.jpg","","","","","","","","","","","","","","fixation","","","","","",""
"d3-animate-choice","174","796649","0.0-76.0-0.13","709","602","16","Male","false","true","true","true","""event"",""trial"",""time""
""fullscreenenter"",""5"",""61604""
","
","
","""event"",""trial"",""time""
""fullscreenenter"",""5"",""61604""
","
","217.70000004768372","","48","","","3000","1","","","images/earth.jpg","images/rocket1","images/rocket2","null","images/rocket1","","1","real","null","2","","",""
"d3-animate-choice","175","798923","0.0-76.0-1.13","709","602","16","Male","false","true","true","true","""event"",""trial"",""time""
""fullscreenenter"",""5"",""61604""
","
","
","""event"",""trial"",""time""
""fullscreenenter"",""5"",""61604""
","
","271","","49","","","3000","1","","","images/redplanet1.jpg","images/alien2","images/alien1","images/rocket1","images/alien1","images/t.png","2","real","true","1","common","1","2022-02-04 01:35:38.935"
"two-step-fixation","176","799926","0.0-76.0-2.13","709","602","16","Male","false","true","true","true","""event"",""trial"",""time""
""fullscreenenter"",""5"",""61604""
","
","
","""event"",""trial"",""time""
""fullscreenenter"",""5"",""61604""
","
","","images/earth.jpg","","","","","","","","","","","","","","fixation","","","","","",""
"d3-animate-choice","177","802079","0.0-76.0-0.14","709","602","16","Male","false","true","true","true","""event"",""trial"",""time""
""fullscreenenter"",""5"",""61604""
","
","
","""event"",""trial"",""time""
""fullscreenenter"",""5"",""61604""
","
","147.5","","49","","","3000","1","","","images/earth.jpg","images/rocket1","images/rocket2","null","images/rocket2","","1","real","null","1","","",""
"d3-animate-choice","178","804363","0.0-76.0-1.14","709","602","16","Male","false","true","true","true","""event"",""trial"",""time""
""fullscreenenter"",""5"",""61604""
","
","
","""event"",""trial"",""time""
""fullscreenenter"",""5"",""61604""
","
","278.60000014305115","","48","","","3000","1","","","images/purpleplanet.jpg","images/alien4","images/alien3","images/rocket2","images/alien4","images/nothing.png","2","real","true","2","common","0","2022-02-04 01:35:44.376"
"two-step-fixation","179","805369","0.0-76.0-2.14","709","602","16","Male","false","true","true","true","""event"",""trial"",""time""
""fullscreenenter"",""5"",""61604""
","
","
","""event"",""trial"",""time""
""fullscreenenter"",""5"",""61604""
","
","","images/earth.jpg","","","","","","","","","","","","","","fixation","","","","","",""
"d3-animate-choice","180","807433","0.0-76.0-0.15","709","602","16","Male","false","true","true","true","""event"",""trial"",""time""
""fullscreenenter"",""5"",""61604""
","
","
","""event"",""trial"",""time""
""fullscreenenter"",""5"",""61604""
","
","61.90000009536743","","48","","","3000","1","","","images/earth.jpg","images/rocket1","images/rocket2","null","images/rocket1","","1","real","null","2","","",""
"d3-animate-choice","181","809844","0.0-76.0-1.15","709","602","16","Male","false","true","true","true","""event"",""trial"",""time""
""fullscreenenter"",""5"",""61604""
","
","
","""event"",""trial"",""time""
""fullscreenenter"",""5"",""61604""
","
","408.09999990463257","","48","","","3000","1","","","images/purpleplanet.jpg","images/alien4","images/alien3","images/rocket1","images/alien4","images/t.png","2","real","false","2","rare","1","2022-02-04 01:35:49.856"
"two-step-fixation","182","810847","0.0-76.0-2.15","709","602","16","Male","false","true","true","true","""event"",""trial"",""time""
""fullscreenenter"",""5"",""61604""
","
","
","""event"",""trial"",""time""
""fullscreenenter"",""5"",""61604""
","
","","images/earth.jpg","","","","","","","","","","","","","","fixation","","","","","",""
"d3-animate-choice","183","813163","0.0-76.0-0.16","709","602","16","Male","false","true","true","true","""event"",""trial"",""time""
""fullscreenenter"",""5"",""61604""
","
","
","""event"",""trial"",""time""
""fullscreenenter"",""5"",""61604""
","
","313.59999990463257","","48","","","3000","1","","","images/earth.jpg","images/rocket1","images/rocket2","null","images/rocket1","","1","real","null","2","","",""
"d3-animate-choice","184","815385","0.0-76.0-1.16","709","602","16","Male","false","true","true","true","""event"",""trial"",""time""
""fullscreenenter"",""5"",""61604""
","
","
","""event"",""trial"",""time""
""fullscreenenter"",""5"",""61604""
","
","218.30000019073486","","48","","","3000","1","","","images/redplanet1.jpg","images/alien2","images/alien1","images/rocket1","images/alien2","images/t.png","2","real","true","2","common","1","2022-02-04 01:35:55.397"
"two-step-fixation","185","816388","0.0-76.0-2.16","709","602","16","Male","false","true","true","true","""event"",""trial"",""time""
""fullscreenenter"",""5"",""61604""
","
","
","""event"",""trial"",""time""
""fullscreenenter"",""5"",""61604""
","
","","images/earth.jpg","","","","","","","","","","","","","","fixation","","","","","",""
"d3-animate-choice","186","818552","0.0-76.0-0.17","709","602","16","Male","false","true","true","true","""event"",""trial"",""time""
""fullscreenenter"",""5"",""61604""
","
","
","""event"",""trial"",""time""
""fullscreenenter"",""5"",""61604""
","
","160.10000014305115","","48","","","3000","1","","","images/earth.jpg","images/rocket1","images/rocket2","null","images/rocket1","","1","real","null","2","","",""
"d3-animate-choice","187","821213","0.0-76.0-1.17","709","602","16","Male","false","true","true","true","""event"",""trial"",""time""
""fullscreenenter"",""5"",""61604""
","
","
","""event"",""trial"",""time""
""fullscreenenter"",""5"",""61604""
","
","654.5999999046326","","48","","","3000","1","","","images/purpleplanet.jpg","images/alien4","images/alien3","images/rocket1","images/alien4","images/t.png","2","real","false","2","rare","1","2022-02-04 01:36:01.225"
"two-step-fixation","188","822217","0.0-76.0-2.17","709","602","16","Male","false","true","true","true","""event"",""trial"",""time""
""fullscreenenter"",""5"",""61604""
","
","
","""event"",""trial"",""time""
""fullscreenenter"",""5"",""61604""
","
","","images/earth.jpg","","","","","","","","","","","","","","fixation","","","","","",""
"d3-animate-choice","189","824582","0.0-76.0-0.18","709","602","16","Male","false","true","true","true","""event"",""trial"",""time""
""fullscreenenter"",""5"",""61604""
","
","
","""event"",""trial"",""time""
""fullscreenenter"",""5"",""61604""
","
","362","","48","","","3000","1","","","images/earth.jpg","images/rocket1","images/rocket2","null","images/rocket1","","1","real","null","2","","",""
"d3-animate-choice","190","826886","0.0-76.0-1.18","709","602","16","Male","false","true","true","true","""event"",""trial"",""time""
""fullscreenenter"",""5"",""61604""
","
","
","""event"",""trial"",""time""
""fullscreenenter"",""5"",""61604""
","
","301.2000000476837","","48","","","3000","1","","","images/redplanet1.jpg","images/alien2","images/alien1","images/rocket1","images/alien2","images/t.png","2","real","true","2","common","1","2022-02-04 01:36:06.898"
"two-step-fixation","191","827889","0.0-76.0-2.18","709","602","16","Male","false","true","true","true","""event"",""trial"",""time""
""fullscreenenter"",""5"",""61604""
","
","
","""event"",""trial"",""time""
""fullscreenenter"",""5"",""61604""
","
","","images/earth.jpg","","","","","","","","","","","","","","fixation","","","","","",""
"d3-animate-choice","192","830116","0.0-76.0-0.19","709","602","16","Male","false","true","true","true","""event"",""trial"",""time""
""fullscreenenter"",""5"",""61604""
","
","
","""event"",""trial"",""time""
""fullscreenenter"",""5"",""61604""
","
","223","","48","","","3000","1","","","images/earth.jpg","images/rocket1","images/rocket2","null","images/rocket1","","1","real","null","2","","",""
"d3-animate-choice","193","832396","0.0-76.0-1.19","709","602","16","Male","false","true","true","true","""event"",""trial"",""time""
""fullscreenenter"",""5"",""61604""
","
","
","""event"",""trial"",""time""
""fullscreenenter"",""5"",""61604""
","
","276.09999990463257","","48","","","3000","1","","","images/redplanet1.jpg","images/alien2","images/alien1","images/rocket1","images/alien2","images/nothing.png","2","real","true","2","common","0","2022-02-04 01:36:12.408"
"two-step-fixation","194","833398","0.0-76.0-2.19","709","602","16","Male","false","true","true","true","""event"",""trial"",""time""
""fullscreenenter"",""5"",""61604""
","
","
","""event"",""trial"",""time""
""fullscreenenter"",""5"",""61604""
","
","","images/earth.jpg","","","","","","","","","","","","","","fixation","","","","","",""
"d3-animate-choice","195","835502","0.0-76.0-0.20","709","602","16","Male","false","true","true","true","""event"",""trial"",""time""
""fullscreenenter"",""5"",""61604""
","
","
","""event"",""trial"",""time""
""fullscreenenter"",""5"",""61604""
","
","100.5","","48","","","3000","1","","","images/earth.jpg","images/rocket1","images/rocket2","null","images/rocket1","","1","real","null","2","","",""
"d3-animate-choice","196","837833","0.0-76.0-1.20","709","602","16","Male","false","true","true","true","""event"",""trial"",""time""
""fullscreenenter"",""5"",""61604""
","
","
","""event"",""trial"",""time""
""fullscreenenter"",""5"",""61604""
","
","325","","48","","","3000","1","","","images/purpleplanet.jpg","images/alien4","images/alien3","images/rocket1","images/alien4","images/nothing.png","2","real","false","2","rare","0","2022-02-04 01:36:17.845"
"two-step-fixation","197","838835","0.0-76.0-2.20","709","602","16","Male","false","true","true","true","""event"",""trial"",""time""
""fullscreenenter"",""5"",""61604""
","
","
","""event"",""trial"",""time""
""fullscreenenter"",""5"",""61604""
","
","","images/earth.jpg","","","","","","","","","","","","","","fixation","","","","","",""
"d3-animate-choice","198","841091","0.0-76.0-0.21","709","602","16","Male","false","true","true","true","""event"",""trial"",""time""
""fullscreenenter"",""5"",""61604""
","
","
","""event"",""trial"",""time""
""fullscreenenter"",""5"",""61604""
","
","251.5","","48","","","3000","1","","","images/earth.jpg","images/rocket1","images/rocket2","null","images/rocket1","","1","real","null","2","","",""
"d3-animate-choice","199","843626","0.0-76.0-1.21","709","602","16","Male","false","true","true","true","""event"",""trial"",""time""
""fullscreenenter"",""5"",""61604""
","
","
","""event"",""trial"",""time""
""fullscreenenter"",""5"",""61604""
","
","528.1999998092651","","49","","","3000","1","","","images/purpleplanet.jpg","images/alien4","images/alien3","images/rocket1","images/alien3","images/nothing.png","2","real","false","1","rare","0","2022-02-04 01:36:23.638"
"two-step-fixation","200","844629","0.0-76.0-2.21","709","602","16","Male","false","true","true","true","""event"",""trial"",""time""
""fullscreenenter"",""5"",""61604""
","
","
","""event"",""trial"",""time""
""fullscreenenter"",""5"",""61604""
","
","","images/earth.jpg","","","","","","","","","","","","","","fixation","","","","","",""
"d3-animate-choice","201","846768","0.0-76.0-0.22","709","602","16","Male","false","true","true","true","""event"",""trial"",""time""
""fullscreenenter"",""5"",""61604""
","
","
","""event"",""trial"",""time""
""fullscreenenter"",""5"",""61604""
","
","136.5","","48","","","3000","1","","","images/earth.jpg","images/rocket1","images/rocket2","null","images/rocket1","","1","real","null","2","","",""
"d3-animate-choice","202","849018","0.0-76.0-1.22","709","602","16","Male","false","true","true","true","""event"",""trial"",""time""
""fullscreenenter"",""5"",""61604""
","
","
","""event"",""trial"",""time""
""fullscreenenter"",""5"",""61604""
","
","243.5","","48","","","3000","1","","","images/redplanet1.jpg","images/alien2","images/alien1","images/rocket1","images/alien2","images/t.png","2","real","true","2","common","1","2022-02-04 01:36:29.030"
"two-step-fixation","203","850020","0.0-76.0-2.22","709","602","16","Male","false","true","true","true","""event"",""trial"",""time""
""fullscreenenter"",""5"",""61604""
","
","
","""event"",""trial"",""time""
""fullscreenenter"",""5"",""61604""
","
","","images/earth.jpg","","","","","","","","","","","","","","fixation","","","","","",""
"d3-animate-choice","204","852072","0.0-76.0-0.23","709","602","16","Male","false","true","true","true","""event"",""trial"",""time""
""fullscreenenter"",""5"",""61604""
","
","
","""event"",""trial"",""time""
""fullscreenenter"",""5"",""61604""
","
","48.799999952316284","","48","","","3000","1","","","images/earth.jpg","images/rocket1","images/rocket2","null","images/rocket1","","1","real","null","2","","",""
"d3-animate-choice","205","854438","0.0-76.0-1.23","709","602","16","Male","false","true","true","true","""event"",""trial"",""time""
""fullscreenenter"",""5"",""61604""
","
","
","""event"",""trial"",""time""
""fullscreenenter"",""5"",""61604""
","
","363.40000009536743","","48","","","3000","1","","","images/purpleplanet.jpg","images/alien4","images/alien3","images/rocket1","images/alien4","images/t.png","2","real","false","2","rare","1","2022-02-04 01:36:34.450"
"two-step-fixation","206","855444","0.0-76.0-2.23","709","602","16","Male","false","true","true","true","""event"",""trial"",""time""
""fullscreenenter"",""5"",""61604""
","
","
","""event"",""trial"",""time""
""fullscreenenter"",""5"",""61604""
","
","","images/earth.jpg","","","","","","","","","","","","","","fixation","","","","","",""
"d3-animate-choice","207","857457","0.0-76.0-0.24","709","602","16","Male","false","true","true","true","""event"",""trial"",""time""
""fullscreenenter"",""5"",""61604""
","
","
","""event"",""trial"",""time""
""fullscreenenter"",""5"",""61604""
","
","10.299999952316284","","49","","","3000","1","","","images/earth.jpg","images/rocket1","images/rocket2","null","images/rocket2","","1","real","null","1","","",""
"d3-animate-choice","208","859514","0.0-76.0-1.24","709","602","16","Male","false","true","true","true","""event"",""trial"",""time""
""fullscreenenter"",""5"",""61604""
","
","
","""event"",""trial"",""time""
""fullscreenenter"",""5"",""61604""
","
","54.40000009536743","","48","","","3000","1","313.7000000476837","48","images/purpleplanet.jpg","images/alien4","images/alien3","images/rocket2","images/alien4","images/t.png","2","real","true","2","common","1","2022-02-04 01:36:39.527"
"two-step-fixation","209","860517","0.0-76.0-2.24","709","602","16","Male","false","true","true","true","""event"",""trial"",""time""
""fullscreenenter"",""5"",""61604""
","
","
","""event"",""trial"",""time""
""fullscreenenter"",""5"",""61604""
","
","","images/earth.jpg","","","","","","","","","","","","","","fixation","","","","","",""
"d3-animate-choice","210","862566","0.0-76.0-0.25","709","602","16","Male","false","true","true","true","""event"",""trial"",""time""
""fullscreenenter"",""5"",""61604""
","
","
","""event"",""trial"",""time""
""fullscreenenter"",""5"",""61604""
","
","42.60000014305115","","48","","","3000","1","","","images/earth.jpg","images/rocket1","images/rocket2","null","images/rocket1","","1","real","null","2","","",""
"d3-animate-choice","211","864647","0.0-76.0-1.25","709","602","16","Male","false","true","true","true","""event"",""trial"",""time""
""fullscreenenter"",""5"",""61604""
","
","
","""event"",""trial"",""time""
""fullscreenenter"",""5"",""61604""
","
","77","","48","","","3000","1","","","images/redplanet1.jpg","images/alien2","images/alien1","images/rocket1","images/alien2","images/nothing.png","2","real","true","2","common","0","2022-02-04 01:36:44.659"
"two-step-fixation","212","865649","0.0-76.0-2.25","709","602","16","Male","false","true","true","true","""event"",""trial"",""time""
""fullscreenenter"",""5"",""61604""
","
","
","""event"",""trial"",""time""
""fullscreenenter"",""5"",""61604""
","
","","images/earth.jpg","","","","","","","","","","","","","","fixation","","","","","",""
"d3-animate-choice","213","867905","0.0-76.0-0.26","709","602","16","Male","false","true","true","true","""event"",""trial"",""time""
""fullscreenenter"",""5"",""61604""
","
","
","""event"",""trial"",""time""
""fullscreenenter"",""5"",""61604""
","
","253.70000004768372","","48","","","3000","1","","","images/earth.jpg","images/rocket1","images/rocket2","null","images/rocket1","","1","real","null","2","","",""
"d3-animate-choice","214","870152","0.0-76.0-1.26","709","602","16","Male","false","true","true","true","""event"",""trial"",""time""
""fullscreenenter"",""5"",""61604""
","
","
","""event"",""trial"",""time""
""fullscreenenter"",""5"",""61604""
","
","245","","48","","","3000","1","","","images/redplanet1.jpg","images/alien2","images/alien1","images/rocket1","images/alien2","images/nothing.png","2","real","true","2","common","0","2022-02-04 01:36:50.165"
"two-step-fixation","215","871156","0.0-76.0-2.26","709","602","16","Male","false","true","true","true","""event"",""trial"",""time""
""fullscreenenter"",""5"",""61604""
","
","
","""event"",""trial"",""time""
""fullscreenenter"",""5"",""61604""
","
","","images/earth.jpg","","","","","","","","","","","","","","fixation","","","","","",""
"d3-animate-choice","216","873496","0.0-76.0-0.27","709","602","16","Male","false","true","true","true","""event"",""trial"",""time""
""fullscreenenter"",""5"",""61604""
","
","
","""event"",""trial"",""time""
""fullscreenenter"",""5"",""61604""
","
","336.5","","48","","","3000","1","","","images/earth.jpg","images/rocket1","images/rocket2","null","images/rocket1","","1","real","null","2","","",""
"d3-animate-choice","217","875882","0.0-76.0-1.27","709","602","16","Male","false","true","true","true","""event"",""trial"",""time""
""fullscreenenter"",""5"",""61604""
","
","
","""event"",""trial"",""time""
""fullscreenenter"",""5"",""61604""
","
","379.7999999523163","","48","","","3000","1","","","images/redplanet1.jpg","images/alien2","images/alien1","images/rocket1","images/alien2","images/nothing.png","2","real","true","2","common","0","2022-02-04 01:36:55.894"
"two-step-fixation","218","876884","0.0-76.0-2.27","709","602","16","Male","false","true","true","true","""event"",""trial"",""time""
""fullscreenenter"",""5"",""61604""
","
","
","""event"",""trial"",""time""
""fullscreenenter"",""5"",""61604""
","
","","images/earth.jpg","","","","","","","","","","","","","","fixation","","","","","",""
"d3-animate-choice","219","878995","0.0-76.0-0.28","709","602","16","Male","false","true","true","true","""event"",""trial"",""time""
""fullscreenenter"",""5"",""61604""
","
","
","""event"",""trial"",""time""
""fullscreenenter"",""5"",""61604""
","
","108.20000004768372","","49","","","3000","1","","","images/earth.jpg","images/rocket1","images/rocket2","null","images/rocket2","","1","real","null","1","","",""
"d3-animate-choice","220","881366","0.0-76.0-1.28","709","602","16","Male","false","true","true","true","""event"",""trial"",""time""
""fullscreenenter"",""5"",""61604""
","
","
","""event"",""trial"",""time""
""fullscreenenter"",""5"",""61604""
","
","367.2999999523163","","48","","","3000","1","","","images/purpleplanet.jpg","images/alien4","images/alien3","images/rocket2","images/alien4","images/t.png","2","real","true","2","common","1","2022-02-04 01:37:01.378"
"two-step-fixation","221","882369","0.0-76.0-2.28","709","602","16","Male","false","true","true","true","""event"",""trial"",""time""
""fullscreenenter"",""5"",""61604""
","
","
","""event"",""trial"",""time""
""fullscreenenter"",""5"",""61604""
","
","","images/earth.jpg","","","","","","","","","","","","","","fixation","","","","","",""
"d3-animate-choice","222","884442","0.0-76.0-0.29","709","602","16","Male","false","true","true","true","""event"",""trial"",""time""
""fullscreenenter"",""5"",""61604""
","
","
","""event"",""trial"",""time""
""fullscreenenter"",""5"",""61604""
","
","68.5","","49","","","3000","1","","","images/earth.jpg","images/rocket1","images/rocket2","null","images/rocket2","","1","real","null","1","","",""
"d3-animate-choice","223","886792","0.0-76.0-1.29","709","602","16","Male","false","true","true","true","""event"",""trial"",""time""
""fullscreenenter"",""5"",""61604""
","
","
","""event"",""trial"",""time""
""fullscreenenter"",""5"",""61604""
","
","347.5","","48","","","3000","1","","","images/purpleplanet.jpg","images/alien4","images/alien3","images/rocket2","images/alien4","images/nothing.png","2","real","true","2","common","0","2022-02-04 01:37:06.804"
"two-step-fixation","224","887795","0.0-76.0-2.29","709","602","16","Male","false","true","true","true","""event"",""trial"",""time""
""fullscreenenter"",""5"",""61604""
","
","
","""event"",""trial"",""time""
""fullscreenenter"",""5"",""61604""
","
","","images/earth.jpg","","","","","","","","","","","","","","fixation","","","","","",""
"d3-animate-choice","225","889979","0.0-76.0-0.30","709","602","16","Male","false","true","true","true","""event"",""trial"",""time""
""fullscreenenter"",""5"",""61604""
","
","
","""event"",""trial"",""time""
""fullscreenenter"",""5"",""61604""
","
","177.60000014305115","","49","","","3000","1","","","images/earth.jpg","images/rocket1","images/rocket2","null","images/rocket2","","1","real","null","1","","",""
"d3-animate-choice","226","892360","0.0-76.0-1.30","709","602","16","Male","false","true","true","true","""event"",""trial"",""time""
""fullscreenenter"",""5"",""61604""
","
","
","""event"",""trial"",""time""
""fullscreenenter"",""5"",""61604""
","
","376.59999990463257","","49","","","3000","1","","","images/purpleplanet.jpg","images/alien4","images/alien3","images/rocket2","images/alien3","images/nothing.png","2","real","true","1","common","0","2022-02-04 01:37:12.372"
"two-step-fixation","227","893366","0.0-76.0-2.30","709","602","16","Male","false","true","true","true","""event"",""trial"",""time""
""fullscreenenter"",""5"",""61604""
","
","
","""event"",""trial"",""time""
""fullscreenenter"",""5"",""61604""
","
","","images/earth.jpg","","","","","","","","","","","","","","fixation","","","","","",""
"d3-animate-choice","228","895552","0.0-76.0-0.31","709","602","16","Male","false","true","true","true","""event"",""trial"",""time""
""fullscreenenter"",""5"",""61604""
","
","
","""event"",""trial"",""time""
""fullscreenenter"",""5"",""61604""
","
","183.90000009536743","","48","","","3000","1","","","images/earth.jpg","images/rocket1","images/rocket2","null","images/rocket1","","1","real","null","2","","",""
"d3-animate-choice","229","897980","0.0-76.0-1.31","709","602","16","Male","false","true","true","true","""event"",""trial"",""time""
""fullscreenenter"",""5"",""61604""
","
","
","""event"",""trial"",""time""
""fullscreenenter"",""5"",""61604""
","
","424.2000000476837","","49","","","3000","1","","","images/redplanet1.jpg","images/alien2","images/alien1","images/rocket1","images/alien1","images/t.png","2","real","true","1","common","1","2022-02-04 01:37:17.992"
"two-step-fixation","230","898983","0.0-76.0-2.31","709","602","16","Male","false","true","true","true","""event"",""trial"",""time""
""fullscreenenter"",""5"",""61604""
","
","
","""event"",""trial"",""time""
""fullscreenenter"",""5"",""61604""
","
","","images/earth.jpg","","","","","","","","","","","","","","fixation","","","","","",""
"d3-animate-choice","231","901354","0.0-76.0-0.32","709","602","16","Male","false","true","true","true","""event"",""trial"",""time""
""fullscreenenter"",""5"",""61604""
","
","
","""event"",""trial"",""time""
""fullscreenenter"",""5"",""61604""
","
","366.2999999523163","","48","","","3000","1","","","images/earth.jpg","images/rocket1","images/rocket2","null","images/rocket1","","1","real","null","2","","",""
"d3-animate-choice","232","903591","0.0-76.0-1.32","709","602","16","Male","false","true","true","true","""event"",""trial"",""time""
""fullscreenenter"",""5"",""61604""
","
","
","""event"",""trial"",""time""
""fullscreenenter"",""5"",""61604""
","
","232.40000009536743","","48","","","3000","1","","","images/redplanet1.jpg","images/alien2","images/alien1","images/rocket1","images/alien2","images/t.png","2","real","true","2","common","1","2022-02-04 01:37:23.604"
"two-step-fixation","233","904594","0.0-76.0-2.32","709","602","16","Male","false","true","true","true","""event"",""trial"",""time""
""fullscreenenter"",""5"",""61604""
","
","
","""event"",""trial"",""time""
""fullscreenenter"",""5"",""61604""
","
","","images/earth.jpg","","","","","","","","","","","","","","fixation","","","","","",""
"d3-animate-choice","234","906634","0.0-76.0-0.33","709","602","16","Male","false","true","true","true","""event"",""trial"",""time""
""fullscreenenter"",""5"",""61604""
","
","
","""event"",""trial"",""time""
""fullscreenenter"",""5"",""61604""
","
","37.5","","48","","","3000","1","299.30000019073486","48","images/earth.jpg","images/rocket1","images/rocket2","null","images/rocket1","","1","real","null","2","","",""
"d3-animate-choice","235","908790","0.0-76.0-1.33","709","602","16","Male","false","true","true","true","""event"",""trial"",""time""
""fullscreenenter"",""5"",""61604""
","
","
","""event"",""trial"",""time""
""fullscreenenter"",""5"",""61604""
","
","151.5","","49","","","3000","1","","","images/redplanet1.jpg","images/alien2","images/alien1","images/rocket1","images/alien1","images/t.png","2","real","true","1","common","1","2022-02-04 01:37:28.802"
"two-step-fixation","236","909794","0.0-76.0-2.33","709","602","16","Male","false","true","true","true","""event"",""trial"",""time""
""fullscreenenter"",""5"",""61604""
","
","
","""event"",""trial"",""time""
""fullscreenenter"",""5"",""61604""
","
","","images/earth.jpg","","","","","","","","","","","","","","fixation","","","","","",""
"d3-animate-choice","237","912141","0.0-76.0-0.34","709","602","16","Male","false","true","true","true","""event"",""trial"",""time""
""fullscreenenter"",""5"",""61604""
","
","
","""event"",""trial"",""time""
""fullscreenenter"",""5"",""61604""
","
","344.09999990463257","","48","","","3000","1","","","images/earth.jpg","images/rocket1","images/rocket2","null","images/rocket1","","1","real","null","2","","",""
"d3-animate-choice","238","914598","0.0-76.0-1.34","709","602","16","Male","false","true","true","true","""event"",""trial"",""time""
""fullscreenenter"",""5"",""61604""
","
","
","""event"",""trial"",""time""
""fullscreenenter"",""5"",""61604""
","
","454.2999999523163","","48","","","3000","1","","","images/redplanet1.jpg","images/alien2","images/alien1","images/rocket1","images/alien2","images/nothing.png","2","real","true","2","common","0","2022-02-04 01:37:34.611"
"two-step-fixation","239","915602","0.0-76.0-2.34","709","602","16","Male","false","true","true","true","""event"",""trial"",""time""
""fullscreenenter"",""5"",""61604""
","
","
","""event"",""trial"",""time""
""fullscreenenter"",""5"",""61604""
","
","","images/earth.jpg","","","","","","","","","","","","","","fixation","","","","","",""
"d3-animate-choice","240","917785","0.0-76.0-0.35","709","602","16","Male","false","true","true","true","""event"",""trial"",""time""
""fullscreenenter"",""5"",""61604""
","
","
","""event"",""trial"",""time""
""fullscreenenter"",""5"",""61604""
","
","178.79999995231628","","49","","","3000","1","","","images/earth.jpg","images/rocket1","images/rocket2","null","images/rocket2","","1","real","null","1","","",""
"d3-animate-choice","241","919989","0.0-76.0-1.35","709","602","16","Male","false","true","true","true","""event"",""trial"",""time""
""fullscreenenter"",""5"",""61604""
","
","
","""event"",""trial"",""time""
""fullscreenenter"",""5"",""61604""
","
","200.5","","48","","","3000","1","","","images/redplanet1.jpg","images/alien2","images/alien1","images/rocket2","images/alien2","images/nothing.png","2","real","false","2","rare","0","2022-02-04 01:37:40.001"
"two-step-fixation","242","920990","0.0-76.0-2.35","709","602","16","Male","false","true","true","true","""event"",""trial"",""time""
""fullscreenenter"",""5"",""61604""
","
","
","""event"",""trial"",""time""
""fullscreenenter"",""5"",""61604""
","
","","images/earth.jpg","","","","","","","","","","","","","","fixation","","","","","",""
"d3-animate-choice","243","923367","0.0-76.0-0.36","709","602","16","Male","false","true","true","true","""event"",""trial"",""time""
""fullscreenenter"",""5"",""61604""
","
","
","""event"",""trial"",""time""
""fullscreenenter"",""5"",""61604""
","
","374.10000014305115","","48","","","3000","1","2270.2999999523163","48","images/earth.jpg","images/rocket1","images/rocket2","null","images/rocket1","","1","real","null","2","","",""
"d3-animate-choice","244","925513","0.0-76.0-1.36","709","602","16","Male","false","true","true","true","""event"",""trial"",""time""
""fullscreenenter"",""5"",""61604""
","
","
","""event"",""trial"",""time""
""fullscreenenter"",""5"",""61604""
","
","140.60000014305115","","48","","","3000","1","","","images/purpleplanet.jpg","images/alien4","images/alien3","images/rocket1","images/alien4","images/nothing.png","2","real","false","2","rare","0","2022-02-04 01:37:45.525"
"two-step-fixation","245","926520","0.0-76.0-2.36","709","602","16","Male","false","true","true","true","""event"",""trial"",""time""
""fullscreenenter"",""5"",""61604""
","
","
","""event"",""trial"",""time""
""fullscreenenter"",""5"",""61604""
","
","","images/earth.jpg","","","","","","","","","","","","","","fixation","","","","","",""
"d3-animate-choice","246","928751","0.0-76.0-0.37","709","602","16","Male","false","true","true","true","""event"",""trial"",""time""
""fullscreenenter"",""5"",""61604""
","
","
","""event"",""trial"",""time""
""fullscreenenter"",""5"",""61604""
","
","228.09999990463257","","48","","","3000","1","","","images/earth.jpg","images/rocket1","images/rocket2","null","images/rocket1","","1","real","null","2","","",""
"d3-animate-choice","247","931179","0.0-76.0-1.37","709","602","16","Male","false","true","true","true","""event"",""trial"",""time""
""fullscreenenter"",""5"",""61604""
","
","
","""event"",""trial"",""time""
""fullscreenenter"",""5"",""61604""
","
","422.2000000476837","","49","","","3000","1","","","images/purpleplanet.jpg","images/alien4","images/alien3","images/rocket1","images/alien3","images/nothing.png","2","real","false","1","rare","0","2022-02-04 01:37:51.191"
