"trial_type","trial_index","time_elapsed","internal_node_id","participant_id","subject_id","age","gender","rocket_sides","red_planet_first_rocket","red_display_order","purple_display_order","interactions","blur_events","focus_events","fullscreenenter_events","fullscreenexit_events","rt","stimulus","key_press","button_pressed","success","duration","valid_pressed","rts","keys","planet_text","right_text","left_text","center_text","chosen_text","reward_text","trial_stage","practice_trial","transition_type","choice","transition","reward","timestamp"
"pavlovia","0","4","0.0-0.0","724","5438","8","Female","true","true","false","false","
","
","
","
","
","","","","","","","","","","","","","","","","","","","","","",""
"html-keyboard-response","1","2515","0.0-1.0","724","5438","8","Female","true","true","false","false","
","
","
","
","
","2509.699999988079","Welcome! Press the space bar to begin.","32","","","","","","","","","","","","","","","","","","",""
"audio-keyboard-response","2","8201","0.0-2.0","724","5438","8","Female","true","true","false","false","
","
","
","
","
","5509","audio/beep_loop.wav","32","","","","","","","","","","","","","","","","","","",""
"audio-button-response","3","11546","0.0-3.0","724","5438","8","Female","true","true","false","false","
","
","
","
","
","NaN","audio/fish.mp3","","1","","","","","","","","","","","","","","","","","",""
"audio-button-response","4","14787","0.0-4.0","724","5438","8","Female","true","true","false","false","""event"",""trial"",""time""
""fullscreenenter"",""5"",""19676""
","
","
","""event"",""trial"",""time""
""fullscreenenter"",""5"",""19676""
","
","NaN","audio/tiger.mp3","","4","","","","","","","","","","","","","","","","","",""
"fullscreen","5","20649","0.0-5.0","724","5438","8","Female","true","true","false","false","""event"",""trial"",""time""
""fullscreenenter"",""5"",""19676""
","
","
","""event"",""trial"",""time""
""fullscreenenter"",""5"",""19676""
","
","","","","","true","","","","","","","","","","","","","","","","",""
"d3-instructions","6","39936","0.0-6.0","724","5438","8","Female","true","true","false","false","""event"",""trial"",""time""
""fullscreenenter"",""5"",""19676""
","
","
","""event"",""trial"",""time""
""fullscreenenter"",""5"",""19676""
","
","","","","","","","","","","","","","","","","","","","","","",""
"d3-instructions","7","63425","0.0-7.0","724","5438","8","Female","true","true","false","false","""event"",""trial"",""time""
""fullscreenenter"",""5"",""19676""
","
","
","""event"",""trial"",""time""
""fullscreenenter"",""5"",""19676""
","
","","","","","","","","","","","","","","","","","","","","","",""
"d3-instructions","8","74075","0.0-8.0","724","5438","8","Female","true","true","false","false","""event"",""trial"",""time""
""fullscreenenter"",""5"",""19676""
","
","
","""event"",""trial"",""time""
""fullscreenenter"",""5"",""19676""
","
","","","","","","","","","","","","","","","","","","","","","",""
"d3-instructions","9","85792","0.0-9.0","724","5438","8","Female","true","true","false","false","""event"",""trial"",""time""
""fullscreenenter"",""5"",""19676""
","
","
","""event"",""trial"",""time""
""fullscreenenter"",""5"",""19676""
","
","","","","","","","","","","","","","","","","","","","","","",""
"d3-instructions","10","98217","0.0-10.0","724","5438","8","Female","true","true","false","false","""event"",""trial"",""time""
""fullscreenenter"",""5"",""19676""
","
","
","""event"",""trial"",""time""
""fullscreenenter"",""5"",""19676""
","
","","","","","","","","","","","","","","","","","","","","","",""
"d3-animate-choice","11","105921","0.0-11.0","724","5438","8","Female","true","true","false","false","""event"",""trial"",""time""
""fullscreenenter"",""5"",""19676""
","
","
","""event"",""trial"",""time""
""fullscreenenter"",""5"",""19676""
","
","5685.699999988079","","48","","","3000","1","","","images/tutgreenplanet.jpg","images/tutalien1","images/tutalien2","null","images/tutalien1","","NA","practice","null","","","",""
"d3-animate-choice","12","111196","0.0-12.0","724","5438","8","Female","true","true","false","false","""event"",""trial"",""time""
""fullscreenenter"",""5"",""19676""
","
","
","""event"",""trial"",""time""
""fullscreenenter"",""5"",""19676""
","
","3262.399999976158","","49","","","3000","1","","","images/tutgreenplanet.jpg","images/tutalien1","images/tutalien2","null","images/tutalien2","","NA","practice","null","","","",""
"d3-animate-choice","13","116495","0.0-13.0","724","5438","8","Female","true","true","false","false","""event"",""trial"",""time""
""fullscreenenter"",""5"",""19676""
","
","
","""event"",""trial"",""time""
""fullscreenenter"",""5"",""19676""
","
","3279","","48","","","3000","1","","","images/tutgreenplanet.jpg","images/tutalien1","images/tutalien2","null","images/tutalien1","","NA","practice","null","","","",""
"d3-animate-choice","14","119362","0.0-14.0","724","5438","8","Female","true","true","false","false","""event"",""trial"",""time""
""fullscreenenter"",""5"",""19676""
","
","
","""event"",""trial"",""time""
""fullscreenenter"",""5"",""19676""
","
","851","","49","","","3000","1","","","images/tutgreenplanet.jpg","images/tutalien1","images/tutalien2","null","images/tutalien2","","NA","practice","null","","","",""
"d3-instructions","15","128265","0.0-15.0","724","5438","8","Female","true","true","false","false","""event"",""trial"",""time""
""fullscreenenter"",""5"",""19676""
","
","
","""event"",""trial"",""time""
""fullscreenenter"",""5"",""19676""
","
","","","","","","","","","","","","","","","","","","","","","",""
"d3-instructions","16","138455","0.0-16.0","724","5438","8","Female","true","true","false","false","""event"",""trial"",""time""
""fullscreenenter"",""5"",""19676""
","
","
","""event"",""trial"",""time""
""fullscreenenter"",""5"",""19676""
","
","","","","","","","","","","","","","","","","","","","","","",""
"d3-instructions","17","149399","0.0-17.0","724","5438","8","Female","true","true","false","false","""event"",""trial"",""time""
""fullscreenenter"",""5"",""19676""
","
","
","""event"",""trial"",""time""
""fullscreenenter"",""5"",""19676""
","
","","","","","","","","","","","","","","","","","","","","","",""
"d3-instructions","18","166963","0.0-18.0","724","5438","8","Female","true","true","false","false","""event"",""trial"",""time""
""fullscreenenter"",""5"",""19676""
","
","
","""event"",""trial"",""time""
""fullscreenenter"",""5"",""19676""
","
","","","","","","","","","","","","","","","","","","","","","",""
"d3-instructions","19","175374","0.0-19.0","724","5438","8","Female","true","true","false","false","""event"",""trial"",""time""
""fullscreenenter"",""5"",""19676""
","
","
","""event"",""trial"",""time""
""fullscreenenter"",""5"",""19676""
","
","","","","","","","","","","","","","","","","","","","","","",""
"d3-animate-choice","20","187811","0.0-20.0","724","5438","8","Female","true","true","false","false","""event"",""trial"",""time""
""fullscreenenter"",""5"",""19676""
","
","
","""event"",""trial"",""time""
""fullscreenenter"",""5"",""19676""
","
","6075.199999988079","","32","","","3000","1","8615.5,9119.100000023842,10420","75,48,49","images/tutyellowplanet.jpg","null","images/tutalien3","null","images/tutalien3","images/t.png","NA","practice","null","","","",""
"d3-animate-choice","21","191174","0.0-21.0","724","5438","8","Female","true","true","false","false","""event"",""trial"",""time""
""fullscreenenter"",""5"",""19676""
","
","
","""event"",""trial"",""time""
""fullscreenenter"",""5"",""19676""
","
","1339.800000011921","","49","","","3000","1","","","images/tutyellowplanet.jpg","null","images/tutalien3","null","images/tutalien3","images/t.png","NA","practice","null","","","",""
"d3-animate-choice","22","194272","0.0-22.0","724","5438","8","Female","true","true","false","false","""event"",""trial"",""time""
""fullscreenenter"",""5"",""19676""
","
","
","""event"",""trial"",""time""
""fullscreenenter"",""5"",""19676""
","
","1095.4000000357628","","49","","","3000","1","","","images/tutyellowplanet.jpg","null","images/tutalien3","null","images/tutalien3","images/t.png","NA","practice","null","","","",""
"d3-animate-choice","23","197274","0.0-23.0","724","5438","8","Female","true","true","false","false","""event"",""trial"",""time""
""fullscreenenter"",""5"",""19676""
","
","
","""event"",""trial"",""time""
""fullscreenenter"",""5"",""19676""
","
","996.3000000119209","","49","","","3000","1","1349.199999988079,1703,2494.100000023842","49,49,49","images/tutyellowplanet.jpg","null","images/tutalien3","null","images/tutalien3","images/t.png","NA","practice","null","","","",""
"d3-animate-choice","24","199983","0.0-24.0","724","5438","8","Female","true","true","false","false","""event"",""trial"",""time""
""fullscreenenter"",""5"",""19676""
","
","
","""event"",""trial"",""time""
""fullscreenenter"",""5"",""19676""
","
","696.3999999761581","","49","","","3000","1","","","images/tutyellowplanet.jpg","null","images/tutalien3","null","images/tutalien3","images/t.png","NA","practice","null","","","",""
"d3-animate-choice","25","203115","0.0-25.0","724","5438","8","Female","true","true","false","false","""event"",""trial"",""time""
""fullscreenenter"",""5"",""19676""
","
","
","""event"",""trial"",""time""
""fullscreenenter"",""5"",""19676""
","
","1121.2999999523163","","49","","","3000","1","","","images/tutyellowplanet.jpg","null","images/tutalien3","null","images/tutalien3","images/nothing.png","NA","practice","null","","","",""
"d3-animate-choice","26","206329","0.0-26.0","724","5438","8","Female","true","true","false","false","""event"",""trial"",""time""
""fullscreenenter"",""5"",""19676""
","
","
","""event"",""trial"",""time""
""fullscreenenter"",""5"",""19676""
","
","1204.3999999761581","","49","","","3000","1","","","images/tutyellowplanet.jpg","null","images/tutalien3","null","images/tutalien3","images/t.png","NA","practice","null","","","",""
"d3-animate-choice","27","209034","0.0-27.0","724","5438","8","Female","true","true","false","false","""event"",""trial"",""time""
""fullscreenenter"",""5"",""19676""
","
","
","""event"",""trial"",""time""
""fullscreenenter"",""5"",""19676""
","
","691.6999999880791","","49","","","3000","1","","","images/tutyellowplanet.jpg","null","images/tutalien3","null","images/tutalien3","images/t.png","NA","practice","null","","","",""
"d3-animate-choice","28","211245","0.0-28.0","724","5438","8","Female","true","true","false","false","""event"",""trial"",""time""
""fullscreenenter"",""5"",""19676""
","
","
","""event"",""trial"",""time""
""fullscreenenter"",""5"",""19676""
","
","195.39999997615814","","49","","","3000","1","","","images/tutyellowplanet.jpg","null","images/tutalien3","null","images/tutalien3","images/t.png","NA","practice","null","","","",""
"d3-animate-choice","29","213697","0.0-29.0","724","5438","8","Female","true","true","false","false","""event"",""trial"",""time""
""fullscreenenter"",""5"",""19676""
","
","
","""event"",""trial"",""time""
""fullscreenenter"",""5"",""19676""
","
","444.89999997615814","","49","","","3000","1","2367.899999976158","49","images/tutyellowplanet.jpg","null","images/tutalien3","null","images/tutalien3","images/t.png","NA","practice","null","","","",""
"d3-instructions","30","221340","0.0-30.0","724","5438","8","Female","true","true","false","false","""event"",""trial"",""time""
""fullscreenenter"",""5"",""19676""
","
","
","""event"",""trial"",""time""
""fullscreenenter"",""5"",""19676""
","
","","","","","","","","","","","","","","","","","","","","","",""
"d3-instructions","31","233869","0.0-31.0","724","5438","8","Female","true","true","false","false","""event"",""trial"",""time""
""fullscreenenter"",""5"",""19676""
","
","
","""event"",""trial"",""time""
""fullscreenenter"",""5"",""19676""
","
","","","","","","","","","","","","","","","","","","","","","",""
"d3-instructions","32","243562","0.0-32.0","724","5438","8","Female","true","true","false","false","""event"",""trial"",""time""
""fullscreenenter"",""5"",""19676""
","
","
","""event"",""trial"",""time""
""fullscreenenter"",""5"",""19676""
","
","","","","","","","","","","","","","","","","","","","","","",""
"d3-instructions","33","256947","0.0-33.0","724","5438","8","Female","true","true","false","false","""event"",""trial"",""time""
""fullscreenenter"",""5"",""19676""
","
","
","""event"",""trial"",""time""
""fullscreenenter"",""5"",""19676""
","
","","","","","","","","","","","","","","","","","","","","","",""
"d3-animate-choice","34","260729","0.0-34.0","724","5438","8","Female","true","true","false","false","""event"",""trial"",""time""
""fullscreenenter"",""5"",""19676""
","
","
","""event"",""trial"",""time""
""fullscreenenter"",""5"",""19676""
","
","1768.199999988079","","48","","","3000","1","","","images/tutgreenplanet.jpg","images/tutalien1","images/tutalien2","null","images/tutalien1","images/nothing.png","NA","practice","null","","","",""
"d3-animate-choice","35","263668","0.0-35.0","724","5438","8","Female","true","true","false","false","""event"",""trial"",""time""
""fullscreenenter"",""5"",""19676""
","
","
","""event"",""trial"",""time""
""fullscreenenter"",""5"",""19676""
","
","917.5","","48","","","3000","1","","","images/tutgreenplanet.jpg","images/tutalien1","images/tutalien2","null","images/tutalien1","images/nothing.png","NA","practice","null","","","",""
"d3-animate-choice","36","266137","0.0-36.0","724","5438","8","Female","true","true","false","false","""event"",""trial"",""time""
""fullscreenenter"",""5"",""19676""
","
","
","""event"",""trial"",""time""
""fullscreenenter"",""5"",""19676""
","
","461.60000002384186","","49","","","3000","1","","","images/tutgreenplanet.jpg","images/tutalien1","images/tutalien2","null","images/tutalien2","images/t.png","NA","practice","null","","","",""
"d3-animate-choice","37","270214","0.0-37.0","724","5438","8","Female","true","true","false","false","""event"",""trial"",""time""
""fullscreenenter"",""5"",""19676""
","
","
","""event"",""trial"",""time""
""fullscreenenter"",""5"",""19676""
","
","2064.300000011921","","49","","","3000","1","","","images/tutgreenplanet.jpg","images/tutalien1","images/tutalien2","null","images/tutalien2","images/t.png","NA","practice","null","","","",""
"d3-animate-choice","38","272705","0.0-38.0","724","5438","8","Female","true","true","false","false","""event"",""trial"",""time""
""fullscreenenter"",""5"",""19676""
","
","
","""event"",""trial"",""time""
""fullscreenenter"",""5"",""19676""
","
","480.69999998807907","","49","","","3000","1","","","images/tutgreenplanet.jpg","images/tutalien1","images/tutalien2","null","images/tutalien2","images/nothing.png","NA","practice","null","","","",""
"d3-animate-choice","39","274908","0.0-39.0","724","5438","8","Female","true","true","false","false","""event"",""trial"",""time""
""fullscreenenter"",""5"",""19676""
","
","
","""event"",""trial"",""time""
""fullscreenenter"",""5"",""19676""
","
","190.0999999642372","","48","","","3000","1","","","images/tutgreenplanet.jpg","images/tutalien1","images/tutalien2","null","images/tutalien1","images/nothing.png","NA","practice","null","","","",""
"d3-animate-choice","40","277023","0.0-40.0","724","5438","8","Female","true","true","false","false","""event"",""trial"",""time""
""fullscreenenter"",""5"",""19676""
","
","
","""event"",""trial"",""time""
""fullscreenenter"",""5"",""19676""
","
","108","","49","","","3000","1","","","images/tutgreenplanet.jpg","images/tutalien1","images/tutalien2","null","images/tutalien2","images/t.png","NA","practice","null","","","",""
"d3-animate-choice","41","279668","0.0-41.0","724","5438","8","Female","true","true","false","false","""event"",""trial"",""time""
""fullscreenenter"",""5"",""19676""
","
","
","""event"",""trial"",""time""
""fullscreenenter"",""5"",""19676""
","
","632.6000000238419","","49","","","3000","1","","","images/tutgreenplanet.jpg","images/tutalien1","images/tutalien2","null","images/tutalien2","images/t.png","NA","practice","null","","","",""
"d3-animate-choice","42","282050","0.0-42.0","724","5438","8","Female","true","true","false","false","""event"",""trial"",""time""
""fullscreenenter"",""5"",""19676""
","
","
","""event"",""trial"",""time""
""fullscreenenter"",""5"",""19676""
","
","363.69999998807907","","49","","","3000","1","","","images/tutgreenplanet.jpg","images/tutalien1","images/tutalien2","null","images/tutalien2","images/t.png","NA","practice","null","","","",""
"d3-animate-choice","43","284489","0.0-43.0","724","5438","8","Female","true","true","false","false","""event"",""trial"",""time""
""fullscreenenter"",""5"",""19676""
","
","
","""event"",""trial"",""time""
""fullscreenenter"",""5"",""19676""
","
","431.69999998807907","","49","","","3000","1","","","images/tutgreenplanet.jpg","images/tutalien1","images/tutalien2","null","images/tutalien2","images/t.png","NA","practice","null","","","",""
"d3-instructions","44","303409","0.0-44.0","724","5438","8","Female","true","true","false","false","""event"",""trial"",""time""
""fullscreenenter"",""5"",""19676""
","
","
","""event"",""trial"",""time""
""fullscreenenter"",""5"",""19676""
","
","","","","","","","","","","","","","","","","","","","","","",""
"d3-instructions","45","313472","0.0-45.0","724","5438","8","Female","true","true","false","false","""event"",""trial"",""time""
""fullscreenenter"",""5"",""19676""
","
","
","""event"",""trial"",""time""
""fullscreenenter"",""5"",""19676""
","
","","","","","","","","","","","","","","","","","","","","","",""
"d3-instructions","46","318424","0.0-46.0","724","5438","8","Female","true","true","false","false","""event"",""trial"",""time""
""fullscreenenter"",""5"",""19676""
","
","
","""event"",""trial"",""time""
""fullscreenenter"",""5"",""19676""
","
","","","","","","","","","","","","","","","","","","","","","",""
"d3-instructions","47","331412","0.0-47.0","724","5438","8","Female","true","true","false","false","""event"",""trial"",""time""
""fullscreenenter"",""5"",""19676""
","
","
","""event"",""trial"",""time""
""fullscreenenter"",""5"",""19676""
","
","","","","","","","","","","","","","","","","","","","","","",""
"d3-instructions","48","338793","0.0-48.0","724","5438","8","Female","true","true","false","false","""event"",""trial"",""time""
""fullscreenenter"",""5"",""19676""
","
","
","""event"",""trial"",""time""
""fullscreenenter"",""5"",""19676""
","
","","","","","","","","","","","","","","","","","","","","","",""
"d3-instructions","49","350036","0.0-49.0","724","5438","8","Female","true","true","false","false","""event"",""trial"",""time""
""fullscreenenter"",""5"",""19676""
","
","
","""event"",""trial"",""time""
""fullscreenenter"",""5"",""19676""
","
","","","","","","","","","","","","","","","","","","","","","",""
"d3-instructions","50","360087","0.0-50.0","724","5438","8","Female","true","true","false","false","""event"",""trial"",""time""
""fullscreenenter"",""5"",""19676""
","
","
","""event"",""trial"",""time""
""fullscreenenter"",""5"",""19676""
","
","","","","","","","","","","","","","","","","","","","","","",""
"d3-instructions","51","364671","0.0-51.0","724","5438","8","Female","true","true","false","false","""event"",""trial"",""time""
""fullscreenenter"",""5"",""19676""
","
","
","""event"",""trial"",""time""
""fullscreenenter"",""5"",""19676""
","
","","","","","","","","","","","","","","","","","","","","","",""
"d3-instructions","52","369481","0.0-52.0","724","5438","8","Female","true","true","false","false","""event"",""trial"",""time""
""fullscreenenter"",""5"",""19676""
","
","
","""event"",""trial"",""time""
""fullscreenenter"",""5"",""19676""
","
","","","","","","","","","","","","","","","","","","","","","",""
"d3-instructions","53","382854","0.0-53.0","724","5438","8","Female","true","true","false","false","""event"",""trial"",""time""
""fullscreenenter"",""5"",""19676""
","
","
","""event"",""trial"",""time""
""fullscreenenter"",""5"",""19676""
","
","","","","","","","","","","","","","","","","","","","","","",""
"d3-instructions","54","399152","0.0-54.0","724","5438","8","Female","true","true","false","false","""event"",""trial"",""time""
""fullscreenenter"",""5"",""19676""
","
","
","""event"",""trial"",""time""
""fullscreenenter"",""5"",""19676""
","
","","","","","","","","","","","","","","","","","","","","","",""
"d3-instructions","55","411292","0.0-55.0","724","5438","8","Female","true","true","false","false","""event"",""trial"",""time""
""fullscreenenter"",""5"",""19676""
","
","
","""event"",""trial"",""time""
""fullscreenenter"",""5"",""19676""
","
","","","","","","","","","","","","","","","","","","","","","",""
"d3-instructions","56","419035","0.0-56.0","724","5438","8","Female","true","true","false","false","""event"",""trial"",""time""
""fullscreenenter"",""5"",""19676""
","
","
","""event"",""trial"",""time""
""fullscreenenter"",""5"",""19676""
","
","","","","","","","","","","","","","","","","","","","","","",""
"d3-instructions","57","430421","0.0-57.0","724","5438","8","Female","true","true","false","false","""event"",""trial"",""time""
""fullscreenenter"",""5"",""19676""
","
","
","""event"",""trial"",""time""
""fullscreenenter"",""5"",""19676""
","
","","","","","","","","","","","","","","","","","","","","","",""
"d3-instructions","58","442148","0.0-58.0","724","5438","8","Female","true","true","false","false","""event"",""trial"",""time""
""fullscreenenter"",""5"",""19676""
","
","
","""event"",""trial"",""time""
""fullscreenenter"",""5"",""19676""
","
","","","","","","","","","","","","","","","","","","","","","",""
"d3-instructions","59","448331","0.0-59.0","724","5438","8","Female","true","true","false","false","""event"",""trial"",""time""
""fullscreenenter"",""5"",""19676""
","
","
","""event"",""trial"",""time""
""fullscreenenter"",""5"",""19676""
","
","","","","","","","","","","","","","","","","","","","","","",""
"d3-instructions","60","455693","0.0-60.0","724","5438","8","Female","true","true","false","false","""event"",""trial"",""time""
""fullscreenenter"",""5"",""19676""
","
","
","""event"",""trial"",""time""
""fullscreenenter"",""5"",""19676""
","
","","","","","","","","","","","","","","","","","","","","","",""
"d3-animate-choice","61","459289","0.0-61.0-0.0","724","5438","8","Female","true","true","false","false","""event"",""trial"",""time""
""fullscreenenter"",""5"",""19676""
","
","
","""event"",""trial"",""time""
""fullscreenenter"",""5"",""19676""
","
","1586.699999988079","","48","","","3000","1","","","images/earth.jpg","images/tutrocket2","images/tutrocket1","null","images/tutrocket2","","1","practice","null","2","","",""
"d3-animate-choice","62","463305","0.0-61.0-1.0","724","5438","8","Female","true","true","false","false","""event"",""trial"",""time""
""fullscreenenter"",""5"",""19676""
","
","
","""event"",""trial"",""time""
""fullscreenenter"",""5"",""19676""
","
","2572.899999976158","","49","","","3000","1","","","images/tutgreenplanet.jpg","images/tutalien2","images/tutalien1","images/tutrocket2","images/tutalien1","images/nothing.png","2","practice","false","1","rare","0","2022-12-27 21:44:35.913"
"two-step-fixation","63","464314","0.0-61.0-2.0","724","5438","8","Female","true","true","false","false","""event"",""trial"",""time""
""fullscreenenter"",""5"",""19676""
","
","
","""event"",""trial"",""time""
""fullscreenenter"",""5"",""19676""
","
","","images/earth.jpg","","","","","","","","","","","","","","fixation","","","","","",""
"d3-animate-choice","64","467344","0.0-61.0-0.1","724","5438","8","Female","true","true","false","false","""event"",""trial"",""time""
""fullscreenenter"",""5"",""19676""
","
","
","""event"",""trial"",""time""
""fullscreenenter"",""5"",""19676""
","
","1020.3000000119209","","48","","","3000","1","","","images/earth.jpg","images/tutrocket2","images/tutrocket1","null","images/tutrocket2","","1","practice","null","2","","",""
"d3-animate-choice","65","471015","0.0-61.0-1.1","724","5438","8","Female","true","true","false","false","""event"",""trial"",""time""
""fullscreenenter"",""5"",""19676""
","
","
","""event"",""trial"",""time""
""fullscreenenter"",""5"",""19676""
","
","1655.6000000238419","","48","","","3000","1","","","images/tutyellowplanet.jpg","images/tutalien4","images/tutalien3","images/tutrocket2","images/tutalien4","images/t.png","2","practice","true","2","common","1","2022-12-27 21:44:43.622"
"two-step-fixation","66","472032","0.0-61.0-2.1","724","5438","8","Female","true","true","false","false","""event"",""trial"",""time""
""fullscreenenter"",""5"",""19676""
","
","
","""event"",""trial"",""time""
""fullscreenenter"",""5"",""19676""
","
","","images/earth.jpg","","","","","","","","","","","","","","fixation","","","","","",""
"d3-animate-choice","67","474433","0.0-61.0-0.2","724","5438","8","Female","true","true","false","false","""event"",""trial"",""time""
""fullscreenenter"",""5"",""19676""
","
","
","""event"",""trial"",""time""
""fullscreenenter"",""5"",""19676""
","
","391.69999998807907","","49","","","3000","1","","","images/earth.jpg","images/tutrocket2","images/tutrocket1","null","images/tutrocket1","","1","practice","null","1","","",""
"d3-animate-choice","68","477441","0.0-61.0-1.2","724","5438","8","Female","true","true","false","false","""event"",""trial"",""time""
""fullscreenenter"",""5"",""19676""
","
","
","""event"",""trial"",""time""
""fullscreenenter"",""5"",""19676""
","
","995.8000000119209","","49","","","3000","1","","","images/tutgreenplanet.jpg","images/tutalien2","images/tutalien1","images/tutrocket1","images/tutalien1","images/nothing.png","2","practice","true","1","common","0","2022-12-27 21:44:50.049"
"two-step-fixation","69","478454","0.0-61.0-2.2","724","5438","8","Female","true","true","false","false","""event"",""trial"",""time""
""fullscreenenter"",""5"",""19676""
","
","
","""event"",""trial"",""time""
""fullscreenenter"",""5"",""19676""
","
","","images/earth.jpg","","","","","","","","","","","","","","fixation","","","","","",""
"d3-animate-choice","70","480498","0.0-61.0-0.3","724","5438","8","Female","true","true","false","false","""event"",""trial"",""time""
""fullscreenenter"",""5"",""19676""
","
","
","""event"",""trial"",""time""
""fullscreenenter"",""5"",""19676""
","
","30","","48","","","3000","1","","","images/earth.jpg","images/tutrocket2","images/tutrocket1","null","images/tutrocket2","","1","practice","null","2","","",""
"d3-animate-choice","71","483734","0.0-61.0-1.3","724","5438","8","Female","true","true","false","false","""event"",""trial"",""time""
""fullscreenenter"",""5"",""19676""
","
","
","""event"",""trial"",""time""
""fullscreenenter"",""5"",""19676""
","
","1223.5","","49","","","3000","1","","","images/tutgreenplanet.jpg","images/tutalien2","images/tutalien1","images/tutrocket2","images/tutalien1","images/t.png","2","practice","false","1","rare","1","2022-12-27 21:44:56.342"
"two-step-fixation","72","484745","0.0-61.0-2.3","724","5438","8","Female","true","true","false","false","""event"",""trial"",""time""
""fullscreenenter"",""5"",""19676""
","
","
","""event"",""trial"",""time""
""fullscreenenter"",""5"",""19676""
","
","","images/earth.jpg","","","","","","","","","","","","","","fixation","","","","","",""
"d3-animate-choice","73","488401","0.0-61.0-0.4","724","5438","8","Female","true","true","false","false","""event"",""trial"",""time""
""fullscreenenter"",""5"",""19676""
","
","
","""event"",""trial"",""time""
""fullscreenenter"",""5"",""19676""
","
","1643.5","","48","","","3000","1","","","images/earth.jpg","images/tutrocket2","images/tutrocket1","null","images/tutrocket2","","1","practice","null","2","","",""
"d3-animate-choice","74","491561","0.0-61.0-1.4","724","5438","8","Female","true","true","false","false","""event"",""trial"",""time""
""fullscreenenter"",""5"",""19676""
","
","
","""event"",""trial"",""time""
""fullscreenenter"",""5"",""19676""
","
","1150.699999988079","","49","","","3000","1","","","images/tutyellowplanet.jpg","images/tutalien4","images/tutalien3","images/tutrocket2","images/tutalien3","images/nothing.png","2","practice","true","1","common","0","2022-12-27 21:45:04.168"
"two-step-fixation","75","492569","0.0-61.0-2.4","724","5438","8","Female","true","true","false","false","""event"",""trial"",""time""
""fullscreenenter"",""5"",""19676""
","
","
","""event"",""trial"",""time""
""fullscreenenter"",""5"",""19676""
","
","","images/earth.jpg","","","","","","","","","","","","","","fixation","","","","","",""
"d3-animate-choice","76","495153","0.0-61.0-0.5","724","5438","8","Female","true","true","false","false","""event"",""trial"",""time""
""fullscreenenter"",""5"",""19676""
","
","
","""event"",""trial"",""time""
""fullscreenenter"",""5"",""19676""
","
","577.5999999642372","","48","","","3000","1","","","images/earth.jpg","images/tutrocket2","images/tutrocket1","null","images/tutrocket2","","1","practice","null","2","","",""
"d3-animate-choice","77","497824","0.0-61.0-1.5","724","5438","8","Female","true","true","false","false","""event"",""trial"",""time""
""fullscreenenter"",""5"",""19676""
","
","
","""event"",""trial"",""time""
""fullscreenenter"",""5"",""19676""
","
","664.8999999761581","","48","","","3000","1","","","images/tutyellowplanet.jpg","images/tutalien4","images/tutalien3","images/tutrocket2","images/tutalien4","images/t.png","2","practice","true","2","common","1","2022-12-27 21:45:10.431"
"two-step-fixation","78","498833","0.0-61.0-2.5","724","5438","8","Female","true","true","false","false","""event"",""trial"",""time""
""fullscreenenter"",""5"",""19676""
","
","
","""event"",""trial"",""time""
""fullscreenenter"",""5"",""19676""
","
","","images/earth.jpg","","","","","","","","","","","","","","fixation","","","","","",""
"d3-animate-choice","79","501369","0.0-61.0-0.6","724","5438","8","Female","true","true","false","false","""event"",""trial"",""time""
""fullscreenenter"",""5"",""19676""
","
","
","""event"",""trial"",""time""
""fullscreenenter"",""5"",""19676""
","
","524.5","","49","","","3000","1","","","images/earth.jpg","images/tutrocket2","images/tutrocket1","null","images/tutrocket1","","1","practice","null","1","","",""
"d3-animate-choice","80","504449","0.0-61.0-1.6","724","5438","8","Female","true","true","false","false","""event"",""trial"",""time""
""fullscreenenter"",""5"",""19676""
","
","
","""event"",""trial"",""time""
""fullscreenenter"",""5"",""19676""
","
","1067","","48","","","3000","1","","","images/tutyellowplanet.jpg","images/tutalien4","images/tutalien3","images/tutrocket1","images/tutalien4","images/nothing.png","2","practice","false","2","rare","0","2022-12-27 21:45:17.056"
"two-step-fixation","81","505457","0.0-61.0-2.6","724","5438","8","Female","true","true","false","false","""event"",""trial"",""time""
""fullscreenenter"",""5"",""19676""
","
","
","""event"",""trial"",""time""
""fullscreenenter"",""5"",""19676""
","
","","images/earth.jpg","","","","","","","","","","","","","","fixation","","","","","",""
"d3-animate-choice","82","509001","0.0-61.0-0.7","724","5438","8","Female","true","true","false","false","""event"",""trial"",""time""
""fullscreenenter"",""5"",""19676""
","
","
","""event"",""trial"",""time""
""fullscreenenter"",""5"",""19676""
","
","1535.2000000476837","","48","","","3000","1","","","images/earth.jpg","images/tutrocket2","images/tutrocket1","null","images/tutrocket2","","1","practice","null","2","","",""
"d3-animate-choice","83","513017","0.0-61.0-1.7","724","5438","8","Female","true","true","false","false","""event"",""trial"",""time""
""fullscreenenter"",""5"",""19676""
","
","
","""event"",""trial"",""time""
""fullscreenenter"",""5"",""19676""
","
","2770.399999976158","","48","","","3000","1","","","images/tutyellowplanet.jpg","images/tutalien4","images/tutalien3","images/tutrocket2","images/tutalien4","","2","practice","true","2","common","0","2022-12-27 21:45:25.624"
"two-step-fixation","84","514025","0.0-61.0-2.7","724","5438","8","Female","true","true","false","false","""event"",""trial"",""time""
""fullscreenenter"",""5"",""19676""
","
","
","""event"",""trial"",""time""
""fullscreenenter"",""5"",""19676""
","
","","images/earth.jpg","","","","","","","","","","","","","","fixation","","","","","",""
"d3-animate-choice","85","516785","0.0-61.0-0.8","724","5438","8","Female","true","true","false","false","""event"",""trial"",""time""
""fullscreenenter"",""5"",""19676""
","
","
","""event"",""trial"",""time""
""fullscreenenter"",""5"",""19676""
","
","755.2999999523163","","49","","","3000","1","","","images/earth.jpg","images/tutrocket2","images/tutrocket1","null","images/tutrocket1","","1","practice","null","1","","",""
"d3-animate-choice","86","519865","0.0-61.0-1.8","724","5438","8","Female","true","true","false","false","""event"",""trial"",""time""
""fullscreenenter"",""5"",""19676""
","
","
","""event"",""trial"",""time""
""fullscreenenter"",""5"",""19676""
","
","1068.5","","48","","","3000","1","","","images/tutgreenplanet.jpg","images/tutalien2","images/tutalien1","images/tutrocket1","images/tutalien2","images/nothing.png","2","practice","true","2","common","0","2022-12-27 21:45:32.472"
"two-step-fixation","87","520872","0.0-61.0-2.8","724","5438","8","Female","true","true","false","false","""event"",""trial"",""time""
""fullscreenenter"",""5"",""19676""
","
","
","""event"",""trial"",""time""
""fullscreenenter"",""5"",""19676""
","
","","images/earth.jpg","","","","","","","","","","","","","","fixation","","","","","",""
"d3-animate-choice","88","524433","0.0-61.0-0.9","724","5438","8","Female","true","true","false","false","""event"",""trial"",""time""
""fullscreenenter"",""5"",""19676""
","
","
","""event"",""trial"",""time""
""fullscreenenter"",""5"",""19676""
","
","1552.5","","49","","","3000","1","","","images/earth.jpg","images/tutrocket2","images/tutrocket1","null","images/tutrocket1","","1","practice","null","1","","",""
"d3-animate-choice","89","527498","0.0-61.0-1.9","724","5438","8","Female","true","true","false","false","""event"",""trial"",""time""
""fullscreenenter"",""5"",""19676""
","
","
","""event"",""trial"",""time""
""fullscreenenter"",""5"",""19676""
","
","1058","","48","","","3000","1","","","images/tutgreenplanet.jpg","images/tutalien2","images/tutalien1","images/tutrocket1","images/tutalien2","images/nothing.png","2","practice","true","2","common","0","2022-12-27 21:45:40.105"
"two-step-fixation","90","528505","0.0-61.0-2.9","724","5438","8","Female","true","true","false","false","""event"",""trial"",""time""
""fullscreenenter"",""5"",""19676""
","
","
","""event"",""trial"",""time""
""fullscreenenter"",""5"",""19676""
","
","","images/earth.jpg","","","","","","","","","","","","","","fixation","","","","","",""
"d3-animate-choice","91","531089","0.0-61.0-0.10","724","5438","8","Female","true","true","false","false","""event"",""trial"",""time""
""fullscreenenter"",""5"",""19676""
","
","
","""event"",""trial"",""time""
""fullscreenenter"",""5"",""19676""
","
","572.6999999880791","","49","","","3000","1","","","images/earth.jpg","images/tutrocket2","images/tutrocket1","null","images/tutrocket1","","1","practice","null","1","","",""
"d3-animate-choice","92","533984","0.0-61.0-1.10","724","5438","8","Female","true","true","false","false","""event"",""trial"",""time""
""fullscreenenter"",""5"",""19676""
","
","
","""event"",""trial"",""time""
""fullscreenenter"",""5"",""19676""
","
","885.1999999880791","","48","","","3000","1","","","images/tutgreenplanet.jpg","images/tutalien2","images/tutalien1","images/tutrocket1","images/tutalien2","images/t.png","2","practice","true","2","common","1","2022-12-27 21:45:46.592"
"two-step-fixation","93","534993","0.0-61.0-2.10","724","5438","8","Female","true","true","false","false","""event"",""trial"",""time""
""fullscreenenter"",""5"",""19676""
","
","
","""event"",""trial"",""time""
""fullscreenenter"",""5"",""19676""
","
","","images/earth.jpg","","","","","","","","","","","","","","fixation","","","","","",""
"d3-animate-choice","94","538121","0.0-61.0-0.11","724","5438","8","Female","true","true","false","false","""event"",""trial"",""time""
""fullscreenenter"",""5"",""19676""
","
","
","""event"",""trial"",""time""
""fullscreenenter"",""5"",""19676""
","
","1118.199999988079","","48","","","3000","1","","","images/earth.jpg","images/tutrocket2","images/tutrocket1","null","images/tutrocket2","","1","practice","null","2","","",""
"d3-animate-choice","95","541025","0.0-61.0-1.11","724","5438","8","Female","true","true","false","false","""event"",""trial"",""time""
""fullscreenenter"",""5"",""19676""
","
","
","""event"",""trial"",""time""
""fullscreenenter"",""5"",""19676""
","
","898.1999999880791","","49","","","3000","1","","","images/tutyellowplanet.jpg","images/tutalien4","images/tutalien3","images/tutrocket2","images/tutalien3","images/t.png","2","practice","true","1","common","1","2022-12-27 21:45:53.632"
"two-step-fixation","96","542032","0.0-61.0-2.11","724","5438","8","Female","true","true","false","false","""event"",""trial"",""time""
""fullscreenenter"",""5"",""19676""
","
","
","""event"",""trial"",""time""
""fullscreenenter"",""5"",""19676""
","
","","images/earth.jpg","","","","","","","","","","","","","","fixation","","","","","",""
"d3-animate-choice","97","544784","0.0-61.0-0.12","724","5438","8","Female","true","true","false","false","""event"",""trial"",""time""
""fullscreenenter"",""5"",""19676""
","
","
","""event"",""trial"",""time""
""fullscreenenter"",""5"",""19676""
","
","738.5","","48","","","3000","1","","","images/earth.jpg","images/tutrocket2","images/tutrocket1","null","images/tutrocket2","","1","practice","null","2","","",""
"d3-animate-choice","98","547433","0.0-61.0-1.12","724","5438","8","Female","true","true","false","false","""event"",""trial"",""time""
""fullscreenenter"",""5"",""19676""
","
","
","""event"",""trial"",""time""
""fullscreenenter"",""5"",""19676""
","
","638.2999999523163","","48","","","3000","1","","","images/tutgreenplanet.jpg","images/tutalien2","images/tutalien1","images/tutrocket2","images/tutalien2","images/t.png","2","practice","false","2","rare","1","2022-12-27 21:46:00.041"
"two-step-fixation","99","548441","0.0-61.0-2.12","724","5438","8","Female","true","true","false","false","""event"",""trial"",""time""
""fullscreenenter"",""5"",""19676""
","
","
","""event"",""trial"",""time""
""fullscreenenter"",""5"",""19676""
","
","","images/earth.jpg","","","","","","","","","","","","","","fixation","","","","","",""
"d3-animate-choice","100","552449","0.0-61.0-0.13","724","5438","8","Female","true","true","false","false","""event"",""trial"",""time""
""fullscreenenter"",""5"",""19676""
","
","
","""event"",""trial"",""time""
""fullscreenenter"",""5"",""19676""
","
","2491.5","","49","","","3000","1","","","images/earth.jpg","images/tutrocket2","images/tutrocket1","null","images/tutrocket1","","1","practice","null","1","","",""
"d3-animate-choice","101","556154","0.0-61.0-1.13","724","5438","8","Female","true","true","false","false","""event"",""trial"",""time""
""fullscreenenter"",""5"",""19676""
","
","
","""event"",""trial"",""time""
""fullscreenenter"",""5"",""19676""
","
","1697.5999999642372","","48","","","3000","1","","","images/tutgreenplanet.jpg","images/tutalien2","images/tutalien1","images/tutrocket1","images/tutalien2","images/t.png","2","practice","true","2","common","1","2022-12-27 21:46:08.761"
"two-step-fixation","102","557169","0.0-61.0-2.13","724","5438","8","Female","true","true","false","false","""event"",""trial"",""time""
""fullscreenenter"",""5"",""19676""
","
","
","""event"",""trial"",""time""
""fullscreenenter"",""5"",""19676""
","
","","images/earth.jpg","","","","","","","","","","","","","","fixation","","","","","",""
"d3-animate-choice","103","559968","0.0-61.0-0.14","724","5438","8","Female","true","true","false","false","""event"",""trial"",""time""
""fullscreenenter"",""5"",""19676""
","
","
","""event"",""trial"",""time""
""fullscreenenter"",""5"",""19676""
","
","792.6999999880791","","48","","","3000","1","","","images/earth.jpg","images/tutrocket2","images/tutrocket1","null","images/tutrocket2","","1","practice","null","2","","",""
"d3-animate-choice","104","563985","0.0-61.0-1.14","724","5438","8","Female","true","true","false","false","""event"",""trial"",""time""
""fullscreenenter"",""5"",""19676""
","
","
","""event"",""trial"",""time""
""fullscreenenter"",""5"",""19676""
","
","2110.900000035763","","48","","","3000","1","","","images/tutyellowplanet.jpg","images/tutalien4","images/tutalien3","images/tutrocket2","images/tutalien4","images/nothing.png","2","practice","true","2","common","0","2022-12-27 21:46:16.592"
"two-step-fixation","105","564994","0.0-61.0-2.14","724","5438","8","Female","true","true","false","false","""event"",""trial"",""time""
""fullscreenenter"",""5"",""19676""
","
","
","""event"",""trial"",""time""
""fullscreenenter"",""5"",""19676""
","
","","images/earth.jpg","","","","","","","","","","","","","","fixation","","","","","",""
"d3-animate-choice","106","568392","0.0-61.0-0.15","724","5438","8","Female","true","true","false","false","""event"",""trial"",""time""
""fullscreenenter"",""5"",""19676""
","
","
","""event"",""trial"",""time""
""fullscreenenter"",""5"",""19676""
","
","1390.0999999642372","","48","","","3000","1","","","images/earth.jpg","images/tutrocket2","images/tutrocket1","null","images/tutrocket2","","1","practice","null","2","","",""
"d3-animate-choice","107","570528","0.0-61.0-1.15","724","5438","8","Female","true","true","false","false","""event"",""trial"",""time""
""fullscreenenter"",""5"",""19676""
","
","
","""event"",""trial"",""time""
""fullscreenenter"",""5"",""19676""
","
","128","","49","","","3000","1","","","images/tutyellowplanet.jpg","images/tutalien4","images/tutalien3","images/tutrocket2","images/tutalien3","images/nothing.png","2","practice","true","1","common","0","2022-12-27 21:46:23.136"
"two-step-fixation","108","571536","0.0-61.0-2.15","724","5438","8","Female","true","true","false","false","""event"",""trial"",""time""
""fullscreenenter"",""5"",""19676""
","
","
","""event"",""trial"",""time""
""fullscreenenter"",""5"",""19676""
","
","","images/earth.jpg","","","","","","","","","","","","","","fixation","","","","","",""
"d3-animate-choice","109","575554","0.0-61.0-0.16","724","5438","8","Female","true","true","false","false","""event"",""trial"",""time""
""fullscreenenter"",""5"",""19676""
","
","
","""event"",""trial"",""time""
""fullscreenenter"",""5"",""19676""
","
","2549.7999999523163","","48","","","3000","1","","","images/earth.jpg","images/tutrocket2","images/tutrocket1","null","images/tutrocket2","","1","practice","null","2","","",""
"d3-animate-choice","110","579569","0.0-61.0-1.16","724","5438","8","Female","true","true","false","false","""event"",""trial"",""time""
""fullscreenenter"",""5"",""19676""
","
","
","""event"",""trial"",""time""
""fullscreenenter"",""5"",""19676""
","
","null","","null","","","3000","0","","","images/tutyellowplanet.jpg","images/tutalien4","images/tutalien3","images/tutrocket2","","","2","practice","true","","common","0","2022-12-27 21:46:32.176"
"two-step-fixation","111","580577","0.0-61.0-2.16","724","5438","8","Female","true","true","false","false","""event"",""trial"",""time""
""fullscreenenter"",""5"",""19676""
","
","
","""event"",""trial"",""time""
""fullscreenenter"",""5"",""19676""
","
","","images/earth.jpg","","","","","","","","","","","","","","fixation","","","","","",""
"d3-animate-choice","112","584592","0.0-61.0-0.17","724","5438","8","Female","true","true","false","false","""event"",""trial"",""time""
""fullscreenenter"",""5"",""19676""
","
","
","""event"",""trial"",""time""
""fullscreenenter"",""5"",""19676""
","
","2304.800000011921","","49","","","3000","1","","","images/earth.jpg","images/tutrocket2","images/tutrocket1","null","images/tutrocket1","","1","practice","null","1","","",""
"d3-animate-choice","113","588602","0.0-61.0-1.17","724","5438","8","Female","true","true","false","false","""event"",""trial"",""time""
""fullscreenenter"",""5"",""19676""
","
","
","""event"",""trial"",""time""
""fullscreenenter"",""5"",""19676""
","
","2477.2000000476837","","48","","","3000","1","2482.300000011921","79","images/tutyellowplanet.jpg","images/tutalien4","images/tutalien3","images/tutrocket1","images/tutalien4","images/nothing.png","2","practice","false","2","rare","0","2022-12-27 21:46:41.209"
"two-step-fixation","114","589609","0.0-61.0-2.17","724","5438","8","Female","true","true","false","false","""event"",""trial"",""time""
""fullscreenenter"",""5"",""19676""
","
","
","""event"",""trial"",""time""
""fullscreenenter"",""5"",""19676""
","
","","images/earth.jpg","","","","","","","","","","","","","","fixation","","","","","",""
"d3-animate-choice","115","593352","0.0-61.0-0.18","724","5438","8","Female","true","true","false","false","""event"",""trial"",""time""
""fullscreenenter"",""5"",""19676""
","
","
","""event"",""trial"",""time""
""fullscreenenter"",""5"",""19676""
","
","1735.300000011921","","48","","","3000","1","","","images/earth.jpg","images/tutrocket2","images/tutrocket1","null","images/tutrocket2","","1","practice","null","2","","",""
"d3-animate-choice","116","597361","0.0-61.0-1.18","724","5438","8","Female","true","true","false","false","""event"",""trial"",""time""
""fullscreenenter"",""5"",""19676""
","
","
","""event"",""trial"",""time""
""fullscreenenter"",""5"",""19676""
","
","2439.300000011921","","49","","","3000","1","","","images/tutyellowplanet.jpg","images/tutalien4","images/tutalien3","images/tutrocket2","images/tutalien3","images/nothing.png","2","practice","true","1","common","0","2022-12-27 21:46:49.968"
"two-step-fixation","117","598369","0.0-61.0-2.18","724","5438","8","Female","true","true","false","false","""event"",""trial"",""time""
""fullscreenenter"",""5"",""19676""
","
","
","""event"",""trial"",""time""
""fullscreenenter"",""5"",""19676""
","
","","images/earth.jpg","","","","","","","","","","","","","","fixation","","","","","",""
"d3-animate-choice","118","602265","0.0-61.0-0.19","724","5438","8","Female","true","true","false","false","""event"",""trial"",""time""
""fullscreenenter"",""5"",""19676""
","
","
","""event"",""trial"",""time""
""fullscreenenter"",""5"",""19676""
","
","1889.6000000238419","","48","","","3000","1","2435.199999988079,2625.699999988079,2810.800000011921,2933.100000023842,3024.199999988079,3115.900000035763,3222.199999988079,3382.699999988079,3510.400000035763","57,56,55,54,53,52,51,50,49","images/earth.jpg","images/tutrocket2","images/tutrocket1","null","images/tutrocket2","","1","practice","null","2","","",""
"d3-animate-choice","119","605089","0.0-61.0-1.19","724","5438","8","Female","true","true","false","false","""event"",""trial"",""time""
""fullscreenenter"",""5"",""19676""
","
","
","""event"",""trial"",""time""
""fullscreenenter"",""5"",""19676""
","
","816.6999999880791","","49","","","3000","1","","","images/tutyellowplanet.jpg","images/tutalien4","images/tutalien3","images/tutrocket2","images/tutalien3","images/nothing.png","2","practice","true","1","common","0","2022-12-27 21:46:57.696"
"two-step-fixation","120","606095","0.0-61.0-2.19","724","5438","8","Female","true","true","false","false","""event"",""trial"",""time""
""fullscreenenter"",""5"",""19676""
","
","
","""event"",""trial"",""time""
""fullscreenenter"",""5"",""19676""
","
","","images/earth.jpg","","","","","","","","","","","","","","fixation","","","","","",""
"d3-instructions","121","616268","0.0-62.0","724","5438","8","Female","true","true","false","false","""event"",""trial"",""time""
""fullscreenenter"",""5"",""19676""
","
","
","""event"",""trial"",""time""
""fullscreenenter"",""5"",""19676""
","
","","","","","","","","","","","","","","","","","","","","","",""
"audio-keyboard-response","122","616749","0.0-63.0","724","5438","8","Female","true","true","false","false","""event"",""trial"",""time""
""fullscreenenter"",""5"",""19676""
","
","
","""event"",""trial"",""time""
""fullscreenenter"",""5"",""19676""
","
","480","audio/instructions/treasure_feedback.wav","74","","","","","","","","","","","","","","","","","","",""
"d3-instructions","123","637409","0.0-64.0","724","5438","8","Female","true","true","false","false","""event"",""trial"",""time""
""fullscreenenter"",""5"",""19676""
","
","
","""event"",""trial"",""time""
""fullscreenenter"",""5"",""19676""
","
","","","","","","","","","","","","","","","","","","","","","",""
"d3-instructions","124","657119","0.0-65.0","724","5438","8","Female","true","true","false","false","""event"",""trial"",""time""
""fullscreenenter"",""5"",""19676""
","
","
","""event"",""trial"",""time""
""fullscreenenter"",""5"",""19676""
","
","","","","","","","","","","","","","","","","","","","","","",""
"d3-instructions","125","685239","0.0-66.0","724","5438","8","Female","true","true","false","false","""event"",""trial"",""time""
""fullscreenenter"",""5"",""19676""
","
","
","""event"",""trial"",""time""
""fullscreenenter"",""5"",""19676""
","
","","","","","","","","","","","","","","","","","","","","","",""
"d3-instructions","126","707656","0.0-67.0","724","5438","8","Female","true","true","false","false","""event"",""trial"",""time""
""fullscreenenter"",""5"",""19676""
","
","
","""event"",""trial"",""time""
""fullscreenenter"",""5"",""19676""
","
","","","","","","","","","","","","","","","","","","","","","",""
"d3-instructions","127","716237","0.0-68.0","724","5438","8","Female","true","true","false","false","""event"",""trial"",""time""
""fullscreenenter"",""5"",""19676""
","
","
","""event"",""trial"",""time""
""fullscreenenter"",""5"",""19676""
","
","","","","","","","","","","","","","","","","","","","","","",""
"instructions-quiz","128","724434","0.0-69.0","724","5438","8","Female","true","true","false","false","""event"",""trial"",""time""
""fullscreenenter"",""5"",""19676""
","
","
","""event"",""trial"",""time""
""fullscreenenter"",""5"",""19676""
","
","8192.699999988079","audio/quiz/Q1_Prompt.wav","","1","","","","","","","","","","","","","","","","","",""
"audio-keyboard-response","129","733602","0.0-70.0","724","5438","8","Female","true","true","false","false","""event"",""trial"",""time""
""fullscreenenter"",""5"",""19676""
","
","
","""event"",""trial"",""time""
""fullscreenenter"",""5"",""19676""
","
","null","audio/quiz/Q1_Correct.wav","null","","","","","","","","","","","","","","","","","","",""
"instructions-quiz","130","739494","0.0-71.0","724","5438","8","Female","true","true","false","false","""event"",""trial"",""time""
""fullscreenenter"",""5"",""19676""
","
","
","""event"",""trial"",""time""
""fullscreenenter"",""5"",""19676""
","
","5888.699999988079","audio/quiz/Q2_Prompt.wav","","0","","","","","","","","","","","","","","","","","",""
"audio-keyboard-response","131","752360","0.0-72.0","724","5438","8","Female","true","true","false","false","""event"",""trial"",""time""
""fullscreenenter"",""5"",""19676""
","
","
","""event"",""trial"",""time""
""fullscreenenter"",""5"",""19676""
","
","null","audio/quiz/Q2_Correct.wav","null","","","","","","","","","","","","","","","","","","",""
"instructions-quiz","132","758472","0.0-73.0","724","5438","8","Female","true","true","false","false","""event"",""trial"",""time""
""fullscreenenter"",""5"",""19676""
","
","
","""event"",""trial"",""time""
""fullscreenenter"",""5"",""19676""
","
","6110.199999988079","audio/quiz/Q3_Prompt.wav","","1","","","","","","","","","","","","","","","","","",""
"audio-keyboard-response","133","764271","0.0-74.0","724","5438","8","Female","true","true","false","false","""event"",""trial"",""time""
""fullscreenenter"",""5"",""19676""
","
","
","""event"",""trial"",""time""
""fullscreenenter"",""5"",""19676""
","
","null","audio/quiz/Q3_Correct.wav","null","","","","","","","","","","","","","","","","","","",""
"d3-instructions","134","777989","0.0-75.0","724","5438","8","Female","true","true","false","false","""event"",""trial"",""time""
""fullscreenenter"",""5"",""19676""
","
","
","""event"",""trial"",""time""
""fullscreenenter"",""5"",""19676""
","
","","","","","","","","","","","","","","","","","","","","","",""
"d3-animate-choice","135","782014","0.0-76.0-0.0","724","5438","8","Female","true","true","false","false","""event"",""trial"",""time""
""fullscreenenter"",""5"",""19676""
","
","
","""event"",""trial"",""time""
""fullscreenenter"",""5"",""19676""
","
","2551.199999988079","","48","","","3000","1","","","images/earth.jpg","images/rocket2","images/rocket1","null","images/rocket2","","1","real","null","2","","",""
"d3-animate-choice","136","785497","0.0-76.0-1.0","724","5438","8","Female","true","true","false","false","""event"",""trial"",""time""
""fullscreenenter"",""5"",""19676""
","
","
","""event"",""trial"",""time""
""fullscreenenter"",""5"",""19676""
","
","1478.5","","49","","","3000","1","","","images/redplanet1.jpg","images/alien2","images/alien1","images/rocket2","images/alien1","images/nothing.png","2","real","false","1","rare","0","2022-12-27 21:49:58.104"
"two-step-fixation","137","786505","0.0-76.0-2.0","724","5438","8","Female","true","true","false","false","""event"",""trial"",""time""
""fullscreenenter"",""5"",""19676""
","
","
","""event"",""trial"",""time""
""fullscreenenter"",""5"",""19676""
","
","","images/earth.jpg","","","","","","","","","","","","","","fixation","","","","","",""
"d3-animate-choice","138","789150","0.0-76.0-0.1","724","5438","8","Female","true","true","false","false","""event"",""trial"",""time""
""fullscreenenter"",""5"",""19676""
","
","
","""event"",""trial"",""time""
""fullscreenenter"",""5"",""19676""
","
","636.8000000119209","","48","","","3000","1","","","images/earth.jpg","images/rocket2","images/rocket1","null","images/rocket2","","1","real","null","2","","",""
"d3-animate-choice","139","793169","0.0-76.0-1.1","724","5438","8","Female","true","true","false","false","""event"",""trial"",""time""
""fullscreenenter"",""5"",""19676""
","
","
","""event"",""trial"",""time""
""fullscreenenter"",""5"",""19676""
","
","2169.699999988079","","48","","","3000","1","","","images/purpleplanet.jpg","images/alien4","images/alien3","images/rocket2","images/alien4","images/t.png","2","real","true","2","common","1","2022-12-27 21:50:05.776"
"two-step-fixation","140","794176","0.0-76.0-2.1","724","5438","8","Female","true","true","false","false","""event"",""trial"",""time""
""fullscreenenter"",""5"",""19676""
","
","
","""event"",""trial"",""time""
""fullscreenenter"",""5"",""19676""
","
","","images/earth.jpg","","","","","","","","","","","","","","fixation","","","","","",""
"d3-animate-choice","141","796710","0.0-76.0-0.2","724","5438","8","Female","true","true","false","false","""event"",""trial"",""time""
""fullscreenenter"",""5"",""19676""
","
","
","""event"",""trial"",""time""
""fullscreenenter"",""5"",""19676""
","
","526.1999999880791","","49","","","3000","1","","","images/earth.jpg","images/rocket2","images/rocket1","null","images/rocket1","","1","real","null","1","","",""
"d3-animate-choice","142","799727","0.0-76.0-1.2","724","5438","8","Female","true","true","false","false","""event"",""trial"",""time""
""fullscreenenter"",""5"",""19676""
","
","
","""event"",""trial"",""time""
""fullscreenenter"",""5"",""19676""
","
","994.1999999880791","","49","","","3000","1","","","images/redplanet1.jpg","images/alien2","images/alien1","images/rocket1","images/alien1","images/nothing.png","2","real","true","1","common","0","2022-12-27 21:50:12.334"
"two-step-fixation","143","800739","0.0-76.0-2.2","724","5438","8","Female","true","true","false","false","""event"",""trial"",""time""
""fullscreenenter"",""5"",""19676""
","
","
","""event"",""trial"",""time""
""fullscreenenter"",""5"",""19676""
","
","","images/earth.jpg","","","","","","","","","","","","","","fixation","","","","","",""
"d3-animate-choice","144","802883","0.0-76.0-0.3","724","5438","8","Female","true","true","false","false","""event"",""trial"",""time""
""fullscreenenter"",""5"",""19676""
","
","
","""event"",""trial"",""time""
""fullscreenenter"",""5"",""19676""
","
","137.9000000357628","","48","","","3000","1","1108,1591.4000000357628","49,49","images/earth.jpg","images/rocket2","images/rocket1","null","images/rocket2","","1","real","null","2","","",""
"d3-animate-choice","145","805616","0.0-76.0-1.3","724","5438","8","Female","true","true","false","false","""event"",""trial"",""time""
""fullscreenenter"",""5"",""19676""
","
","
","""event"",""trial"",""time""
""fullscreenenter"",""5"",""19676""
","
","707.5","","48","","","3000","1","","","images/redplanet1.jpg","images/alien2","images/alien1","images/rocket2","images/alien2","images/nothing.png","2","real","false","2","rare","0","2022-12-27 21:50:18.223"
"two-step-fixation","146","806627","0.0-76.0-2.3","724","5438","8","Female","true","true","false","false","""event"",""trial"",""time""
""fullscreenenter"",""5"",""19676""
","
","
","""event"",""trial"",""time""
""fullscreenenter"",""5"",""19676""
","
","","images/earth.jpg","","","","","","","","","","","","","","fixation","","","","","",""
"d3-animate-choice","147","808976","0.0-76.0-0.4","724","5438","8","Female","true","true","false","false","""event"",""trial"",""time""
""fullscreenenter"",""5"",""19676""
","
","
","""event"",""trial"",""time""
""fullscreenenter"",""5"",""19676""
","
","342","","49","","","3000","1","","","images/earth.jpg","images/rocket2","images/rocket1","null","images/rocket1","","1","real","null","1","","",""
"d3-animate-choice","148","811784","0.0-76.0-1.4","724","5438","8","Female","true","true","false","false","""event"",""trial"",""time""
""fullscreenenter"",""5"",""19676""
","
","
","""event"",""trial"",""time""
""fullscreenenter"",""5"",""19676""
","
","799.1000000238419","","48","","","3000","1","","","images/purpleplanet.jpg","images/alien4","images/alien3","images/rocket1","images/alien4","images/nothing.png","2","real","false","2","rare","0","2022-12-27 21:50:24.392"
"two-step-fixation","149","812793","0.0-76.0-2.4","724","5438","8","Female","true","true","false","false","""event"",""trial"",""time""
""fullscreenenter"",""5"",""19676""
","
","
","""event"",""trial"",""time""
""fullscreenenter"",""5"",""19676""
","
","","images/earth.jpg","","","","","","","","","","","","","","fixation","","","","","",""
"d3-animate-choice","150","815992","0.0-76.0-0.5","724","5438","8","Female","true","true","false","false","""event"",""trial"",""time""
""fullscreenenter"",""5"",""19676""
","
","
","""event"",""trial"",""time""
""fullscreenenter"",""5"",""19676""
","
","1186.1000000238419","","48","","","3000","1","","","images/earth.jpg","images/rocket2","images/rocket1","null","images/rocket2","","1","real","null","2","","",""
"d3-animate-choice","151","819456","0.0-76.0-1.5","724","5438","8","Female","true","true","false","false","""event"",""trial"",""time""
""fullscreenenter"",""5"",""19676""
","
","
","""event"",""trial"",""time""
""fullscreenenter"",""5"",""19676""
","
","1456.199999988079","","49","","","3000","1","2533.800000011921","48","images/purpleplanet.jpg","images/alien4","images/alien3","images/rocket2","images/alien3","images/t.png","2","real","true","1","common","1","2022-12-27 21:50:32.063"
"two-step-fixation","152","820464","0.0-76.0-2.5","724","5438","8","Female","true","true","false","false","""event"",""trial"",""time""
""fullscreenenter"",""5"",""19676""
","
","
","""event"",""trial"",""time""
""fullscreenenter"",""5"",""19676""
","
","","images/earth.jpg","","","","","","","","","","","","","","fixation","","","","","",""
"d3-animate-choice","153","823209","0.0-76.0-0.6","724","5438","8","Female","true","true","false","false","""event"",""trial"",""time""
""fullscreenenter"",""5"",""19676""
","
","
","""event"",""trial"",""time""
""fullscreenenter"",""5"",""19676""
","
","732.1000000238419","","48","","","3000","1","992.4000000357628","49","images/earth.jpg","images/rocket2","images/rocket1","null","images/rocket2","","1","real","null","2","","",""
"d3-animate-choice","154","825968","0.0-76.0-1.6","724","5438","8","Female","true","true","false","false","""event"",""trial"",""time""
""fullscreenenter"",""5"",""19676""
","
","
","""event"",""trial"",""time""
""fullscreenenter"",""5"",""19676""
","
","749.1999999880791","","48","","","3000","1","","","images/purpleplanet.jpg","images/alien4","images/alien3","images/rocket2","images/alien4","images/nothing.png","2","real","true","2","common","0","2022-12-27 21:50:38.575"
"two-step-fixation","155","826975","0.0-76.0-2.6","724","5438","8","Female","true","true","false","false","""event"",""trial"",""time""
""fullscreenenter"",""5"",""19676""
","
","
","""event"",""trial"",""time""
""fullscreenenter"",""5"",""19676""
","
","","images/earth.jpg","","","","","","","","","","","","","","fixation","","","","","",""
"d3-animate-choice","156","830864","0.0-76.0-0.7","724","5438","8","Female","true","true","false","false","""event"",""trial"",""time""
""fullscreenenter"",""5"",""19676""
","
","
","""event"",""trial"",""time""
""fullscreenenter"",""5"",""19676""
","
","1880.6000000238419","","49","","","3000","1","","","images/earth.jpg","images/rocket2","images/rocket1","null","images/rocket1","","1","real","null","1","","",""
"d3-animate-choice","157","834600","0.0-76.0-1.7","724","5438","8","Female","true","true","false","false","""event"",""trial"",""time""
""fullscreenenter"",""5"",""19676""
","
","
","""event"",""trial"",""time""
""fullscreenenter"",""5"",""19676""
","
","1730.9000000357628","","49","","","3000","1","","","images/redplanet1.jpg","images/alien2","images/alien1","images/rocket1","images/alien1","images/t.png","2","real","true","1","common","1","2022-12-27 21:50:47.208"
"two-step-fixation","158","835608","0.0-76.0-2.7","724","5438","8","Female","true","true","false","false","""event"",""trial"",""time""
""fullscreenenter"",""5"",""19676""
","
","
","""event"",""trial"",""time""
""fullscreenenter"",""5"",""19676""
","
","","images/earth.jpg","","","","","","","","","","","","","","fixation","","","","","",""
"d3-animate-choice","159","838405","0.0-76.0-0.8","724","5438","8","Female","true","true","false","false","""event"",""trial"",""time""
""fullscreenenter"",""5"",""19676""
","
","
","""event"",""trial"",""time""
""fullscreenenter"",""5"",""19676""
","
","787.4000000357628","","48","","","3000","1","","","images/earth.jpg","images/rocket2","images/rocket1","null","images/rocket2","","1","real","null","2","","",""
"d3-animate-choice","160","842417","0.0-76.0-1.8","724","5438","8","Female","true","true","false","false","""event"",""trial"",""time""
""fullscreenenter"",""5"",""19676""
","
","
","""event"",""trial"",""time""
""fullscreenenter"",""5"",""19676""
","
","2601.300000011921","","49","","","3000","1","","","images/purpleplanet.jpg","images/alien4","images/alien3","images/rocket2","images/alien3","images/t.png","2","real","true","1","common","1","2022-12-27 21:50:55.024"
"two-step-fixation","161","843425","0.0-76.0-2.8","724","5438","8","Female","true","true","false","false","""event"",""trial"",""time""
""fullscreenenter"",""5"",""19676""
","
","
","""event"",""trial"",""time""
""fullscreenenter"",""5"",""19676""
","
","","images/earth.jpg","","","","","","","","","","","","","","fixation","","","","","",""
"d3-animate-choice","162","847441","0.0-76.0-0.9","724","5438","8","Female","true","true","false","false","""event"",""trial"",""time""
""fullscreenenter"",""5"",""19676""
","
","
","""event"",""trial"",""time""
""fullscreenenter"",""5"",""19676""
","
","2264.100000023842","","48","","","3000","1","","","images/earth.jpg","images/rocket2","images/rocket1","null","images/rocket2","","1","real","null","2","","",""
"d3-animate-choice","163","850121","0.0-76.0-1.9","724","5438","8","Female","true","true","false","false","""event"",""trial"",""time""
""fullscreenenter"",""5"",""19676""
","
","
","""event"",""trial"",""time""
""fullscreenenter"",""5"",""19676""
","
","665.3999999761581","","49","","","3000","1","","","images/redplanet1.jpg","images/alien2","images/alien1","images/rocket2","images/alien1","images/nothing.png","2","real","false","1","rare","0","2022-12-27 21:51:02.728"
"two-step-fixation","164","851128","0.0-76.0-2.9","724","5438","8","Female","true","true","false","false","""event"",""trial"",""time""
""fullscreenenter"",""5"",""19676""
","
","
","""event"",""trial"",""time""
""fullscreenenter"",""5"",""19676""
","
","","images/earth.jpg","","","","","","","","","","","","","","fixation","","","","","",""
"d3-animate-choice","165","854705","0.0-76.0-0.10","724","5438","8","Female","true","true","false","false","""event"",""trial"",""time""
""fullscreenenter"",""5"",""19676""
","
","
","""event"",""trial"",""time""
""fullscreenenter"",""5"",""19676""
","
","1567.1000000238419","","49","","","3000","1","","","images/earth.jpg","images/rocket2","images/rocket1","null","images/rocket1","","1","real","null","1","","",""
"d3-animate-choice","166","857617","0.0-76.0-1.10","724","5438","8","Female","true","true","false","false","""event"",""trial"",""time""
""fullscreenenter"",""5"",""19676""
","
","
","""event"",""trial"",""time""
""fullscreenenter"",""5"",""19676""
","
","898.6000000238419","","48","","","3000","1","","","images/redplanet1.jpg","images/alien2","images/alien1","images/rocket1","images/alien2","images/nothing.png","2","real","true","2","common","0","2022-12-27 21:51:10.225"
"two-step-fixation","167","858625","0.0-76.0-2.10","724","5438","8","Female","true","true","false","false","""event"",""trial"",""time""
""fullscreenenter"",""5"",""19676""
","
","
","""event"",""trial"",""time""
""fullscreenenter"",""5"",""19676""
","
","","images/earth.jpg","","","","","","","","","","","","","","fixation","","","","","",""
"d3-animate-choice","168","861065","0.0-76.0-0.11","724","5438","8","Female","true","true","false","false","""event"",""trial"",""time""
""fullscreenenter"",""5"",""19676""
","
","
","""event"",""trial"",""time""
""fullscreenenter"",""5"",""19676""
","
","428.39999997615814","","49","","","3000","1","1641.0999999642372","48","images/earth.jpg","images/rocket2","images/rocket1","null","images/rocket1","","1","real","null","1","","",""
"d3-animate-choice","169","864152","0.0-76.0-1.11","724","5438","8","Female","true","true","false","false","""event"",""trial"",""time""
""fullscreenenter"",""5"",""19676""
","
","
","""event"",""trial"",""time""
""fullscreenenter"",""5"",""19676""
","
","1075","","48","","","3000","1","1165.5,1962.8999999761581,2233.899999976158,2486.300000011921","186,48,48,48","images/redplanet1.jpg","images/alien2","images/alien1","images/rocket1","images/alien2","images/t.png","2","real","true","2","common","1","2022-12-27 21:51:16.759"
"two-step-fixation","170","865156","0.0-76.0-2.11","724","5438","8","Female","true","true","false","false","""event"",""trial"",""time""
""fullscreenenter"",""5"",""19676""
","
","
","""event"",""trial"",""time""
""fullscreenenter"",""5"",""19676""
","
","","images/earth.jpg","","","","","","","","","","","","","","fixation","","","","","",""
"d3-animate-choice","171","867728","0.0-76.0-0.12","724","5438","8","Female","true","true","false","false","""event"",""trial"",""time""
""fullscreenenter"",""5"",""19676""
","
","
","""event"",""trial"",""time""
""fullscreenenter"",""5"",""19676""
","
","561.8000000119209","","48","","","3000","1","","","images/earth.jpg","images/rocket2","images/rocket1","null","images/rocket2","","1","real","null","2","","",""
"d3-animate-choice","172","871745","0.0-76.0-1.12","724","5438","8","Female","true","true","false","false","""event"",""trial"",""time""
""fullscreenenter"",""5"",""19676""
","
","
","""event"",""trial"",""time""
""fullscreenenter"",""5"",""19676""
","
","2094.599999964237","","49","","","3000","1","","","images/purpleplanet.jpg","images/alien4","images/alien3","images/rocket2","images/alien3","images/nothing.png","2","real","true","1","common","0","2022-12-27 21:51:24.352"
"two-step-fixation","173","872753","0.0-76.0-2.12","724","5438","8","Female","true","true","false","false","""event"",""trial"",""time""
""fullscreenenter"",""5"",""19676""
","
","
","""event"",""trial"",""time""
""fullscreenenter"",""5"",""19676""
","
","","images/earth.jpg","","","","","","","","","","","","","","fixation","","","","","",""
"d3-animate-choice","174","875640","0.0-76.0-0.13","724","5438","8","Female","true","true","false","false","""event"",""trial"",""time""
""fullscreenenter"",""5"",""19676""
","
","
","""event"",""trial"",""time""
""fullscreenenter"",""5"",""19676""
","
","876","","48","","","3000","1","","","images/earth.jpg","images/rocket2","images/rocket1","null","images/rocket2","","1","real","null","2","","",""
"d3-animate-choice","175","878761","0.0-76.0-1.13","724","5438","8","Female","true","true","false","false","""event"",""trial"",""time""
""fullscreenenter"",""5"",""19676""
","
","
","""event"",""trial"",""time""
""fullscreenenter"",""5"",""19676""
","
","1098.3999999761581","","191","","","3000","1","1109.300000011921","48","images/purpleplanet.jpg","images/alien4","images/alien3","images/rocket2","images/alien4","images/nothing.png","2","real","true","","common","0","2022-12-27 21:51:31.369"
"two-step-fixation","176","879768","0.0-76.0-2.13","724","5438","8","Female","true","true","false","false","""event"",""trial"",""time""
""fullscreenenter"",""5"",""19676""
","
","
","""event"",""trial"",""time""
""fullscreenenter"",""5"",""19676""
","
","","images/earth.jpg","","","","","","","","","","","","","","fixation","","","","","",""
"d3-animate-choice","177","882313","0.0-76.0-0.14","724","5438","8","Female","true","true","false","false","""event"",""trial"",""time""
""fullscreenenter"",""5"",""19676""
","
","
","""event"",""trial"",""time""
""fullscreenenter"",""5"",""19676""
","
","532.3000000119209","","49","","","3000","1","2345.300000011921,2355","48,16","images/earth.jpg","images/rocket2","images/rocket1","null","images/rocket1","","1","real","null","1","","",""
"d3-animate-choice","178","885520","0.0-76.0-1.14","724","5438","8","Female","true","true","false","false","""event"",""trial"",""time""
""fullscreenenter"",""5"",""19676""
","
","
","""event"",""trial"",""time""
""fullscreenenter"",""5"",""19676""
","
","1199.9000000357628","","48","","","3000","1","","","images/redplanet1.jpg","images/alien2","images/alien1","images/rocket1","images/alien2","images/t.png","2","real","true","2","common","1","2022-12-27 21:51:38.128"
"two-step-fixation","179","886528","0.0-76.0-2.14","724","5438","8","Female","true","true","false","false","""event"",""trial"",""time""
""fullscreenenter"",""5"",""19676""
","
","
","""event"",""trial"",""time""
""fullscreenenter"",""5"",""19676""
","
","","images/earth.jpg","","","","","","","","","","","","","","fixation","","","","","",""
"d3-animate-choice","180","889265","0.0-76.0-0.15","724","5438","8","Female","true","true","false","false","""event"",""trial"",""time""
""fullscreenenter"",""5"",""19676""
","
","
","""event"",""trial"",""time""
""fullscreenenter"",""5"",""19676""
","
","725.8000000119209","","49","","","3000","1","","","images/earth.jpg","images/rocket2","images/rocket1","null","images/rocket1","","1","real","null","1","","",""
"d3-animate-choice","181","892041","0.0-76.0-1.15","724","5438","8","Female","true","true","false","false","""event"",""trial"",""time""
""fullscreenenter"",""5"",""19676""
","
","
","""event"",""trial"",""time""
""fullscreenenter"",""5"",""19676""
","
","768.6000000238419","","48","","","3000","1","","","images/redplanet1.jpg","images/alien2","images/alien1","images/rocket1","images/alien2","images/t.png","2","real","true","2","common","1","2022-12-27 21:51:44.648"
"two-step-fixation","182","893048","0.0-76.0-2.15","724","5438","8","Female","true","true","false","false","""event"",""trial"",""time""
""fullscreenenter"",""5"",""19676""
","
","
","""event"",""trial"",""time""
""fullscreenenter"",""5"",""19676""
","
","","images/earth.jpg","","","","","","","","","","","","","","fixation","","","","","",""
"d3-animate-choice","183","895753","0.0-76.0-0.16","724","5438","8","Female","true","true","false","false","""event"",""trial"",""time""
""fullscreenenter"",""5"",""19676""
","
","
","""event"",""trial"",""time""
""fullscreenenter"",""5"",""19676""
","
","691.4000000357628","","49","","","3000","1","","","images/earth.jpg","images/rocket2","images/rocket1","null","images/rocket1","","1","real","null","1","","",""
"d3-animate-choice","184","898780","0.0-76.0-1.16","724","5438","8","Female","true","true","false","false","""event"",""trial"",""time""
""fullscreenenter"",""5"",""19676""
","
","
","""event"",""trial"",""time""
""fullscreenenter"",""5"",""19676""
","
","1023.1999999880791","","48","","","3000","1","","","images/redplanet1.jpg","images/alien2","images/alien1","images/rocket1","images/alien2","images/nothing.png","2","real","true","2","common","0","2022-12-27 21:51:51.388"
"two-step-fixation","185","899792","0.0-76.0-2.16","724","5438","8","Female","true","true","false","false","""event"",""trial"",""time""
""fullscreenenter"",""5"",""19676""
","
","
","""event"",""trial"",""time""
""fullscreenenter"",""5"",""19676""
","
","","images/earth.jpg","","","","","","","","","","","","","","fixation","","","","","",""
"d3-animate-choice","186","903807","0.0-76.0-0.17","724","5438","8","Female","true","true","false","false","""event"",""trial"",""time""
""fullscreenenter"",""5"",""19676""
","
","
","""event"",""trial"",""time""
""fullscreenenter"",""5"",""19676""
","
","2036.3999999761581","","49","","","3000","1","","","images/earth.jpg","images/rocket2","images/rocket1","null","images/rocket1","","1","real","null","1","","",""
"d3-animate-choice","187","907721","0.0-76.0-1.17","724","5438","8","Female","true","true","false","false","""event"",""trial"",""time""
""fullscreenenter"",""5"",""19676""
","
","
","""event"",""trial"",""time""
""fullscreenenter"",""5"",""19676""
","
","1902.699999988079","","49","","","3000","1","","","images/purpleplanet.jpg","images/alien4","images/alien3","images/rocket1","images/alien3","images/t.png","2","real","false","1","rare","1","2022-12-27 21:52:00.328"
"two-step-fixation","188","908728","0.0-76.0-2.17","724","5438","8","Female","true","true","false","false","""event"",""trial"",""time""
""fullscreenenter"",""5"",""19676""
","
","
","""event"",""trial"",""time""
""fullscreenenter"",""5"",""19676""
","
","","images/earth.jpg","","","","","","","","","","","","","","fixation","","","","","",""
"d3-animate-choice","189","912017","0.0-76.0-0.18","724","5438","8","Female","true","true","false","false","""event"",""trial"",""time""
""fullscreenenter"",""5"",""19676""
","
","
","""event"",""trial"",""time""
""fullscreenenter"",""5"",""19676""
","
","1277","","49","","","3000","1","2833.800000011921","48","images/earth.jpg","images/rocket2","images/rocket1","null","images/rocket1","","1","real","null","1","","",""
"d3-animate-choice","190","914722","0.0-76.0-1.18","724","5438","8","Female","true","true","false","false","""event"",""trial"",""time""
""fullscreenenter"",""5"",""19676""
","
","
","""event"",""trial"",""time""
""fullscreenenter"",""5"",""19676""
","
","689.5","","48","","","3000","1","","","images/redplanet1.jpg","images/alien2","images/alien1","images/rocket1","images/alien2","images/t.png","2","real","true","2","common","1","2022-12-27 21:52:07.329"
"two-step-fixation","191","915729","0.0-76.0-2.18","724","5438","8","Female","true","true","false","false","""event"",""trial"",""time""
""fullscreenenter"",""5"",""19676""
","
","
","""event"",""trial"",""time""
""fullscreenenter"",""5"",""19676""
","
","","images/earth.jpg","","","","","","","","","","","","","","fixation","","","","","",""
"d3-animate-choice","192","919233","0.0-76.0-0.19","724","5438","8","Female","true","true","false","false","""event"",""trial"",""time""
""fullscreenenter"",""5"",""19676""
","
","
","""event"",""trial"",""time""
""fullscreenenter"",""5"",""19676""
","
","1500.199999988079","","49","","","3000","1","","","images/earth.jpg","images/rocket2","images/rocket1","null","images/rocket1","","1","real","null","1","","",""
"d3-animate-choice","193","923249","0.0-76.0-1.19","724","5438","8","Female","true","true","false","false","""event"",""trial"",""time""
""fullscreenenter"",""5"",""19676""
","
","
","""event"",""trial"",""time""
""fullscreenenter"",""5"",""19676""
","
","3844.600000023842","","48","","","3000","0","","","images/redplanet1.jpg","images/alien2","images/alien1","images/rocket1","","","2","real","true","2","common","0","2022-12-27 21:52:15.856"
"two-step-fixation","194","924256","0.0-76.0-2.19","724","5438","8","Female","true","true","false","false","""event"",""trial"",""time""
""fullscreenenter"",""5"",""19676""
","
","
","""event"",""trial"",""time""
""fullscreenenter"",""5"",""19676""
","
","","images/earth.jpg","","","","","","","","","","","","","","fixation","","","","","",""
"d3-animate-choice","195","928064","0.0-76.0-0.20","724","5438","8","Female","true","true","false","false","""event"",""trial"",""time""
""fullscreenenter"",""5"",""19676""
","
","
","""event"",""trial"",""time""
""fullscreenenter"",""5"",""19676""
","
","1794","","49","","","3000","1","","","images/earth.jpg","images/rocket2","images/rocket1","null","images/rocket1","","1","real","null","1","","",""
"d3-animate-choice","196","931457","0.0-76.0-1.20","724","5438","8","Female","true","true","false","false","""event"",""trial"",""time""
""fullscreenenter"",""5"",""19676""
","
","
","""event"",""trial"",""time""
""fullscreenenter"",""5"",""19676""
","
","1384.5999999642372","","48","","","3000","1","","","images/redplanet1.jpg","images/alien2","images/alien1","images/rocket1","images/alien2","images/t.png","2","real","true","2","common","1","2022-12-27 21:52:24.064"
"two-step-fixation","197","932465","0.0-76.0-2.20","724","5438","8","Female","true","true","false","false","""event"",""trial"",""time""
""fullscreenenter"",""5"",""19676""
","
","
","""event"",""trial"",""time""
""fullscreenenter"",""5"",""19676""
","
","","images/earth.jpg","","","","","","","","","","","","","","fixation","","","","","",""
"d3-animate-choice","198","936234","0.0-76.0-0.21","724","5438","8","Female","true","true","false","false","""event"",""trial"",""time""
""fullscreenenter"",""5"",""19676""
","
","
","""event"",""trial"",""time""
""fullscreenenter"",""5"",""19676""
","
","1763.800000011921","","49","","","3000","1","","","images/earth.jpg","images/rocket2","images/rocket1","null","images/rocket1","","1","real","null","1","","",""
"d3-animate-choice","199","940246","0.0-76.0-1.21","724","5438","8","Female","true","true","false","false","""event"",""trial"",""time""
""fullscreenenter"",""5"",""19676""
","
","
","""event"",""trial"",""time""
""fullscreenenter"",""5"",""19676""
","
","1241.5","","189","","","3000","1","2054,2545,3038.400000035763,3457.7000000476837","189,189,189,48","images/purpleplanet.jpg","images/alien4","images/alien3","images/rocket1","images/alien4","","2","real","false","","rare","0","2022-12-27 21:52:32.853"
"two-step-fixation","200","941256","0.0-76.0-2.21","724","5438","8","Female","true","true","false","false","""event"",""trial"",""time""
""fullscreenenter"",""5"",""19676""
","
","
","""event"",""trial"",""time""
""fullscreenenter"",""5"",""19676""
","
","","images/earth.jpg","","","","","","","","","","","","","","fixation","","","","","",""
"d3-animate-choice","201","944545","0.0-76.0-0.22","724","5438","8","Female","true","true","false","false","""event"",""trial"",""time""
""fullscreenenter"",""5"",""19676""
","
","
","""event"",""trial"",""time""
""fullscreenenter"",""5"",""19676""
","
","1279.1000000238419","","49","","","3000","1","","","images/earth.jpg","images/rocket2","images/rocket1","null","images/rocket1","","1","real","null","1","","",""
"d3-animate-choice","202","948519","0.0-76.0-1.22","724","5438","8","Female","true","true","false","false","""event"",""trial"",""time""
""fullscreenenter"",""5"",""19676""
","
","
","""event"",""trial"",""time""
""fullscreenenter"",""5"",""19676""
","
","1968","","49","","","3000","1","","","images/redplanet1.jpg","images/alien2","images/alien1","images/rocket1","images/alien1","images/nothing.png","2","real","true","1","common","0","2022-12-27 21:52:41.126"
"two-step-fixation","203","949529","0.0-76.0-2.22","724","5438","8","Female","true","true","false","false","""event"",""trial"",""time""
""fullscreenenter"",""5"",""19676""
","
","
","""event"",""trial"",""time""
""fullscreenenter"",""5"",""19676""
","
","","images/earth.jpg","","","","","","","","","","","","","","fixation","","","","","",""
"d3-animate-choice","204","952889","0.0-76.0-0.23","724","5438","8","Female","true","true","false","false","""event"",""trial"",""time""
""fullscreenenter"",""5"",""19676""
","
","
","""event"",""trial"",""time""
""fullscreenenter"",""5"",""19676""
","
","1350.800000011921","","48","","","3000","1","","","images/earth.jpg","images/rocket2","images/rocket1","null","images/rocket2","","1","real","null","2","","",""
"d3-animate-choice","205","956904","0.0-76.0-1.23","724","5438","8","Female","true","true","false","false","""event"",""trial"",""time""
""fullscreenenter"",""5"",""19676""
","
","
","""event"",""trial"",""time""
""fullscreenenter"",""5"",""19676""
","
","2444.300000011921","","48","","","3000","1","","","images/purpleplanet.jpg","images/alien4","images/alien3","images/rocket2","images/alien4","images/nothing.png","2","real","true","2","common","0","2022-12-27 21:52:49.511"
"two-step-fixation","206","957913","0.0-76.0-2.23","724","5438","8","Female","true","true","false","false","""event"",""trial"",""time""
""fullscreenenter"",""5"",""19676""
","
","
","""event"",""trial"",""time""
""fullscreenenter"",""5"",""19676""
","
","","images/earth.jpg","","","","","","","","","","","","","","fixation","","","","","",""
"d3-animate-choice","207","961017","0.0-76.0-0.24","724","5438","8","Female","true","true","false","false","""event"",""trial"",""time""
""fullscreenenter"",""5"",""19676""
","
","
","""event"",""trial"",""time""
""fullscreenenter"",""5"",""19676""
","
","1094.4000000357628","","49","","","3000","1","","","images/earth.jpg","images/rocket2","images/rocket1","null","images/rocket1","","1","real","null","1","","",""
"d3-animate-choice","208","965033","0.0-76.0-1.24","724","5438","8","Female","true","true","false","false","""event"",""trial"",""time""
""fullscreenenter"",""5"",""19676""
","
","
","""event"",""trial"",""time""
""fullscreenenter"",""5"",""19676""
","
","2182","","54","","","3000","1","2249.5,2313.800000011921,2381,2451.399999976158","55,56,57,48","images/redplanet1.jpg","images/alien2","images/alien1","images/rocket1","images/alien2","images/nothing.png","2","real","true","","common","0","2022-12-27 21:52:57.641"
"two-step-fixation","209","966041","0.0-76.0-2.24","724","5438","8","Female","true","true","false","false","""event"",""trial"",""time""
""fullscreenenter"",""5"",""19676""
","
","
","""event"",""trial"",""time""
""fullscreenenter"",""5"",""19676""
","
","","images/earth.jpg","","","","","","","","","","","","","","fixation","","","","","",""
"d3-animate-choice","210","969297","0.0-76.0-0.25","724","5438","8","Female","true","true","false","false","""event"",""trial"",""time""
""fullscreenenter"",""5"",""19676""
","
","
","""event"",""trial"",""time""
""fullscreenenter"",""5"",""19676""
","
","1246.199999988079","","49","","","3000","1","","","images/earth.jpg","images/rocket2","images/rocket1","null","images/rocket1","","1","real","null","1","","",""
"d3-animate-choice","211","972633","0.0-76.0-1.25","724","5438","8","Female","true","true","false","false","""event"",""trial"",""time""
""fullscreenenter"",""5"",""19676""
","
","
","""event"",""trial"",""time""
""fullscreenenter"",""5"",""19676""
","
","1321.199999988079","","48","","","3000","1","","","images/redplanet1.jpg","images/alien2","images/alien1","images/rocket1","images/alien2","images/nothing.png","2","real","true","2","common","0","2022-12-27 21:53:05.240"
"two-step-fixation","212","973641","0.0-76.0-2.25","724","5438","8","Female","true","true","false","false","""event"",""trial"",""time""
""fullscreenenter"",""5"",""19676""
","
","
","""event"",""trial"",""time""
""fullscreenenter"",""5"",""19676""
","
","","images/earth.jpg","","","","","","","","","","","","","","fixation","","","","","",""
"d3-animate-choice","213","976745","0.0-76.0-0.26","724","5438","8","Female","true","true","false","false","""event"",""trial"",""time""
""fullscreenenter"",""5"",""19676""
","
","
","""event"",""trial"",""time""
""fullscreenenter"",""5"",""19676""
","
","1091.5","","48","","","3000","1","","","images/earth.jpg","images/rocket2","images/rocket1","null","images/rocket2","","1","real","null","2","","",""
"d3-animate-choice","214","980760","0.0-76.0-1.26","724","5438","8","Female","true","true","false","false","""event"",""trial"",""time""
""fullscreenenter"",""5"",""19676""
","
","
","""event"",""trial"",""time""
""fullscreenenter"",""5"",""19676""
","
","2055.800000011921","","48","","","3000","1","","","images/redplanet1.jpg","images/alien2","images/alien1","images/rocket2","images/alien2","images/t.png","2","real","false","2","rare","1","2022-12-27 21:53:13.368"
"two-step-fixation","215","981768","0.0-76.0-2.26","724","5438","8","Female","true","true","false","false","""event"",""trial"",""time""
""fullscreenenter"",""5"",""19676""
","
","
","""event"",""trial"",""time""
""fullscreenenter"",""5"",""19676""
","
","","images/earth.jpg","","","","","","","","","","","","","","fixation","","","","","",""
"d3-animate-choice","216","985776","0.0-76.0-0.27","724","5438","8","Female","true","true","false","false","""event"",""trial"",""time""
""fullscreenenter"",""5"",""19676""
","
","
","""event"",""trial"",""time""
""fullscreenenter"",""5"",""19676""
","
","2595.099999964237","","49","","","3000","1","","","images/earth.jpg","images/rocket2","images/rocket1","null","images/rocket1","","1","real","null","1","","",""
"d3-animate-choice","217","989697","0.0-76.0-1.27","724","5438","8","Female","true","true","false","false","""event"",""trial"",""time""
""fullscreenenter"",""5"",""19676""
","
","
","""event"",""trial"",""time""
""fullscreenenter"",""5"",""19676""
","
","1907.300000011921","","49","","","3000","1","","","images/redplanet1.jpg","images/alien2","images/alien1","images/rocket1","images/alien1","images/nothing.png","2","real","true","1","common","0","2022-12-27 21:53:22.304"
"two-step-fixation","218","990705","0.0-76.0-2.27","724","5438","8","Female","true","true","false","false","""event"",""trial"",""time""
""fullscreenenter"",""5"",""19676""
","
","
","""event"",""trial"",""time""
""fullscreenenter"",""5"",""19676""
","
","","images/earth.jpg","","","","","","","","","","","","","","fixation","","","","","",""
"d3-animate-choice","219","994720","0.0-76.0-0.28","724","5438","8","Female","true","true","false","false","""event"",""trial"",""time""
""fullscreenenter"",""5"",""19676""
","
","
","""event"",""trial"",""time""
""fullscreenenter"",""5"",""19676""
","
","2126.099999964237","","48","","","3000","1","","","images/earth.jpg","images/rocket2","images/rocket1","null","images/rocket2","","1","real","null","2","","",""
"d3-animate-choice","220","998593","0.0-76.0-1.28","724","5438","8","Female","true","true","false","false","""event"",""trial"",""time""
""fullscreenenter"",""5"",""19676""
","
","
","""event"",""trial"",""time""
""fullscreenenter"",""5"",""19676""
","
","1864.3999999761581","","49","","","3000","1","","","images/redplanet1.jpg","images/alien2","images/alien1","images/rocket2","images/alien1","images/t.png","2","real","false","1","rare","1","2022-12-27 21:53:31.200"
"two-step-fixation","221","999600","0.0-76.0-2.28","724","5438","8","Female","true","true","false","false","""event"",""trial"",""time""
""fullscreenenter"",""5"",""19676""
","
","
","""event"",""trial"",""time""
""fullscreenenter"",""5"",""19676""
","
","","images/earth.jpg","","","","","","","","","","","","","","fixation","","","","","",""
"d3-animate-choice","222","1003616","0.0-76.0-0.29","724","5438","8","Female","true","true","false","false","""event"",""trial"",""time""
""fullscreenenter"",""5"",""19676""
","
","
","""event"",""trial"",""time""
""fullscreenenter"",""5"",""19676""
","
","3323.300000011921","","48","","","3000","0","","","images/earth.jpg","images/rocket2","images/rocket1","null","","","1","real","null","2","","",""
"d3-animate-choice","223","1004632","0.0-76.0-1.29","724","5438","8","Female","true","true","false","false","""event"",""trial"",""time""
""fullscreenenter"",""5"",""19676""
","
","
","""event"",""trial"",""time""
""fullscreenenter"",""5"",""19676""
","
","null","","null","","","0","0","","","images/earth.jpg","images/rocket2","images/rocket1","null","","","2","real","null","","","0","2022-12-27 21:53:37.239"
"two-step-fixation","224","1005650","0.0-76.0-2.29","724","5438","8","Female","true","true","false","false","""event"",""trial"",""time""
""fullscreenenter"",""5"",""19676""
","
","
","""event"",""trial"",""time""
""fullscreenenter"",""5"",""19676""
","
","","images/earth.jpg","","","","","","","","","","","","","","fixation","","","","","",""
"d3-animate-choice","225","1008072","0.0-76.0-0.30","724","5438","8","Female","true","true","false","false","""event"",""trial"",""time""
""fullscreenenter"",""5"",""19676""
","
","
","""event"",""trial"",""time""
""fullscreenenter"",""5"",""19676""
","
","411.30000001192093","","48","","","3000","1","961.6999999880791","48","images/earth.jpg","images/rocket2","images/rocket1","null","images/rocket2","","1","real","null","2","","",""
"d3-animate-choice","226","1011721","0.0-76.0-1.30","724","5438","8","Female","true","true","false","false","""event"",""trial"",""time""
""fullscreenenter"",""5"",""19676""
","
","
","""event"",""trial"",""time""
""fullscreenenter"",""5"",""19676""
","
","1061.5999999642372","","56","","","3000","1","1097.3999999761581,1128.300000011921,1266.199999988079,1502.3999999761581,1545.8999999761581,1594.300000011921,1637.199999988079,1688.8999999761581","55,54,53,52,51,50,49,192","images/redplanet1.jpg","images/alien2","images/alien1","images/rocket2","images/alien1","images/t.png","2","real","false","","rare","1","2022-12-27 21:53:44.328"
"two-step-fixation","227","1012728","0.0-76.0-2.30","724","5438","8","Female","true","true","false","false","""event"",""trial"",""time""
""fullscreenenter"",""5"",""19676""
","
","
","""event"",""trial"",""time""
""fullscreenenter"",""5"",""19676""
","
","","images/earth.jpg","","","","","","","","","","","","","","fixation","","","","","",""
"d3-animate-choice","228","1015241","0.0-76.0-0.31","724","5438","8","Female","true","true","false","false","""event"",""trial"",""time""
""fullscreenenter"",""5"",""19676""
","
","
","""event"",""trial"",""time""
""fullscreenenter"",""5"",""19676""
","
","505.39999997615814","","48","","","3000","1","2229.699999988079","48","images/earth.jpg","images/rocket2","images/rocket1","null","images/rocket2","","1","real","null","2","","",""
"d3-animate-choice","229","1019256","0.0-76.0-1.31","724","5438","8","Female","true","true","false","false","""event"",""trial"",""time""
""fullscreenenter"",""5"",""19676""
","
","
","""event"",""trial"",""time""
""fullscreenenter"",""5"",""19676""
","
","2473.100000023842","","49","","","3000","1","","","images/purpleplanet.jpg","images/alien4","images/alien3","images/rocket2","images/alien3","images/nothing.png","2","real","true","1","common","0","2022-12-27 21:53:51.863"
"two-step-fixation","230","1020263","0.0-76.0-2.31","724","5438","8","Female","true","true","false","false","""event"",""trial"",""time""
""fullscreenenter"",""5"",""19676""
","
","
","""event"",""trial"",""time""
""fullscreenenter"",""5"",""19676""
","
","","images/earth.jpg","","","","","","","","","","","","","","fixation","","","","","",""
"d3-animate-choice","231","1023505","0.0-76.0-0.32","724","5438","8","Female","true","true","false","false","""event"",""trial"",""time""
""fullscreenenter"",""5"",""19676""
","
","
","""event"",""trial"",""time""
""fullscreenenter"",""5"",""19676""
","
","1229.5","","48","","","3000","1","","","images/earth.jpg","images/rocket2","images/rocket1","null","images/rocket2","","1","real","null","2","","",""
"d3-animate-choice","232","1027057","0.0-76.0-1.32","724","5438","8","Female","true","true","false","false","""event"",""trial"",""time""
""fullscreenenter"",""5"",""19676""
","
","
","""event"",""trial"",""time""
""fullscreenenter"",""5"",""19676""
","
","1540.800000011921","","48","","","3000","1","","","images/purpleplanet.jpg","images/alien4","images/alien3","images/rocket2","images/alien4","images/t.png","2","real","true","2","common","1","2022-12-27 21:53:59.664"
"two-step-fixation","233","1028065","0.0-76.0-2.32","724","5438","8","Female","true","true","false","false","""event"",""trial"",""time""
""fullscreenenter"",""5"",""19676""
","
","
","""event"",""trial"",""time""
""fullscreenenter"",""5"",""19676""
","
","","images/earth.jpg","","","","","","","","","","","","","","fixation","","","","","",""
"d3-animate-choice","234","1031192","0.0-76.0-0.33","724","5438","8","Female","true","true","false","false","""event"",""trial"",""time""
""fullscreenenter"",""5"",""19676""
","
","
","""event"",""trial"",""time""
""fullscreenenter"",""5"",""19676""
","
","1114.800000011921","","49","","","3000","1","","","images/earth.jpg","images/rocket2","images/rocket1","null","images/rocket1","","1","real","null","1","","",""
"d3-animate-choice","235","1035056","0.0-76.0-1.33","724","5438","8","Female","true","true","false","false","""event"",""trial"",""time""
""fullscreenenter"",""5"",""19676""
","
","
","""event"",""trial"",""time""
""fullscreenenter"",""5"",""19676""
","
","1855.7999999523163","","49","","","3000","1","","","images/redplanet1.jpg","images/alien2","images/alien1","images/rocket1","images/alien1","images/t.png","2","real","true","1","common","1","2022-12-27 21:54:07.663"
"two-step-fixation","236","1036065","0.0-76.0-2.33","724","5438","8","Female","true","true","false","false","""event"",""trial"",""time""
""fullscreenenter"",""5"",""19676""
","
","
","""event"",""trial"",""time""
""fullscreenenter"",""5"",""19676""
","
","","images/earth.jpg","","","","","","","","","","","","","","fixation","","","","","",""
"d3-animate-choice","237","1040074","0.0-76.0-0.34","724","5438","8","Female","true","true","false","false","""event"",""trial"",""time""
""fullscreenenter"",""5"",""19676""
","
","
","""event"",""trial"",""time""
""fullscreenenter"",""5"",""19676""
","
","3957.699999988079","","48","","","3000","0","","","images/earth.jpg","images/rocket2","images/rocket1","null","","","1","real","null","2","","",""
"d3-animate-choice","238","1041088","0.0-76.0-1.34","724","5438","8","Female","true","true","false","false","""event"",""trial"",""time""
""fullscreenenter"",""5"",""19676""
","
","
","""event"",""trial"",""time""
""fullscreenenter"",""5"",""19676""
","
","506.89999997615814","","48","","","0","0","683.5","48","images/earth.jpg","images/rocket2","images/rocket1","null","","","2","real","null","2","","0","2022-12-27 21:54:13.695"
"two-step-fixation","239","1042097","0.0-76.0-2.34","724","5438","8","Female","true","true","false","false","""event"",""trial"",""time""
""fullscreenenter"",""5"",""19676""
","
","
","""event"",""trial"",""time""
""fullscreenenter"",""5"",""19676""
","
","","images/earth.jpg","","","","","","","","","","","","","","fixation","","","","","",""
"d3-animate-choice","240","1045729","0.0-76.0-0.35","724","5438","8","Female","true","true","false","false","""event"",""trial"",""time""
""fullscreenenter"",""5"",""19676""
","
","
","""event"",""trial"",""time""
""fullscreenenter"",""5"",""19676""
","
","1617.1000000238419","","48","","","3000","1","","","images/earth.jpg","images/rocket2","images/rocket1","null","images/rocket2","","1","real","null","2","","",""
"d3-animate-choice","241","1049493","0.0-76.0-1.35","724","5438","8","Female","true","true","false","false","""event"",""trial"",""time""
""fullscreenenter"",""5"",""19676""
","
","
","""event"",""trial"",""time""
""fullscreenenter"",""5"",""19676""
","
","1754.2999999523163","","49","","","3000","1","","","images/purpleplanet.jpg","images/alien4","images/alien3","images/rocket2","images/alien3","images/nothing.png","2","real","true","1","common","0","2022-12-27 21:54:22.100"
"two-step-fixation","242","1050505","0.0-76.0-2.35","724","5438","8","Female","true","true","false","false","""event"",""trial"",""time""
""fullscreenenter"",""5"",""19676""
","
","
","""event"",""trial"",""time""
""fullscreenenter"",""5"",""19676""
","
","","images/earth.jpg","","","","","","","","","","","","","","fixation","","","","","",""
"d3-animate-choice","243","1054520","0.0-76.0-0.36","724","5438","8","Female","true","true","false","false","""event"",""trial"",""time""
""fullscreenenter"",""5"",""19676""
","
","
","""event"",""trial"",""time""
""fullscreenenter"",""5"",""19676""
","
","2708","","48","","","3000","1","3659.100000023842","68","images/earth.jpg","images/rocket2","images/rocket1","null","images/rocket2","","1","real","null","2","","",""
"d3-animate-choice","244","1058528","0.0-76.0-1.36","724","5438","8","Female","true","true","false","false","""event"",""trial"",""time""
""fullscreenenter"",""5"",""19676""
","
","
","""event"",""trial"",""time""
""fullscreenenter"",""5"",""19676""
","
","2753.699999988079","","57","","","3000","1","3240.899999976158","48","images/purpleplanet.jpg","images/alien4","images/alien3","images/rocket2","images/alien4","","2","real","true","","common","0","2022-12-27 21:54:31.136"
