"trial_type","trial_index","time_elapsed","internal_node_id","participant_id","subject_id","age","gender","rocket_sides","red_planet_first_rocket","red_display_order","purple_display_order","interactions","blur_events","focus_events","fullscreenenter_events","fullscreenexit_events","rt","stimulus","key_press","button_pressed","success","duration","valid_pressed","rts","keys","planet_text","right_text","left_text","center_text","chosen_text","reward_text","trial_stage","practice_trial","transition_type","choice","transition","reward","timestamp"
"pavlovia","0","3","0.0-0.0","332","641","9","Male","true","true","true","true","
","
","
","
","
","","","","","","","","","","","","","","","","","","","","","",""
"html-keyboard-response","1","6179","0.0-1.0","332","641","9","Male","true","true","true","true","
","
","
","
","
","6174.899999976158","Welcome! Press the space bar to begin.","32","","","","","","","","","","","","","","","","","","",""
"audio-keyboard-response","2","6778","0.0-2.0","332","641","9","Male","true","true","true","true","
","
","
","
","
","549","audio/beep_loop.wav","32","","","","","","","","","","","","","","","","","","",""
"audio-button-response","3","10575","0.0-3.0","332","641","9","Male","true","true","true","true","
","
","
","
","
","NaN","audio/fish.mp3","","1","","","","","","","","","","","","","","","","","",""
"audio-button-response","4","12976","0.0-4.0","332","641","9","Male","true","true","true","true","""event"",""trial"",""time""
""fullscreenenter"",""5"",""15316""
","
","
","""event"",""trial"",""time""
""fullscreenenter"",""5"",""15316""
","
","NaN","audio/tiger.mp3","","4","","","","","","","","","","","","","","","","","",""
"fullscreen","5","16290","0.0-5.0","332","641","9","Male","true","true","true","true","""event"",""trial"",""time""
""fullscreenenter"",""5"",""15316""
","
","
","""event"",""trial"",""time""
""fullscreenenter"",""5"",""15316""
","
","","","","","true","","","","","","","","","","","","","","","","",""
"d3-instructions","6","20341","0.0-6.0","332","641","9","Male","true","true","true","true","""event"",""trial"",""time""
""fullscreenenter"",""5"",""15316""
","
","
","""event"",""trial"",""time""
""fullscreenenter"",""5"",""15316""
","
","","","","","","","","","","","","","","","","","","","","","",""
"d3-instructions","7","22018","0.0-7.0","332","641","9","Male","true","true","true","true","""event"",""trial"",""time""
""fullscreenenter"",""5"",""15316""
","
","
","""event"",""trial"",""time""
""fullscreenenter"",""5"",""15316""
","
","","","","","","","","","","","","","","","","","","","","","",""
"d3-instructions","8","23618","0.0-8.0","332","641","9","Male","true","true","true","true","""event"",""trial"",""time""
""fullscreenenter"",""5"",""15316""
","
","
","""event"",""trial"",""time""
""fullscreenenter"",""5"",""15316""
","
","","","","","","","","","","","","","","","","","","","","","",""
"d3-instructions","9","24986","0.0-9.0","332","641","9","Male","true","true","true","true","""event"",""trial"",""time""
""fullscreenenter"",""5"",""15316""
""fullscreenexit"",""10"",""26497""
","
","
","""event"",""trial"",""time""
""fullscreenenter"",""5"",""15316""
","""event"",""trial"",""time""
""fullscreenexit"",""10"",""26497""
","","","","","","","","","","","","","","","","","","","","","",""
"d3-instructions","10","30587","0.0-10.0","332","641","9","Male","true","true","true","true","""event"",""trial"",""time""
""fullscreenenter"",""5"",""15316""
""fullscreenexit"",""10"",""26497""
","
","
","""event"",""trial"",""time""
""fullscreenenter"",""5"",""15316""
","""event"",""trial"",""time""
""fullscreenexit"",""10"",""26497""
","","","","","","","","","","","","","","","","","","","","","",""
"d3-animate-choice","11","36581","0.0-11.0","332","641","9","Male","true","true","true","true","""event"",""trial"",""time""
""fullscreenenter"",""5"",""15316""
""fullscreenexit"",""10"",""26497""
","
","
","""event"",""trial"",""time""
""fullscreenenter"",""5"",""15316""
","""event"",""trial"",""time""
""fullscreenexit"",""10"",""26497""
","646.2000000476837","","27","","","3000","1","3989.800000011921","48","images/tutgreenplanet.jpg","images/tutalien1","images/tutalien2","null","images/tutalien1","","NA","practice","null","","","",""
"d3-animate-choice","12","38818","0.0-12.0","332","641","9","Male","true","true","true","true","""event"",""trial"",""time""
""fullscreenenter"",""5"",""15316""
""fullscreenexit"",""10"",""26497""
","
","
","""event"",""trial"",""time""
""fullscreenenter"",""5"",""15316""
","""event"",""trial"",""time""
""fullscreenexit"",""10"",""26497""
","226.69999998807907","","48","","","3000","1","1587.1000000238419,2226.899999976158","48,49","images/tutgreenplanet.jpg","images/tutalien1","images/tutalien2","null","images/tutalien1","","NA","practice","null","","","",""
"d3-animate-choice","13","41301","0.0-13.0","332","641","9","Male","true","true","true","true","""event"",""trial"",""time""
""fullscreenenter"",""5"",""15316""
""fullscreenexit"",""10"",""26497""
","
","
","""event"",""trial"",""time""
""fullscreenenter"",""5"",""15316""
","""event"",""trial"",""time""
""fullscreenexit"",""10"",""26497""
","478.60000002384186","","49","","","3000","1","","","images/tutgreenplanet.jpg","images/tutalien1","images/tutalien2","null","images/tutalien2","","NA","practice","null","","","",""
"d3-animate-choice","14","43907","0.0-14.0","332","641","9","Male","true","true","true","true","""event"",""trial"",""time""
""fullscreenenter"",""5"",""15316""
""fullscreenexit"",""10"",""26497""
","
","
","""event"",""trial"",""time""
""fullscreenenter"",""5"",""15316""
","""event"",""trial"",""time""
""fullscreenexit"",""10"",""26497""
","27","","57","","","3000","1","603.1999999880791","48","images/tutgreenplanet.jpg","images/tutalien1","images/tutalien2","null","images/tutalien1","","NA","practice","null","","","",""
"d3-instructions","15","52122","0.0-15.0","332","641","9","Male","true","true","true","true","""event"",""trial"",""time""
""fullscreenenter"",""5"",""15316""
""fullscreenexit"",""10"",""26497""
","
","
","""event"",""trial"",""time""
""fullscreenenter"",""5"",""15316""
","""event"",""trial"",""time""
""fullscreenexit"",""10"",""26497""
","","","","","","","","","","","","","","","","","","","","","",""
"d3-instructions","16","54683","0.0-16.0","332","641","9","Male","true","true","true","true","""event"",""trial"",""time""
""fullscreenenter"",""5"",""15316""
""fullscreenexit"",""10"",""26497""
","
","
","""event"",""trial"",""time""
""fullscreenenter"",""5"",""15316""
","""event"",""trial"",""time""
""fullscreenexit"",""10"",""26497""
","","","","","","","","","","","","","","","","","","","","","",""
"d3-instructions","17","56266","0.0-17.0","332","641","9","Male","true","true","true","true","""event"",""trial"",""time""
""fullscreenenter"",""5"",""15316""
""fullscreenexit"",""10"",""26497""
","
","
","""event"",""trial"",""time""
""fullscreenenter"",""5"",""15316""
","""event"",""trial"",""time""
""fullscreenexit"",""10"",""26497""
","","","","","","","","","","","","","","","","","","","","","",""
"d3-instructions","18","57515","0.0-18.0","332","641","9","Male","true","true","true","true","""event"",""trial"",""time""
""fullscreenenter"",""5"",""15316""
""fullscreenexit"",""10"",""26497""
","
","
","""event"",""trial"",""time""
""fullscreenenter"",""5"",""15316""
","""event"",""trial"",""time""
""fullscreenexit"",""10"",""26497""
","","","","","","","","","","","","","","","","","","","","","",""
"d3-instructions","19","59930","0.0-19.0","332","641","9","Male","true","true","true","true","""event"",""trial"",""time""
""fullscreenenter"",""5"",""15316""
""fullscreenexit"",""10"",""26497""
","
","
","""event"",""trial"",""time""
""fullscreenenter"",""5"",""15316""
","""event"",""trial"",""time""
""fullscreenexit"",""10"",""26497""
","","","","","","","","","","","","","","","","","","","","","",""
"d3-animate-choice","20","64016","0.0-20.0","332","641","9","Male","true","true","true","true","""event"",""trial"",""time""
""fullscreenenter"",""5"",""15316""
""fullscreenexit"",""10"",""26497""
","
","
","""event"",""trial"",""time""
""fullscreenenter"",""5"",""15316""
","""event"",""trial"",""time""
""fullscreenexit"",""10"",""26497""
","2077.899999976158","","49","","","3000","1","","","images/tutyellowplanet.jpg","null","images/tutalien3","null","images/tutalien3","images/t.png","NA","practice","null","","","",""
"d3-animate-choice","21","66728","0.0-21.0","332","641","9","Male","true","true","true","true","""event"",""trial"",""time""
""fullscreenenter"",""5"",""15316""
""fullscreenexit"",""10"",""26497""
","
","
","""event"",""trial"",""time""
""fullscreenenter"",""5"",""15316""
","""event"",""trial"",""time""
""fullscreenexit"",""10"",""26497""
","705.3999999761581","","49","","","3000","1","","","images/tutyellowplanet.jpg","null","images/tutalien3","null","images/tutalien3","images/t.png","NA","practice","null","","","",""
"d3-animate-choice","22","69070","0.0-22.0","332","641","9","Male","true","true","true","true","""event"",""trial"",""time""
""fullscreenenter"",""5"",""15316""
""fullscreenexit"",""10"",""26497""
","
","
","""event"",""trial"",""time""
""fullscreenenter"",""5"",""15316""
","""event"",""trial"",""time""
""fullscreenexit"",""10"",""26497""
","336.89999997615814","","49","","","3000","1","","","images/tutyellowplanet.jpg","null","images/tutalien3","null","images/tutalien3","images/t.png","NA","practice","null","","","",""
"d3-animate-choice","23","72001","0.0-23.0","332","641","9","Male","true","true","true","true","""event"",""trial"",""time""
""fullscreenenter"",""5"",""15316""
""fullscreenexit"",""10"",""26497""
","
","
","""event"",""trial"",""time""
""fullscreenenter"",""5"",""15316""
","""event"",""trial"",""time""
""fullscreenexit"",""10"",""26497""
","923.1000000238419","","49","","","3000","1","","","images/tutyellowplanet.jpg","null","images/tutalien3","null","images/tutalien3","images/t.png","NA","practice","null","","","",""
"d3-animate-choice","24","74366","0.0-24.0","332","641","9","Male","true","true","true","true","""event"",""trial"",""time""
""fullscreenenter"",""5"",""15316""
""fullscreenexit"",""10"",""26497""
","
","
","""event"",""trial"",""time""
""fullscreenenter"",""5"",""15316""
","""event"",""trial"",""time""
""fullscreenexit"",""10"",""26497""
","359.0999999642372","","49","","","3000","1","","","images/tutyellowplanet.jpg","null","images/tutalien3","null","images/tutalien3","images/t.png","NA","practice","null","","","",""
"d3-animate-choice","25","76483","0.0-25.0","332","641","9","Male","true","true","true","true","""event"",""trial"",""time""
""fullscreenenter"",""5"",""15316""
""fullscreenexit"",""10"",""26497""
","
","
","""event"",""trial"",""time""
""fullscreenenter"",""5"",""15316""
","""event"",""trial"",""time""
""fullscreenexit"",""10"",""26497""
","98.5","","49","","","3000","1","","","images/tutyellowplanet.jpg","null","images/tutalien3","null","images/tutalien3","images/t.png","NA","practice","null","","","",""
"d3-animate-choice","26","78597","0.0-26.0","332","641","9","Male","true","true","true","true","""event"",""trial"",""time""
""fullscreenenter"",""5"",""15316""
""fullscreenexit"",""10"",""26497""
","
","
","""event"",""trial"",""time""
""fullscreenenter"",""5"",""15316""
","""event"",""trial"",""time""
""fullscreenexit"",""10"",""26497""
","110.39999997615814","","49","","","3000","1","","","images/tutyellowplanet.jpg","null","images/tutalien3","null","images/tutalien3","images/t.png","NA","practice","null","","","",""
"d3-animate-choice","27","81171","0.0-27.0","332","641","9","Male","true","true","true","true","""event"",""trial"",""time""
""fullscreenenter"",""5"",""15316""
""fullscreenexit"",""10"",""26497""
","
","
","""event"",""trial"",""time""
""fullscreenenter"",""5"",""15316""
","""event"",""trial"",""time""
""fullscreenexit"",""10"",""26497""
","572.0999999642372","","49","","","3000","1","","","images/tutyellowplanet.jpg","null","images/tutalien3","null","images/tutalien3","images/t.png","NA","practice","null","","","",""
"d3-animate-choice","28","83846","0.0-28.0","332","641","9","Male","true","true","true","true","""event"",""trial"",""time""
""fullscreenenter"",""5"",""15316""
""fullscreenexit"",""10"",""26497""
","
","
","""event"",""trial"",""time""
""fullscreenenter"",""5"",""15316""
","""event"",""trial"",""time""
""fullscreenexit"",""10"",""26497""
","662.3000000119209","","49","","","3000","1","1102.1000000238419","49","images/tutyellowplanet.jpg","null","images/tutalien3","null","images/tutalien3","images/t.png","NA","practice","null","","","",""
"d3-animate-choice","29","86605","0.0-29.0","332","641","9","Male","true","true","true","true","""event"",""trial"",""time""
""fullscreenenter"",""5"",""15316""
""fullscreenexit"",""10"",""26497""
","
","
","""event"",""trial"",""time""
""fullscreenenter"",""5"",""15316""
","""event"",""trial"",""time""
""fullscreenexit"",""10"",""26497""
","756.3000000119209","","49","","","3000","1","","","images/tutyellowplanet.jpg","null","images/tutalien3","null","images/tutalien3","images/t.png","NA","practice","null","","","",""
"d3-instructions","30","100003","0.0-30.0","332","641","9","Male","true","true","true","true","""event"",""trial"",""time""
""fullscreenenter"",""5"",""15316""
""fullscreenexit"",""10"",""26497""
","
","
","""event"",""trial"",""time""
""fullscreenenter"",""5"",""15316""
","""event"",""trial"",""time""
""fullscreenexit"",""10"",""26497""
","","","","","","","","","","","","","","","","","","","","","",""
"d3-instructions","31","100699","0.0-31.0","332","641","9","Male","true","true","true","true","""event"",""trial"",""time""
""fullscreenenter"",""5"",""15316""
""fullscreenexit"",""10"",""26497""
","
","
","""event"",""trial"",""time""
""fullscreenenter"",""5"",""15316""
","""event"",""trial"",""time""
""fullscreenexit"",""10"",""26497""
","","","","","","","","","","","","","","","","","","","","","",""
"d3-instructions","32","101236","0.0-32.0","332","641","9","Male","true","true","true","true","""event"",""trial"",""time""
""fullscreenenter"",""5"",""15316""
""fullscreenexit"",""10"",""26497""
","
","
","""event"",""trial"",""time""
""fullscreenenter"",""5"",""15316""
","""event"",""trial"",""time""
""fullscreenexit"",""10"",""26497""
","","","","","","","","","","","","","","","","","","","","","",""
"d3-instructions","33","101788","0.0-33.0","332","641","9","Male","true","true","true","true","""event"",""trial"",""time""
""fullscreenenter"",""5"",""15316""
""fullscreenexit"",""10"",""26497""
","
","
","""event"",""trial"",""time""
""fullscreenenter"",""5"",""15316""
","""event"",""trial"",""time""
""fullscreenexit"",""10"",""26497""
","","","","","","","","","","","","","","","","","","","","","",""
"d3-animate-choice","34","105017","0.0-34.0","332","641","9","Male","true","true","true","true","""event"",""trial"",""time""
""fullscreenenter"",""5"",""15316""
""fullscreenexit"",""10"",""26497""
","
","
","""event"",""trial"",""time""
""fullscreenenter"",""5"",""15316""
","""event"",""trial"",""time""
""fullscreenexit"",""10"",""26497""
","1214.1000000238419","","48","","","3000","1","","","images/tutgreenplanet.jpg","images/tutalien1","images/tutalien2","null","images/tutalien1","images/nothing.png","NA","practice","null","","","",""
"d3-animate-choice","35","108205","0.0-35.0","332","641","9","Male","true","true","true","true","""event"",""trial"",""time""
""fullscreenenter"",""5"",""15316""
""fullscreenexit"",""10"",""26497""
","
","
","""event"",""trial"",""time""
""fullscreenenter"",""5"",""15316""
","""event"",""trial"",""time""
""fullscreenexit"",""10"",""26497""
","1184.1000000238419","","48","","","3000","1","","","images/tutgreenplanet.jpg","images/tutalien1","images/tutalien2","null","images/tutalien1","images/nothing.png","NA","practice","null","","","",""
"d3-animate-choice","36","110698","0.0-36.0","332","641","9","Male","true","true","true","true","""event"",""trial"",""time""
""fullscreenenter"",""5"",""15316""
""fullscreenexit"",""10"",""26497""
","
","
","""event"",""trial"",""time""
""fullscreenenter"",""5"",""15316""
","""event"",""trial"",""time""
""fullscreenexit"",""10"",""26497""
","484.9000000357628","","48","","","3000","1","","","images/tutgreenplanet.jpg","images/tutalien1","images/tutalien2","null","images/tutalien1","images/nothing.png","NA","practice","null","","","",""
"d3-animate-choice","37","113316","0.0-37.0","332","641","9","Male","true","true","true","true","""event"",""trial"",""time""
""fullscreenenter"",""5"",""15316""
""fullscreenexit"",""10"",""26497""
","
","
","""event"",""trial"",""time""
""fullscreenenter"",""5"",""15316""
","""event"",""trial"",""time""
""fullscreenexit"",""10"",""26497""
","615.3999999761581","","48","","","3000","1","","","images/tutgreenplanet.jpg","images/tutalien1","images/tutalien2","null","images/tutalien1","images/nothing.png","NA","practice","null","","","",""
"d3-animate-choice","38","115756","0.0-38.0","332","641","9","Male","true","true","true","true","""event"",""trial"",""time""
""fullscreenenter"",""5"",""15316""
""fullscreenexit"",""10"",""26497""
","
","
","""event"",""trial"",""time""
""fullscreenenter"",""5"",""15316""
","""event"",""trial"",""time""
""fullscreenexit"",""10"",""26497""
","429.4000000357628","","48","","","3000","1","2021.5","48","images/tutgreenplanet.jpg","images/tutalien1","images/tutalien2","null","images/tutalien1","images/nothing.png","NA","practice","null","","","",""
"d3-animate-choice","39","118212","0.0-39.0","332","641","9","Male","true","true","true","true","""event"",""trial"",""time""
""fullscreenenter"",""5"",""15316""
""fullscreenexit"",""10"",""26497""
","
","
","""event"",""trial"",""time""
""fullscreenenter"",""5"",""15316""
","""event"",""trial"",""time""
""fullscreenexit"",""10"",""26497""
","454","","48","","","3000","1","2046","48","images/tutgreenplanet.jpg","images/tutalien1","images/tutalien2","null","images/tutalien1","images/nothing.png","NA","practice","null","","","",""
"d3-animate-choice","40","121072","0.0-40.0","332","641","9","Male","true","true","true","true","""event"",""trial"",""time""
""fullscreenenter"",""5"",""15316""
""fullscreenexit"",""10"",""26497""
","
","
","""event"",""trial"",""time""
""fullscreenenter"",""5"",""15316""
","""event"",""trial"",""time""
""fullscreenexit"",""10"",""26497""
","845.6999999880791","","48","","","3000","1","","","images/tutgreenplanet.jpg","images/tutalien1","images/tutalien2","null","images/tutalien1","images/nothing.png","NA","practice","null","","","",""
"d3-animate-choice","41","123292","0.0-41.0","332","641","9","Male","true","true","true","true","""event"",""trial"",""time""
""fullscreenenter"",""5"",""15316""
""fullscreenexit"",""10"",""26497""
","
","
","""event"",""trial"",""time""
""fullscreenenter"",""5"",""15316""
","""event"",""trial"",""time""
""fullscreenexit"",""10"",""26497""
","218.0999999642372","","48","","","3000","1","","","images/tutgreenplanet.jpg","images/tutalien1","images/tutalien2","null","images/tutalien1","images/nothing.png","NA","practice","null","","","",""
"d3-animate-choice","42","125336","0.0-42.0","332","641","9","Male","true","true","true","true","""event"",""trial"",""time""
""fullscreenenter"",""5"",""15316""
""fullscreenexit"",""10"",""26497""
","
","
","""event"",""trial"",""time""
""fullscreenenter"",""5"",""15316""
","""event"",""trial"",""time""
""fullscreenexit"",""10"",""26497""
","37.80000001192093","","49","","","3000","1","","","images/tutgreenplanet.jpg","images/tutalien1","images/tutalien2","null","images/tutalien2","images/nothing.png","NA","practice","null","","","",""
"d3-animate-choice","43","128412","0.0-43.0","332","641","9","Male","true","true","true","true","""event"",""trial"",""time""
""fullscreenenter"",""5"",""15316""
""fullscreenexit"",""10"",""26497""
","
","
","""event"",""trial"",""time""
""fullscreenenter"",""5"",""15316""
","""event"",""trial"",""time""
""fullscreenexit"",""10"",""26497""
","1073.8999999761581","","49","","","3000","1","","","images/tutgreenplanet.jpg","images/tutalien1","images/tutalien2","null","images/tutalien2","images/t.png","NA","practice","null","","","",""
"d3-instructions","44","132291","0.0-44.0","332","641","9","Male","true","true","true","true","""event"",""trial"",""time""
""fullscreenenter"",""5"",""15316""
""fullscreenexit"",""10"",""26497""
","
","
","""event"",""trial"",""time""
""fullscreenenter"",""5"",""15316""
","""event"",""trial"",""time""
""fullscreenexit"",""10"",""26497""
","","","","","","","","","","","","","","","","","","","","","",""
"d3-instructions","45","133115","0.0-45.0","332","641","9","Male","true","true","true","true","""event"",""trial"",""time""
""fullscreenenter"",""5"",""15316""
""fullscreenexit"",""10"",""26497""
","
","
","""event"",""trial"",""time""
""fullscreenenter"",""5"",""15316""
","""event"",""trial"",""time""
""fullscreenexit"",""10"",""26497""
","","","","","","","","","","","","","","","","","","","","","",""
"d3-instructions","46","133987","0.0-46.0","332","641","9","Male","true","true","true","true","""event"",""trial"",""time""
""fullscreenenter"",""5"",""15316""
""fullscreenexit"",""10"",""26497""
","
","
","""event"",""trial"",""time""
""fullscreenenter"",""5"",""15316""
","""event"",""trial"",""time""
""fullscreenexit"",""10"",""26497""
","","","","","","","","","","","","","","","","","","","","","",""
"d3-instructions","47","134955","0.0-47.0","332","641","9","Male","true","true","true","true","""event"",""trial"",""time""
""fullscreenenter"",""5"",""15316""
""fullscreenexit"",""10"",""26497""
","
","
","""event"",""trial"",""time""
""fullscreenenter"",""5"",""15316""
","""event"",""trial"",""time""
""fullscreenexit"",""10"",""26497""
","","","","","","","","","","","","","","","","","","","","","",""
"d3-instructions","48","136179","0.0-48.0","332","641","9","Male","true","true","true","true","""event"",""trial"",""time""
""fullscreenenter"",""5"",""15316""
""fullscreenexit"",""10"",""26497""
","
","
","""event"",""trial"",""time""
""fullscreenenter"",""5"",""15316""
","""event"",""trial"",""time""
""fullscreenexit"",""10"",""26497""
","","","","","","","","","","","","","","","","","","","","","",""
"d3-instructions","49","137267","0.0-49.0","332","641","9","Male","true","true","true","true","""event"",""trial"",""time""
""fullscreenenter"",""5"",""15316""
""fullscreenexit"",""10"",""26497""
","
","
","""event"",""trial"",""time""
""fullscreenenter"",""5"",""15316""
","""event"",""trial"",""time""
""fullscreenexit"",""10"",""26497""
","","","","","","","","","","","","","","","","","","","","","",""
"d3-instructions","50","138131","0.0-50.0","332","641","9","Male","true","true","true","true","""event"",""trial"",""time""
""fullscreenenter"",""5"",""15316""
""fullscreenexit"",""10"",""26497""
","
","
","""event"",""trial"",""time""
""fullscreenenter"",""5"",""15316""
","""event"",""trial"",""time""
""fullscreenexit"",""10"",""26497""
","","","","","","","","","","","","","","","","","","","","","",""
"d3-instructions","51","139387","0.0-51.0","332","641","9","Male","true","true","true","true","""event"",""trial"",""time""
""fullscreenenter"",""5"",""15316""
""fullscreenexit"",""10"",""26497""
","
","
","""event"",""trial"",""time""
""fullscreenenter"",""5"",""15316""
","""event"",""trial"",""time""
""fullscreenexit"",""10"",""26497""
","","","","","","","","","","","","","","","","","","","","","",""
"d3-instructions","52","140051","0.0-52.0","332","641","9","Male","true","true","true","true","""event"",""trial"",""time""
""fullscreenenter"",""5"",""15316""
""fullscreenexit"",""10"",""26497""
","
","
","""event"",""trial"",""time""
""fullscreenenter"",""5"",""15316""
","""event"",""trial"",""time""
""fullscreenexit"",""10"",""26497""
","","","","","","","","","","","","","","","","","","","","","",""
"d3-instructions","53","140731","0.0-53.0","332","641","9","Male","true","true","true","true","""event"",""trial"",""time""
""fullscreenenter"",""5"",""15316""
""fullscreenexit"",""10"",""26497""
","
","
","""event"",""trial"",""time""
""fullscreenenter"",""5"",""15316""
","""event"",""trial"",""time""
""fullscreenexit"",""10"",""26497""
","","","","","","","","","","","","","","","","","","","","","",""
"d3-instructions","54","141611","0.0-54.0","332","641","9","Male","true","true","true","true","""event"",""trial"",""time""
""fullscreenenter"",""5"",""15316""
""fullscreenexit"",""10"",""26497""
","
","
","""event"",""trial"",""time""
""fullscreenenter"",""5"",""15316""
","""event"",""trial"",""time""
""fullscreenexit"",""10"",""26497""
","","","","","","","","","","","","","","","","","","","","","",""
"d3-instructions","55","142075","0.0-55.0","332","641","9","Male","true","true","true","true","""event"",""trial"",""time""
""fullscreenenter"",""5"",""15316""
""fullscreenexit"",""10"",""26497""
","
","
","""event"",""trial"",""time""
""fullscreenenter"",""5"",""15316""
","""event"",""trial"",""time""
""fullscreenexit"",""10"",""26497""
","","","","","","","","","","","","","","","","","","","","","",""
"d3-instructions","56","142555","0.0-56.0","332","641","9","Male","true","true","true","true","""event"",""trial"",""time""
""fullscreenenter"",""5"",""15316""
""fullscreenexit"",""10"",""26497""
","
","
","""event"",""trial"",""time""
""fullscreenenter"",""5"",""15316""
","""event"",""trial"",""time""
""fullscreenexit"",""10"",""26497""
","","","","","","","","","","","","","","","","","","","","","",""
"d3-instructions","57","143315","0.0-57.0","332","641","9","Male","true","true","true","true","""event"",""trial"",""time""
""fullscreenenter"",""5"",""15316""
""fullscreenexit"",""10"",""26497""
","
","
","""event"",""trial"",""time""
""fullscreenenter"",""5"",""15316""
","""event"",""trial"",""time""
""fullscreenexit"",""10"",""26497""
","","","","","","","","","","","","","","","","","","","","","",""
"d3-instructions","58","144275","0.0-58.0","332","641","9","Male","true","true","true","true","""event"",""trial"",""time""
""fullscreenenter"",""5"",""15316""
""fullscreenexit"",""10"",""26497""
","
","
","""event"",""trial"",""time""
""fullscreenenter"",""5"",""15316""
","""event"",""trial"",""time""
""fullscreenexit"",""10"",""26497""
","","","","","","","","","","","","","","","","","","","","","",""
"d3-instructions","59","144843","0.0-59.0","332","641","9","Male","true","true","true","true","""event"",""trial"",""time""
""fullscreenenter"",""5"",""15316""
""fullscreenexit"",""10"",""26497""
","
","
","""event"",""trial"",""time""
""fullscreenenter"",""5"",""15316""
","""event"",""trial"",""time""
""fullscreenexit"",""10"",""26497""
","","","","","","","","","","","","","","","","","","","","","",""
"d3-instructions","60","145859","0.0-60.0","332","641","9","Male","true","true","true","true","""event"",""trial"",""time""
""fullscreenenter"",""5"",""15316""
""fullscreenexit"",""10"",""26497""
","
","
","""event"",""trial"",""time""
""fullscreenenter"",""5"",""15316""
","""event"",""trial"",""time""
""fullscreenexit"",""10"",""26497""
","","","","","","","","","","","","","","","","","","","","","",""
"d3-animate-choice","61","148885","0.0-61.0-0.0","332","641","9","Male","true","true","true","true","""event"",""trial"",""time""
""fullscreenenter"",""5"",""15316""
""fullscreenexit"",""10"",""26497""
","
","
","""event"",""trial"",""time""
""fullscreenenter"",""5"",""15316""
","""event"",""trial"",""time""
""fullscreenexit"",""10"",""26497""
","1022.0999999642372","","49","","","3000","1","2221.800000011921,3014.099999964237","49,49","images/earth.jpg","images/tutrocket1","images/tutrocket2","null","images/tutrocket2","","1","practice","null","1","","",""
"d3-animate-choice","62","152325","0.0-61.0-1.0","332","641","9","Male","true","true","true","true","""event"",""trial"",""time""
""fullscreenenter"",""5"",""15316""
""fullscreenexit"",""10"",""26497""
","
","
","""event"",""trial"",""time""
""fullscreenenter"",""5"",""15316""
","""event"",""trial"",""time""
""fullscreenexit"",""10"",""26497""
","1436.300000011921","","49","","","3000","1","","","images/tutgreenplanet.jpg","images/tutalien2","images/tutalien1","images/tutrocket2","images/tutalien1","images/nothing.png","2","practice","false","1","rare","0","2022-02-04 22:16:23.066"
"two-step-fixation","63","153328","0.0-61.0-2.0","332","641","9","Male","true","true","true","true","""event"",""trial"",""time""
""fullscreenenter"",""5"",""15316""
""fullscreenexit"",""10"",""26497""
","
","
","""event"",""trial"",""time""
""fullscreenenter"",""5"",""15316""
","""event"",""trial"",""time""
""fullscreenexit"",""10"",""26497""
","","images/earth.jpg","","","","","","","","","","","","","","fixation","","","","","",""
"d3-animate-choice","64","155611","0.0-61.0-0.1","332","641","9","Male","true","true","true","true","""event"",""trial"",""time""
""fullscreenenter"",""5"",""15316""
""fullscreenexit"",""10"",""26497""
","
","
","""event"",""trial"",""time""
""fullscreenenter"",""5"",""15316""
","""event"",""trial"",""time""
""fullscreenexit"",""10"",""26497""
","266.5","","49","","","3000","1","","","images/earth.jpg","images/tutrocket1","images/tutrocket2","null","images/tutrocket2","","1","practice","null","1","","",""
"d3-animate-choice","65","158032","0.0-61.0-1.1","332","641","9","Male","true","true","true","true","""event"",""trial"",""time""
""fullscreenenter"",""5"",""15316""
""fullscreenexit"",""10"",""26497""
","
","
","""event"",""trial"",""time""
""fullscreenenter"",""5"",""15316""
","""event"",""trial"",""time""
""fullscreenexit"",""10"",""26497""
","406.5","","49","","","3000","1","","","images/tutgreenplanet.jpg","images/tutalien2","images/tutalien1","images/tutrocket2","images/tutalien1","images/t.png","2","practice","false","1","rare","1","2022-02-04 22:16:28.772"
"two-step-fixation","66","159038","0.0-61.0-2.1","332","641","9","Male","true","true","true","true","""event"",""trial"",""time""
""fullscreenenter"",""5"",""15316""
""fullscreenexit"",""10"",""26497""
","
","
","""event"",""trial"",""time""
""fullscreenenter"",""5"",""15316""
","""event"",""trial"",""time""
""fullscreenexit"",""10"",""26497""
","","images/earth.jpg","","","","","","","","","","","","","","fixation","","","","","",""
"d3-animate-choice","67","161491","0.0-61.0-0.2","332","641","9","Male","true","true","true","true","""event"",""trial"",""time""
""fullscreenenter"",""5"",""15316""
""fullscreenexit"",""10"",""26497""
","
","
","""event"",""trial"",""time""
""fullscreenenter"",""5"",""15316""
","""event"",""trial"",""time""
""fullscreenexit"",""10"",""26497""
","435.30000001192093","","49","","","3000","1","","","images/earth.jpg","images/tutrocket1","images/tutrocket2","null","images/tutrocket2","","1","practice","null","1","","",""
"d3-animate-choice","68","163968","0.0-61.0-1.2","332","641","9","Male","true","true","true","true","""event"",""trial"",""time""
""fullscreenenter"",""5"",""15316""
""fullscreenexit"",""10"",""26497""
","
","
","""event"",""trial"",""time""
""fullscreenenter"",""5"",""15316""
","""event"",""trial"",""time""
""fullscreenexit"",""10"",""26497""
","471.30000001192093","","49","","","3000","1","","","images/tutyellowplanet.jpg","images/tutalien4","images/tutalien3","images/tutrocket2","images/tutalien3","images/t.png","2","practice","true","1","common","1","2022-02-04 22:16:34.709"
"two-step-fixation","69","164984","0.0-61.0-2.2","332","641","9","Male","true","true","true","true","""event"",""trial"",""time""
""fullscreenenter"",""5"",""15316""
""fullscreenexit"",""10"",""26497""
","
","
","""event"",""trial"",""time""
""fullscreenenter"",""5"",""15316""
","""event"",""trial"",""time""
""fullscreenexit"",""10"",""26497""
","","images/earth.jpg","","","","","","","","","","","","","","fixation","","","","","",""
"d3-animate-choice","70","168992","0.0-61.0-0.3","332","641","9","Male","true","true","true","true","""event"",""trial"",""time""
""fullscreenenter"",""5"",""15316""
""fullscreenexit"",""10"",""26497""
","
","
","""event"",""trial"",""time""
""fullscreenenter"",""5"",""15316""
","""event"",""trial"",""time""
""fullscreenexit"",""10"",""26497""
","2025.199999988079","","49","","","3000","1","","","images/earth.jpg","images/tutrocket1","images/tutrocket2","null","images/tutrocket2","","1","practice","null","1","","",""
"d3-animate-choice","71","171044","0.0-61.0-1.3","332","641","9","Male","true","true","true","true","""event"",""trial"",""time""
""fullscreenenter"",""5"",""15316""
""fullscreenexit"",""10"",""26497""
","
","
","""event"",""trial"",""time""
""fullscreenenter"",""5"",""15316""
","""event"",""trial"",""time""
""fullscreenexit"",""10"",""26497""
","49.40000003576279","","49","","","3000","1","1265.4000000357628","49","images/tutyellowplanet.jpg","images/tutalien4","images/tutalien3","images/tutrocket2","images/tutalien3","images/nothing.png","2","practice","true","1","common","0","2022-02-04 22:16:41.785"
"two-step-fixation","72","172055","0.0-61.0-2.3","332","641","9","Male","true","true","true","true","""event"",""trial"",""time""
""fullscreenenter"",""5"",""15316""
""fullscreenexit"",""10"",""26497""
","
","
","""event"",""trial"",""time""
""fullscreenenter"",""5"",""15316""
","""event"",""trial"",""time""
""fullscreenexit"",""10"",""26497""
","","images/earth.jpg","","","","","","","","","","","","","","fixation","","","","","",""
"d3-animate-choice","73","174933","0.0-61.0-0.4","332","641","9","Male","true","true","true","true","""event"",""trial"",""time""
""fullscreenenter"",""5"",""15316""
""fullscreenexit"",""10"",""26497""
","
","
","""event"",""trial"",""time""
""fullscreenenter"",""5"",""15316""
","""event"",""trial"",""time""
""fullscreenexit"",""10"",""26497""
","872.8000000119209","","49","","","3000","1","2313.100000023842","49","images/earth.jpg","images/tutrocket1","images/tutrocket2","null","images/tutrocket2","","1","practice","null","1","","",""
"d3-animate-choice","74","178420","0.0-61.0-1.4","332","641","9","Male","true","true","true","true","""event"",""trial"",""time""
""fullscreenenter"",""5"",""15316""
""fullscreenexit"",""10"",""26497""
","
","
","""event"",""trial"",""time""
""fullscreenenter"",""5"",""15316""
","""event"",""trial"",""time""
""fullscreenexit"",""10"",""26497""
","1482.2000000476837","","49","","","3000","1","3122.7000000476837","49","images/tutyellowplanet.jpg","images/tutalien4","images/tutalien3","images/tutrocket2","images/tutalien3","images/nothing.png","2","practice","true","1","common","0","2022-02-04 22:16:49.160"
"two-step-fixation","75","179421","0.0-61.0-2.4","332","641","9","Male","true","true","true","true","""event"",""trial"",""time""
""fullscreenenter"",""5"",""15316""
""fullscreenexit"",""10"",""26497""
","
","
","""event"",""trial"",""time""
""fullscreenenter"",""5"",""15316""
","""event"",""trial"",""time""
""fullscreenexit"",""10"",""26497""
","","images/earth.jpg","","","","","","","","","","","","","","fixation","","","","","",""
"d3-animate-choice","76","183425","0.0-61.0-0.5","332","641","9","Male","true","true","true","true","""event"",""trial"",""time""
""fullscreenenter"",""5"",""15316""
""fullscreenexit"",""10"",""26497""
","
","
","""event"",""trial"",""time""
""fullscreenenter"",""5"",""15316""
","""event"",""trial"",""time""
""fullscreenexit"",""10"",""26497""
","2060.5","","49","","","3000","1","","","images/earth.jpg","images/tutrocket1","images/tutrocket2","null","images/tutrocket2","","1","practice","null","1","","",""
"d3-animate-choice","77","185900","0.0-61.0-1.5","332","641","9","Male","true","true","true","true","""event"",""trial"",""time""
""fullscreenenter"",""5"",""15316""
""fullscreenexit"",""10"",""26497""
","
","
","""event"",""trial"",""time""
""fullscreenenter"",""5"",""15316""
","""event"",""trial"",""time""
""fullscreenexit"",""10"",""26497""
","472","","49","","","3000","1","1911.800000011921","49","images/tutyellowplanet.jpg","images/tutalien4","images/tutalien3","images/tutrocket2","images/tutalien3","images/nothing.png","2","practice","true","1","common","0","2022-02-04 22:16:56.640"
"two-step-fixation","78","186903","0.0-61.0-2.5","332","641","9","Male","true","true","true","true","""event"",""trial"",""time""
""fullscreenenter"",""5"",""15316""
""fullscreenexit"",""10"",""26497""
","
","
","""event"",""trial"",""time""
""fullscreenenter"",""5"",""15316""
","""event"",""trial"",""time""
""fullscreenexit"",""10"",""26497""
","","images/earth.jpg","","","","","","","","","","","","","","fixation","","","","","",""
"d3-animate-choice","79","189421","0.0-61.0-0.6","332","641","9","Male","true","true","true","true","""event"",""trial"",""time""
""fullscreenenter"",""5"",""15316""
""fullscreenexit"",""10"",""26497""
","
","
","""event"",""trial"",""time""
""fullscreenenter"",""5"",""15316""
","""event"",""trial"",""time""
""fullscreenexit"",""10"",""26497""
","515","","49","","","3000","1","","","images/earth.jpg","images/tutrocket1","images/tutrocket2","null","images/tutrocket2","","1","practice","null","1","","",""
"d3-animate-choice","80","192108","0.0-61.0-1.6","332","641","9","Male","true","true","true","true","""event"",""trial"",""time""
""fullscreenenter"",""5"",""15316""
""fullscreenexit"",""10"",""26497""
","
","
","""event"",""trial"",""time""
""fullscreenenter"",""5"",""15316""
","""event"",""trial"",""time""
""fullscreenexit"",""10"",""26497""
","685.1000000238419","","49","","","3000","1","","","images/tutgreenplanet.jpg","images/tutalien2","images/tutalien1","images/tutrocket2","images/tutalien1","images/t.png","2","practice","false","1","rare","1","2022-02-04 22:17:02.848"
"two-step-fixation","81","193111","0.0-61.0-2.6","332","641","9","Male","true","true","true","true","""event"",""trial"",""time""
""fullscreenenter"",""5"",""15316""
""fullscreenexit"",""10"",""26497""
","
","
","""event"",""trial"",""time""
""fullscreenenter"",""5"",""15316""
","""event"",""trial"",""time""
""fullscreenexit"",""10"",""26497""
","","images/earth.jpg","","","","","","","","","","","","","","fixation","","","","","",""
"d3-animate-choice","82","195820","0.0-61.0-0.7","332","641","9","Male","true","true","true","true","""event"",""trial"",""time""
""fullscreenenter"",""5"",""15316""
""fullscreenexit"",""10"",""26497""
","
","
","""event"",""trial"",""time""
""fullscreenenter"",""5"",""15316""
","""event"",""trial"",""time""
""fullscreenexit"",""10"",""26497""
","707.3000000119209","","49","","","3000","1","","","images/earth.jpg","images/tutrocket1","images/tutrocket2","null","images/tutrocket2","","1","practice","null","1","","",""
"d3-animate-choice","83","197964","0.0-61.0-1.7","332","641","9","Male","true","true","true","true","""event"",""trial"",""time""
""fullscreenenter"",""5"",""15316""
""fullscreenexit"",""10"",""26497""
","
","
","""event"",""trial"",""time""
""fullscreenenter"",""5"",""15316""
","""event"",""trial"",""time""
""fullscreenexit"",""10"",""26497""
","141.5","","49","","","3000","1","","","images/tutgreenplanet.jpg","images/tutalien2","images/tutalien1","images/tutrocket2","images/tutalien1","images/nothing.png","2","practice","false","1","rare","0","2022-02-04 22:17:08.704"
"two-step-fixation","84","198967","0.0-61.0-2.7","332","641","9","Male","true","true","true","true","""event"",""trial"",""time""
""fullscreenenter"",""5"",""15316""
""fullscreenexit"",""10"",""26497""
","
","
","""event"",""trial"",""time""
""fullscreenenter"",""5"",""15316""
","""event"",""trial"",""time""
""fullscreenexit"",""10"",""26497""
","","images/earth.jpg","","","","","","","","","","","","","","fixation","","","","","",""
"d3-animate-choice","85","202972","0.0-61.0-0.8","332","641","9","Male","true","true","true","true","""event"",""trial"",""time""
""fullscreenenter"",""5"",""15316""
""fullscreenexit"",""10"",""26497""
","
","
","""event"",""trial"",""time""
""fullscreenenter"",""5"",""15316""
","""event"",""trial"",""time""
""fullscreenexit"",""10"",""26497""
","2290.800000011921","","49","","","3000","1","","","images/earth.jpg","images/tutrocket1","images/tutrocket2","null","images/tutrocket2","","1","practice","null","1","","",""
"d3-animate-choice","86","205821","0.0-61.0-1.8","332","641","9","Male","true","true","true","true","""event"",""trial"",""time""
""fullscreenenter"",""5"",""15316""
""fullscreenexit"",""10"",""26497""
","
","
","""event"",""trial"",""time""
""fullscreenenter"",""5"",""15316""
","""event"",""trial"",""time""
""fullscreenexit"",""10"",""26497""
","845.6000000238419","","49","","","3000","1","","","images/tutyellowplanet.jpg","images/tutalien4","images/tutalien3","images/tutrocket2","images/tutalien3","images/nothing.png","2","practice","true","1","common","0","2022-02-04 22:17:16.561"
"two-step-fixation","87","206824","0.0-61.0-2.8","332","641","9","Male","true","true","true","true","""event"",""trial"",""time""
""fullscreenenter"",""5"",""15316""
""fullscreenexit"",""10"",""26497""
","
","
","""event"",""trial"",""time""
""fullscreenenter"",""5"",""15316""
","""event"",""trial"",""time""
""fullscreenexit"",""10"",""26497""
","","images/earth.jpg","","","","","","","","","","","","","","fixation","","","","","",""
"d3-animate-choice","88","210827","0.0-61.0-0.9","332","641","9","Male","true","true","true","true","""event"",""trial"",""time""
""fullscreenenter"",""5"",""15316""
""fullscreenexit"",""10"",""26497""
","
","
","""event"",""trial"",""time""
""fullscreenenter"",""5"",""15316""
","""event"",""trial"",""time""
""fullscreenexit"",""10"",""26497""
","2833.399999976158","","49","","","3000","1","","","images/earth.jpg","images/tutrocket1","images/tutrocket2","null","images/tutrocket2","","1","practice","null","1","","",""
"d3-animate-choice","89","214542","0.0-61.0-1.9","332","641","9","Male","true","true","true","true","""event"",""trial"",""time""
""fullscreenenter"",""5"",""15316""
""fullscreenexit"",""10"",""26497""
","
","
","""event"",""trial"",""time""
""fullscreenenter"",""5"",""15316""
","""event"",""trial"",""time""
""fullscreenexit"",""10"",""26497""
","1710.800000011921","","49","","","3000","1","3654.399999976158","49","images/tutyellowplanet.jpg","images/tutalien4","images/tutalien3","images/tutrocket2","images/tutalien3","images/nothing.png","2","practice","true","1","common","0","2022-02-04 22:17:25.282"
"two-step-fixation","90","215551","0.0-61.0-2.9","332","641","9","Male","true","true","true","true","""event"",""trial"",""time""
""fullscreenenter"",""5"",""15316""
""fullscreenexit"",""10"",""26497""
","
","
","""event"",""trial"",""time""
""fullscreenenter"",""5"",""15316""
","""event"",""trial"",""time""
""fullscreenexit"",""10"",""26497""
","","images/earth.jpg","","","","","","","","","","","","","","fixation","","","","","",""
"d3-animate-choice","91","219117","0.0-61.0-0.10","332","641","9","Male","true","true","true","true","""event"",""trial"",""time""
""fullscreenenter"",""5"",""15316""
""fullscreenexit"",""10"",""26497""
","
","
","""event"",""trial"",""time""
""fullscreenenter"",""5"",""15316""
","""event"",""trial"",""time""
""fullscreenexit"",""10"",""26497""
","1562.800000011921","","49","","","3000","1","3531.099999964237","49","images/earth.jpg","images/tutrocket1","images/tutrocket2","null","images/tutrocket2","","1","practice","null","1","","",""
"d3-animate-choice","92","223120","0.0-61.0-1.10","332","641","9","Male","true","true","true","true","""event"",""trial"",""time""
""fullscreenenter"",""5"",""15316""
""fullscreenexit"",""10"",""26497""
","
","
","""event"",""trial"",""time""
""fullscreenenter"",""5"",""15316""
","""event"",""trial"",""time""
""fullscreenexit"",""10"",""26497""
","2117.5","","49","","","3000","1","","","images/tutyellowplanet.jpg","images/tutalien4","images/tutalien3","images/tutrocket2","images/tutalien3","images/nothing.png","2","practice","true","1","common","0","2022-02-04 22:17:33.860"
"two-step-fixation","93","224122","0.0-61.0-2.10","332","641","9","Male","true","true","true","true","""event"",""trial"",""time""
""fullscreenenter"",""5"",""15316""
""fullscreenexit"",""10"",""26497""
","
","
","""event"",""trial"",""time""
""fullscreenenter"",""5"",""15316""
","""event"",""trial"",""time""
""fullscreenexit"",""10"",""26497""
","","images/earth.jpg","","","","","","","","","","","","","","fixation","","","","","",""
"d3-animate-choice","94","226173","0.0-61.0-0.11","332","641","9","Male","true","true","true","true","""event"",""trial"",""time""
""fullscreenenter"",""5"",""15316""
""fullscreenexit"",""10"",""26497""
","
","
","""event"",""trial"",""time""
""fullscreenenter"",""5"",""15316""
","""event"",""trial"",""time""
""fullscreenexit"",""10"",""26497""
","48.299999952316284","","49","","","3000","1","","","images/earth.jpg","images/tutrocket1","images/tutrocket2","null","images/tutrocket2","","1","practice","null","1","","",""
"d3-animate-choice","95","228909","0.0-61.0-1.11","332","641","9","Male","true","true","true","true","""event"",""trial"",""time""
""fullscreenenter"",""5"",""15316""
""fullscreenexit"",""10"",""26497""
","
","
","""event"",""trial"",""time""
""fullscreenenter"",""5"",""15316""
","""event"",""trial"",""time""
""fullscreenexit"",""10"",""26497""
","733.8999999761581","","49","","","3000","1","","","images/tutyellowplanet.jpg","images/tutalien4","images/tutalien3","images/tutrocket2","images/tutalien3","images/nothing.png","2","practice","true","1","common","0","2022-02-04 22:17:39.649"
"two-step-fixation","96","229911","0.0-61.0-2.11","332","641","9","Male","true","true","true","true","""event"",""trial"",""time""
""fullscreenenter"",""5"",""15316""
""fullscreenexit"",""10"",""26497""
","
","
","""event"",""trial"",""time""
""fullscreenenter"",""5"",""15316""
","""event"",""trial"",""time""
""fullscreenexit"",""10"",""26497""
","","images/earth.jpg","","","","","","","","","","","","","","fixation","","","","","",""
"d3-animate-choice","97","233526","0.0-61.0-0.12","332","641","9","Male","true","true","true","true","""event"",""trial"",""time""
""fullscreenenter"",""5"",""15316""
""fullscreenexit"",""10"",""26497""
","
","
","""event"",""trial"",""time""
""fullscreenenter"",""5"",""15316""
","""event"",""trial"",""time""
""fullscreenexit"",""10"",""26497""
","1603.800000011921","","49","","","3000","1","","","images/earth.jpg","images/tutrocket1","images/tutrocket2","null","images/tutrocket2","","1","practice","null","1","","",""
"d3-animate-choice","98","235670","0.0-61.0-1.12","332","641","9","Male","true","true","true","true","""event"",""trial"",""time""
""fullscreenenter"",""5"",""15316""
""fullscreenexit"",""10"",""26497""
","
","
","""event"",""trial"",""time""
""fullscreenenter"",""5"",""15316""
","""event"",""trial"",""time""
""fullscreenexit"",""10"",""26497""
","138.60000002384186","","49","","","3000","1","","","images/tutgreenplanet.jpg","images/tutalien2","images/tutalien1","images/tutrocket2","images/tutalien1","images/t.png","2","practice","false","1","rare","1","2022-02-04 22:17:46.410"
"two-step-fixation","99","236672","0.0-61.0-2.12","332","641","9","Male","true","true","true","true","""event"",""trial"",""time""
""fullscreenenter"",""5"",""15316""
""fullscreenexit"",""10"",""26497""
","
","
","""event"",""trial"",""time""
""fullscreenenter"",""5"",""15316""
","""event"",""trial"",""time""
""fullscreenexit"",""10"",""26497""
","","images/earth.jpg","","","","","","","","","","","","","","fixation","","","","","",""
"d3-animate-choice","100","238821","0.0-61.0-0.13","332","641","9","Male","true","true","true","true","""event"",""trial"",""time""
""fullscreenenter"",""5"",""15316""
""fullscreenexit"",""10"",""26497""
","
","
","""event"",""trial"",""time""
""fullscreenenter"",""5"",""15316""
","""event"",""trial"",""time""
""fullscreenexit"",""10"",""26497""
","145.39999997615814","","49","","","3000","1","","","images/earth.jpg","images/tutrocket1","images/tutrocket2","null","images/tutrocket2","","1","practice","null","1","","",""
"d3-animate-choice","101","241477","0.0-61.0-1.13","332","641","9","Male","true","true","true","true","""event"",""trial"",""time""
""fullscreenenter"",""5"",""15316""
""fullscreenexit"",""10"",""26497""
","
","
","""event"",""trial"",""time""
""fullscreenenter"",""5"",""15316""
","""event"",""trial"",""time""
""fullscreenexit"",""10"",""26497""
","653.3999999761581","","49","","","3000","1","","","images/tutyellowplanet.jpg","images/tutalien4","images/tutalien3","images/tutrocket2","images/tutalien3","images/nothing.png","2","practice","true","1","common","0","2022-02-04 22:17:52.217"
"two-step-fixation","102","242480","0.0-61.0-2.13","332","641","9","Male","true","true","true","true","""event"",""trial"",""time""
""fullscreenenter"",""5"",""15316""
""fullscreenexit"",""10"",""26497""
","
","
","""event"",""trial"",""time""
""fullscreenenter"",""5"",""15316""
","""event"",""trial"",""time""
""fullscreenexit"",""10"",""26497""
","","images/earth.jpg","","","","","","","","","","","","","","fixation","","","","","",""
"d3-animate-choice","103","245933","0.0-61.0-0.14","332","641","9","Male","true","true","true","true","""event"",""trial"",""time""
""fullscreenenter"",""5"",""15316""
""fullscreenexit"",""10"",""26497""
","
","
","""event"",""trial"",""time""
""fullscreenenter"",""5"",""15316""
","""event"",""trial"",""time""
""fullscreenexit"",""10"",""26497""
","1450.0999999642372","","49","","","3000","1","","","images/earth.jpg","images/tutrocket1","images/tutrocket2","null","images/tutrocket2","","1","practice","null","1","","",""
"d3-animate-choice","104","248605","0.0-61.0-1.14","332","641","9","Male","true","true","true","true","""event"",""trial"",""time""
""fullscreenenter"",""5"",""15316""
""fullscreenexit"",""10"",""26497""
","
","
","""event"",""trial"",""time""
""fullscreenenter"",""5"",""15316""
","""event"",""trial"",""time""
""fullscreenexit"",""10"",""26497""
","668.8999999761581","","49","","","3000","1","","","images/tutyellowplanet.jpg","images/tutalien4","images/tutalien3","images/tutrocket2","images/tutalien3","images/t.png","2","practice","true","1","common","1","2022-02-04 22:17:59.345"
"two-step-fixation","105","249608","0.0-61.0-2.14","332","641","9","Male","true","true","true","true","""event"",""trial"",""time""
""fullscreenenter"",""5"",""15316""
""fullscreenexit"",""10"",""26497""
","
","
","""event"",""trial"",""time""
""fullscreenenter"",""5"",""15316""
","""event"",""trial"",""time""
""fullscreenexit"",""10"",""26497""
","","images/earth.jpg","","","","","","","","","","","","","","fixation","","","","","",""
"d3-animate-choice","106","253124","0.0-61.0-0.15","332","641","9","Male","true","true","true","true","""event"",""trial"",""time""
""fullscreenenter"",""5"",""15316""
""fullscreenexit"",""10"",""26497""
","
","
","""event"",""trial"",""time""
""fullscreenenter"",""5"",""15316""
","""event"",""trial"",""time""
""fullscreenexit"",""10"",""26497""
","1514.300000011921","","49","","","3000","1","3394","49","images/earth.jpg","images/tutrocket1","images/tutrocket2","null","images/tutrocket2","","1","practice","null","1","","",""
"d3-animate-choice","107","256965","0.0-61.0-1.15","332","641","9","Male","true","true","true","true","""event"",""trial"",""time""
""fullscreenenter"",""5"",""15316""
""fullscreenexit"",""10"",""26497""
","
","
","""event"",""trial"",""time""
""fullscreenenter"",""5"",""15316""
","""event"",""trial"",""time""
""fullscreenexit"",""10"",""26497""
","1837.8999999761581","","49","","","3000","1","3685.2999999523163","49","images/tutyellowplanet.jpg","images/tutalien4","images/tutalien3","images/tutrocket2","images/tutalien3","images/nothing.png","2","practice","true","1","common","0","2022-02-04 22:18:07.705"
"two-step-fixation","108","257968","0.0-61.0-2.15","332","641","9","Male","true","true","true","true","""event"",""trial"",""time""
""fullscreenenter"",""5"",""15316""
""fullscreenexit"",""10"",""26497""
","
","
","""event"",""trial"",""time""
""fullscreenenter"",""5"",""15316""
","""event"",""trial"",""time""
""fullscreenexit"",""10"",""26497""
","","images/earth.jpg","","","","","","","","","","","","","","fixation","","","","","",""
"d3-animate-choice","109","260972","0.0-61.0-0.16","332","641","9","Male","true","true","true","true","""event"",""trial"",""time""
""fullscreenenter"",""5"",""15316""
""fullscreenexit"",""10"",""26497""
","
","
","""event"",""trial"",""time""
""fullscreenenter"",""5"",""15316""
","""event"",""trial"",""time""
""fullscreenexit"",""10"",""26497""
","1002.0999999642372","","49","","","3000","1","","","images/earth.jpg","images/tutrocket1","images/tutrocket2","null","images/tutrocket2","","1","practice","null","1","","",""
"d3-animate-choice","110","263294","0.0-61.0-1.16","332","641","9","Male","true","true","true","true","""event"",""trial"",""time""
""fullscreenenter"",""5"",""15316""
""fullscreenexit"",""10"",""26497""
","
","
","""event"",""trial"",""time""
""fullscreenenter"",""5"",""15316""
","""event"",""trial"",""time""
""fullscreenexit"",""10"",""26497""
","317.7999999523163","","49","","","3000","1","2214","49","images/tutgreenplanet.jpg","images/tutalien2","images/tutalien1","images/tutrocket2","images/tutalien1","images/t.png","2","practice","false","1","rare","1","2022-02-04 22:18:14.034"
"two-step-fixation","111","264297","0.0-61.0-2.16","332","641","9","Male","true","true","true","true","""event"",""trial"",""time""
""fullscreenenter"",""5"",""15316""
""fullscreenexit"",""10"",""26497""
","
","
","""event"",""trial"",""time""
""fullscreenenter"",""5"",""15316""
","""event"",""trial"",""time""
""fullscreenexit"",""10"",""26497""
","","images/earth.jpg","","","","","","","","","","","","","","fixation","","","","","",""
"d3-animate-choice","112","266822","0.0-61.0-0.17","332","641","9","Male","true","true","true","true","""event"",""trial"",""time""
""fullscreenenter"",""5"",""15316""
""fullscreenexit"",""10"",""26497""
","
","
","""event"",""trial"",""time""
""fullscreenenter"",""5"",""15316""
","""event"",""trial"",""time""
""fullscreenexit"",""10"",""26497""
","519.8000000119209","","49","","","3000","1","","","images/earth.jpg","images/tutrocket1","images/tutrocket2","null","images/tutrocket2","","1","practice","null","1","","",""
"d3-animate-choice","113","269206","0.0-61.0-1.17","332","641","9","Male","true","true","true","true","""event"",""trial"",""time""
""fullscreenenter"",""5"",""15316""
""fullscreenexit"",""10"",""26497""
","
","
","""event"",""trial"",""time""
""fullscreenenter"",""5"",""15316""
","""event"",""trial"",""time""
""fullscreenexit"",""10"",""26497""
","379.4000000357628","","49","","","3000","1","","","images/tutyellowplanet.jpg","images/tutalien4","images/tutalien3","images/tutrocket2","images/tutalien3","images/t.png","2","practice","true","1","common","1","2022-02-04 22:18:19.946"
"two-step-fixation","114","270209","0.0-61.0-2.17","332","641","9","Male","true","true","true","true","""event"",""trial"",""time""
""fullscreenenter"",""5"",""15316""
""fullscreenexit"",""10"",""26497""
","
","
","""event"",""trial"",""time""
""fullscreenenter"",""5"",""15316""
","""event"",""trial"",""time""
""fullscreenexit"",""10"",""26497""
","","images/earth.jpg","","","","","","","","","","","","","","fixation","","","","","",""
"d3-animate-choice","115","273933","0.0-61.0-0.18","332","641","9","Male","true","true","true","true","""event"",""trial"",""time""
""fullscreenenter"",""5"",""15316""
""fullscreenexit"",""10"",""26497""
","
","
","""event"",""trial"",""time""
""fullscreenenter"",""5"",""15316""
","""event"",""trial"",""time""
""fullscreenexit"",""10"",""26497""
","1720.5999999642372","","49","","","3000","1","","","images/earth.jpg","images/tutrocket1","images/tutrocket2","null","images/tutrocket2","","1","practice","null","1","","",""
"d3-animate-choice","116","276957","0.0-61.0-1.18","332","641","9","Male","true","true","true","true","""event"",""trial"",""time""
""fullscreenenter"",""5"",""15316""
""fullscreenexit"",""10"",""26497""
","
","
","""event"",""trial"",""time""
""fullscreenenter"",""5"",""15316""
","""event"",""trial"",""time""
""fullscreenexit"",""10"",""26497""
","1021.8000000119209","","49","","","3000","1","","","images/tutgreenplanet.jpg","images/tutalien2","images/tutalien1","images/tutrocket2","images/tutalien1","images/t.png","2","practice","false","1","rare","1","2022-02-04 22:18:27.697"
"two-step-fixation","117","277959","0.0-61.0-2.18","332","641","9","Male","true","true","true","true","""event"",""trial"",""time""
""fullscreenenter"",""5"",""15316""
""fullscreenexit"",""10"",""26497""
","
","
","""event"",""trial"",""time""
""fullscreenenter"",""5"",""15316""
","""event"",""trial"",""time""
""fullscreenexit"",""10"",""26497""
","","images/earth.jpg","","","","","","","","","","","","","","fixation","","","","","",""
"d3-animate-choice","118","280589","0.0-61.0-0.19","332","641","9","Male","true","true","true","true","""event"",""trial"",""time""
""fullscreenenter"",""5"",""15316""
""fullscreenexit"",""10"",""26497""
","
","
","""event"",""trial"",""time""
""fullscreenenter"",""5"",""15316""
","""event"",""trial"",""time""
""fullscreenexit"",""10"",""26497""
","627.8000000119209","","49","","","3000","1","","","images/earth.jpg","images/tutrocket1","images/tutrocket2","null","images/tutrocket2","","1","practice","null","1","","",""
"d3-animate-choice","119","284593","0.0-61.0-1.19","332","641","9","Male","true","true","true","true","""event"",""trial"",""time""
""fullscreenenter"",""5"",""15316""
""fullscreenexit"",""10"",""26497""
","
","
","""event"",""trial"",""time""
""fullscreenenter"",""5"",""15316""
","""event"",""trial"",""time""
""fullscreenexit"",""10"",""26497""
","2036.699999988079","","49","","","3000","1","","","images/tutyellowplanet.jpg","images/tutalien4","images/tutalien3","images/tutrocket2","images/tutalien3","images/t.png","2","practice","true","1","common","1","2022-02-04 22:18:35.333"
"two-step-fixation","120","285595","0.0-61.0-2.19","332","641","9","Male","true","true","true","true","""event"",""trial"",""time""
""fullscreenenter"",""5"",""15316""
""fullscreenexit"",""10"",""26497""
","
","
","""event"",""trial"",""time""
""fullscreenenter"",""5"",""15316""
","""event"",""trial"",""time""
""fullscreenexit"",""10"",""26497""
","","images/earth.jpg","","","","","","","","","","","","","","fixation","","","","","",""
"d3-instructions","121","290996","0.0-62.0","332","641","9","Male","true","true","true","true","""event"",""trial"",""time""
""fullscreenenter"",""5"",""15316""
""fullscreenexit"",""10"",""26497""
","
","
","""event"",""trial"",""time""
""fullscreenenter"",""5"",""15316""
","""event"",""trial"",""time""
""fullscreenexit"",""10"",""26497""
","","","","","","","","","","","","","","","","","","","","","",""
"audio-keyboard-response","122","292780","0.0-63.0","332","641","9","Male","true","true","true","true","""event"",""trial"",""time""
""fullscreenenter"",""5"",""15316""
""fullscreenexit"",""10"",""26497""
","
","
","""event"",""trial"",""time""
""fullscreenenter"",""5"",""15316""
","""event"",""trial"",""time""
""fullscreenexit"",""10"",""26497""
","1792","audio/instructions/treasure_feedback.wav","49","","","","","","","","","","","","","","","","","","",""
"d3-instructions","123","294196","0.0-64.0","332","641","9","Male","true","true","true","true","""event"",""trial"",""time""
""fullscreenenter"",""5"",""15316""
""fullscreenexit"",""10"",""26497""
","
","
","""event"",""trial"",""time""
""fullscreenenter"",""5"",""15316""
","""event"",""trial"",""time""
""fullscreenexit"",""10"",""26497""
","","","","","","","","","","","","","","","","","","","","","",""
"d3-instructions","124","294924","0.0-65.0","332","641","9","Male","true","true","true","true","""event"",""trial"",""time""
""fullscreenenter"",""5"",""15316""
""fullscreenexit"",""10"",""26497""
","
","
","""event"",""trial"",""time""
""fullscreenenter"",""5"",""15316""
","""event"",""trial"",""time""
""fullscreenexit"",""10"",""26497""
","","","","","","","","","","","","","","","","","","","","","",""
"d3-instructions","125","295332","0.0-66.0","332","641","9","Male","true","true","true","true","""event"",""trial"",""time""
""fullscreenenter"",""5"",""15316""
""fullscreenexit"",""10"",""26497""
","
","
","""event"",""trial"",""time""
""fullscreenenter"",""5"",""15316""
","""event"",""trial"",""time""
""fullscreenexit"",""10"",""26497""
","","","","","","","","","","","","","","","","","","","","","",""
"d3-instructions","126","296404","0.0-67.0","332","641","9","Male","true","true","true","true","""event"",""trial"",""time""
""fullscreenenter"",""5"",""15316""
""fullscreenexit"",""10"",""26497""
","
","
","""event"",""trial"",""time""
""fullscreenenter"",""5"",""15316""
","""event"",""trial"",""time""
""fullscreenexit"",""10"",""26497""
","","","","","","","","","","","","","","","","","","","","","",""
"d3-instructions","127","297196","0.0-68.0","332","641","9","Male","true","true","true","true","""event"",""trial"",""time""
""fullscreenenter"",""5"",""15316""
""fullscreenexit"",""10"",""26497""
","
","
","""event"",""trial"",""time""
""fullscreenenter"",""5"",""15316""
","""event"",""trial"",""time""
""fullscreenexit"",""10"",""26497""
","","","","","","","","","","","","","","","","","","","","","",""
"instructions-quiz","128","299961","0.0-69.0","332","641","9","Male","true","true","true","true","""event"",""trial"",""time""
""fullscreenenter"",""5"",""15316""
""fullscreenexit"",""10"",""26497""
","
","
","""event"",""trial"",""time""
""fullscreenenter"",""5"",""15316""
","""event"",""trial"",""time""
""fullscreenexit"",""10"",""26497""
","2763.100000023842","audio/quiz/Q1_Prompt.wav","","1","","","","","","","","","","","","","","","","","",""
"audio-keyboard-response","129","300964","0.0-70.0","332","641","9","Male","true","true","true","true","""event"",""trial"",""time""
""fullscreenenter"",""5"",""15316""
""fullscreenexit"",""10"",""26497""
","
","
","""event"",""trial"",""time""
""fullscreenenter"",""5"",""15316""
","""event"",""trial"",""time""
""fullscreenexit"",""10"",""26497""
","1000","audio/quiz/Q1_Correct.wav","32","","","","","","","","","","","","","","","","","","",""
"instructions-quiz","130","304500","0.0-71.0","332","641","9","Male","true","true","true","true","""event"",""trial"",""time""
""fullscreenenter"",""5"",""15316""
""fullscreenexit"",""10"",""26497""
","
","
","""event"",""trial"",""time""
""fullscreenenter"",""5"",""15316""
","""event"",""trial"",""time""
""fullscreenexit"",""10"",""26497""
","3534.5","audio/quiz/Q2_Prompt.wav","","0","","","","","","","","","","","","","","","","","",""
"audio-keyboard-response","131","304796","0.0-72.0","332","641","9","Male","true","true","true","true","""event"",""trial"",""time""
""fullscreenenter"",""5"",""15316""
""fullscreenexit"",""10"",""26497""
","
","
","""event"",""trial"",""time""
""fullscreenenter"",""5"",""15316""
","""event"",""trial"",""time""
""fullscreenexit"",""10"",""26497""
","288","audio/quiz/Q2_Correct.wav","32","","","","","","","","","","","","","","","","","","",""
"instructions-quiz","132","306866","0.0-73.0","332","641","9","Male","true","true","true","true","""event"",""trial"",""time""
""fullscreenenter"",""5"",""15316""
""fullscreenexit"",""10"",""26497""
","
","
","""event"",""trial"",""time""
""fullscreenenter"",""5"",""15316""
","""event"",""trial"",""time""
""fullscreenexit"",""10"",""26497""
","2069","audio/quiz/Q3_Prompt.wav","","1","","","","","","","","","","","","","","","","","",""
"audio-keyboard-response","133","306956","0.0-74.0","332","641","9","Male","true","true","true","true","""event"",""trial"",""time""
""fullscreenenter"",""5"",""15316""
""fullscreenexit"",""10"",""26497""
","
","
","""event"",""trial"",""time""
""fullscreenenter"",""5"",""15316""
","""event"",""trial"",""time""
""fullscreenexit"",""10"",""26497""
","88","audio/quiz/Q3_Correct.wav","32","","","","","","","","","","","","","","","","","","",""
"d3-instructions","134","309236","0.0-75.0","332","641","9","Male","true","true","true","true","""event"",""trial"",""time""
""fullscreenenter"",""5"",""15316""
""fullscreenexit"",""10"",""26497""
","
","
","""event"",""trial"",""time""
""fullscreenenter"",""5"",""15316""
","""event"",""trial"",""time""
""fullscreenexit"",""10"",""26497""
","","","","","","","","","","","","","","","","","","","","","",""
"d3-animate-choice","135","311910","0.0-76.0-0.0","332","641","9","Male","true","true","true","true","""event"",""trial"",""time""
""fullscreenenter"",""5"",""15316""
""fullscreenexit"",""10"",""26497""
","
","
","""event"",""trial"",""time""
""fullscreenenter"",""5"",""15316""
","""event"",""trial"",""time""
""fullscreenexit"",""10"",""26497""
","662.3000000119209","","49","","","3000","1","2278.199999988079","49","images/earth.jpg","images/rocket2","images/rocket1","null","images/rocket1","","1","real","null","1","","",""
"d3-animate-choice","136","314452","0.0-76.0-1.0","332","641","9","Male","true","true","true","true","""event"",""trial"",""time""
""fullscreenenter"",""5"",""15316""
""fullscreenexit"",""10"",""26497""
","
","
","""event"",""trial"",""time""
""fullscreenenter"",""5"",""15316""
","""event"",""trial"",""time""
""fullscreenexit"",""10"",""26497""
","540.1999999880791","","49","","","3000","1","2468.199999988079","49","images/redplanet1.jpg","images/alien2","images/alien1","images/rocket1","images/alien1","images/nothing.png","2","real","true","1","common","0","2022-02-04 22:19:05.192"
"two-step-fixation","137","315454","0.0-76.0-2.0","332","641","9","Male","true","true","true","true","""event"",""trial"",""time""
""fullscreenenter"",""5"",""15316""
""fullscreenexit"",""10"",""26497""
","
","
","""event"",""trial"",""time""
""fullscreenenter"",""5"",""15316""
","""event"",""trial"",""time""
""fullscreenexit"",""10"",""26497""
","","images/earth.jpg","","","","","","","","","","","","","","fixation","","","","","",""
"d3-animate-choice","138","317973","0.0-76.0-0.1","332","641","9","Male","true","true","true","true","""event"",""trial"",""time""
""fullscreenenter"",""5"",""15316""
""fullscreenexit"",""10"",""26497""
","
","
","""event"",""trial"",""time""
""fullscreenenter"",""5"",""15316""
","""event"",""trial"",""time""
""fullscreenexit"",""10"",""26497""
","515.1999999880791","","49","","","3000","1","2307.400000035763","49","images/earth.jpg","images/rocket2","images/rocket1","null","images/rocket1","","1","real","null","1","","",""
"d3-animate-choice","139","321977","0.0-76.0-1.1","332","641","9","Male","true","true","true","true","""event"",""trial"",""time""
""fullscreenenter"",""5"",""15316""
""fullscreenexit"",""10"",""26497""
","
","
","""event"",""trial"",""time""
""fullscreenenter"",""5"",""15316""
","""event"",""trial"",""time""
""fullscreenexit"",""10"",""26497""
","2228.900000035763","","49","","","3000","1","3997.300000011921","49","images/purpleplanet.jpg","images/alien4","images/alien3","images/rocket1","images/alien3","images/t.png","2","real","false","1","rare","1","2022-02-04 22:19:12.717"
"two-step-fixation","140","322979","0.0-76.0-2.1","332","641","9","Male","true","true","true","true","""event"",""trial"",""time""
""fullscreenenter"",""5"",""15316""
""fullscreenexit"",""10"",""26497""
","
","
","""event"",""trial"",""time""
""fullscreenenter"",""5"",""15316""
","""event"",""trial"",""time""
""fullscreenexit"",""10"",""26497""
","","images/earth.jpg","","","","","","","","","","","","","","fixation","","","","","",""
"d3-animate-choice","141","325726","0.0-76.0-0.2","332","641","9","Male","true","true","true","true","""event"",""trial"",""time""
""fullscreenenter"",""5"",""15316""
""fullscreenexit"",""10"",""26497""
","
","
","""event"",""trial"",""time""
""fullscreenenter"",""5"",""15316""
","""event"",""trial"",""time""
""fullscreenexit"",""10"",""26497""
","743.9000000357628","","49","","","3000","1","2591.699999988079","49","images/earth.jpg","images/rocket2","images/rocket1","null","images/rocket1","","1","real","null","1","","",""
"d3-animate-choice","142","329729","0.0-76.0-1.2","332","641","9","Male","true","true","true","true","""event"",""trial"",""time""
""fullscreenenter"",""5"",""15316""
""fullscreenexit"",""10"",""26497""
","
","
","""event"",""trial"",""time""
""fullscreenenter"",""5"",""15316""
","""event"",""trial"",""time""
""fullscreenexit"",""10"",""26497""
","2220.199999988079","","49","","","3000","1","","","images/redplanet1.jpg","images/alien2","images/alien1","images/rocket1","images/alien1","images/t.png","2","real","true","1","common","1","2022-02-04 22:19:20.469"
"two-step-fixation","143","330733","0.0-76.0-2.2","332","641","9","Male","true","true","true","true","""event"",""trial"",""time""
""fullscreenenter"",""5"",""15316""
""fullscreenexit"",""10"",""26497""
","
","
","""event"",""trial"",""time""
""fullscreenenter"",""5"",""15316""
","""event"",""trial"",""time""
""fullscreenexit"",""10"",""26497""
","","images/earth.jpg","","","","","","","","","","","","","","fixation","","","","","",""
"d3-animate-choice","144","334738","0.0-76.0-0.3","332","641","9","Male","true","true","true","true","""event"",""trial"",""time""
""fullscreenenter"",""5"",""15316""
""fullscreenexit"",""10"",""26497""
","
","
","""event"",""trial"",""time""
""fullscreenenter"",""5"",""15316""
","""event"",""trial"",""time""
""fullscreenexit"",""10"",""26497""
","2565.800000011921","","49","","","3000","1","","","images/earth.jpg","images/rocket2","images/rocket1","null","images/rocket1","","1","real","null","1","","",""
"d3-animate-choice","145","337027","0.0-76.0-1.3","332","641","9","Male","true","true","true","true","""event"",""trial"",""time""
""fullscreenenter"",""5"",""15316""
""fullscreenexit"",""10"",""26497""
","
","
","""event"",""trial"",""time""
""fullscreenenter"",""5"",""15316""
","""event"",""trial"",""time""
""fullscreenexit"",""10"",""26497""
","282.5","","49","","","3000","1","","","images/redplanet1.jpg","images/alien2","images/alien1","images/rocket1","images/alien1","images/nothing.png","2","real","true","1","common","0","2022-02-04 22:19:27.767"
"two-step-fixation","146","338031","0.0-76.0-2.3","332","641","9","Male","true","true","true","true","""event"",""trial"",""time""
""fullscreenenter"",""5"",""15316""
""fullscreenexit"",""10"",""26497""
","
","
","""event"",""trial"",""time""
""fullscreenenter"",""5"",""15316""
","""event"",""trial"",""time""
""fullscreenexit"",""10"",""26497""
","","images/earth.jpg","","","","","","","","","","","","","","fixation","","","","","",""
"d3-animate-choice","147","341031","0.0-76.0-0.4","332","641","9","Male","true","true","true","true","""event"",""trial"",""time""
""fullscreenenter"",""5"",""15316""
""fullscreenexit"",""10"",""26497""
","
","
","""event"",""trial"",""time""
""fullscreenenter"",""5"",""15316""
","""event"",""trial"",""time""
""fullscreenexit"",""10"",""26497""
","996","","49","","","3000","1","","","images/earth.jpg","images/rocket2","images/rocket1","null","images/rocket1","","1","real","null","1","","",""
"d3-animate-choice","148","343581","0.0-76.0-1.4","332","641","9","Male","true","true","true","true","""event"",""trial"",""time""
""fullscreenenter"",""5"",""15316""
""fullscreenexit"",""10"",""26497""
","
","
","""event"",""trial"",""time""
""fullscreenenter"",""5"",""15316""
","""event"",""trial"",""time""
""fullscreenexit"",""10"",""26497""
","547","","49","","","3000","1","2203.2000000476837","49","images/purpleplanet.jpg","images/alien4","images/alien3","images/rocket1","images/alien3","images/t.png","2","real","false","1","rare","1","2022-02-04 22:19:34.321"
"two-step-fixation","149","344584","0.0-76.0-2.4","332","641","9","Male","true","true","true","true","""event"",""trial"",""time""
""fullscreenenter"",""5"",""15316""
""fullscreenexit"",""10"",""26497""
","
","
","""event"",""trial"",""time""
""fullscreenenter"",""5"",""15316""
","""event"",""trial"",""time""
""fullscreenexit"",""10"",""26497""
","","images/earth.jpg","","","","","","","","","","","","","","fixation","","","","","",""
"d3-animate-choice","150","347038","0.0-76.0-0.5","332","641","9","Male","true","true","true","true","""event"",""trial"",""time""
""fullscreenenter"",""5"",""15316""
""fullscreenexit"",""10"",""26497""
","
","
","""event"",""trial"",""time""
""fullscreenenter"",""5"",""15316""
","""event"",""trial"",""time""
""fullscreenexit"",""10"",""26497""
","452","","49","","","3000","1","2243.899999976158","49","images/earth.jpg","images/rocket2","images/rocket1","null","images/rocket1","","1","real","null","1","","",""
"d3-animate-choice","151","350814","0.0-76.0-1.5","332","641","9","Male","true","true","true","true","""event"",""trial"",""time""
""fullscreenenter"",""5"",""15316""
""fullscreenexit"",""10"",""26497""
","
","
","""event"",""trial"",""time""
""fullscreenenter"",""5"",""15316""
","""event"",""trial"",""time""
""fullscreenexit"",""10"",""26497""
","1773.0999999642372","","49","","","3000","1","","","images/redplanet1.jpg","images/alien2","images/alien1","images/rocket1","images/alien1","images/nothing.png","2","real","true","1","common","0","2022-02-04 22:19:41.554"
"two-step-fixation","152","351816","0.0-76.0-2.5","332","641","9","Male","true","true","true","true","""event"",""trial"",""time""
""fullscreenenter"",""5"",""15316""
""fullscreenexit"",""10"",""26497""
","
","
","""event"",""trial"",""time""
""fullscreenenter"",""5"",""15316""
","""event"",""trial"",""time""
""fullscreenexit"",""10"",""26497""
","","images/earth.jpg","","","","","","","","","","","","","","fixation","","","","","",""
"d3-animate-choice","153","354445","0.0-76.0-0.6","332","641","9","Male","true","true","true","true","""event"",""trial"",""time""
""fullscreenenter"",""5"",""15316""
""fullscreenexit"",""10"",""26497""
","
","
","""event"",""trial"",""time""
""fullscreenenter"",""5"",""15316""
","""event"",""trial"",""time""
""fullscreenexit"",""10"",""26497""
","627.8000000119209","","49","","","3000","1","2363.7000000476837","49","images/earth.jpg","images/rocket2","images/rocket1","null","images/rocket1","","1","real","null","1","","",""
"d3-animate-choice","154","358450","0.0-76.0-1.6","332","641","9","Male","true","true","true","true","""event"",""trial"",""time""
""fullscreenenter"",""5"",""15316""
""fullscreenexit"",""10"",""26497""
","
","
","""event"",""trial"",""time""
""fullscreenenter"",""5"",""15316""
","""event"",""trial"",""time""
""fullscreenexit"",""10"",""26497""
","2293.900000035763","","49","","","3000","1","","","images/purpleplanet.jpg","images/alien4","images/alien3","images/rocket1","images/alien3","images/t.png","2","real","false","1","rare","1","2022-02-04 22:19:49.190"
"two-step-fixation","155","359454","0.0-76.0-2.6","332","641","9","Male","true","true","true","true","""event"",""trial"",""time""
""fullscreenenter"",""5"",""15316""
""fullscreenexit"",""10"",""26497""
","
","
","""event"",""trial"",""time""
""fullscreenenter"",""5"",""15316""
","""event"",""trial"",""time""
""fullscreenexit"",""10"",""26497""
","","images/earth.jpg","","","","","","","","","","","","","","fixation","","","","","",""
"d3-animate-choice","156","363382","0.0-76.0-0.7","332","641","9","Male","true","true","true","true","""event"",""trial"",""time""
""fullscreenenter"",""5"",""15316""
""fullscreenexit"",""10"",""26497""
","
","
","""event"",""trial"",""time""
""fullscreenenter"",""5"",""15316""
","""event"",""trial"",""time""
""fullscreenexit"",""10"",""26497""
","1925.7000000476837","","49","","","3000","1","3413.5","49","images/earth.jpg","images/rocket2","images/rocket1","null","images/rocket1","","1","real","null","1","","",""
"d3-animate-choice","157","367386","0.0-76.0-1.7","332","641","9","Male","true","true","true","true","""event"",""trial"",""time""
""fullscreenenter"",""5"",""15316""
""fullscreenexit"",""10"",""26497""
","
","
","""event"",""trial"",""time""
""fullscreenenter"",""5"",""15316""
","""event"",""trial"",""time""
""fullscreenexit"",""10"",""26497""
","2404.7999999523163","","49","","","3000","1","","","images/redplanet1.jpg","images/alien2","images/alien1","images/rocket1","images/alien1","images/nothing.png","2","real","true","1","common","0","2022-02-04 22:19:58.126"
"two-step-fixation","158","368389","0.0-76.0-2.7","332","641","9","Male","true","true","true","true","""event"",""trial"",""time""
""fullscreenenter"",""5"",""15316""
""fullscreenexit"",""10"",""26497""
","
","
","""event"",""trial"",""time""
""fullscreenenter"",""5"",""15316""
","""event"",""trial"",""time""
""fullscreenexit"",""10"",""26497""
","","images/earth.jpg","","","","","","","","","","","","","","fixation","","","","","",""
"d3-animate-choice","159","370926","0.0-76.0-0.8","332","641","9","Male","true","true","true","true","""event"",""trial"",""time""
""fullscreenenter"",""5"",""15316""
""fullscreenexit"",""10"",""26497""
","
","
","""event"",""trial"",""time""
""fullscreenenter"",""5"",""15316""
","""event"",""trial"",""time""
""fullscreenexit"",""10"",""26497""
","534","","49","","","3000","1","","","images/earth.jpg","images/rocket2","images/rocket1","null","images/rocket1","","1","real","null","1","","",""
"d3-animate-choice","160","373950","0.0-76.0-1.8","332","641","9","Male","true","true","true","true","""event"",""trial"",""time""
""fullscreenenter"",""5"",""15316""
""fullscreenexit"",""10"",""26497""
","
","
","""event"",""trial"",""time""
""fullscreenenter"",""5"",""15316""
","""event"",""trial"",""time""
""fullscreenexit"",""10"",""26497""
","1021.6999999880791","","49","","","3000","1","","","images/redplanet1.jpg","images/alien2","images/alien1","images/rocket1","images/alien1","images/t.png","2","real","true","1","common","1","2022-02-04 22:20:04.690"
"two-step-fixation","161","374951","0.0-76.0-2.8","332","641","9","Male","true","true","true","true","""event"",""trial"",""time""
""fullscreenenter"",""5"",""15316""
""fullscreenexit"",""10"",""26497""
","
","
","""event"",""trial"",""time""
""fullscreenenter"",""5"",""15316""
","""event"",""trial"",""time""
""fullscreenexit"",""10"",""26497""
","","images/earth.jpg","","","","","","","","","","","","","","fixation","","","","","",""
"d3-animate-choice","162","377278","0.0-76.0-0.9","332","641","9","Male","true","true","true","true","""event"",""trial"",""time""
""fullscreenenter"",""5"",""15316""
""fullscreenexit"",""10"",""26497""
","
","
","""event"",""trial"",""time""
""fullscreenenter"",""5"",""15316""
","""event"",""trial"",""time""
""fullscreenexit"",""10"",""26497""
","324.5","","49","","","3000","1","","","images/earth.jpg","images/rocket2","images/rocket1","null","images/rocket1","","1","real","null","1","","",""
"d3-animate-choice","163","379982","0.0-76.0-1.9","332","641","9","Male","true","true","true","true","""event"",""trial"",""time""
""fullscreenenter"",""5"",""15316""
""fullscreenexit"",""10"",""26497""
","
","
","""event"",""trial"",""time""
""fullscreenenter"",""5"",""15316""
","""event"",""trial"",""time""
""fullscreenexit"",""10"",""26497""
","700.6999999880791","","49","","","3000","1","","","images/redplanet1.jpg","images/alien2","images/alien1","images/rocket1","images/alien1","images/t.png","2","real","true","1","common","1","2022-02-04 22:20:10.722"
"two-step-fixation","164","380984","0.0-76.0-2.9","332","641","9","Male","true","true","true","true","""event"",""trial"",""time""
""fullscreenenter"",""5"",""15316""
""fullscreenexit"",""10"",""26497""
","
","
","""event"",""trial"",""time""
""fullscreenenter"",""5"",""15316""
","""event"",""trial"",""time""
""fullscreenexit"",""10"",""26497""
","","images/earth.jpg","","","","","","","","","","","","","","fixation","","","","","",""
"d3-animate-choice","165","384987","0.0-76.0-0.10","332","641","9","Male","true","true","true","true","""event"",""trial"",""time""
""fullscreenenter"",""5"",""15316""
""fullscreenexit"",""10"",""26497""
","
","
","""event"",""trial"",""time""
""fullscreenenter"",""5"",""15316""
","""event"",""trial"",""time""
""fullscreenexit"",""10"",""26497""
","2371.100000023842","","49","","","3000","1","2842.900000035763","49","images/earth.jpg","images/rocket2","images/rocket1","null","images/rocket1","","1","real","null","1","","",""
"d3-animate-choice","166","387743","0.0-76.0-1.10","332","641","9","Male","true","true","true","true","""event"",""trial"",""time""
""fullscreenenter"",""5"",""15316""
""fullscreenexit"",""10"",""26497""
","
","
","""event"",""trial"",""time""
""fullscreenenter"",""5"",""15316""
","""event"",""trial"",""time""
""fullscreenexit"",""10"",""26497""
","752.8000000119209","","49","","","3000","1","","","images/purpleplanet.jpg","images/alien4","images/alien3","images/rocket1","images/alien3","images/t.png","2","real","false","1","rare","1","2022-02-04 22:20:18.483"
"two-step-fixation","167","388745","0.0-76.0-2.10","332","641","9","Male","true","true","true","true","""event"",""trial"",""time""
""fullscreenenter"",""5"",""15316""
""fullscreenexit"",""10"",""26497""
","
","
","""event"",""trial"",""time""
""fullscreenenter"",""5"",""15316""
","""event"",""trial"",""time""
""fullscreenexit"",""10"",""26497""
","","images/earth.jpg","","","","","","","","","","","","","","fixation","","","","","",""
"d3-animate-choice","168","391813","0.0-76.0-0.11","332","641","9","Male","true","true","true","true","""event"",""trial"",""time""
""fullscreenenter"",""5"",""15316""
""fullscreenexit"",""10"",""26497""
","
","
","""event"",""trial"",""time""
""fullscreenenter"",""5"",""15316""
","""event"",""trial"",""time""
""fullscreenexit"",""10"",""26497""
","1066.699999988079","","49","","","3000","1","","","images/earth.jpg","images/rocket2","images/rocket1","null","images/rocket1","","1","real","null","1","","",""
"d3-animate-choice","169","394910","0.0-76.0-1.11","332","641","9","Male","true","true","true","true","""event"",""trial"",""time""
""fullscreenenter"",""5"",""15316""
""fullscreenexit"",""10"",""26497""
","
","
","""event"",""trial"",""time""
""fullscreenenter"",""5"",""15316""
","""event"",""trial"",""time""
""fullscreenexit"",""10"",""26497""
","1094.1000000238419","","49","","","3000","1","","","images/redplanet1.jpg","images/alien2","images/alien1","images/rocket1","images/alien1","images/nothing.png","2","real","true","1","common","0","2022-02-04 22:20:25.650"
"two-step-fixation","170","395918","0.0-76.0-2.11","332","641","9","Male","true","true","true","true","""event"",""trial"",""time""
""fullscreenenter"",""5"",""15316""
""fullscreenexit"",""10"",""26497""
","
","
","""event"",""trial"",""time""
""fullscreenenter"",""5"",""15316""
","""event"",""trial"",""time""
""fullscreenexit"",""10"",""26497""
","","images/earth.jpg","","","","","","","","","","","","","","fixation","","","","","",""
"d3-animate-choice","171","399742","0.0-76.0-0.12","332","641","9","Male","true","true","true","true","""event"",""trial"",""time""
""fullscreenenter"",""5"",""15316""
""fullscreenexit"",""10"",""26497""
","
","
","""event"",""trial"",""time""
""fullscreenenter"",""5"",""15316""
","""event"",""trial"",""time""
""fullscreenexit"",""10"",""26497""
","1821.0999999642372","","49","","","3000","1","","","images/earth.jpg","images/rocket2","images/rocket1","null","images/rocket1","","1","real","null","1","","",""
"d3-animate-choice","172","401870","0.0-76.0-1.12","332","641","9","Male","true","true","true","true","""event"",""trial"",""time""
""fullscreenenter"",""5"",""15316""
""fullscreenexit"",""10"",""26497""
","
","
","""event"",""trial"",""time""
""fullscreenenter"",""5"",""15316""
","""event"",""trial"",""time""
""fullscreenexit"",""10"",""26497""
","125.40000003576279","","49","","","3000","1","","","images/redplanet1.jpg","images/alien2","images/alien1","images/rocket1","images/alien1","images/t.png","2","real","true","1","common","1","2022-02-04 22:20:32.610"
"two-step-fixation","173","402873","0.0-76.0-2.12","332","641","9","Male","true","true","true","true","""event"",""trial"",""time""
""fullscreenenter"",""5"",""15316""
""fullscreenexit"",""10"",""26497""
","
","
","""event"",""trial"",""time""
""fullscreenenter"",""5"",""15316""
","""event"",""trial"",""time""
""fullscreenexit"",""10"",""26497""
","","images/earth.jpg","","","","","","","","","","","","","","fixation","","","","","",""
"d3-animate-choice","174","406198","0.0-76.0-0.13","332","641","9","Male","true","true","true","true","""event"",""trial"",""time""
""fullscreenenter"",""5"",""15316""
""fullscreenexit"",""10"",""26497""
","
","
","""event"",""trial"",""time""
""fullscreenenter"",""5"",""15316""
","""event"",""trial"",""time""
""fullscreenexit"",""10"",""26497""
","1322.800000011921","","49","","","3000","1","","","images/earth.jpg","images/rocket2","images/rocket1","null","images/rocket1","","1","real","null","1","","",""
"d3-animate-choice","175","408494","0.0-76.0-1.13","332","641","9","Male","true","true","true","true","""event"",""trial"",""time""
""fullscreenenter"",""5"",""15316""
""fullscreenexit"",""10"",""26497""
","
","
","""event"",""trial"",""time""
""fullscreenenter"",""5"",""15316""
","""event"",""trial"",""time""
""fullscreenexit"",""10"",""26497""
","293.10000002384186","","49","","","3000","1","","","images/redplanet1.jpg","images/alien2","images/alien1","images/rocket1","images/alien1","images/t.png","2","real","true","1","common","1","2022-02-04 22:20:39.234"
"two-step-fixation","176","409497","0.0-76.0-2.13","332","641","9","Male","true","true","true","true","""event"",""trial"",""time""
""fullscreenenter"",""5"",""15316""
""fullscreenexit"",""10"",""26497""
","
","
","""event"",""trial"",""time""
""fullscreenenter"",""5"",""15316""
","""event"",""trial"",""time""
""fullscreenexit"",""10"",""26497""
","","images/earth.jpg","","","","","","","","","","","","","","fixation","","","","","",""
"d3-animate-choice","177","411833","0.0-76.0-0.14","332","641","9","Male","true","true","true","true","""event"",""trial"",""time""
""fullscreenenter"",""5"",""15316""
""fullscreenexit"",""10"",""26497""
","
","
","""event"",""trial"",""time""
""fullscreenenter"",""5"",""15316""
","""event"",""trial"",""time""
""fullscreenexit"",""10"",""26497""
","331.39999997615814","","49","","","3000","1","","","images/earth.jpg","images/rocket2","images/rocket1","null","images/rocket1","","1","real","null","1","","",""
"d3-animate-choice","178","413878","0.0-76.0-1.14","332","641","9","Male","true","true","true","true","""event"",""trial"",""time""
""fullscreenenter"",""5"",""15316""
""fullscreenexit"",""10"",""26497""
","
","
","""event"",""trial"",""time""
""fullscreenenter"",""5"",""15316""
","""event"",""trial"",""time""
""fullscreenexit"",""10"",""26497""
","41.19999998807907","","49","","","3000","1","697.1000000238419","49","images/redplanet1.jpg","images/alien2","images/alien1","images/rocket1","images/alien1","images/t.png","2","real","true","1","common","1","2022-02-04 22:20:44.618"
"two-step-fixation","179","414881","0.0-76.0-2.14","332","641","9","Male","true","true","true","true","""event"",""trial"",""time""
""fullscreenenter"",""5"",""15316""
""fullscreenexit"",""10"",""26497""
","
","
","""event"",""trial"",""time""
""fullscreenenter"",""5"",""15316""
","""event"",""trial"",""time""
""fullscreenexit"",""10"",""26497""
","","images/earth.jpg","","","","","","","","","","","","","","fixation","","","","","",""
"d3-animate-choice","180","417415","0.0-76.0-0.15","332","641","9","Male","true","true","true","true","""event"",""trial"",""time""
""fullscreenenter"",""5"",""15316""
""fullscreenexit"",""10"",""26497""
","
","
","""event"",""trial"",""time""
""fullscreenenter"",""5"",""15316""
","""event"",""trial"",""time""
""fullscreenexit"",""10"",""26497""
","529.8000000119209","","49","","","3000","1","","","images/earth.jpg","images/rocket2","images/rocket1","null","images/rocket1","","1","real","null","1","","",""
"d3-animate-choice","181","420317","0.0-76.0-1.15","332","641","9","Male","true","true","true","true","""event"",""trial"",""time""
""fullscreenenter"",""5"",""15316""
""fullscreenexit"",""10"",""26497""
","
","
","""event"",""trial"",""time""
""fullscreenenter"",""5"",""15316""
","""event"",""trial"",""time""
""fullscreenexit"",""10"",""26497""
","900.6999999880791","","49","","","3000","1","","","images/purpleplanet.jpg","images/alien4","images/alien3","images/rocket1","images/alien3","images/nothing.png","2","real","false","1","rare","0","2022-02-04 22:20:51.057"
"two-step-fixation","182","421319","0.0-76.0-2.15","332","641","9","Male","true","true","true","true","""event"",""trial"",""time""
""fullscreenenter"",""5"",""15316""
""fullscreenexit"",""10"",""26497""
","
","
","""event"",""trial"",""time""
""fullscreenenter"",""5"",""15316""
","""event"",""trial"",""time""
""fullscreenexit"",""10"",""26497""
","","images/earth.jpg","","","","","","","","","","","","","","fixation","","","","","",""
"d3-animate-choice","183","423686","0.0-76.0-0.16","332","641","9","Male","true","true","true","true","""event"",""trial"",""time""
""fullscreenenter"",""5"",""15316""
""fullscreenexit"",""10"",""26497""
","
","
","""event"",""trial"",""time""
""fullscreenenter"",""5"",""15316""
","""event"",""trial"",""time""
""fullscreenexit"",""10"",""26497""
","363.30000001192093","","49","","","3000","1","","","images/earth.jpg","images/rocket2","images/rocket1","null","images/rocket1","","1","real","null","1","","",""
"d3-animate-choice","184","427455","0.0-76.0-1.16","332","641","9","Male","true","true","true","true","""event"",""trial"",""time""
""fullscreenenter"",""5"",""15316""
""fullscreenexit"",""10"",""26497""
","
","
","""event"",""trial"",""time""
""fullscreenenter"",""5"",""15316""
","""event"",""trial"",""time""
""fullscreenexit"",""10"",""26497""
","1766.199999988079","","49","","","3000","1","","","images/purpleplanet.jpg","images/alien4","images/alien3","images/rocket1","images/alien3","images/t.png","2","real","false","1","rare","1","2022-02-04 22:20:58.196"
"two-step-fixation","185","428459","0.0-76.0-2.16","332","641","9","Male","true","true","true","true","""event"",""trial"",""time""
""fullscreenenter"",""5"",""15316""
""fullscreenexit"",""10"",""26497""
","
","
","""event"",""trial"",""time""
""fullscreenenter"",""5"",""15316""
","""event"",""trial"",""time""
""fullscreenexit"",""10"",""26497""
","","images/earth.jpg","","","","","","","","","","","","","","fixation","","","","","",""
"d3-animate-choice","186","430838","0.0-76.0-0.17","332","641","9","Male","true","true","true","true","""event"",""trial"",""time""
""fullscreenenter"",""5"",""15316""
""fullscreenexit"",""10"",""26497""
","
","
","""event"",""trial"",""time""
""fullscreenenter"",""5"",""15316""
","""event"",""trial"",""time""
""fullscreenexit"",""10"",""26497""
","375.30000001192093","","48","","","3000","1","","","images/earth.jpg","images/rocket2","images/rocket1","null","images/rocket2","","1","real","null","2","","",""
"d3-animate-choice","187","433678","0.0-76.0-1.17","332","641","9","Male","true","true","true","true","""event"",""trial"",""time""
""fullscreenenter"",""5"",""15316""
""fullscreenexit"",""10"",""26497""
","
","
","""event"",""trial"",""time""
""fullscreenenter"",""5"",""15316""
","""event"",""trial"",""time""
""fullscreenexit"",""10"",""26497""
","836.8000000119209","","48","","","3000","1","","","images/purpleplanet.jpg","images/alien4","images/alien3","images/rocket2","images/alien4","images/t.png","2","real","true","2","common","1","2022-02-04 22:21:04.418"
"two-step-fixation","188","434681","0.0-76.0-2.17","332","641","9","Male","true","true","true","true","""event"",""trial"",""time""
""fullscreenenter"",""5"",""15316""
""fullscreenexit"",""10"",""26497""
","
","
","""event"",""trial"",""time""
""fullscreenenter"",""5"",""15316""
","""event"",""trial"",""time""
""fullscreenexit"",""10"",""26497""
","","images/earth.jpg","","","","","","","","","","","","","","fixation","","","","","",""
"d3-animate-choice","189","437758","0.0-76.0-0.18","332","641","9","Male","true","true","true","true","""event"",""trial"",""time""
""fullscreenenter"",""5"",""15316""
""fullscreenexit"",""10"",""26497""
","
","
","""event"",""trial"",""time""
""fullscreenenter"",""5"",""15316""
","""event"",""trial"",""time""
""fullscreenexit"",""10"",""26497""
","1073.199999988079","","48","","","3000","1","3074","48","images/earth.jpg","images/rocket2","images/rocket1","null","images/rocket2","","1","real","null","2","","",""
"d3-animate-choice","190","440286","0.0-76.0-1.18","332","641","9","Male","true","true","true","true","""event"",""trial"",""time""
""fullscreenenter"",""5"",""15316""
""fullscreenexit"",""10"",""26497""
","
","
","""event"",""trial"",""time""
""fullscreenenter"",""5"",""15316""
","""event"",""trial"",""time""
""fullscreenexit"",""10"",""26497""
","526.1000000238419","","48","","","3000","1","","","images/redplanet1.jpg","images/alien2","images/alien1","images/rocket2","images/alien2","images/t.png","2","real","false","2","rare","1","2022-02-04 22:21:11.026"
"two-step-fixation","191","441288","0.0-76.0-2.18","332","641","9","Male","true","true","true","true","""event"",""trial"",""time""
""fullscreenenter"",""5"",""15316""
""fullscreenexit"",""10"",""26497""
","
","
","""event"",""trial"",""time""
""fullscreenenter"",""5"",""15316""
","""event"",""trial"",""time""
""fullscreenexit"",""10"",""26497""
","","images/earth.jpg","","","","","","","","","","","","","","fixation","","","","","",""
"d3-animate-choice","192","443566","0.0-76.0-0.19","332","641","9","Male","true","true","true","true","""event"",""trial"",""time""
""fullscreenenter"",""5"",""15316""
""fullscreenexit"",""10"",""26497""
","
","
","""event"",""trial"",""time""
""fullscreenenter"",""5"",""15316""
","""event"",""trial"",""time""
""fullscreenexit"",""10"",""26497""
","275.39999997615814","","48","","","3000","1","1019.2999999523163","48","images/earth.jpg","images/rocket2","images/rocket1","null","images/rocket2","","1","real","null","2","","",""
"d3-animate-choice","193","447094","0.0-76.0-1.19","332","641","9","Male","true","true","true","true","""event"",""trial"",""time""
""fullscreenenter"",""5"",""15316""
""fullscreenexit"",""10"",""26497""
","
","
","""event"",""trial"",""time""
""fullscreenenter"",""5"",""15316""
","""event"",""trial"",""time""
""fullscreenexit"",""10"",""26497""
","1525.7000000476837","","48","","","3000","1","","","images/purpleplanet.jpg","images/alien4","images/alien3","images/rocket2","images/alien4","images/t.png","2","real","true","2","common","1","2022-02-04 22:21:17.834"
"two-step-fixation","194","448097","0.0-76.0-2.19","332","641","9","Male","true","true","true","true","""event"",""trial"",""time""
""fullscreenenter"",""5"",""15316""
""fullscreenexit"",""10"",""26497""
","
","
","""event"",""trial"",""time""
""fullscreenenter"",""5"",""15316""
","""event"",""trial"",""time""
""fullscreenexit"",""10"",""26497""
","","images/earth.jpg","","","","","","","","","","","","","","fixation","","","","","",""
"d3-animate-choice","195","451806","0.0-76.0-0.20","332","641","9","Male","true","true","true","true","""event"",""trial"",""time""
""fullscreenenter"",""5"",""15316""
""fullscreenexit"",""10"",""26497""
","
","
","""event"",""trial"",""time""
""fullscreenenter"",""5"",""15316""
","""event"",""trial"",""time""
""fullscreenexit"",""10"",""26497""
","1706.5","","48","","","3000","1","","","images/earth.jpg","images/rocket2","images/rocket1","null","images/rocket2","","1","real","null","2","","",""
"d3-animate-choice","196","454383","0.0-76.0-1.20","332","641","9","Male","true","true","true","true","""event"",""trial"",""time""
""fullscreenenter"",""5"",""15316""
""fullscreenexit"",""10"",""26497""
","
","
","""event"",""trial"",""time""
""fullscreenenter"",""5"",""15316""
","""event"",""trial"",""time""
""fullscreenexit"",""10"",""26497""
","573.3000000119209","","48","","","3000","1","","","images/purpleplanet.jpg","images/alien4","images/alien3","images/rocket2","images/alien4","images/t.png","2","real","true","2","common","1","2022-02-04 22:21:25.123"
"two-step-fixation","197","455386","0.0-76.0-2.20","332","641","9","Male","true","true","true","true","""event"",""trial"",""time""
""fullscreenenter"",""5"",""15316""
""fullscreenexit"",""10"",""26497""
","
","
","""event"",""trial"",""time""
""fullscreenenter"",""5"",""15316""
","""event"",""trial"",""time""
""fullscreenexit"",""10"",""26497""
","","images/earth.jpg","","","","","","","","","","","","","","fixation","","","","","",""
"d3-animate-choice","198","459390","0.0-76.0-0.21","332","641","9","Male","true","true","true","true","""event"",""trial"",""time""
""fullscreenenter"",""5"",""15316""
""fullscreenexit"",""10"",""26497""
","
","
","""event"",""trial"",""time""
""fullscreenenter"",""5"",""15316""
","""event"",""trial"",""time""
""fullscreenexit"",""10"",""26497""
","2201.300000011921","","48","","","3000","1","","","images/earth.jpg","images/rocket2","images/rocket1","null","images/rocket2","","1","real","null","2","","",""
"d3-animate-choice","199","462838","0.0-76.0-1.21","332","641","9","Male","true","true","true","true","""event"",""trial"",""time""
""fullscreenenter"",""5"",""15316""
""fullscreenexit"",""10"",""26497""
","
","
","""event"",""trial"",""time""
""fullscreenenter"",""5"",""15316""
","""event"",""trial"",""time""
""fullscreenexit"",""10"",""26497""
","1445.199999988079","","48","","","3000","1","","","images/redplanet1.jpg","images/alien2","images/alien1","images/rocket2","images/alien2","images/nothing.png","2","real","false","2","rare","0","2022-02-04 22:21:33.578"
"two-step-fixation","200","463843","0.0-76.0-2.21","332","641","9","Male","true","true","true","true","""event"",""trial"",""time""
""fullscreenenter"",""5"",""15316""
""fullscreenexit"",""10"",""26497""
","
","
","""event"",""trial"",""time""
""fullscreenenter"",""5"",""15316""
","""event"",""trial"",""time""
""fullscreenexit"",""10"",""26497""
","","images/earth.jpg","","","","","","","","","","","","","","fixation","","","","","",""
"d3-animate-choice","201","466278","0.0-76.0-0.22","332","641","9","Male","true","true","true","true","""event"",""trial"",""time""