"trial_type","trial_index","time_elapsed","internal_node_id","participant_id","subject_id","age","gender","rocket_sides","red_planet_first_rocket","red_display_order","purple_display_order","interactions","blur_events","focus_events","fullscreenenter_events","fullscreenexit_events","rt","stimulus","key_press","button_pressed","success","duration","valid_pressed","rts","keys","planet_text","right_text","left_text","center_text","chosen_text","reward_text","trial_stage","practice_trial","transition_type","choice","transition","reward","timestamp"
"pavlovia","0","19","0.0-0.0","2607","5039","9","Female","false","false","true","false","
","
","
","
","
","","","","","","","","","","","","","","","","","","","","","",""
"html-keyboard-response","1","8985","0.0-1.0","2607","5039","9","Female","false","false","true","false","
","
","
","
","
","8965","Welcome! Press the space bar to begin.","32","","","","","","","","","","","","","","","","","","",""
"audio-keyboard-response","2","11187","0.0-2.0","2607","5039","9","Female","false","false","true","false","
","
","
","
","
","2200","audio/beep_loop.wav","32","","","","","","","","","","","","","","","","","","",""
"audio-button-response","3","12473","0.0-3.0","2607","5039","9","Female","false","false","true","false","
","
","
","
","
","NaN","audio/fish.mp3","","1","","","","","","","","","","","","","","","","","",""
"audio-button-response","4","15439","0.0-4.0","2607","5039","9","Female","false","false","true","false","""event"",""trial"",""time""
""fullscreenenter"",""5"",""17971""
","
","
","""event"",""trial"",""time""
""fullscreenenter"",""5"",""17971""
","
","NaN","audio/tiger.mp3","","4","","","","","","","","","","","","","","","","","",""
"fullscreen","5","18949","0.0-5.0","2607","5039","9","Female","false","false","true","false","""event"",""trial"",""time""
""fullscreenenter"",""5"",""17971""
","
","
","""event"",""trial"",""time""
""fullscreenenter"",""5"",""17971""
","
","","","","","true","","","","","","","","","","","","","","","","",""
"d3-instructions","6","32681","0.0-6.0","2607","5039","9","Female","false","false","true","false","""event"",""trial"",""time""
""fullscreenenter"",""5"",""17971""
","
","
","""event"",""trial"",""time""
""fullscreenenter"",""5"",""17971""
","
","","","","","","","","","","","","","","","","","","","","","",""
"d3-instructions","7","58539","0.0-7.0","2607","5039","9","Female","false","false","true","false","""event"",""trial"",""time""
""fullscreenenter"",""5"",""17971""
","
","
","""event"",""trial"",""time""
""fullscreenenter"",""5"",""17971""
","
","","","","","","","","","","","","","","","","","","","","","",""
"d3-instructions","8","81460","0.0-8.0","2607","5039","9","Female","false","false","true","false","""event"",""trial"",""time""
""fullscreenenter"",""5"",""17971""
","
","
","""event"",""trial"",""time""
""fullscreenenter"",""5"",""17971""
","
","","","","","","","","","","","","","","","","","","","","","",""
"d3-instructions","9","86619","0.0-9.0","2607","5039","9","Female","false","false","true","false","""event"",""trial"",""time""
""fullscreenenter"",""5"",""17971""
","
","
","""event"",""trial"",""time""
""fullscreenenter"",""5"",""17971""
","
","","","","","","","","","","","","","","","","","","","","","",""
"d3-instructions","10","99915","0.0-10.0","2607","5039","9","Female","false","false","true","false","""event"",""trial"",""time""
""fullscreenenter"",""5"",""17971""
","
","
","""event"",""trial"",""time""
""fullscreenenter"",""5"",""17971""
","
","","","","","","","","","","","","","","","","","","","","","",""
"d3-animate-choice","11","104041","0.0-11.0","2607","5039","9","Female","false","false","true","false","""event"",""trial"",""time""
""fullscreenenter"",""5"",""17971""
","
","
","""event"",""trial"",""time""
""fullscreenenter"",""5"",""17971""
","
","2110.1000000089407","","48","","","3000","1","","","images/tutgreenplanet.jpg","images/tutalien1","images/tutalien2","null","images/tutalien1","","NA","practice","null","","","",""
"d3-animate-choice","12","107720","0.0-12.0","2607","5039","9","Female","false","false","true","false","""event"",""trial"",""time""
""fullscreenenter"",""5"",""17971""
","
","
","""event"",""trial"",""time""
""fullscreenenter"",""5"",""17971""
","
","1668.300000011921","","49","","","3000","1","","","images/tutgreenplanet.jpg","images/tutalien1","images/tutalien2","null","images/tutalien2","","NA","practice","null","","","",""
"d3-animate-choice","13","111329","0.0-13.0","2607","5039","9","Female","false","false","true","false","""event"",""trial"",""time""
""fullscreenenter"",""5"",""17971""
","
","
","""event"",""trial"",""time""
""fullscreenenter"",""5"",""17971""
","
","1594.2000000029802","","48","","","3000","1","","","images/tutgreenplanet.jpg","images/tutalien1","images/tutalien2","null","images/tutalien1","","NA","practice","null","","","",""
"d3-animate-choice","14","114069","0.0-14.0","2607","5039","9","Female","false","false","true","false","""event"",""trial"",""time""
""fullscreenenter"",""5"",""17971""
","
","
","""event"",""trial"",""time""
""fullscreenenter"",""5"",""17971""
","
","733.9000000059605","","49","","","3000","1","","","images/tutgreenplanet.jpg","images/tutalien1","images/tutalien2","null","images/tutalien2","","NA","practice","null","","","",""
"d3-instructions","15","121504","0.0-15.0","2607","5039","9","Female","false","false","true","false","""event"",""trial"",""time""
""fullscreenenter"",""5"",""17971""
","
","
","""event"",""trial"",""time""
""fullscreenenter"",""5"",""17971""
","
","","","","","","","","","","","","","","","","","","","","","",""
"d3-instructions","16","125003","0.0-16.0","2607","5039","9","Female","false","false","true","false","""event"",""trial"",""time""
""fullscreenenter"",""5"",""17971""
","
","
","""event"",""trial"",""time""
""fullscreenenter"",""5"",""17971""
","
","","","","","","","","","","","","","","","","","","","","","",""
"d3-instructions","17","130773","0.0-17.0","2607","5039","9","Female","false","false","true","false","""event"",""trial"",""time""
""fullscreenenter"",""5"",""17971""
","
","
","""event"",""trial"",""time""
""fullscreenenter"",""5"",""17971""
","
","","","","","","","","","","","","","","","","","","","","","",""
"d3-instructions","18","140464","0.0-18.0","2607","5039","9","Female","false","false","true","false","""event"",""trial"",""time""
""fullscreenenter"",""5"",""17971""
","
","
","""event"",""trial"",""time""
""fullscreenenter"",""5"",""17971""
","
","","","","","","","","","","","","","","","","","","","","","",""
"d3-instructions","19","154010","0.0-19.0","2607","5039","9","Female","false","false","true","false","""event"",""trial"",""time""
""fullscreenenter"",""5"",""17971""
","
","
","""event"",""trial"",""time""
""fullscreenenter"",""5"",""17971""
","
","","","","","","","","","","","","","","","","","","","","","",""
"d3-animate-choice","20","157137","0.0-20.0","2607","5039","9","Female","false","false","true","false","""event"",""trial"",""time""
""fullscreenenter"",""5"",""17971""
","
","
","""event"",""trial"",""time""
""fullscreenenter"",""5"",""17971""
","
","1115","","49","","","3000","1","","","images/tutyellowplanet.jpg","null","images/tutalien3","null","images/tutalien3","images/t.png","NA","practice","null","","","",""
"d3-animate-choice","21","160117","0.0-21.0","2607","5039","9","Female","false","false","true","false","""event"",""trial"",""time""
""fullscreenenter"",""5"",""17971""
","
","
","""event"",""trial"",""time""
""fullscreenenter"",""5"",""17971""
","
","969.1000000089407","","49","","","3000","1","","","images/tutyellowplanet.jpg","null","images/tutalien3","null","images/tutalien3","images/nothing.png","NA","practice","null","","","",""
"d3-animate-choice","22","162711","0.0-22.0","2607","5039","9","Female","false","false","true","false","""event"",""trial"",""time""
""fullscreenenter"",""5"",""17971""
","
","
","""event"",""trial"",""time""
""fullscreenenter"",""5"",""17971""
","
","582.2000000029802","","49","","","3000","1","","","images/tutyellowplanet.jpg","null","images/tutalien3","null","images/tutalien3","images/t.png","NA","practice","null","","","",""
"d3-animate-choice","23","165644","0.0-23.0","2607","5039","9","Female","false","false","true","false","""event"",""trial"",""time""
""fullscreenenter"",""5"",""17971""
","
","
","""event"",""trial"",""time""
""fullscreenenter"",""5"",""17971""
","
","927.2999999970198","","49","","","3000","1","","","images/tutyellowplanet.jpg","null","images/tutalien3","null","images/tutalien3","images/t.png","NA","practice","null","","","",""
"d3-animate-choice","24","168305","0.0-24.0","2607","5039","9","Female","false","false","true","false","""event"",""trial"",""time""
""fullscreenenter"",""5"",""17971""
","
","
","""event"",""trial"",""time""
""fullscreenenter"",""5"",""17971""
","
","645","","49","","","3000","1","","","images/tutyellowplanet.jpg","null","images/tutalien3","null","images/tutalien3","images/t.png","NA","practice","null","","","",""
"d3-animate-choice","25","170861","0.0-25.0","2607","5039","9","Female","false","false","true","false","""event"",""trial"",""time""
""fullscreenenter"",""5"",""17971""
","
","
","""event"",""trial"",""time""
""fullscreenenter"",""5"",""17971""
","
","548.5","","49","","","3000","1","","","images/tutyellowplanet.jpg","null","images/tutalien3","null","images/tutalien3","images/t.png","NA","practice","null","","","",""
"d3-animate-choice","26","173351","0.0-26.0","2607","5039","9","Female","false","false","true","false","""event"",""trial"",""time""
""fullscreenenter"",""5"",""17971""
","
","
","""event"",""trial"",""time""
""fullscreenenter"",""5"",""17971""
","
","480.8999999910593","","49","","","3000","1","","","images/tutyellowplanet.jpg","null","images/tutalien3","null","images/tutalien3","images/nothing.png","NA","practice","null","","","",""
"d3-animate-choice","27","175888","0.0-27.0","2607","5039","9","Female","false","false","true","false","""event"",""trial"",""time""
""fullscreenenter"",""5"",""17971""
","
","
","""event"",""trial"",""time""
""fullscreenenter"",""5"",""17971""
","
","523.2999999970198","","49","","","3000","1","","","images/tutyellowplanet.jpg","null","images/tutalien3","null","images/tutalien3","images/t.png","NA","practice","null","","","",""
"d3-animate-choice","28","178455","0.0-28.0","2607","5039","9","Female","false","false","true","false","""event"",""trial"",""time""
""fullscreenenter"",""5"",""17971""
","
","
","""event"",""trial"",""time""
""fullscreenenter"",""5"",""17971""
","
","556.7999999970198","","49","","","3000","1","2367.7999999970198","49","images/tutyellowplanet.jpg","null","images/tutalien3","null","images/tutalien3","images/t.png","NA","practice","null","","","",""
"d3-animate-choice","29","181401","0.0-29.0","2607","5039","9","Female","false","false","true","false","""event"",""trial"",""time""
""fullscreenenter"",""5"",""17971""
","
","
","""event"",""trial"",""time""
""fullscreenenter"",""5"",""17971""
","
","931.8999999910593","","49","","","3000","1","","","images/tutyellowplanet.jpg","null","images/tutalien3","null","images/tutalien3","images/t.png","NA","practice","null","","","",""
"d3-instructions","30","186330","0.0-30.0","2607","5039","9","Female","false","false","true","false","""event"",""trial"",""time""
""fullscreenenter"",""5"",""17971""
","
","
","""event"",""trial"",""time""
""fullscreenenter"",""5"",""17971""
","
","","","","","","","","","","","","","","","","","","","","","",""
"d3-instructions","31","193441","0.0-31.0","2607","5039","9","Female","false","false","true","false","""event"",""trial"",""time""
""fullscreenenter"",""5"",""17971""
","
","
","""event"",""trial"",""time""
""fullscreenenter"",""5"",""17971""
","
","","","","","","","","","","","","","","","","","","","","","",""
"d3-instructions","32","202323","0.0-32.0","2607","5039","9","Female","false","false","true","false","""event"",""trial"",""time""
""fullscreenenter"",""5"",""17971""
","
","
","""event"",""trial"",""time""
""fullscreenenter"",""5"",""17971""
","
","","","","","","","","","","","","","","","","","","","","","",""
"d3-instructions","33","212091","0.0-33.0","2607","5039","9","Female","false","false","true","false","""event"",""trial"",""time""
""fullscreenenter"",""5"",""17971""
","
","
","""event"",""trial"",""time""
""fullscreenenter"",""5"",""17971""
","
","","","","","","","","","","","","","","","","","","","","","",""
"d3-animate-choice","34","215785","0.0-34.0","2607","5039","9","Female","false","false","true","false","""event"",""trial"",""time""
""fullscreenenter"",""5"",""17971""
","
","
","""event"",""trial"",""time""
""fullscreenenter"",""5"",""17971""
","
","1686.2000000029802","","49","","","3000","1","","","images/tutgreenplanet.jpg","images/tutalien1","images/tutalien2","null","images/tutalien2","images/t.png","NA","practice","null","","","",""
"d3-animate-choice","35","218565","0.0-35.0","2607","5039","9","Female","false","false","true","false","""event"",""trial"",""time""
""fullscreenenter"",""5"",""17971""
","
","
","""event"",""trial"",""time""
""fullscreenenter"",""5"",""17971""
","
","772","","49","","","3000","1","","","images/tutgreenplanet.jpg","images/tutalien1","images/tutalien2","null","images/tutalien2","images/t.png","NA","practice","null","","","",""
"d3-animate-choice","36","221336","0.0-36.0","2607","5039","9","Female","false","false","true","false","""event"",""trial"",""time""
""fullscreenenter"",""5"",""17971""
","
","
","""event"",""trial"",""time""
""fullscreenenter"",""5"",""17971""
","
","759.8999999910593","","48","","","3000","1","","","images/tutgreenplanet.jpg","images/tutalien1","images/tutalien2","null","images/tutalien1","images/nothing.png","NA","practice","null","","","",""
"d3-animate-choice","37","223897","0.0-37.0","2607","5039","9","Female","false","false","true","false","""event"",""trial"",""time""
""fullscreenenter"",""5"",""17971""
","
","
","""event"",""trial"",""time""
""fullscreenenter"",""5"",""17971""
","
","548.2000000029802","","49","","","3000","1","","","images/tutgreenplanet.jpg","images/tutalien1","images/tutalien2","null","images/tutalien2","images/t.png","NA","practice","null","","","",""
"d3-animate-choice","38","226752","0.0-38.0","2607","5039","9","Female","false","false","true","false","""event"",""trial"",""time""
""fullscreenenter"",""5"",""17971""
","
","
","""event"",""trial"",""time""
""fullscreenenter"",""5"",""17971""
","
","842.2000000029802","","49","","","3000","1","","","images/tutgreenplanet.jpg","images/tutalien1","images/tutalien2","null","images/tutalien2","images/t.png","NA","practice","null","","","",""
"d3-animate-choice","39","229551","0.0-39.0","2607","5039","9","Female","false","false","true","false","""event"",""trial"",""time""
""fullscreenenter"",""5"",""17971""
","
","
","""event"",""trial"",""time""
""fullscreenenter"",""5"",""17971""
","
","790","","49","","","3000","1","","","images/tutgreenplanet.jpg","images/tutalien1","images/tutalien2","null","images/tutalien2","images/t.png","NA","practice","null","","","",""
"d3-animate-choice","40","232038","0.0-40.0","2607","5039","9","Female","false","false","true","false","""event"",""trial"",""time""
""fullscreenenter"",""5"",""17971""
","
","
","""event"",""trial"",""time""
""fullscreenenter"",""5"",""17971""
","
","479.70000000298023","","49","","","3000","1","","","images/tutgreenplanet.jpg","images/tutalien1","images/tutalien2","null","images/tutalien2","images/t.png","NA","practice","null","","","",""
"d3-animate-choice","41","234792","0.0-41.0","2607","5039","9","Female","false","false","true","false","""event"",""trial"",""time""
""fullscreenenter"",""5"",""17971""
","
","
","""event"",""trial"",""time""
""fullscreenenter"",""5"",""17971""
","
","745.3000000119209","","49","","","3000","1","","","images/tutgreenplanet.jpg","images/tutalien1","images/tutalien2","null","images/tutalien2","images/t.png","NA","practice","null","","","",""
"d3-animate-choice","42","237825","0.0-42.0","2607","5039","9","Female","false","false","true","false","""event"",""trial"",""time""
""fullscreenenter"",""5"",""17971""
","
","
","""event"",""trial"",""time""
""fullscreenenter"",""5"",""17971""
","
","1023.8999999910593","","49","","","3000","1","","","images/tutgreenplanet.jpg","images/tutalien1","images/tutalien2","null","images/tutalien2","images/nothing.png","NA","practice","null","","","",""
"d3-animate-choice","43","240668","0.0-43.0","2607","5039","9","Female","false","false","true","false","""event"",""trial"",""time""
""fullscreenenter"",""5"",""17971""
","
","
","""event"",""trial"",""time""
""fullscreenenter"",""5"",""17971""
","
","840.1000000089407","","48","","","3000","1","","","images/tutgreenplanet.jpg","images/tutalien1","images/tutalien2","null","images/tutalien1","images/nothing.png","NA","practice","null","","","",""
"d3-instructions","44","256700","0.0-44.0","2607","5039","9","Female","false","false","true","false","""event"",""trial"",""time""
""fullscreenenter"",""5"",""17971""
","
","
","""event"",""trial"",""time""
""fullscreenenter"",""5"",""17971""
","
","","","","","","","","","","","","","","","","","","","","","",""
"d3-instructions","45","260810","0.0-45.0","2607","5039","9","Female","false","false","true","false","""event"",""trial"",""time""
""fullscreenenter"",""5"",""17971""
","
","
","""event"",""trial"",""time""
""fullscreenenter"",""5"",""17971""
","
","","","","","","","","","","","","","","","","","","","","","",""
"d3-instructions","46","284719","0.0-46.0","2607","5039","9","Female","false","false","true","false","""event"",""trial"",""time""
""fullscreenenter"",""5"",""17971""
","
","
","""event"",""trial"",""time""
""fullscreenenter"",""5"",""17971""
","
","","","","","","","","","","","","","","","","","","","","","",""
"d3-instructions","47","312115","0.0-47.0","2607","5039","9","Female","false","false","true","false","""event"",""trial"",""time""
""fullscreenenter"",""5"",""17971""
","
","
","""event"",""trial"",""time""
""fullscreenenter"",""5"",""17971""
","
","","","","","","","","","","","","","","","","","","","","","",""
"d3-instructions","48","321981","0.0-48.0","2607","5039","9","Female","false","false","true","false","""event"",""trial"",""time""
""fullscreenenter"",""5"",""17971""
","
","
","""event"",""trial"",""time""
""fullscreenenter"",""5"",""17971""
","
","","","","","","","","","","","","","","","","","","","","","",""
"d3-instructions","49","329827","0.0-49.0","2607","5039","9","Female","false","false","true","false","""event"",""trial"",""time""
""fullscreenenter"",""5"",""17971""
","
","
","""event"",""trial"",""time""
""fullscreenenter"",""5"",""17971""
","
","","","","","","","","","","","","","","","","","","","","","",""
"d3-instructions","50","339895","0.0-50.0","2607","5039","9","Female","false","false","true","false","""event"",""trial"",""time""
""fullscreenenter"",""5"",""17971""
","
","
","""event"",""trial"",""time""
""fullscreenenter"",""5"",""17971""
","
","","","","","","","","","","","","","","","","","","","","","",""
"d3-instructions","51","342085","0.0-51.0","2607","5039","9","Female","false","false","true","false","""event"",""trial"",""time""
""fullscreenenter"",""5"",""17971""
","
","
","""event"",""trial"",""time""
""fullscreenenter"",""5"",""17971""
","
","","","","","","","","","","","","","","","","","","","","","",""
"d3-instructions","52","344885","0.0-52.0","2607","5039","9","Female","false","false","true","false","""event"",""trial"",""time""
""fullscreenenter"",""5"",""17971""
","
","
","""event"",""trial"",""time""
""fullscreenenter"",""5"",""17971""
","
","","","","","","","","","","","","","","","","","","","","","",""
"d3-instructions","53","347979","0.0-53.0","2607","5039","9","Female","false","false","true","false","""event"",""trial"",""time""
""fullscreenenter"",""5"",""17971""
","
","
","""event"",""trial"",""time""
""fullscreenenter"",""5"",""17971""
","
","","","","","","","","","","","","","","","","","","","","","",""
"d3-instructions","54","350191","0.0-54.0","2607","5039","9","Female","false","false","true","false","""event"",""trial"",""time""
""fullscreenenter"",""5"",""17971""
","
","
","""event"",""trial"",""time""
""fullscreenenter"",""5"",""17971""
","
","","","","","","","","","","","","","","","","","","","","","",""
"d3-instructions","55","360544","0.0-55.0","2607","5039","9","Female","false","false","true","false","""event"",""trial"",""time""
""fullscreenenter"",""5"",""17971""
","
","
","""event"",""trial"",""time""
""fullscreenenter"",""5"",""17971""
","
","","","","","","","","","","","","","","","","","","","","","",""
"d3-instructions","56","363836","0.0-56.0","2607","5039","9","Female","false","false","true","false","""event"",""trial"",""time""
""fullscreenenter"",""5"",""17971""
","
","
","""event"",""trial"",""time""
""fullscreenenter"",""5"",""17971""
","
","","","","","","","","","","","","","","","","","","","","","",""
"d3-instructions","57","375502","0.0-57.0","2607","5039","9","Female","false","false","true","false","""event"",""trial"",""time""
""fullscreenenter"",""5"",""17971""
","
","
","""event"",""trial"",""time""
""fullscreenenter"",""5"",""17971""
","
","","","","","","","","","","","","","","","","","","","","","",""
"d3-instructions","58","387843","0.0-58.0","2607","5039","9","Female","false","false","true","false","""event"",""trial"",""time""
""fullscreenenter"",""5"",""17971""
","
","
","""event"",""trial"",""time""
""fullscreenenter"",""5"",""17971""
","
","","","","","","","","","","","","","","","","","","","","","",""
"d3-instructions","59","394131","0.0-59.0","2607","5039","9","Female","false","false","true","false","""event"",""trial"",""time""
""fullscreenenter"",""5"",""17971""
","
","
","""event"",""trial"",""time""
""fullscreenenter"",""5"",""17971""
","
","","","","","","","","","","","","","","","","","","","","","",""
"d3-instructions","60","401106","0.0-60.0","2607","5039","9","Female","false","false","true","false","""event"",""trial"",""time""
""fullscreenenter"",""5"",""17971""
","
","
","""event"",""trial"",""time""
""fullscreenenter"",""5"",""17971""
","
","","","","","","","","","","","","","","","","","","","","","",""
"d3-animate-choice","61","403736","0.0-61.0-0.0","2607","5039","9","Female","false","false","true","false","""event"",""trial"",""time""
""fullscreenenter"",""5"",""17971""
","
","
","""event"",""trial"",""time""
""fullscreenenter"",""5"",""17971""
","
","616.2999999970198","","49","","","3000","1","","","images/earth.jpg","images/tutrocket1","images/tutrocket2","null","images/tutrocket2","","1","practice","null","1","","",""
"d3-animate-choice","62","406646","0.0-61.0-1.0","2607","5039","9","Female","false","false","true","false","""event"",""trial"",""time""
""fullscreenenter"",""5"",""17971""
","
","
","""event"",""trial"",""time""
""fullscreenenter"",""5"",""17971""
","
","897.5999999940395","","48","","","3000","1","","","images/tutgreenplanet.jpg","images/tutalien2","images/tutalien1","images/tutrocket2","images/tutalien2","images/nothing.png","2","practice","true","2","common","0","2022-12-07 23:06:02.978"
"two-step-fixation","63","407659","0.0-61.0-2.0","2607","5039","9","Female","false","false","true","false","""event"",""trial"",""time""
""fullscreenenter"",""5"",""17971""
","
","
","""event"",""trial"",""time""
""fullscreenenter"",""5"",""17971""
","
","","images/earth.jpg","","","","","","","","","","","","","","fixation","","","","","",""
"d3-animate-choice","64","410022","0.0-61.0-0.1","2607","5039","9","Female","false","false","true","false","""event"",""trial"",""time""
""fullscreenenter"",""5"",""17971""
","
","
","""event"",""trial"",""time""
""fullscreenenter"",""5"",""17971""
","
","351.30000001192093","","48","","","3000","1","","","images/earth.jpg","images/tutrocket1","images/tutrocket2","null","images/tutrocket1","","1","practice","null","2","","",""
"d3-animate-choice","65","412874","0.0-61.0-1.1","2607","5039","9","Female","false","false","true","false","""event"",""trial"",""time""
""fullscreenenter"",""5"",""17971""
","
","
","""event"",""trial"",""time""
""fullscreenenter"",""5"",""17971""
","
","840.8000000119209","","49","","","3000","1","","","images/tutyellowplanet.jpg","images/tutalien4","images/tutalien3","images/tutrocket1","images/tutalien3","images/nothing.png","2","practice","true","1","common","0","2022-12-07 23:06:09.205"
"two-step-fixation","66","413879","0.0-61.0-2.1","2607","5039","9","Female","false","false","true","false","""event"",""trial"",""time""
""fullscreenenter"",""5"",""17971""
","
","
","""event"",""trial"",""time""
""fullscreenenter"",""5"",""17971""
","
","","images/earth.jpg","","","","","","","","","","","","","","fixation","","","","","",""
"d3-animate-choice","67","416642","0.0-61.0-0.2","2607","5039","9","Female","false","false","true","false","""event"",""trial"",""time""
""fullscreenenter"",""5"",""17971""
","
","
","""event"",""trial"",""time""
""fullscreenenter"",""5"",""17971""
","
","753.1999999880791","","48","","","3000","1","","","images/earth.jpg","images/tutrocket1","images/tutrocket2","null","images/tutrocket1","","1","practice","null","2","","",""
"d3-animate-choice","68","419464","0.0-61.0-1.2","2607","5039","9","Female","false","false","true","false","""event"",""trial"",""time""
""fullscreenenter"",""5"",""17971""
","
","
","""event"",""trial"",""time""
""fullscreenenter"",""5"",""17971""
","
","812.1000000089407","","49","","","3000","1","","","images/tutyellowplanet.jpg","images/tutalien4","images/tutalien3","images/tutrocket1","images/tutalien3","images/nothing.png","2","practice","true","1","common","0","2022-12-07 23:06:15.795"
"two-step-fixation","69","420471","0.0-61.0-2.2","2607","5039","9","Female","false","false","true","false","""event"",""trial"",""time""
""fullscreenenter"",""5"",""17971""
","
","
","""event"",""trial"",""time""
""fullscreenenter"",""5"",""17971""
","
","","images/earth.jpg","","","","","","","","","","","","","","fixation","","","","","",""
"d3-animate-choice","70","423496","0.0-61.0-0.3","2607","5039","9","Female","false","false","true","false","""event"",""trial"",""time""
""fullscreenenter"",""5"",""17971""
","
","
","""event"",""trial"",""time""
""fullscreenenter"",""5"",""17971""
","
","1011.5999999940395","","49","","","3000","1","","","images/earth.jpg","images/tutrocket1","images/tutrocket2","null","images/tutrocket2","","1","practice","null","1","","",""
"d3-animate-choice","71","426487","0.0-61.0-1.3","2607","5039","9","Female","false","false","true","false","""event"",""trial"",""time""
""fullscreenenter"",""5"",""17971""
","
","
","""event"",""trial"",""time""
""fullscreenenter"",""5"",""17971""
","
","981.6000000089407","","49","","","3000","1","","","images/tutgreenplanet.jpg","images/tutalien2","images/tutalien1","images/tutrocket2","images/tutalien1","images/nothing.png","2","practice","true","1","common","0","2022-12-07 23:06:22.818"
"two-step-fixation","72","427496","0.0-61.0-2.3","2607","5039","9","Female","false","false","true","false","""event"",""trial"",""time""
""fullscreenenter"",""5"",""17971""
","
","
","""event"",""trial"",""time""
""fullscreenenter"",""5"",""17971""
","
","","images/earth.jpg","","","","","","","","","","","","","","fixation","","","","","",""
"d3-animate-choice","73","429872","0.0-61.0-0.4","2607","5039","9","Female","false","false","true","false","""event"",""trial"",""time""
""fullscreenenter"",""5"",""17971""
","
","
","""event"",""trial"",""time""
""fullscreenenter"",""5"",""17971""
","
","363","","49","","","3000","1","","","images/earth.jpg","images/tutrocket1","images/tutrocket2","null","images/tutrocket2","","1","practice","null","1","","",""
"d3-animate-choice","74","432768","0.0-61.0-1.4","2607","5039","9","Female","false","false","true","false","""event"",""trial"",""time""
""fullscreenenter"",""5"",""17971""
","
","
","""event"",""trial"",""time""
""fullscreenenter"",""5"",""17971""
","
","883.7000000029802","","48","","","3000","1","","","images/tutgreenplanet.jpg","images/tutalien2","images/tutalien1","images/tutrocket2","images/tutalien2","images/nothing.png","2","practice","true","2","common","0","2022-12-07 23:06:29.099"
"two-step-fixation","75","433774","0.0-61.0-2.4","2607","5039","9","Female","false","false","true","false","""event"",""trial"",""time""
""fullscreenenter"",""5"",""17971""
","
","
","""event"",""trial"",""time""
""fullscreenenter"",""5"",""17971""
","
","","images/earth.jpg","","","","","","","","","","","","","","fixation","","","","","",""
"d3-animate-choice","76","436334","0.0-61.0-0.5","2607","5039","9","Female","false","false","true","false","""event"",""trial"",""time""
""fullscreenenter"",""5"",""17971""
","
","
","""event"",""trial"",""time""
""fullscreenenter"",""5"",""17971""
","
","551.5","","49","","","3000","1","","","images/earth.jpg","images/tutrocket1","images/tutrocket2","null","images/tutrocket2","","1","practice","null","1","","",""
"d3-animate-choice","77","440353","0.0-61.0-1.5","2607","5039","9","Female","false","false","true","false","""event"",""trial"",""time""
""fullscreenenter"",""5"",""17971""
","
","
","""event"",""trial"",""time""
""fullscreenenter"",""5"",""17971""
","
","2885.1000000089407","","49","","","3000","1","","","images/tutgreenplanet.jpg","images/tutalien2","images/tutalien1","images/tutrocket2","images/tutalien1","","2","practice","true","1","common","0","2022-12-07 23:06:36.684"
"two-step-fixation","78","441368","0.0-61.0-2.5","2607","5039","9","Female","false","false","true","false","""event"",""trial"",""time""
""fullscreenenter"",""5"",""17971""
","
","
","""event"",""trial"",""time""
""fullscreenenter"",""5"",""17971""
","
","","images/earth.jpg","","","","","","","","","","","","","","fixation","","","","","",""
"d3-animate-choice","79","445385","0.0-61.0-0.6","2607","5039","9","Female","false","false","true","false","""event"",""trial"",""time""
""fullscreenenter"",""5"",""17971""
","
","
","""event"",""trial"",""time""
""fullscreenenter"",""5"",""17971""
","
","3345.7999999970198","","48","","","3000","0","","","images/earth.jpg","images/tutrocket1","images/tutrocket2","null","","","1","practice","null","2","","",""
"d3-animate-choice","80","446392","0.0-61.0-1.6","2607","5039","9","Female","false","false","true","false","""event"",""trial"",""time""
""fullscreenenter"",""5"",""17971""
","
","
","""event"",""trial"",""time""
""fullscreenenter"",""5"",""17971""
","
","null","","null","","","0","0","","","images/earth.jpg","images/tutrocket1","images/tutrocket2","null","","","2","practice","null","","","0","2022-12-07 23:06:42.723"
"two-step-fixation","81","447401","0.0-61.0-2.6","2607","5039","9","Female","false","false","true","false","""event"",""trial"",""time""
""fullscreenenter"",""5"",""17971""
","
","
","""event"",""trial"",""time""
""fullscreenenter"",""5"",""17971""
","
","","images/earth.jpg","","","","","","","","","","","","","","fixation","","","","","",""
"d3-animate-choice","82","450924","0.0-61.0-0.7","2607","5039","9","Female","false","false","true","false","""event"",""trial"",""time""
""fullscreenenter"",""5"",""17971""
","
","
","""event"",""trial"",""time""
""fullscreenenter"",""5"",""17971""
","
","1518.5","","48","","","3000","1","","","images/earth.jpg","images/tutrocket1","images/tutrocket2","null","images/tutrocket1","","1","practice","null","2","","",""
"d3-animate-choice","83","453423","0.0-61.0-1.7","2607","5039","9","Female","false","false","true","false","""event"",""trial"",""time""
""fullscreenenter"",""5"",""17971""
","
","
","""event"",""trial"",""time""
""fullscreenenter"",""5"",""17971""
","
","485.80000001192093","","48","","","3000","1","1349.7000000029802,2089.4000000059605","48,48","images/tutgreenplanet.jpg","images/tutalien2","images/tutalien1","images/tutrocket1","images/tutalien2","images/nothing.png","2","practice","false","2","rare","0","2022-12-07 23:06:49.754"
"two-step-fixation","84","454431","0.0-61.0-2.7","2607","5039","9","Female","false","false","true","false","""event"",""trial"",""time""
""fullscreenenter"",""5"",""17971""
","
","
","""event"",""trial"",""time""
""fullscreenenter"",""5"",""17971""
","
","","images/earth.jpg","","","","","","","","","","","","","","fixation","","","","","",""
"d3-animate-choice","85","456734","0.0-61.0-0.8","2607","5039","9","Female","false","false","true","false","""event"",""trial"",""time""
""fullscreenenter"",""5"",""17971""
","
","
","""event"",""trial"",""time""
""fullscreenenter"",""5"",""17971""
","
","291.09999999403954","","48","","","3000","1","","","images/earth.jpg","images/tutrocket1","images/tutrocket2","null","images/tutrocket1","","1","practice","null","2","","",""
"d3-animate-choice","86","460753","0.0-61.0-1.8","2607","5039","9","Female","false","false","true","false","""event"",""trial"",""time""
""fullscreenenter"",""5"",""17971""
","
","
","""event"",""trial"",""time""
""fullscreenenter"",""5"",""17971""
","
","2295.2999999970198","","48","","","3000","1","","","images/tutgreenplanet.jpg","images/tutalien2","images/tutalien1","images/tutrocket1","images/tutalien2","images/nothing.png","2","practice","false","2","rare","0","2022-12-07 23:06:57.085"
"two-step-fixation","87","461767","0.0-61.0-2.8","2607","5039","9","Female","false","false","true","false","""event"",""trial"",""time""
""fullscreenenter"",""5"",""17971""
","
","
","""event"",""trial"",""time""
""fullscreenenter"",""5"",""17971""
","
","","images/earth.jpg","","","","","","","","","","","","","","fixation","","","","","",""
"d3-animate-choice","88","465200","0.0-61.0-0.9","2607","5039","9","Female","false","false","true","false","""event"",""trial"",""time""
""fullscreenenter"",""5"",""17971""
","
","
","""event"",""trial"",""time""
""fullscreenenter"",""5"",""17971""
","
","1422.3999999910593","","48","","","3000","1","","","images/earth.jpg","images/tutrocket1","images/tutrocket2","null","images/tutrocket1","","1","practice","null","2","","",""
"d3-animate-choice","89","467863","0.0-61.0-1.9","2607","5039","9","Female","false","false","true","false","""event"",""trial"",""time""
""fullscreenenter"",""5"",""17971""
","
","
","""event"",""trial"",""time""
""fullscreenenter"",""5"",""17971""
","
","653.1999999880791","","48","","","3000","1","1828.3999999910593,2570.3999999910593","48,48","images/tutyellowplanet.jpg","images/tutalien4","images/tutalien3","images/tutrocket1","images/tutalien4","images/t.png","2","practice","true","2","common","1","2022-12-07 23:07:04.194"
"two-step-fixation","90","468871","0.0-61.0-2.9","2607","5039","9","Female","false","false","true","false","""event"",""trial"",""time""
""fullscreenenter"",""5"",""17971""
","
","
","""event"",""trial"",""time""
""fullscreenenter"",""5"",""17971""
","
","","images/earth.jpg","","","","","","","","","","","","","","fixation","","","","","",""
"d3-animate-choice","91","471335","0.0-61.0-0.10","2607","5039","9","Female","false","false","true","false","""event"",""trial"",""time""
""fullscreenenter"",""5"",""17971""
","
","
","""event"",""trial"",""time""
""fullscreenenter"",""5"",""17971""
","
","455.69999998807907","","48","","","3000","1","","","images/earth.jpg","images/tutrocket1","images/tutrocket2","null","images/tutrocket1","","1","practice","null","2","","",""
"d3-animate-choice","92","473925","0.0-61.0-1.10","2607","5039","9","Female","false","false","true","false","""event"",""trial"",""time""
""fullscreenenter"",""5"",""17971""
","
","
","""event"",""trial"",""time""
""fullscreenenter"",""5"",""17971""
","
","582.2999999970198","","48","","","3000","1","","","images/tutyellowplanet.jpg","images/tutalien4","images/tutalien3","images/tutrocket1","images/tutalien4","images/nothing.png","2","practice","true","2","common","0","2022-12-07 23:07:10.256"
"two-step-fixation","93","474935","0.0-61.0-2.10","2607","5039","9","Female","false","false","true","false","""event"",""trial"",""time""
""fullscreenenter"",""5"",""17971""
","
","
","""event"",""trial"",""time""
""fullscreenenter"",""5"",""17971""
","
","","images/earth.jpg","","","","","","","","","","","","","","fixation","","","","","",""
"d3-animate-choice","94","477471","0.0-61.0-0.11","2607","5039","9","Female","false","false","true","false","""event"",""trial"",""time""
""fullscreenenter"",""5"",""17971""
","
","
","""event"",""trial"",""time""
""fullscreenenter"",""5"",""17971""
","
","526.4000000059605","","48","","","3000","1","","","images/earth.jpg","images/tutrocket1","images/tutrocket2","null","images/tutrocket1","","1","practice","null","2","","",""
"d3-animate-choice","95","481487","0.0-61.0-1.11","2607","5039","9","Female","false","false","true","false","""event"",""trial"",""time""
""fullscreenenter"",""5"",""17971""
","
","
","""event"",""trial"",""time""
""fullscreenenter"",""5"",""17971""
","
","2342.300000011921","","48","","","3000","1","","","images/tutyellowplanet.jpg","images/tutalien4","images/tutalien3","images/tutrocket1","images/tutalien4","images/t.png","2","practice","true","2","common","1","2022-12-07 23:07:17.818"
"two-step-fixation","96","482491","0.0-61.0-2.11","2607","5039","9","Female","false","false","true","false","""event"",""trial"",""time""
""fullscreenenter"",""5"",""17971""
","
","
","""event"",""trial"",""time""
""fullscreenenter"",""5"",""17971""
","
","","images/earth.jpg","","","","","","","","","","","","","","fixation","","","","","",""
"d3-animate-choice","97","484839","0.0-61.0-0.12","2607","5039","9","Female","false","false","true","false","""event"",""trial"",""time""
""fullscreenenter"",""5"",""17971""
","
","
","""event"",""trial"",""time""
""fullscreenenter"",""5"",""17971""
","
","340.09999999403954","","48","","","3000","1","","","images/earth.jpg","images/tutrocket1","images/tutrocket2","null","images/tutrocket1","","1","practice","null","2","","",""
"d3-animate-choice","98","488087","0.0-61.0-1.12","2607","5039","9","Female","false","false","true","false","""event"",""trial"",""time""
""fullscreenenter"",""5"",""17971""
","
","
","""event"",""trial"",""time""
""fullscreenenter"",""5"",""17971""
","
","1239.7000000029802","","48","","","3000","1","","","images/tutyellowplanet.jpg","images/tutalien4","images/tutalien3","images/tutrocket1","images/tutalien4","images/nothing.png","2","practice","true","2","common","0","2022-12-07 23:07:24.418"
"two-step-fixation","99","489097","0.0-61.0-2.12","2607","5039","9","Female","false","false","true","false","""event"",""trial"",""time""
""fullscreenenter"",""5"",""17971""
","
","
","""event"",""trial"",""time""
""fullscreenenter"",""5"",""17971""
","
","","images/earth.jpg","","","","","","","","","","","","","","fixation","","","","","",""
"d3-animate-choice","100","491610","0.0-61.0-0.13","2607","5039","9","Female","false","false","true","false","""event"",""trial"",""time""
""fullscreenenter"",""5"",""17971""
","
","
","""event"",""trial"",""time""
""fullscreenenter"",""5"",""17971""
","
","501","","48","","","3000","1","","","images/earth.jpg","images/tutrocket1","images/tutrocket2","null","images/tutrocket1","","1","practice","null","2","","",""
"d3-animate-choice","101","493655","0.0-61.0-1.13","2607","5039","9","Female","false","false","true","false","""event"",""trial"",""time""
""fullscreenenter"",""5"",""17971""
","
","
","""event"",""trial"",""time""
""fullscreenenter"",""5"",""17971""
","
","38.70000000298023","","48","","","3000","1","","","images/tutyellowplanet.jpg","images/tutalien4","images/tutalien3","images/tutrocket1","images/tutalien4","images/t.png","2","practice","true","2","common","1","2022-12-07 23:07:29.986"
"two-step-fixation","102","494663","0.0-61.0-2.13","2607","5039","9","Female","false","false","true","false","""event"",""trial"",""time""
""fullscreenenter"",""5"",""17971""
","
","
","""event"",""trial"",""time""
""fullscreenenter"",""5"",""17971""
","
","","images/earth.jpg","","","","","","","","","","","","","","fixation","","","","","",""
"d3-animate-choice","103","497526","0.0-61.0-0.14","2607","5039","9","Female","false","false","true","false","""event"",""trial"",""time""
""fullscreenenter"",""5"",""17971""
","
","
","""event"",""trial"",""time""
""fullscreenenter"",""5"",""17971""
","
","853","","48","","","3000","1","","","images/earth.jpg","images/tutrocket1","images/tutrocket2","null","images/tutrocket1","","1","practice","null","2","","",""
"d3-animate-choice","104","501241","0.0-61.0-1.14","2607","5039","9","Female","false","false","true","false","""event"",""trial"",""time""
""fullscreenenter"",""5"",""17971""
","
","
","""event"",""trial"",""time""
""fullscreenenter"",""5"",""17971""
","
","1124","","56","","","3000","1","1299.8999999910593,1709","57,48","images/tutgreenplanet.jpg","images/tutalien2","images/tutalien1","images/tutrocket1","images/tutalien2","images/t.png","2","practice","false","","rare","1","2022-12-07 23:07:37.572"
"two-step-fixation","105","502247","0.0-61.0-2.14","2607","5039","9","Female","false","false","true","false","""event"",""trial"",""time""
""fullscreenenter"",""5"",""17971""
","
","
","""event"",""trial"",""time""
""fullscreenenter"",""5"",""17971""
","
","","images/earth.jpg","","","","","","","","","","","","","","fixation","","","","","",""
"d3-animate-choice","106","505593","0.0-61.0-0.15","2607","5039","9","Female","false","false","true","false","""event"",""trial"",""time""
""fullscreenenter"",""5"",""17971""
","
","
","""event"",""trial"",""time""
""fullscreenenter"",""5"",""17971""
","
","1337.2000000029802","","48","","","3000","1","","","images/earth.jpg","images/tutrocket1","images/tutrocket2","null","images/tutrocket1","","1","practice","null","2","","",""
"d3-animate-choice","107","509071","0.0-61.0-1.15","2607","5039","9","Female","false","false","true","false","""event"",""trial"",""time""
""fullscreenenter"",""5"",""17971""
","
","
","""event"",""trial"",""time""
""fullscreenenter"",""5"",""17971""
","
","1469.5","","48","","","3000","1","","","images/tutyellowplanet.jpg","images/tutalien4","images/tutalien3","images/tutrocket1","images/tutalien4","images/t.png","2","practice","true","2","common","1","2022-12-07 23:07:45.402"
"two-step-fixation","108","510079","0.0-61.0-2.15","2607","5039","9","Female","false","false","true","false","""event"",""trial"",""time""
""fullscreenenter"",""5"",""17971""
","
","
","""event"",""trial"",""time""
""fullscreenenter"",""5"",""17971""
","
","","images/earth.jpg","","","","","","","","","","","","","","fixation","","","","","",""
"d3-animate-choice","109","512431","0.0-61.0-0.16","2607","5039","9","Female","false","false","true","false","""event"",""trial"",""time""
""fullscreenenter"",""5"",""17971""
","
","
","""event"",""trial"",""time""
""fullscreenenter"",""5"",""17971""
","
","343.59999999403954","","48","","","3000","1","1502.699999988079,2146.3999999910593","48,48","images/earth.jpg","images/tutrocket1","images/tutrocket2","null","images/tutrocket1","","1","practice","null","2","","",""
"d3-animate-choice","110","514807","0.0-61.0-1.16","2607","5039","9","Female","false","false","true","false","""event"",""trial"",""time""
""fullscreenenter"",""5"",""17971""
","
","
","""event"",""trial"",""time""
""fullscreenenter"",""5"",""17971""
","
","366.5","","48","","","3000","1","626.5999999940395,1236.8999999910593,1598.699999988079","48,48,48","images/tutyellowplanet.jpg","images/tutalien4","images/tutalien3","images/tutrocket1","images/tutalien4","images/t.png","2","practice","true","2","common","1","2022-12-07 23:07:51.138"
"two-step-fixation","111","515814","0.0-61.0-2.16","2607","5039","9","Female","false","false","true","false","""event"",""trial"",""time""
""fullscreenenter"",""5"",""17971""
","
","
","""event"",""trial"",""time""
""fullscreenenter"",""5"",""17971""
","
","","images/earth.jpg","","","","","","","","","","","","","","fixation","","","","","",""
"d3-animate-choice","112","519198","0.0-61.0-0.17","2607","5039","9","Female","false","false","true","false","""event"",""trial"",""time""
""fullscreenenter"",""5"",""17971""
","
","
","""event"",""trial"",""time""
""fullscreenenter"",""5"",""17971""
","
","168.69999998807907","","32","","","3000","1","1377.7999999970198","48","images/earth.jpg","images/tutrocket1","images/tutrocket2","null","images/tutrocket1","","1","practice","null","","","",""
"d3-animate-choice","113","521698","0.0-61.0-1.17","2607","5039","9","Female","false","false","true","false","""event"",""trial"",""time""
""fullscreenenter"",""5"",""17971""
","
","
","""event"",""trial"",""time""
""fullscreenenter"",""5"",""17971""
","
","490.09999999403954","","48","","","3000","1","","","images/tutyellowplanet.jpg","images/tutalien4","images/tutalien3","images/tutrocket1","images/tutalien4","images/nothing.png","2","practice","true","2","common","0","2022-12-07 23:07:58.029"
"two-step-fixation","114","522714","0.0-61.0-2.17","2607","5039","9","Female","false","false","true","false","""event"",""trial"",""time""
""fullscreenenter"",""5"",""17971""
","
","
","""event"",""trial"",""time""
""fullscreenenter"",""5"",""17971""
","
","","images/earth.jpg","","","","","","","","","","","","","","fixation","","","","","",""
"d3-animate-choice","115","526233","0.0-61.0-0.18","2607","5039","9","Female","false","false","true","false","""event"",""trial"",""time""
""fullscreenenter"",""5"",""17971""
","
","
","""event"",""trial"",""time""
""fullscreenenter"",""5"",""17971""
","
","1508.9000000059605","","48","","","3000","1","","","images/earth.jpg","images/tutrocket1","images/tutrocket2","null","images/tutrocket1","","1","practice","null","2","","",""
"d3-animate-choice","116","530115","0.0-61.0-1.18","2607","5039","9","Female","false","false","true","false","""event"",""trial"",""time""
""fullscreenenter"",""5"",""17971""
","
","
","""event"",""trial"",""time""
""fullscreenenter"",""5"",""17971""
","
","1877.5","","48","","","3000","1","","","images/tutyellowplanet.jpg","images/tutalien4","images/tutalien3","images/tutrocket1","images/tutalien4","images/nothing.png","2","practice","true","2","common","0","2022-12-07 23:08:06.446"
"two-step-fixation","117","531125","0.0-61.0-2.18","2607","5039","9","Female","false","false","true","false","""event"",""trial"",""time""
""fullscreenenter"",""5"",""17971""
","
","
","""event"",""trial"",""time""
""fullscreenenter"",""5"",""17971""
","
","","images/earth.jpg","","","","","","","","","","","","","","fixation","","","","","",""
"d3-animate-choice","118","534008","0.0-61.0-0.19","2607","5039","9","Female","false","false","true","false","""event"",""trial"",""time""
""fullscreenenter"",""5"",""17971""
","
","
","""event"",""trial"",""time""
""fullscreenenter"",""5"",""17971""
","
","869.2000000029802","","49","","","3000","1","","","images/earth.jpg","images/tutrocket1","images/tutrocket2","null","images/tutrocket2","","1","practice","null","1","","",""
"d3-animate-choice","119","536681","0.0-61.0-1.19","2607","5039","9","Female","false","false","true","false","""event"",""trial"",""time""
""fullscreenenter"",""5"",""17971""
","
","
","""event"",""trial"",""time""
""fullscreenenter"",""5"",""17971""
","
","663.5","","49","","","3000","1","","","images/tutgreenplanet.jpg","images/tutalien2","images/tutalien1","images/tutrocket2","images/tutalien1","images/nothing.png","2","practice","true","1","common","0","2022-12-07 23:08:13.012"
"two-step-fixation","120","537687","0.0-61.0-2.19","2607","5039","9","Female","false","false","true","false","""event"",""trial"",""time""
""fullscreenenter"",""5"",""17971""
","
","
","""event"",""trial"",""time""
""fullscreenenter"",""5"",""17971""
","
","","images/earth.jpg","","","","","","","","","","","","","","fixation","","","","","",""
"d3-instructions","121","546470","0.0-62.0","2607","5039","9","Female","false","false","true","false","""event"",""trial"",""time""
""fullscreenenter"",""5"",""17971""
","
","
","""event"",""trial"",""time""
""fullscreenenter"",""5"",""17971""
","
","","","","","","","","","","","","","","","","","","","","","",""
"audio-keyboard-response","122","553320","0.0-63.0","2607","5039","9","Female","false","false","true","false","""event"",""trial"",""time""
""fullscreenenter"",""5"",""17971""
","
","
","""event"",""trial"",""time""
""fullscreenenter"",""5"",""17971""
","
","6844","audio/instructions/treasure_feedback.wav","32","","","","","","","","","","","","","","","","","","",""
"d3-instructions","123","577844","0.0-64.0","2607","5039","9","Female","false","false","true","false","""event"",""trial"",""time""
""fullscreenenter"",""5"",""17971""
","
","
","""event"",""trial"",""time""
""fullscreenenter"",""5"",""17971""
","
","","","","","","","","","","","","","","","","","","","","","",""
"d3-instructions","124","598582","0.0-65.0","2607","5039","9","Female","false","false","true","false","""event"",""trial"",""time""
""fullscreenenter"",""5"",""17971""
","
","
","""event"",""trial"",""time""
""fullscreenenter"",""5"",""17971""
","
","","","","","","","","","","","","","","","","","","","","","",""
"d3-instructions","125","624252","0.0-66.0","2607","5039","9","Female","false","false","true","false","""event"",""trial"",""time""
""fullscreenenter"",""5"",""17971""
","
","
","""event"",""trial"",""time""
""fullscreenenter"",""5"",""17971""
","
","","","","","","","","","","","","","","","","","","","","","",""
"d3-instructions","126","647416","0.0-67.0","2607","5039","9","Female","false","false","true","false","""event"",""trial"",""time""
""fullscreenenter"",""5"",""17971""
","
","
","""event"",""trial"",""time""
""fullscreenenter"",""5"",""17971""
","
","","","","","","","","","","","","","","","","","","","","","",""
"d3-instructions","127","667979","0.0-68.0","2607","5039","9","Female","false","false","true","false","""event"",""trial"",""time""
""fullscreenenter"",""5"",""17971""
","
","
","""event"",""trial"",""time""
""fullscreenenter"",""5"",""17971""
","
","","","","","","","","","","","","","","","","","","","","","",""
"instructions-quiz","128","672973","0.0-69.0","2607","5039","9","Female","false","false","true","false","""event"",""trial"",""time""
""fullscreenenter"",""5"",""17971""
","
","
","""event"",""trial"",""time""
""fullscreenenter"",""5"",""17971""
","
","4990.70000000298","audio/quiz/Q1_Prompt.wav","","1","","","","","","","","","","","","","","","","","",""
"audio-keyboard-response","129","682148","0.0-70.0","2607","5039","9","Female","false","false","true","false","""event"",""trial"",""time""
""fullscreenenter"",""5"",""17971""
","
","
","""event"",""trial"",""time""
""fullscreenenter"",""5"",""17971""
","
","null","audio/quiz/Q1_Correct.wav","null","","","","","","","","","","","","","","","","","","",""
"instructions-quiz","130","692448","0.0-71.0","2607","5039","9","Female","false","false","true","false","""event"",""trial"",""time""
""fullscreenenter"",""5"",""17971""
","
","
","""event"",""trial"",""time""
""fullscreenenter"",""5"",""17971""
","
","10294.70000000298","audio/quiz/Q2_Prompt.wav","","1","","","","","","","","","","","","","","","","","",""
"audio-keyboard-response","131","706524","0.0-72.0","2607","5039","9","Female","false","false","true","false","""event"",""trial"",""time""
""fullscreenenter"",""5"",""17971""
","
","
","""event"",""trial"",""time""
""fullscreenenter"",""5"",""17971""
","
","null","audio/quiz/Q2_Incorrect.wav","null","","","","","","","","","","","","","","","","","","",""
"instructions-quiz","132","711479","0.0-73.0","2607","5039","9","Female","false","false","true","false","""event"",""trial"",""time""
""fullscreenenter"",""5"",""17971""
","
","
","""event"",""trial"",""time""
""fullscreenenter"",""5"",""17971""
","
","4952.29999999702","audio/quiz/Q3_Prompt.wav","","1","","","","","","","","","","","","","","","","","",""
"audio-keyboard-response","133","717280","0.0-74.0","2607","5039","9","Female","false","false","true","false","""event"",""trial"",""time""
""fullscreenenter"",""5"",""17971""
","
","
","""event"",""trial"",""time""
""fullscreenenter"",""5"",""17971""
","
","null","audio/quiz/Q3_Correct.wav","null","","","","","","","","","","","","","","","","","","",""
"d3-instructions","134","737346","0.0-75.0","2607","5039","9","Female","false","false","true","false","""event"",""trial"",""time""
""fullscreenenter"",""5"",""17971""
","
","
","""event"",""trial"",""time""
""fullscreenenter"",""5"",""17971""
","
","","","","","","","","","","","","","","","","","","","","","",""
"d3-animate-choice","135","740681","0.0-76.0-0.0","2607","5039","9","Female","false","false","true","false","""event"",""trial"",""time""
""fullscreenenter"",""5"",""17971""
","
","
","""event"",""trial"",""time""
""fullscreenenter"",""5"",""17971""
","
","1322.9000000059605","","48","","","3000","1","","","images/earth.jpg","images/rocket1","images/rocket2","null","images/rocket1","","1","real","null","2","","",""
"d3-animate-choice","136","743960","0.0-76.0-1.0","2607","5039","9","Female","false","false","true","false","""event"",""trial"",""time""
""fullscreenenter"",""5"",""17971""
","
","
","""event"",""trial"",""time""
""fullscreenenter"",""5"",""17971""
","
","1265.7999999970198","","49","","","3000","1","","","images/purpleplanet.jpg","images/alien4","images/alien3","images/rocket1","images/alien3","images/nothing.png","2","real","true","1","common","0","2022-12-07 23:11:40.291"
"two-step-fixation","137","744969","0.0-76.0-2.0","2607","5039","9","Female","false","false","true","false","""event"",""trial"",""time""
""fullscreenenter"",""5"",""17971""
","
","
","""event"",""trial"",""time""
""fullscreenenter"",""5"",""17971""
","
","","images/earth.jpg","","","","","","","","","","","","","","fixation","","","","","",""
"d3-animate-choice","138","747385","0.0-76.0-0.1","2607","5039","9","Female","false","false","true","false","""event"",""trial"",""time""
""fullscreenenter"",""5"",""17971""
","
","
","""event"",""trial"",""time""
""fullscreenenter"",""5"",""17971""
","
","410.70000000298023","","49","","","3000","1","","","images/earth.jpg","images/rocket1","images/rocket2","null","images/rocket2","","1","real","null","1","","",""
"d3-animate-choice","139","749835","0.0-76.0-1.1","2607","5039","9","Female","false","false","true","false","""event"",""trial"",""time""
""fullscreenenter"",""5"",""17971""
","
","
","""event"",""trial"",""time""
""fullscreenenter"",""5"",""17971""
","
","439.90000000596046","","48","","","3000","1","","","images/redplanet1.jpg","images/alien2","images/alien1","images/rocket2","images/alien2","images/t.png","2","real","true","2","common","1","2022-12-07 23:11:46.166"
"two-step-fixation","140","750844","0.0-76.0-2.1","2607","5039","9","Female","false","false","true","false","""event"",""trial"",""time""
""fullscreenenter"",""5"",""17971""
","
","
","""event"",""trial"",""time""
""fullscreenenter"",""5"",""17971""
","
","","images/earth.jpg","","","","","","","","","","","","","","fixation","","","","","",""
"d3-animate-choice","141","753210","0.0-76.0-0.2","2607","5039","9","Female","false","false","true","false","""event"",""trial"",""time""
""fullscreenenter"",""5"",""17971""
","
","
","""event"",""trial"",""time""
""fullscreenenter"",""5"",""17971""
","
","358.70000000298023","","49","","","3000","1","","","images/earth.jpg","images/rocket1","images/rocket2","null","images/rocket2","","1","real","null","1","","",""
"d3-animate-choice","142","756035","0.0-76.0-1.2","2607","5039","9","Female","false","false","true","false","""event"",""trial"",""time""
""fullscreenenter"",""5"",""17971""
","
","
","""event"",""trial"",""time""
""fullscreenenter"",""5"",""17971""
","
","810.0999999940395","","48","","","3000","1","","","images/purpleplanet.jpg","images/alien4","images/alien3","images/rocket2","images/alien4","images/t.png","2","real","false","2","rare","1","2022-12-07 23:11:52.366"
"two-step-fixation","143","757049","0.0-76.0-2.2","2607","5039","9","Female","false","false","true","false","""event"",""trial"",""time""
""fullscreenenter"",""5"",""17971""
","
","
","""event"",""trial"",""time""
""fullscreenenter"",""5"",""17971""
","
","","images/earth.jpg","","","","","","","","","","","","","","fixation","","","","","",""
"d3-animate-choice","144","760201","0.0-76.0-0.3","2607","5039","9","Female","false","false","true","false","""event"",""trial"",""time""
""fullscreenenter"",""5"",""17971""
","
","
","""event"",""trial"",""time""
""fullscreenenter"",""5"",""17971""
","
","1143","","48","","","3000","1","","","images/earth.jpg","images/rocket1","images/rocket2","null","images/rocket1","","1","real","null","2","","",""
"d3-animate-choice","145","763835","0.0-76.0-1.3","2607","5039","9","Female","false","false","true","false","""event"",""trial"",""time""
""fullscreenenter"",""5"",""17971""
","
","
","""event"",""trial"",""time""
""fullscreenenter"",""5"",""17971""
","
","1620.3999999910593","","48","","","3000","1","","","images/purpleplanet.jpg","images/alien4","images/alien3","images/rocket1","images/alien4","images/t.png","2","real","true","2","common","1","2022-12-07 23:12:00.166"
"two-step-fixation","146","764844","0.0-76.0-2.3","2607","5039","9","Female","false","false","true","false","""event"",""trial"",""time""
""fullscreenenter"",""5"",""17971""
","
","
","""event"",""trial"",""time""
""fullscreenenter"",""5"",""17971""
","
","","images/earth.jpg","","","","","","","","","","","","","","fixation","","","","","",""
"d3-animate-choice","147","767537","0.0-76.0-0.4","2607","5039","9","Female","false","false","true","false","""event"",""trial"",""time""
""fullscreenenter"",""5"",""17971""
","
","
","""event"",""trial"",""time""
""fullscreenenter"",""5"",""17971""
","
","684.2000000029802","","49","","","3000","1","","","images/earth.jpg","images/rocket1","images/rocket2","null","images/rocket2","","1","real","null","1","","",""
"d3-animate-choice","148","770569","0.0-76.0-1.4","2607","5039","9","Female","false","false","true","false","""event"",""trial"",""time""
""fullscreenenter"",""5"",""17971""
","
","
","""event"",""trial"",""time""
""fullscreenenter"",""5"",""17971""
","
","1018.9000000059605","","48","","","3000","1","","","images/purpleplanet.jpg","images/alien4","images/alien3","images/rocket2","images/alien4","images/t.png","2","real","false","2","rare","1","2022-12-07 23:12:06.900"
"two-step-fixation","149","771577","0.0-76.0-2.4","2607","5039","9","Female","false","false","true","false","""event"",""trial"",""time""
""fullscreenenter"",""5"",""17971""
","
","
","""event"",""trial"",""time""
""fullscreenenter"",""5"",""17971""
","
","","images/earth.jpg","","","","","","","","","","","","","","fixation","","","","","",""
"d3-animate-choice","150","774809","0.0-76.0-0.5","2607","5039","9","Female","false","false","true","false","""event"",""trial"",""time""
""fullscreenenter"",""5"",""17971""
","
","
","""event"",""trial"",""time""
""fullscreenenter"",""5"",""17971""
","
","1225.5","","48","","","3000","1","","","images/earth.jpg","images/rocket1","images/rocket2","null","images/rocket1","","1","real","null","2","","",""
"d3-animate-choice","151","776901","0.0-76.0-1.5","2607","5039","9","Female","false","false","true","false","""event"",""trial"",""time""
""fullscreenenter"",""5"",""17971""
","
","
","""event"",""trial"",""time""
""fullscreenenter"",""5"",""17971""
","
","80.5","","49","","","3000","1","","","images/purpleplanet.jpg","images/alien4","images/alien3","images/rocket1","images/alien3","images/nothing.png","2","real","true","1","common","0","2022-12-07 23:12:13.232"
"two-step-fixation","152","777910","0.0-76.0-2.5","2607","5039","9","Female","false","false","true","false","""event"",""trial"",""time""
""fullscreenenter"",""5"",""17971""
","
","
","""event"",""trial"",""time""
""fullscreenenter"",""5"",""17971""
","
","","images/earth.jpg","","","","","","","","","","","","","","fixation","","","","","",""
"d3-animate-choice","153","780400","0.0-76.0-0.6","2607","5039","9","Female","false","false","true","false","""event"",""trial"",""time""
""fullscreenenter"",""5"",""17971""
","
","
","""event"",""trial"",""time""
""fullscreenenter"",""5"",""17971""
","
","478.80000001192093","","49","","","3000","1","","","images/earth.jpg","images/rocket1","images/rocket2","null","images/rocket2","","1","real","null","1","","",""
"d3-animate-choice","154","782952","0.0-76.0-1.6","2607","5039","9","Female","false","false","true","false","""event"",""trial"",""time""
""fullscreenenter"",""5"",""17971""
","
","
","""event"",""trial"",""time""
""fullscreenenter"",""5"",""17971""
","
","542.9000000059605","","48","","","3000","1","","","images/redplanet1.jpg","images/alien2","images/alien1","images/rocket2","images/alien2","images/nothing.png","2","real","true","2","common","0","2022-12-07 23:12:19.284"
"two-step-fixation","155","783961","0.0-76.0-2.6","2607","5039","9","Female","false","false","true","false","""event"",""trial"",""time""
""fullscreenenter"",""5"",""17971""
","
","
","""event"",""trial"",""time""
""fullscreenenter"",""5"",""17971""
","
","","images/earth.jpg","","","","","","","","","","","","","","fixation","","","","","",""
"d3-animate-choice","156","786617","0.0-76.0-0.7","2607","5039","9","Female","false","false","true","false","""event"",""trial"",""time""
""fullscreenenter"",""5"",""17971""
","
","
","""event"",""trial"",""time""
""fullscreenenter"",""5"",""17971""
","
","643.2000000029802","","49","","","3000","1","","","images/earth.jpg","images/rocket1","images/rocket2","null","images/rocket2","","1","real","null","1","","",""
"d3-animate-choice","157","790377","0.0-76.0-1.7","2607","5039","9","Female","false","false","true","false","""event"",""trial"",""time""
""fullscreenenter"",""5"",""17971""
","
","
","""event"",""trial"",""time""
""fullscreenenter"",""5"",""17971""
","
","1753.7000000029802","","48","","","3000","1","","","images/redplanet1.jpg","images/alien2","images/alien1","images/rocket2","images/alien2","images/t.png","2","real","true","2","common","1","2022-12-07 23:12:26.708"
"two-step-fixation","158","791385","0.0-76.0-2.7","2607","5039","9","Female","false","false","true","false","""event"",""trial"",""time""
""fullscreenenter"",""5"",""17971""
","
","
","""event"",""trial"",""time""
""fullscreenenter"",""5"",""17971""
","
","","images/earth.jpg","","","","","","","","","","","","","","fixation","","","","","",""
"d3-animate-choice","159","793961","0.0-76.0-0.8","2607","5039","9","Female","false","false","true","false","""event"",""trial"",""time""
""fullscreenenter"",""5"",""17971""
","
","
","""event"",""trial"",""time""
""fullscreenenter"",""5"",""17971""
","
","565.6999999880791","","48","","","3000","1","","","images/earth.jpg","images/rocket1","images/rocket2","null","images/rocket1","","1","real","null","2","","",""
"d3-animate-choice","160","796993","0.0-76.0-1.8","2607","5039","9","Female","false","false","true","false","""event"",""trial"",""time""
""fullscreenenter"",""5"",""17971""
","
","
","""event"",""trial"",""time""
""fullscreenenter"",""5"",""17971""
","
","1025.5","","49","","","3000","1","","","images/purpleplanet.jpg","images/alien4","images/alien3","images/rocket1","images/alien3","images/nothing.png","2","real","true","1","common","0","2022-12-07 23:12:33.325"
"two-step-fixation","161","798001","0.0-76.0-2.8","2607","5039","9","Female","false","false","true","false","""event"",""trial"",""time""
""fullscreenenter"",""5"",""17971""
","
","
","""event"",""trial"",""time""
""fullscreenenter"",""5"",""17971""
","
","","images/earth.jpg","","","","","","","","","","","","","","fixation","","","","","",""
"d3-animate-choice","162","801156","0.0-76.0-0.9","2607","5039","9","Female","false","false","true","false","""event"",""trial"",""time""
""fullscreenenter"",""5"",""17971""
","
","
","""event"",""trial"",""time""
""fullscreenenter"",""5"",""17971""
","
","1144.2999999970198","","48","","","3000","1","","","images/earth.jpg","images/rocket1","images/rocket2","null","images/rocket1","","1","real","null","2","","",""
"d3-animate-choice","163","804833","0.0-76.0-1.9","2607","5039","9","Female","false","false","true","false","""event"",""trial"",""time""
""fullscreenenter"",""5"",""17971""
","
","
","""event"",""trial"",""time""
""fullscreenenter"",""5"",""17971""
","
","1669.4000000059605","","49","","","3000","1","1878.300000011921","49","images/purpleplanet.jpg","images/alien4","images/alien3","images/rocket1","images/alien3","images/t.png","2","real","true","1","common","1","2022-12-07 23:12:41.164"
"two-step-fixation","164","805841","0.0-76.0-2.9","2607","5039","9","Female","false","false","true","false","""event"",""trial"",""time""
""fullscreenenter"",""5"",""17971""
","
","
","""event"",""trial"",""time""
""fullscreenenter"",""5"",""17971""
","
","","images/earth.jpg","","","","","","","","","","","","","","fixation","","","","","",""
"d3-animate-choice","165","809081","0.0-76.0-0.10","2607","5039","9","Female","false","false","true","false","""event"",""trial"",""time""
""fullscreenenter"",""5"",""17971""
","
","
","""event"",""trial"",""time""
""fullscreenenter"",""5"",""17971""
","
","1232.7000000029802","","48","","","3000","1","","","images/earth.jpg","images/rocket1","images/rocket2","null","images/rocket1","","1","real","null","2","","",""
"d3-animate-choice","166","811609","0.0-76.0-1.10","2607","5039","9","Female","false","false","true","false","""event"",""trial"",""time""
""fullscreenenter"",""5"",""17971""
","
","
","""event"",""trial"",""time""
""fullscreenenter"",""5"",""17971""
","
","517.5","","49","","","3000","1","","","images/redplanet1.jpg","images/alien2","images/alien1","images/rocket1","images/alien1","images/t.png","2","real","false","1","rare","1","2022-12-07 23:12:47.940"
"two-step-fixation","167","812617","0.0-76.0-2.10","2607","5039","9","Female","false","false","true","false","""event"",""trial"",""time""
""fullscreenenter"",""5"",""17971""
","
","
","""event"",""trial"",""time""
""fullscreenenter"",""5"",""17971""
","
","","images/earth.jpg","","","","","","","","","","","","","","fixation","","","","","",""
"d3-animate-choice","168","816628","0.0-76.0-0.11","2607","5039","9","Female","false","false","true","false","""event"",""trial"",""time""
""fullscreenenter"",""5"",""17971""
","
","
","""event"",""trial"",""time""
""fullscreenenter"",""5"",""17971""
","
","2298.5999999940395","","48","","","3000","1","","","images/earth.jpg","images/rocket1","images/rocket2","null","images/rocket1","","1","real","null","2","","",""
"d3-animate-choice","169","820649","0.0-76.0-1.11","2607","5039","9","Female","false","false","true","false","""event"",""trial"",""time""
""fullscreenenter"",""5"",""17971""
","
","
","""event"",""trial"",""time""
""fullscreenenter"",""5"",""17971""
","
","2500","","48","","","3000","1","","","images/purpleplanet.jpg","images/alien4","images/alien3","images/rocket1","images/alien4","images/t.png","2","real","true","2","common","1","2022-12-07 23:12:56.981"
"two-step-fixation","170","821657","0.0-76.0-2.11","2607","5039","9","Female","false","false","true","false","""event"",""trial"",""time""
""fullscreenenter"",""5"",""17971""
","
","
","""event"",""trial"",""time""
""fullscreenenter"",""5"",""17971""
","
","","images/earth.jpg","","","","","","","","","","","","","","fixation","","","","","",""
"d3-animate-choice","171","824094","0.0-76.0-0.12","2607","5039","9","Female","false","false","true","false","""event"",""trial"",""time""
""fullscreenenter"",""5"",""17971""
","
","
","""event"",""trial"",""time""
""fullscreenenter"",""5"",""17971""
","
","427.90000000596046","","48","","","3000","1","","","images/earth.jpg","images/rocket1","images/rocket2","null","images/rocket1","","1","real","null","2","","",""
"d3-animate-choice","172","826847","0.0-76.0-1.12","2607","5039","9","Female","false","false","true","false","""event"",""trial"",""time""
""fullscreenenter"",""5"",""17971""
","
","
","""event"",""trial"",""time""
""fullscreenenter"",""5"",""17971""
","
","747.2999999970198","","48","","","3000","1","","","images/purpleplanet.jpg","images/alien4","images/alien3","images/rocket1","images/alien4","images/nothing.png","2","real","true","2","common","0","2022-12-07 23:13:03.178"
"two-step-fixation","173","827855","0.0-76.0-2.12","2607","5039","9","Female","false","false","true","false","""event"",""trial"",""time""
""fullscreenenter"",""5"",""17971""
","
","
","""event"",""trial"",""time""
""fullscreenenter"",""5"",""17971""
","
","","images/earth.jpg","","","","","","","","","","","","","","fixation","","","","","",""
"d3-animate-choice","174","830591","0.0-76.0-0.13","2607","5039","9","Female","false","false","true","false","""event"",""trial"",""time""
""fullscreenenter"",""5"",""17971""
","
","
","""event"",""trial"",""time""
""fullscreenenter"",""5"",""17971""
","
","724.2999999970198","","49","","","3000","1","2086.9000000059605","49","images/earth.jpg","images/rocket1","images/rocket2","null","images/rocket2","","1","real","null","1","","",""
"d3-animate-choice","175","833247","0.0-76.0-1.13","2607","5039","9","Female","false","false","true","false","""event"",""trial"",""time""
""fullscreenenter"",""5"",""17971""
","
","
","""event"",""trial"",""time""
""fullscreenenter"",""5"",""17971""
","
","649","","49","","","3000","1","1766.2999999970198","48","images/redplanet1.jpg","images/alien2","images/alien1","images/rocket2","images/alien1","images/t.png","2","real","true","1","common","1","2022-12-07 23:13:09.579"
"two-step-fixation","176","834256","0.0-76.0-2.13","2607","5039","9","Female","false","false","true","false","""event"",""trial"",""time""
""fullscreenenter"",""5"",""17971""
","
","
","""event"",""trial"",""time""
""fullscreenenter"",""5"",""17971""
","
","","images/earth.jpg","","","","","","","","","","","","","","fixation","","","","","",""
"d3-animate-choice","177","836408","0.0-76.0-0.14","2607","5039","9","Female","false","false","true","false","""event"",""trial"",""time""
""fullscreenenter"",""5"",""17971""
","
","
","""event"",""trial"",""time""
""fullscreenenter"",""5"",""17971""
","
","143.5","","48","","","3000","1","661.7999999970198,888.6000000089407,1086.6000000089407,1623.7999999970198,1837,2137.2999999970198","49,48,49,49,48,49","images/earth.jpg","images/rocket1","images/rocket2","null","images/rocket1","","1","real","null","2","","",""
"d3-animate-choice","178","838671","0.0-76.0-1.14","2607","5039","9","Female","false","false","true","false","""event"",""trial"",""time""
""fullscreenenter"",""5"",""17971""
","
","
","""event"",""trial"",""time""
""fullscreenenter"",""5"",""17971""
","
","254.69999998807907","","48","","","3000","1","546.8999999910593,799.6999999880791,1100.5,1398.699999988079,1646.699999988079,1942.699999988079,2210.3999999910593","49,48,49,48,49,48,49","images/purpleplanet.jpg","images/alien4","images/alien3","images/rocket1","images/alien4","images/t.png","2","real","true","2","common","1","2022-12-07 23:13:15.002"
"two-step-fixation","179","839680","0.0-76.0-2.14","2607","5039","9","Female","false","false","true","false","""event"",""trial"",""time""
""fullscreenenter"",""5"",""17971""
","
","
","""event"",""trial"",""time""
""fullscreenenter"",""5"",""17971""
","
","","images/earth.jpg","","","","","","","","","","","","","","fixation","","","","","",""
"d3-animate-choice","180","841692","0.0-76.0-0.15","2607","5039","9","Female","false","false","true","false","""event"",""trial"",""time""
""fullscreenenter"",""5"",""17971""
","
","
","""event"",""trial"",""time""
""fullscreenenter"",""5"",""17971""
","
","5.5","","48","","","3000","1","22,323.70000000298023,490.09999999403954,814.5,1011.7999999970198,1325.5,1515.7999999970198,1825.2000000029802","49,48,49,48,49,48,49,48","images/earth.jpg","images/rocket1","images/rocket2","null","images/rocket1","","1","real","null","2","","",""
"d3-animate-choice","181","843730","0.0-76.0-1.15","2607","5039","9","Female","false","false","true","false","""event"",""trial"",""time""
""fullscreenenter"",""5"",""17971""
","
","
","""event"",""trial"",""time""
""fullscreenenter"",""5"",""17971""
","
","29.900000005960464","","49","","","3000","1","358.40000000596046,486.40000000596046,849.5,946.0999999940395,1316,1392.0999999940395,1790.4000000059605,1845.4000000059605","48,49,48,49,48,49,49,48","images/redplanet1.jpg","images/alien2","images/alien1","images/rocket1","images/alien1","images/nothing.png","2","real","false","1","rare","0","2022-12-07 23:13:20.061"
"two-step-fixation","182","844735","0.0-76.0-2.15","2607","5039","9","Female","false","false","true","false","""event"",""trial"",""time""
""fullscreenenter"",""5"",""17971""
","
","
","""event"",""trial"",""time""
""fullscreenenter"",""5"",""17971""
","
","","images/earth.jpg","","","","","","","","","","","","","","fixation","","","","","",""
"d3-animate-choice","183","846946","0.0-76.0-0.16","2607","5039","9","Female","false","false","true","false","""event"",""trial"",""time""
""fullscreenenter"",""5"",""17971""
","
","
","""event"",""trial"",""time""
""fullscreenenter"",""5"",""17971""
","
","197.3999999910593","","49","","","3000","1","232.79999999701977,711.3999999910593,721.7000000029802,1205.5,1219.7000000029802,1696.3999999910593,1731.0999999940395,2178,2179.3999999910593","48,49,48,48,49,49,48,49,48","images/earth.jpg","images/rocket1","images/rocket2","null","images/rocket2","","1","real","null","1","","",""
"d3-animate-choice","184","849376","0.0-76.0-1.16","2607","5039","9","Female","false","false","true","false","""event"",""trial"",""time""
""fullscreenenter"",""5"",""17971""
","
","
","""event"",""trial"",""time""
""fullscreenenter"",""5"",""17971""
","
","419.79999999701977","","49","","","3000","1","438.29999999701977,847.0999999940395,887.2000000029802,1356.7999999970198,1371.2000000029802,1798,1813.5999999940395,2229.5,2244.2999999970198","48,49,48,48,49,48,49,49,48","images/redplanet1.jpg","images/alien2","images/alien1","images/rocket2","images/alien1","images/nothing.png","2","real","true","1","common","0","2022-12-07 23:13:25.707"
"two-step-fixation","185","850386","0.0-76.0-2.16","2607","5039","9","Female","false","false","true","false","""event"",""trial"",""time""
""fullscreenenter"",""5"",""17971""
","
","
","""event"",""trial"",""time""
""fullscreenenter"",""5"",""17971""
","
","","images/earth.jpg","","","","","","","","","","","","","","fixation","","","","","",""
"d3-animate-choice","186","852605","0.0-76.0-0.17","2607","5039","9","Female","false","false","true","false","""event"",""trial"",""time""
""fullscreenenter"",""5"",""17971""
","
","
","""event"",""trial"",""time""
""fullscreenenter"",""5"",""17971""
","
","209.90000000596046","","48","","","3000","1","211.1000000089407,711.3000000119209,727,1172.9000000059605,1187.1000000089407,1677.1000000089407,1678.800000011921,2137.300000011921,2177.2000000029802","49,49,48,49,48,48,49,48,49","images/earth.jpg","images/rocket1","images/rocket2","null","images/rocket1","","1","real","null","2","","",""
"d3-animate-choice","187","854986","0.0-76.0-1.17","2607","5039","9","Female","false","false","true","false","""event"",""trial"",""time""
""fullscreenenter"",""5"",""17971""
","
","
","""event"",""trial"",""time""
""fullscreenenter"",""5"",""17971""
","
","371.59999999403954","","49","","","3000","1","389.20000000298023,841.0999999940395,875.7000000029802,1300.0999999940395,1306.5,1774.0999999940395,1791.7000000029802,2267.2000000029802,2310.0999999940395","48,48,49,49,48,49,48,49,48","images/purpleplanet.jpg","images/alien4","images/alien3","images/rocket1","images/alien3","images/t.png","2","real","true","1","common","1","2022-12-07 23:13:31.317"
"two-step-fixation","188","855992","0.0-76.0-2.17","2607","5039","9","Female","false","false","true","false","""event"",""trial"",""time""
""fullscreenenter"",""5"",""17971""
","
","
","""event"",""trial"",""time""
""fullscreenenter"",""5"",""17971""
","
","","images/earth.jpg","","","","","","","","","","","","","","fixation","","","","","",""
"d3-animate-choice","189","858154","0.0-76.0-0.18","2607","5039","9","Female","false","false","true","false","""event"",""trial"",""time""
""fullscreenenter"",""5"",""17971""
","
","
","""event"",""trial"",""time""
""fullscreenenter"",""5"",""17971""
","
","152.3999999910593","","49","","","3000","1","224.79999999701977,651.7999999970198,662.0999999940395,852.5,872.1999999880791,1036.5999999940395,1084,1250.5,1269.8999999910593,1461.0999999940395,1462.5,1865.199999988079,1875.7999999970198","48,48,49,48,49,48,49,48,49,49,48,49,48","images/earth.jpg","images/rocket1","images/rocket2","null","images/rocket2","","1","real","null","1","","",""
"d3-animate-choice","190","860304","0.0-76.0-1.18","2607","5039","9","Female","false","false","true","false","""event"",""trial"",""time""
""fullscreenenter"",""5"",""17971""
","
","
","""event"",""trial"",""time""
""fullscreenenter"",""5"",""17971""
","
","142.59999999403954","","49","","","3000","1","144.70000000298023,338.20000000298023,527.7999999970198,671,710.5999999940395,885.5999999940395,888,1049.9000000059605,1061.0999999940395,1230.4000000059605,1260.2999999970198,1431.4000000059605,1441.9000000059605,1601.5,1639.9000000059605,1819.4000000059605,1833.9000000059605,1994.5,2018.2000000029802","48,49,48,49,48,49,48,49,48,49,48,49,48,49,48,48,49,49,48","images/redplanet1.jpg","images/alien2","images/alien1","images/rocket2","images/alien1","images/t.png","2","real","true","1","common","1","2022-12-07 23:13:36.635"
"two-step-fixation","191","861313","0.0-76.0-2.18","2607","5039","9","Female","false","false","true","false","""event"",""trial"",""time""
""fullscreenenter"",""5"",""17971""
","
","
","""event"",""trial"",""time""
""fullscreenenter"",""5"",""17971""
","
","","images/earth.jpg","","","","","","","","","","","","","","fixation","","","","","",""
"d3-animate-choice","192","864088","0.0-76.0-0.19","2607","5039","9","Female","false","false","true","false","""event"",""trial"",""time""
""fullscreenenter"",""5"",""17971""
","
","
","""event"",""trial"",""time""
""fullscreenenter"",""5"",""17971""
","
","769.5","","48","","","3000","1","","","images/earth.jpg","images/rocket1","images/rocket2","null","images/rocket1","","1","real","null","2","","",""
"d3-animate-choice","193","866704","0.0-76.0-1.19","2607","5039","9","Female","false","false","true","false","""event"",""trial"",""time""
""fullscreenenter"",""5"",""17971""
","
","
","""event"",""trial"",""time""
""fullscreenenter"",""5"",""17971""
","
","609.1999999880791","","48","","","3000","1","","","images/redplanet1.jpg","images/alien2","images/alien1","images/rocket1","images/alien2","images/nothing.png","2","real","false","2","rare","0","2022-12-07 23:13:43.035"
"two-step-fixation","194","867712","0.0-76.0-2.19","2607","5039","9","Female","false","false","true","false","""event"",""trial"",""time""
""fullscreenenter"",""5"",""17971""
","
","
","""event"",""trial"",""time""
""fullscreenenter"",""5"",""17971""
","
","","images/earth.jpg","","","","","","","","","","","","","","fixation","","","","","",""
"d3-animate-choice","195","869943","0.0-76.0-0.20","2607","5039","9","Female","false","false","true","false","""event"",""trial"",""time""
""fullscreenenter"",""5"",""17971""
","
","
","""event"",""trial"",""time""
""fullscreenenter"",""5"",""17971""
","
","220.5","","49","","","3000","1","341.29999999701977,569.5,777.4000000059605,966.2999999970198,1078.5,1130.9000000059605,1271.7999999970198,1478,1688.7999999970198,1903.9000000059605,2128.9000000059605,2142.7000000029802","48,49,48,49,48,49,48,48,48,49,49,48","images/earth.jpg","images/rocket1","images/rocket2","null","images/rocket2","","1","real","null","1","","",""
"d3-animate-choice","196","873958","0.0-76.0-1.20","2607","5039","9","Female","false","false","true","false","""event"",""trial"",""time""
""fullscreenenter"",""5"",""17971""
","
","
","""event"",""trial"",""time""
""fullscreenenter"",""5"",""17971""
","
","null","","null","","","3000","0","","","images/redplanet1.jpg","images/alien2","images/alien1","images/rocket2","","","2","real","true","","common","0","2022-12-07 23:13:50.289"
"two-step-fixation","197","874968","0.0-76.0-2.20","2607","5039","9","Female","false","false","true","false","""event"",""trial"",""time""
""fullscreenenter"",""5"",""17971""
","
","
","""event"",""trial"",""time""
""fullscreenenter"",""5"",""17971""
","
","","images/earth.jpg","","","","","","","","","","","","","","fixation","","","","","",""
"d3-animate-choice","198","877056","0.0-76.0-0.21","2607","5039","9","Female","false","false","true","false","""event"",""trial"",""time""
""fullscreenenter"",""5"",""17971""
","
","
","""event"",""trial"",""time""
""fullscreenenter"",""5"",""17971""
","
","77.40000000596046","","49","","","3000","1","","","images/earth.jpg","images/rocket1","images/rocket2","null","images/rocket2","","1","real","null","1","","",""
"d3-animate-choice","199","879719","0.0-76.0-1.21","2607","5039","9","Female","false","false","true","false","""event"",""trial"",""time""
""fullscreenenter"",""5"",""17971""
","
","
","""event"",""trial"",""time""
""fullscreenenter"",""5"",""17971""
","
","653.9000000059605","","48","","","3000","1","","","images/redplanet1.jpg","images/alien2","images/alien1","images/rocket2","images/alien2","images/nothing.png","2","real","true","2","common","0","2022-12-07 23:13:56.051"
"two-step-fixation","200","880728","0.0-76.0-2.21","2607","5039","9","Female","false","false","true","false","""event"",""trial"",""time""
""fullscreenenter"",""5"",""17971""
","
","
","""event"",""trial"",""time""
""fullscreenenter"",""5"",""17971""
","
","","images/earth.jpg","","","","","","","","","","","","","","fixation","","","","","",""
"d3-animate-choice","201","883142","0.0-76.0-0.22","2607","5039","9","Female","false","false","true","false","""event"",""trial"",""time""
""fullscreenenter"",""5"",""17971""
","
","
","""event"",""trial"",""time""
""fullscreenenter"",""5"",""17971""
","
","404","","49","","","3000","1","755.4000000059605","50","images/earth.jpg","images/rocket1","images/rocket2","null","images/rocket2","","1","real","null","1","","",""
"d3-animate-choice","202","885216","0.0-76.0-1.22","2607","5039","9","Female","false","false","true","false","""event"",""trial"",""time""
""fullscreenenter"",""5"",""17971""
","
","
","""event"",""trial"",""time""
""fullscreenenter"",""5"",""17971""
","
","67.29999999701977","","48","","","3000","1","","","images/redplanet1.jpg","images/alien2","images/alien1","images/rocket2","images/alien2","images/nothing.png","2","real","true","2","common","0","2022-12-07 23:14:01.547"
"two-step-fixation","203","886224","0.0-76.0-2.22","2607","5039","9","Female","false","false","true","false","""event"",""trial"",""time""
""fullscreenenter"",""5"",""17971""
","
","
","""event"",""trial"",""time""
""fullscreenenter"",""5"",""17971""
","
","","images/earth.jpg","","","","","","","","","","","","","","fixation","","","","","",""
"d3-animate-choice","204","888495","0.0-76.0-0.23","2607","5039","9","Female","false","false","true","false","""event"",""trial"",""time""
""fullscreenenter"",""5"",""17971""
","
","
","""event"",""trial"",""time""
""fullscreenenter"",""5"",""17971""
","
","267.09999999403954","","49","","","3000","1","2179.2000000029802","48","images/earth.jpg","images/rocket1","images/rocket2","null","images/rocket2","","1","real","null","1","","",""
"d3-animate-choice","205","892512","0.0-76.0-1.23","2607","5039","9","Female","false","false","true","false","""event"",""trial"",""time""
""fullscreenenter"",""5"",""17971""
","
","
","""event"",""trial"",""time""
""fullscreenenter"",""5"",""17971""
","
","3464.1000000089407","","49","","","3000","0","","","images/redplanet1.jpg","images/alien2","images/alien1","images/rocket2","","","2","real","true","1","common","0","2022-12-07 23:14:08.843"
"two-step-fixation","206","893520","0.0-76.0-2.23","2607","5039","9","Female","false","false","true","false","""event"",""trial"",""time""
""fullscreenenter"",""5"",""17971""
","
","
","""event"",""trial"",""time""
""fullscreenenter"",""5"",""17971""
","
","","images/earth.jpg","","","","","","","","","","","","","","fixation","","","","","",""
"d3-animate-choice","207","896456","0.0-76.0-0.24","2607","5039","9","Female","false","false","true","false","""event"",""trial"",""time""
""fullscreenenter"",""5"",""17971""
","
","
","""event"",""trial"",""time""
""fullscreenenter"",""5"",""17971""
","
","923.7999999970198","","48","","","3000","1","","","images/earth.jpg","images/rocket1","images/rocket2","null","images/rocket1","","1","real","null","2","","",""
"d3-animate-choice","208","899072","0.0-76.0-1.24","2607","5039","9","Female","false","false","true","false","""event"",""trial"",""time""
""fullscreenenter"",""5"",""17971""
","
","
","""event"",""trial"",""time""
""fullscreenenter"",""5"",""17971""
","
","610.2000000029802","","49","","","3000","1","","","images/redplanet1.jpg","images/alien2","images/alien1","images/rocket1","images/alien1","images/t.png","2","real","false","1","rare","1","2022-12-07 23:14:15.403"
"two-step-fixation","209","900080","0.0-76.0-2.24","2607","5039","9","Female","false","false","true","false","""event"",""trial"",""time""
""fullscreenenter"",""5"",""17971""
","
","
","""event"",""trial"",""time""
""fullscreenenter"",""5"",""17971""
","
","","images/earth.jpg","","","","","","","","","","","","","","fixation","","","","","",""
"d3-animate-choice","210","903359","0.0-76.0-0.25","2607","5039","9","Female","false","false","true","false","""event"",""trial"",""time""
""fullscreenenter"",""5"",""17971""
","
","
","""event"",""trial"",""time""
""fullscreenenter"",""5"",""17971""
","
","1268.3999999910593","","48","","","3000","1","1787.699999988079","49","images/earth.jpg","images/rocket1","images/rocket2","null","images/rocket1","","1","real","null","2","","",""
"d3-animate-choice","211","905926","0.0-76.0-1.25","2607","5039","9","Female","false","false","true","false","""event"",""trial"",""time""
""fullscreenenter"",""5"",""17971""
","
","
","""event"",""trial"",""time""
""fullscreenenter"",""5"",""17971""
","
","556.5","","48","","","3000","1","","","images/purpleplanet.jpg","images/alien4","images/alien3","images/rocket1","images/alien4","images/t.png","2","real","true","2","common","1","2022-12-07 23:14:22.257"
"two-step-fixation","212","906936","0.0-76.0-2.25","2607","5039","9","Female","false","false","true","false","""event"",""trial"",""time""
""fullscreenenter"",""5"",""17971""
","
","
","""event"",""trial"",""time""
""fullscreenenter"",""5"",""17971""
","
","","images/earth.jpg","","","","","","","","","","","","","","fixation","","","","","",""
"d3-animate-choice","213","909378","0.0-76.0-0.26","2607","5039","9","Female","false","false","true","false","""event"",""trial"",""time""
""fullscreenenter"",""5"",""17971""
","
","
","""event"",""trial"",""time""
""fullscreenenter"",""5"",""17971""
","
","428.70000000298023","","49","","","3000","1","429.59999999403954","48","images/earth.jpg","images/rocket1","images/rocket2","null","images/rocket2","","1","real","null","1","","",""
"d3-animate-choice","214","911961","0.0-76.0-1.26","2607","5039","9","Female","false","false","true","false","""event"",""trial"",""time""
""fullscreenenter"",""5"",""17971""
","
","
","""event"",""trial"",""time""
""fullscreenenter"",""5"",""17971""
","
","571.4000000059605","","48","","","3000","1","","","images/redplanet1.jpg","images/alien2","images/alien1","images/rocket2","images/alien2","images/t.png","2","real","true","2","common","1","2022-12-07 23:14:28.292"
"two-step-fixation","215","912967","0.0-76.0-2.26","2607","5039","9","Female","false","false","true","false","""event"",""trial"",""time""
""fullscreenenter"",""5"",""17971""
","
","
","""event"",""trial"",""time""
""fullscreenenter"",""5"",""17971""
","
","","images/earth.jpg","","","","","","","","","","","","","","fixation","","","","","",""
"d3-animate-choice","216","915425","0.0-76.0-0.27","2607","5039","9","Female","false","false","true","false","""event"",""trial"",""time""
""fullscreenenter"",""5"",""17971""
","
","
","""event"",""trial"",""time""
""fullscreenenter"",""5"",""17971""
","
","452.59999999403954","","48","","","3000","1","","","images/earth.jpg","images/rocket1","images/rocket2","null","images/rocket1","","1","real","null","2","","",""
"d3-animate-choice","217","918050","0.0-76.0-1.27","2607","5039","9","Female","false","false","true","false","""event"",""trial"",""time""
""fullscreenenter"",""5"",""17971""
","
","
","""event"",""trial"",""time""
""fullscreenenter"",""5"",""17971""
","
","610.7000000029802","","48","","","3000","1","","","images/purpleplanet.jpg","images/alien4","images/alien3","images/rocket1","images/alien4","images/t.png","2","real","true","2","common","1","2022-12-07 23:14:34.382"
"two-step-fixation","218","919056","0.0-76.0-2.27","2607","5039","9","Female","false","false","true","false","""event"",""trial"",""time""
""fullscreenenter"",""5"",""17971""
","
","
","""event"",""trial"",""time""
""fullscreenenter"",""5"",""17971""
","
","","images/earth.jpg","","","","","","","","","","","","","","fixation","","","","","",""
"d3-animate-choice","219","922344","0.0-76.0-0.28","2607","5039","9","Female","false","false","true","false","""event"",""trial"",""time""
""fullscreenenter"",""5"",""17971""
","
","
","""event"",""trial"",""time""
""fullscreenenter"",""5"",""17971""
","
","1279.7000000029802","","49","","","3000","1","2384.5","48","images/earth.jpg","images/rocket1","images/rocket2","null","images/rocket2","","1","real","null","1","","",""
"d3-animate-choice","220","924968","0.0-76.0-1.28","2607","5039","9","Female","false","false","true","false","""event"",""trial"",""time""
""fullscreenenter"",""5"",""17971""
","
","
","""event"",""trial"",""time""
""fullscreenenter"",""5"",""17971""
","
","612","","48","","","3000","1","2468.9000000059605","49","images/redplanet1.jpg","images/alien2","images/alien1","images/rocket2","images/alien2","images/t.png","2","real","true","2","common","1","2022-12-07 23:14:41.299"
"two-step-fixation","221","925977","0.0-76.0-2.28","2607","5039","9","Female","false","false","true","false","""event"",""trial"",""time""
""fullscreenenter"",""5"",""17971""
","
","
","""event"",""trial"",""time""
""fullscreenenter"",""5"",""17971""
","
","","images/earth.jpg","","","","","","","","","","","","","","fixation","","","","","",""
"d3-animate-choice","222","929993","0.0-76.0-0.29","2607","5039","9","Female","false","false","true","false","""event"",""trial"",""time""
""fullscreenenter"",""5"",""17971""
","
","
","""event"",""trial"",""time""
""fullscreenenter"",""5"",""17971""
","
","2640.4000000059605","","49","","","3000","1","3005.1000000089407","48","images/earth.jpg","images/rocket1","images/rocket2","null","images/rocket2","","1","real","null","1","","",""
"d3-animate-choice","223","932783","0.0-76.0-1.29","2607","5039","9","Female","false","false","true","false","""event"",""trial"",""time""
""fullscreenenter"",""5"",""17971""
","
","
","""event"",""trial"",""time""
""fullscreenenter"",""5"",""17971""
","
","784.2999999970198","","49","","","3000","1","1556.5,2302.5","49,49","images/redplanet1.jpg","images/alien2","images/alien1","images/rocket2","images/alien1","images/t.png","2","real","true","1","common","1","2022-12-07 23:14:49.115"
"two-step-fixation","224","933796","0.0-76.0-2.29","2607","5039","9","Female","false","false","true","false","""event"",""trial"",""time""
""fullscreenenter"",""5"",""17971""
","
","
","""event"",""trial"",""time""
""fullscreenenter"",""5"",""17971""
","
","","images/earth.jpg","","","","","","","","","","","","","","fixation","","","","","",""
"d3-animate-choice","225","936026","0.0-76.0-0.30","2607","5039","9","Female","false","false","true","false","""event"",""trial"",""time""
""fullscreenenter"",""5"",""17971""
","
","
","""event"",""trial"",""time""
""fullscreenenter"",""5"",""17971""
","
","224.09999999403954","","48","","","3000","1","","","images/earth.jpg","images/rocket1","images/rocket2","null","images/rocket1","","1","real","null","2","","",""
"d3-animate-choice","226","938736","0.0-76.0-1.30","2607","5039","9","Female","false","false","true","false","""event"",""trial"",""time""
""fullscreenenter"",""5"",""17971""
","
","
","""event"",""trial"",""time""
""fullscreenenter"",""5"",""17971""
","
","702.9000000059605","","49","","","3000","1","795.4000000059605","48","images/redplanet1.jpg","images/alien2","images/alien1","images/rocket1","images/alien1","images/nothing.png","2","real","false","1","rare","0","2022-12-07 23:14:55.067"
"two-step-fixation","227","939743","0.0-76.0-2.30","2607","5039","9","Female","false","false","true","false","""event"",""trial"",""time""
""fullscreenenter"",""5"",""17971""
","
","
","""event"",""trial"",""time""
""fullscreenenter"",""5"",""17971""
","
","","images/earth.jpg","","","","","","","","","","","","","","fixation","","","","","",""
"d3-animate-choice","228","942143","0.0-76.0-0.31","2607","5039","9","Female","false","false","true","false","""event"",""trial"",""time""
""fullscreenenter"",""5"",""17971""
","
","
","""event"",""trial"",""time""
""fullscreenenter"",""5"",""17971""
","
","393.69999998807907","","49","","","3000","1","","","images/earth.jpg","images/rocket1","images/rocket2","null","images/rocket2","","1","real","null","1","","",""
"d3-animate-choice","229","944520","0.0-76.0-1.31","2607","5039","9","Female","false","false","true","false","""event"",""trial"",""time""
""fullscreenenter"",""5"",""17971""
","
","
","""event"",""trial"",""time""
""fullscreenenter"",""5"",""17971""
","
","369.8999999910593","","48","","","3000","1","","","images/redplanet1.jpg","images/alien2","images/alien1","images/rocket2","images/alien2","images/nothing.png","2","real","true","2","common","0","2022-12-07 23:15:00.851"
"two-step-fixation","230","945526","0.0-76.0-2.31","2607","5039","9","Female","false","false","true","false","""event"",""trial"",""time""
""fullscreenenter"",""5"",""17971""
","
","
","""event"",""trial"",""time""
""fullscreenenter"",""5"",""17971""
","
","","images/earth.jpg","","","","","","","","","","","","","","fixation","","","","","",""
"d3-animate-choice","231","948799","0.0-76.0-0.32","2607","5039","9","Female","false","false","true","false","""event"",""trial"",""time""
""fullscreenenter"",""5"",""17971""
","
","
","""event"",""trial"",""time""
""fullscreenenter"",""5"",""17971""
","
","735.8999999910593","","57","","","3000","1","1262.199999988079","48","images/earth.jpg","images/rocket1","images/rocket2","null","images/rocket1","","1","real","null","","","",""
"d3-animate-choice","232","951264","0.0-76.0-1.32","2607","5039","9","Female","false","false","true","false","""event"",""trial"",""time""
""fullscreenenter"",""5"",""17971""
","
","
","""event"",""trial"",""time""
""fullscreenenter"",""5"",""17971""
","
","458.30000001192093","","48","","","3000","1","","","images/redplanet1.jpg","images/alien2","images/alien1","images/rocket1","images/alien2","images/t.png","2","real","false","2","rare","1","2022-12-07 23:15:07.595"
"two-step-fixation","233","952276","0.0-76.0-2.32","2607","5039","9","Female","false","false","true","false","""event"",""trial"",""time""
""fullscreenenter"",""5"",""17971""
","
","
","""event"",""trial"",""time""
""fullscreenenter"",""5"",""17971""
","
","","images/earth.jpg","","","","","","","","","","","","","","fixation","","","","","",""
"d3-animate-choice","234","955110","0.0-76.0-0.33","2607","5039","9","Female","false","false","true","false","""event"",""trial"",""time""
""fullscreenenter"",""5"",""17971""
","
","
","""event"",""trial"",""time""
""fullscreenenter"",""5"",""17971""
","
","826.5999999940395","","49","","","3000","1","","","images/earth.jpg","images/rocket1","images/rocket2","null","images/rocket2","","1","real","null","1","","",""
"d3-animate-choice","235","957909","0.0-76.0-1.33","2607","5039","9","Female","false","false","true","false","""event"",""trial"",""time""
""fullscreenenter"",""5"",""17971""
","
","
","""event"",""trial"",""time""
""fullscreenenter"",""5"",""17971""
","
","794","","49","","","3000","1","","","images/redplanet1.jpg","images/alien2","images/alien1","images/rocket2","images/alien1","images/t.png","2","real","true","1","common","1","2022-12-07 23:15:14.241"
"two-step-fixation","236","958920","0.0-76.0-2.33","2607","5039","9","Female","false","false","true","false","""event"",""trial"",""time""
""fullscreenenter"",""5"",""17971""
","
","
","""event"",""trial"",""time""
""fullscreenenter"",""5"",""17971""
","
","","images/earth.jpg","","","","","","","","","","","","","","fixation","","","","","",""
"d3-animate-choice","237","961168","0.0-76.0-0.34","2607","5039","9","Female","false","false","true","false","""event"",""trial"",""time""
""fullscreenenter"",""5"",""17971""
","
","
","""event"",""trial"",""time""
""fullscreenenter"",""5"",""17971""
","
","236.70000000298023","","49","","","3000","1","1699.9000000059605","49","images/earth.jpg","images/rocket1","images/rocket2","null","images/rocket2","","1","real","null","1","","",""
"d3-animate-choice","238","963672","0.0-76.0-1.34","2607","5039","9","Female","false","false","true","false","""event"",""trial"",""time""
""fullscreenenter"",""5"",""17971""
","
","
","""event"",""trial"",""time""
""fullscreenenter"",""5"",""17971""
","
","497","","49","","","3000","1","1518.9000000059605","49","images/purpleplanet.jpg","images/alien4","images/alien3","images/rocket2","images/alien3","images/t.png","2","real","false","1","rare","1","2022-12-07 23:15:20.003"
"two-step-fixation","239","964682","0.0-76.0-2.34","2607","5039","9","Female","false","false","true","false","""event"",""trial"",""time""
""fullscreenenter"",""5"",""17971""
","
","
","""event"",""trial"",""time""
""fullscreenenter"",""5"",""17971""
","
","","images/earth.jpg","","","","","","","","","","","","","","fixation","","","","","",""
